time,seconds_elapsed,z,y,x
1789757532611004200,0.057004150390625,0.2140161544084549,0.19625872373580933,0.09412117302417755
1789757532621015300,0.067015380859375,0.027579430490732193,0.2806953191757202,-0.09532997757196426
1789757532631026200,0.077026123046875,0.18035778403282166,0.2087593376636505,-0.05035345256328583
1789757532641037300,0.087037353515625,0.1169804185628891,0.14318113029003143,-0.13458816707134247
1789757532651048200,0.097048095703125,0.18428994715213776,0.1402098387479782,0.04790094494819641
1789757532661060400,0.107060302734375,0.07474374771118164,0.1854601353406906,0.0028280108235776424
1789757532671071200,0.1170712890625,0.02731737494468689,0.17159892618656158,0.054912518709897995
1789757532681082400,0.127082275390625,0.005080778617411852,0.21958695352077484,0.04669932648539543
1789757532691093200,0.13709326171875,-0.040826525539159775,0.20366869866847992,0.06782538443803787
1789757532701104000,0.147104248046875,-0.0672496110200882,0.21719303727149963,-0.029768016189336777
1789757532711115000,0.157114990234375,-0.0459618978202343,0.16418787837028503,0.0012663330417126417
1789757532721126400,0.16712646484375,-0.13015614449977875,0.10992996394634247,-0.08063625544309616
1789757532731137300,0.17713720703125,-0.15068085491657257,0.19781933724880219,0.08571996539831161
1789757532741148200,0.187148193359375,-0.3058145046234131,0.0993414968252182,-0.09681522846221924
1789757532751159300,0.1971591796875,-0.2618563771247864,0.14263145625591278,0.0354464091360569
1789757532761170200,0.207170166015625,-0.45689404010772705,0.11677881330251694,-0.133351668715477
1789757532771182300,0.217182373046875,-0.5115373134613037,0.1543847769498825,0.019103121012449265
1789757532781193200,0.227193115234375,-0.5375339984893799,0.18143370747566223,0.14341868460178375
1789757532791204000,0.2372041015625,-0.5702610611915588,0.1054752916097641,0.06399176269769669
1789757532801215200,0.24721533203125,-0.4928254187107086,0.05341049283742905,-0.03215287625789642
1789757532811226000,0.25722607421875,-0.5159376263618469,0.00598545465618372,-0.19397905468940735
1789757532821237200,0.2672373046875,-0.479202538728714,0.023964455351233482,-0.05222965031862259
1789757532831248400,0.277248291015625,-0.4630286395549774,0.0694696232676506,0.14192543923854828
1789757532841259300,0.28725927734375,-0.43407368659973145,0.05817515403032303,0.19737698137760162
1789757532851270100,0.297270263671875,-0.31772735714912415,0.13863325119018555,0.1059996709227562
1789757532861281300,0.30728125,-0.20951460301876068,0.0590774342417717,-0.04319354146718979
1789757532871292200,0.317292236328125,-0.08503127098083496,0.08967369049787521,-0.05037502199411392
1789757532881303300,0.32730322265625,-0.046590406447649,0.06768077611923218,-0.09925121814012527
1789757532891315200,0.337315185546875,-0.07711528986692429,0.07747109234333038,-0.11636469513177872
1789757532901326000,0.347326171875,0.01016981340944767,0.10118307918310165,0.19396814703941345
1789757532911337200,0.357337158203125,0.018509501591324806,0.1394718736410141,0.04909510910511017
1789757532921348400,0.367348388671875,0.1606767624616623,0.12465191632509232,0.15218660235404968
1789757532931359200,0.377359130859375,0.08237263560295105,0.12299010157585144,-0.10879359394311905
1789757532941370400,0.387370361328125,0.10188987851142883,0.12379224598407745,0.06449350714683533
1789757532951381200,0.39738134765625,0.09464395046234131,0.03399152308702469,0.09844294935464859
1789757532961392000,0.40739208984375,0.10834991186857224,0.016108928248286247,0.17331239581108093
1789757532971403000,0.417403076171875,0.017822140827775,0.10515305399894714,0.19669441878795624
1789757532981414400,0.427414306640625,-0.043361056596040726,0.1194092184305191,0.008197209797799587
1789757532991425300,0.43742529296875,-0.03561871498823166,0.12106730043888092,0.08908913284540176
1789757533001437200,0.447437255859375,-0.060077451169490814,0.11188845336437225,0.050511378794908524
1789757533011448000,0.457447998046875,0.01817500963807106,0.06420402228832245,0.07312320917844772
1789757533021459200,0.467459228515625,0.07575415074825287,0.10774590075016022,0.035948146134614944
1789757533031470300,0.47747021484375,0.0883687436580658,0.1386958360671997,0.08377639204263687
1789757533041481200,0.487481201171875,0.08176171034574509,0.14805445075035095,0.10984261333942413
1789757533051492000,0.4974921875,0.05194256082177162,0.13189278542995453,-0.020772922784090042
1789757533061503200,0.507503173828125,-0.03382853791117668,0.15305133163928986,-0.05922577157616615
1789757533071514000,0.51751416015625,-0.05763666331768036,0.17234887182712555,0.043727774173021317
1789757533081525200,0.527525146484375,-0.20693746209144592,0.11082877963781357,-0.044267330318689346
1789757533091536400,0.537536376953125,-0.24431520700454712,0.0789874941110611,0.04065341874957085
1789757533101547300,0.54754736328125,-0.35484862327575684,0.061095576733350754,-0.03448979929089546
1789757533111559200,0.55755908203125,-0.39430761337280273,0.12261886149644852,0.10433173179626465
1789757533121570000,0.567570068359375,-0.48941364884376526,0.014026070013642311,-0.03327086940407753
1789757533131581200,0.577581298828125,-0.5116561055183411,0.023479226976633072,0.009140501730144024
1789757533141592300,0.58759228515625,-0.6196177005767822,-0.01101776398718357,-0.0639539510011673
1789757533151603200,0.597603271484375,-0.5697742700576782,-0.007564975414425135,0.0663451999425888
1789757533161614000,0.607614013671875,-0.6392452120780945,-0.019512182101607323,0.027767982333898544
1789757533171625200,0.617625244140625,-0.6559112668037415,-0.026745060458779335,-0.029981069266796112
1789757533181636400,0.62763623046875,-0.6884177923202515,-0.046432480216026306,-0.07344252616167068
1789757533191647200,0.637647216796875,-0.6268085241317749,-0.041127994656562805,0.1608453392982483
1789757533201658400,0.647658447265625,-0.6671761870384216,-0.05452262982726097,0.11917459219694138
1789757533211669200,0.657669189453125,-0.6598314642906189,-0.0510442741215229,0.09869036078453064
1789757533221681200,0.66768115234375,-0.7547840476036072,-0.05341954901814461,-0.08692663908004761
1789757533231692300,0.6776923828125,-0.6464290618896484,-0.12322445958852768,-0.06369855254888535
1789757533241703200,0.687703125,-0.5963906645774841,-0.1488051861524582,-0.07000678032636642
1789757533251714300,0.69771435546875,-0.5682021975517273,-0.21244488656520844,-0.1244114339351654
1789757533261725200,0.70772509765625,-0.559105396270752,-0.16541612148284912,-0.13973206281661987
1789757533271736000,0.717736083984375,-0.5691774487495422,-0.13349281251430511,0.012576778419315815
1789757533281747200,0.727747314453125,-0.5384365916252136,-0.11163385212421417,-0.08272311091423035
1789757533291758300,0.73775830078125,-0.41648802161216736,-0.15959446132183075,-0.04399808496236801
1789757533301769200,0.747769287109375,-0.379750519990921,-0.2361890971660614,-0.26187261939048767
1789757533311780000,0.757780029296875,-0.3096465468406677,-0.2023935765028,-0.12252165377140045
1789757533321791200,0.767791259765625,-0.25499048829078674,-0.18514002859592438,0.07860133796930313
1789757533331803400,0.777803466796875,-0.288369745016098,-0.126161128282547,0.2547345459461212
1789757533341814300,0.787814208984375,-0.27238836884498596,-0.0795867070555687,0.2655389904975891
1789757533351825200,0.7978251953125,-0.1553530991077423,-0.13439056277275085,0.23395736515522003
1789757533361836300,0.807836181640625,-0.0477888286113739,-0.15825967490673065,0.04159564524888992
1789757533371847200,0.81784716796875,0.0675705224275589,-0.19883613288402557,-0.11818469315767288
1789757533381858000,0.827858154296875,0.13554158806800842,-0.23226679861545563,-0.24459217488765717
1789757533391869200,0.837869140625,0.10528034716844559,-0.1842515915632248,-0.14104394614696503
1789757533401880300,0.84788037109375,0.06154858320951462,-0.09938091784715652,-0.02166188508272171
1789757533411891700,0.8578916015625,0.008139685727655888,-0.06030861288309097,-0.03232065588235855
1789757533421902600,0.867902587890625,0.0730355978012085,-0.07625828683376312,-0.02918718010187149
1789757533431913700,0.877913818359375,0.18589237332344055,-0.20215949416160583,-0.2306728959083557
1789757533441926000,0.88792578125,0.23074160516262054,-0.13951475918293,-0.12081270664930344
1789757533451936800,0.897936767578125,0.19375082850456238,-0.17107374966144562,-0.15495815873146057
1789757533461947600,0.90794775390625,0.20183272659778595,-0.12269929051399231,-0.029460953548550606
1789757533471958500,0.91795849609375,0.12431316077709198,-0.15831001102924347,-0.15096421539783478
1789757533481970000,0.927969970703125,0.15233175456523895,-0.16058994829654694,0.15109950304031372
1789757533491980800,0.937980712890625,0.138190358877182,-0.1047021746635437,0.18100281059741974
1789757533501991700,0.94799169921875,0.13148878514766693,-0.19200299680233002,0.0019273296929895878
1789757533512002800,0.9580029296875,0.15342551469802856,-0.15724873542785645,-0.03700648620724678
1789757533522013700,0.968013671875,0.13556687533855438,-0.227682963013649,-0.12178555876016617
1789757533532024600,0.978024658203125,0.1567469984292984,-0.2359696477651596,-0.06070888787508011
1789757533542035700,0.98803564453125,0.11791598051786423,-0.22560596466064453,-0.05729258432984352
1789757533552047600,0.998047607421875,0.05865319445729256,-0.2066945880651474,-0.02273993380367756
1789757533562058800,1.008058837890625,0.02792217768728733,-0.20189450681209564,0.07325903326272964
1789757533572069600,1.018069580078125,-0.045581597834825516,-0.11056672781705856,0.27567312121391296
1789757533582080500,1.02808056640625,-0.03514546900987625,-0.06101168692111969,0.11766964197158813
1789757533592092000,1.038091796875,0.07233917713165283,-0.09775105863809586,0.007085073739290237
1789757533602102800,1.048102783203125,0.21843352913856506,-0.18463216722011566,-0.10350508987903595
1789757533612113700,1.05811376953125,0.32826095819473267,-0.1952025145292282,0.02279852330684662
1789757533622124500,1.06812451171875,0.2754771113395691,-0.1360989809036255,-0.002019208623096347
1789757533632135700,1.0781357421875,0.1867043673992157,-0.07077191025018692,-0.003867442486807704
1789757533642146800,1.088146728515625,0.1899648755788803,-0.09452011436223984,-0.03473854064941406
1789757533652157700,1.09815771484375,0.2578651010990143,-0.13901780545711517,-0.086924247443676
1789757533662168800,1.1081689453125,0.2910962998867035,-0.19462727010250092,-0.050696201622486115
1789757533672180700,1.1181806640625,0.23580826818943024,-0.12427934259176254,-0.06895403563976288
1789757533682191600,1.128191650390625,0.14887762069702148,-0.0992557480931282,-0.22571301460266113
1789757533692202800,1.13820263671875,0.16047169268131256,-0.027646275237202644,-0.13816852867603302
1789757533702214000,1.1482138671875,0.22590529918670654,-0.06011553481221199,-0.2614920437335968
1789757533712223700,1.1582236328125,0.3146476745605469,-0.028027374297380447,-0.0023451796732842922
1789757533722234600,1.168234619140625,0.3168517053127289,-0.05931844934821129,-0.036249082535505295
1789757533732246500,1.17824658203125,0.38340917229652405,-0.10048346221446991,0.15989859402179718
1789757533742258000,1.1882578125,0.34680694341659546,-0.06445249170064926,0.19192469120025635
1789757533752268800,1.198268798828125,0.22695058584213257,0.009958092123270035,0.29108163714408875
1789757533762279700,1.20827978515625,0.17110542953014374,0.06183993071317673,0.19874851405620575
1789757533772290800,1.218290771484375,0.2029552459716797,0.05666487663984299,0.13904976844787598
1789757533782301700,1.2283017578125,0.2960417866706848,-0.0007683219737373292,0.08578654378652573
1789757533792312600,1.2383125,0.3771984279155731,-0.03377740457653999,0.1934717297554016
1789757533802323700,1.24832373046875,0.3737938404083252,-0.034022681415081024,0.20549696683883667
1789757533812334800,1.2583349609375,0.29223158955574036,-0.048475924879312515,0.11349886655807495
1789757533822345700,1.268345703125,0.23535366356372833,-0.021796375513076782,0.13072019815444946
1789757533832356600,1.278356689453125,0.13902339339256287,0.010333597660064697,0.20749273896217346
1789757533842368500,1.288368408203125,0.09265457093715668,0.02936241589486599,0.08131323009729385
1789757533852380000,1.2983798828125,0.026214294135570526,0.04394641891121864,0.05655435472726822
1789757533862390800,1.308390869140625,0.07348886132240295,-0.027163976803421974,-0.01750841923058033
1789757533872401700,1.318401611328125,0.10993768274784088,-0.019046662375330925,0.12170912325382233
1789757533882412800,1.328412841796875,0.12332220375537872,-0.034987278282642365,0.024810008704662323
1789757533892423700,1.338423583984375,0.15177780389785767,-0.11528238654136658,-0.060139767825603485
1789757533902434800,1.348434814453125,0.1632818728685379,-0.12138129025697708,0.05441530421376228
1789757533912445700,1.35844580078125,0.02917706035077572,-0.008745022118091583,0.1774677336215973
1789757533922456800,1.368456787109375,-0.04206516221165657,0.04513578489422798,0.028567196801304817
1789757533932467700,1.3784677734375,-0.07884714752435684,0.062313176691532135,0.0446297861635685
1789757533942478600,1.388478515625,0.003251453395932913,0.05940340459346771,0.011986088939011097
1789757533952490800,1.39849072265625,0.08960232138633728,-0.008728777058422565,0.012557603418827057
1789757533962502000,1.408501953125,0.11793409287929535,0.02599191851913929,0.0291120782494545
1789757533972512800,1.4185126953125,0.05126425251364708,0.015415441244840622,-0.06623494625091553
1789757533982523600,1.428523681640625,0.09668366611003876,-0.02574770711362362,-0.12509799003601074
1789757533992534500,1.438534423828125,0.1273965686559677,-0.04493844509124756,-0.044079843908548355
1789757534002546000,1.4485458984375,0.04616430029273033,-0.0043308325111866,0.17150411009788513
1789757534012556800,1.458556884765625,-0.05167357996106148,0.07928523421287537,0.18627187609672546
1789757534022567700,1.468567626953125,-0.05037422478199005,0.058282215148210526,0.24508991837501526
1789757534032578800,1.478578857421875,0.004058923572301865,0.035893552005290985,-0.07066458463668823
1789757534042589700,1.488589599609375,0.09561280906200409,0.09218638390302658,0.07969482988119125
1789757534052600600,1.4986005859375,0.16643637418746948,0.03588023781776428,-0.11177819967269897
1789757534062612700,1.50861279296875,0.1921587884426117,0.015935024246573448,-0.003997937310487032
1789757534072623600,1.51862353515625,0.19120830297470093,0.041852109134197235,0.010417221114039421
1789757534082634800,1.528634765625,0.15487080812454224,0.04961815103888512,0.25838467478752136
1789757534092645600,1.538645751953125,0.07644763588905334,0.13615597784519196,0.0670354962348938
1789757534102656500,1.548656494140625,0.024820128455758095,0.11043410003185272,0.034803252667188644
1789757534112668000,1.55866796875,0.07866844534873962,0.061580538749694824,-0.2163136601448059
1789757534122678800,1.5686787109375,0.14880412817001343,0.05432209372520447,-0.07601726800203323
1789757534132689700,1.578689697265625,0.14430418610572815,0.0037643781397491693,-0.060143496841192245
1789757534142700800,1.58870068359375,0.1396804004907608,0.011481153778731823,0.07857497036457062
1789757534152711700,1.598711669921875,0.07243478298187256,0.008824650198221207,0.002912166528403759
1789757534162722800,1.608722900390625,0.04322310537099838,0.07282920181751251,0.07960907369852066
1789757534172734700,1.618734619140625,-0.009337308816611767,0.11647867411375046,-0.027240142226219177
1789757534182745600,1.62874560546875,0.05823454260826111,0.041304830461740494,-0.05410318076610565
1789757534192756700,1.6387568359375,0.13890275359153748,0.02990943007171154,-0.17226950824260712
1789757534202767600,1.648767578125,0.13996988534927368,0.09266442060470581,-0.021510351449251175
1789757534212778800,1.65877880859375,0.11209484934806824,0.035414982587099075,-0.193873330950737
1789757534222790000,1.668789794921875,0.15640239417552948,0.04906075447797775,-0.014753646217286587
1789757534232800800,1.67880078125,0.20263060927391052,-0.04030374810099602,-0.10644761472940445
1789757534242811600,1.688811767578125,0.2562304437160492,-0.006807039491832256,0.11043489724397659
1789757534252822500,1.698822509765625,0.15564578771591187,0.07840798795223236,0.03334464132785797
1789757534262834000,1.708833984375,0.10106349736452103,0.10016068816184998,-0.10285846889019012
1789757534272845800,1.718845703125,0.1584029495716095,0.12874652445316315,-0.09146333485841751
1789757534282856700,1.728856689453125,0.20901153981685638,0.1292264312505722,-0.05168343335390091
1789757534292867600,1.73886767578125,0.2102653533220291,0.17423704266548157,-0.04652409255504608
1789757534302878700,1.748878662109375,0.1825208067893982,0.17907866835594177,0.0181097611784935
1789757534312889900,1.758889892578125,0.20973245799541473,0.09240396320819855,-0.07114901393651962
1789757534322900700,1.768900634765625,0.22012996673583984,-0.01991431973874569,0.025653164833784103
1789757534332911600,1.77891162109375,0.11826539039611816,0.06175684183835983,0.05861644074320793
1789757534342922800,1.7889228515625,-0.06852713227272034,0.11575775593519211,-0.009580722078680992
1789757534352933600,1.79893359375,-0.16728194057941437,0.1583491563796997,-0.10463586449623108
1789757534362944500,1.808944580078125,-0.2160196453332901,0.2238437533378601,-0.09335072338581085
1789757534372956000,1.818955810546875,-0.16253244876861572,0.15827299654483795,-0.051720719784498215
1789757534382967800,1.8289677734375,-0.008764463476836681,0.1235634833574295,0.048237305134534836
1789757534392978700,1.838978759765625,0.05674317479133606,0.05703132972121239,0.05626034364104271
1789757534402989600,1.848989501953125,0.06795215606689453,0.0392155796289444,-0.020688500255346298
1789757534413000000,1.859,-0.07856245338916779,0.14949415624141693,0.01583249308168888
1789757534423011000,1.869010986328125,-0.21636027097702026,0.19766274094581604,-0.016201339662075043
1789757534433022000,1.87902197265625,-0.14983689785003662,0.14956951141357422,0.1068446934223175
1789757534443033000,1.889033203125,-0.1580713987350464,-0.02623293548822403,0.010849451646208763
1789757534453044000,1.8990439453125,-0.21206405758857727,0.04968792945146561,0.010901649482548237
1789757534463054800,1.909054931640625,-0.3098023235797882,0.03786215931177139,-0.09340451657772064
1789757534473065700,1.919065673828125,-0.3712286651134491,0.023240074515342712,0.0708422139286995
1789757534483077000,1.9290771484375,-0.3988246023654938,0.016895625740289688,0.04644526168704033
1789757534493089000,1.939089111328125,-0.46407127380371094,0.014508634805679321,0.1928432285785675
1789757534503100000,1.949099853515625,-0.46319055557250977,0.025541579350829124,0.05927450954914093
1789757534513110800,1.95911083984375,-0.437360018491745,0.03183383122086525,0.1357852667570114
1789757534523122200,1.9691220703125,-0.3939957618713379,-0.011900601908564568,0.03267432376742363
1789757534533133000,1.979133056640625,-0.36877164244651794,0.0274990014731884,0.12276240438222885
1789757534543144000,1.98914404296875,-0.37438079714775085,0.016813600435853004,-0.0943206399679184
1789757534553155000,1.999155029296875,-0.31478482484817505,-0.039801742881536484,-0.14550447463989258
1789757534563166000,2.009166015625,-0.248341366648674,-0.054131146520376205,-0.15756751596927643
1789757534573176800,2.0191767578125,-0.19488480687141418,-0.015243135392665863,0.12143775075674057
1789757534583188000,2.02918798828125,-0.19440703094005585,-0.04872626066207886,0.03749438002705574
1789757534593199900,2.039199951171875,-0.22671116888523102,-0.001711081014946103,0.1305641382932663
1789757534603211000,2.0492109375,-0.2531372010707855,-0.013066267594695091,0.06431187689304352
1789757534613222000,2.059221923828125,-0.2504260838031769,0.07628065347671509,0.09251928329467773
1789757534623233000,2.06923291015625,-0.2536573112010956,0.02201741747558117,-0.039094407111406326
1789757534633244200,2.079244140625,-0.1769566684961319,-0.008115983568131924,0.029148297384381294
1789757534643255000,2.089255126953125,-0.125283345580101,-0.07907431572675705,0.011269166134297848
1789757534653266000,2.099265869140625,-0.09807170182466507,-0.03159813955426216,0.21762633323669434
1789757534663276800,2.10927685546875,-0.14515505731105804,-0.03075338527560234,0.15591742098331451
1789757534673288000,2.119287841796875,-0.2358737736940384,0.011385812424123287,0.08403045684099197
1789757534683299000,2.129299072265625,-0.21486011147499084,-0.040354080498218536,0.05675728991627693
1789757534693310000,2.13931005859375,-0.16242192685604095,-0.023811323568224907,-0.006709301844239235
1789757534703321900,2.14932177734375,-0.16991446912288666,-0.05697007477283478,-0.09244151413440704
1789757534713333000,2.1593330078125,-0.15348809957504272,-0.047563523054122925,-0.05125945806503296
1789757534723344000,2.16934375,-0.2097175419330597,-0.04981575906276703,-0.10843007266521454
1789757534733355000,2.17935498046875,-0.18897897005081177,0.014813567511737347,-0.00894129741936922
1789757534743366000,2.189365966796875,-0.06365408003330231,-0.0864667147397995,-0.20007529854774475
1789757534753377000,2.199376953125,0.004887433256953955,-0.10617037862539291,-0.16441664099693298
1789757534763388000,2.209387939453125,-0.024756478145718575,-0.10847001522779465,-0.2515014708042145
1789757534773398800,2.219398681640625,-0.03695935010910034,-0.029741117730736732,-0.0860786885023117
1789757534783410200,2.22941015625,-0.08141576498746872,-0.030980553478002548,-0.09379679709672928
1789757534793421000,2.239421142578125,-0.053151633590459824,0.01944507099688053,0.09281115978956223
1789757534803433000,2.249432861328125,-0.038006238639354706,-0.09723733365535736,-0.15654726326465607
1789757534813443800,2.25944384765625,0.02677195891737938,-0.03593536466360092,0.08173667639493942
1789757534823455000,2.269455078125,0.05185733735561371,-0.14596253633499146,-0.061706505715847015
1789757534833466000,2.279466064453125,0.061035122722387314,-0.15600664913654327,-0.02341371402144432
1789757534843477000,2.28947705078125,-0.013732856139540672,-0.1286245584487915,-0.22795327007770538
1789757534853487900,2.29948779296875,-0.027238279581069946,-0.04038817062973976,0.0833582729101181
1789757534863499000,2.3094990234375,-0.04045315086841583,-0.0036493295338004827,0.09328281134366989
1789757534873510000,2.319510009765625,-0.04821839556097984,-0.030891336500644684,0.08607789129018784
1789757534883521000,2.32952099609375,0.04795926809310913,-0.09519869089126587,-0.1173093169927597
1789757534893532200,2.3395322265625,0.10265979915857315,-0.05634636431932449,0.060442838817834854
1789757534903543000,2.34954296875,0.10662204772233963,-0.04056314006447792,-0.08089271932840347
1789757534913555000,2.359554931640625,0.0948610007762909,-0.04801333323121071,0.10084006190299988
1789757534923565800,2.36956591796875,0.03178323060274124,-0.05403314158320427,-0.018381670117378235
1789757534933577000,2.379576904296875,-0.009243831969797611,-0.022119417786598206,0.16060273349285126
1789757534943588000,2.389588134765625,0.044433243572711945,-0.07732515037059784,-0.06857586652040482
1789757534953599000,2.399598876953125,0.051410458981990814,-0.08235825598239899,-0.16695143282413483
1789757534963609900,2.40960986328125,0.019329490140080452,-0.0692448541522026,-0.24848490953445435
1789757534973621000,2.41962109375,-0.022713568061590195,-0.030070817098021507,-0.10677304863929749
1789757534983632000,2.4296318359375,-0.03901184722781181,-0.035843219608068466,-0.15343749523162842
1789757534993643000,2.43964306640625,-0.002663427498191595,-0.11558065563440323,-0.04776352643966675
1789757535003654000,2.44965380859375,-0.025177258998155594,-0.11413056403398514,-0.04788736626505852
1789757535013665800,2.459665771484375,-0.17768530547618866,-0.01745462417602539,0.15791720151901245
1789757535023677000,2.469677001953125,-0.19393032789230347,-0.047753140330314636,0.03904886543750763
1789757535033688000,2.47968798828125,-0.15678241848945618,-0.06967388838529587,0.03560513257980347
1789757535043699000,2.489698974609375,-0.14538782835006714,-0.08742598444223404,0.07661169022321701
1789757535053710000,2.4997099609375,-0.15354588627815247,-0.08103599399328232,0.17290812730789185
1789757535063721000,2.509720947265625,-0.19114679098129272,0.006620884872972965,0.29034554958343506
1789757535073731800,2.51973193359375,-0.1509770005941391,-0.033474069088697433,0.29046857357025146
1789757535083743000,2.529742919921875,-0.0722973644733429,-0.09014720469713211,0.16869713366031647
1789757535093754000,2.539754150390625,-0.03814418986439705,-0.11264212429523468,-0.1259763091802597
1789757535103765000,2.549764892578125,0.08062613755464554,-0.06997215747833252,0.016277773305773735
1789757535113775900,2.55977587890625,0.10009810328483582,-0.08360035717487335,-0.12900884449481964
1789757535123787800,2.569787841796875,0.10269388556480408,-0.08213215321302414,0.05729444697499275
1789757535133799200,2.579799072265625,0.07686521857976913,-0.02959997020661831,0.012265721336007118
1789757535143810000,2.58981005859375,0.10575492680072784,-0.031670309603214264,-0.018876485526561737
1789757535153821000,2.599821044921875,0.1728452742099762,-0.062176287174224854,-0.09004466980695724
1789757535163832000,2.60983203125,0.22569172084331512,-0.08781880140304565,-0.1206345409154892
1789757535173843000,2.619843017578125,0.20222021639347076,-0.06593267619609833,-0.1424221247434616
1789757535183853800,2.629853759765625,0.18790411949157715,-0.022097844630479813,0.10375702381134033
1789757535193865000,2.639864990234375,0.14015577733516693,-0.03339790552854538,-0.07440632581710815
1789757535203876000,2.6498759765625,0.16699165105819702,-0.02370905689895153,-0.005156146362423897
1789757535213887000,2.659886962890625,0.06169505417346954,0.028804218396544456,-0.04884796589612961
1789757535223899000,2.66989892578125,0.06453238427639008,0.026513366028666496,-0.02112152986228466
1789757535233910000,2.679909912109375,0.0390576533973217,0.028679315000772476,-0.19049698114395142
1789757535243921200,2.689921142578125,0.14341388642787933,-0.028295554220676422,-0.13762550055980682
1789757535253932000,2.69993212890625,0.19581930339336395,-0.037510089576244354,0.03971012681722641
1789757535263943000,2.70994287109375,0.13156229257583618,-0.039676304906606674,0.18412137031555176
1789757535273953800,2.719953857421875,0.013857492245733738,0.012953083030879498,0.0976482629776001
1789757535283965000,2.72996484375,0.005772401578724384,0.0075761605985462666,0.08486002683639526
1789757535293976000,2.73997607421875,-0.021887721493840218,0.02454422414302826,0.10718823969364166
1789757535303987000,2.749987060546875,0.014196246862411499,0.02544623799622059,0.19449011981487274
1789757535313998000,2.759998046875,-0.06297097355127335,0.05218517407774925,-0.04132134094834328
1789757535324009000,2.770009033203125,-0.015512380748987198,0.011354386806488037,-0.09237280488014221
1789757535334020900,2.780020751953125,0.04486813768744469,-0.0278548002243042,-0.13228321075439453
1789757535344032000,2.790031982421875,0.07203610986471176,-0.03689729794859886,0.08396866917610168
1789757535354043000,2.80004296875,-0.0009765811264514923,-0.035956934094429016,0.052315935492515564
1789757535364054000,2.810053955078125,-0.05842389538884163,-0.014667092822492123,0.05669204145669937
1789757535374065000,2.82006494140625,-0.17913725972175598,0.02713548019528389,0.13910062611103058
1789757535384075800,2.83007568359375,-0.14349804818630219,0.04707057401537895,0.124470554292202
1789757535394087200,2.840087158203125,-0.15419089794158936,0.013260677456855774,0.11510688066482544
1789757535404098000,2.85009814453125,-0.0937134400010109,-0.014223144389688969,0.05606513470411301
1789757535414109000,2.86010888671875,-0.04891534522175789,-0.027898741886019707,0.006311958190053701
1789757535424120000,2.8701201171875,-0.016187759116292,-0.03858600929379463,0.0641867071390152
1789757535434132000,2.880132080078125,-0.030556578189134598,-0.022429408505558968,0.006705040577799082
1789757535444142800,2.890142822265625,0.020175309851765633,-0.029748573899269104,-0.022421685978770256
1789757535454153700,2.90015380859375,0.024937307462096214,-0.07536479830741882,0.094368577003479
1789757535464164900,2.910164794921875,0.01936677284538746,-0.005093828309327364,0.35171064734458923
1789757535474176000,2.920176025390625,-0.14119893312454224,0.07804100215435028,0.1963023990392685
1789757535484187000,2.930186767578125,-0.07893795520067215,0.006372944451868534,0.04182041808962822
1789757535494197800,2.94019775390625,-0.01726394146680832,-0.012447082437574863,-0.20786450803279877
1789757535504209000,2.950208984375,0.06367857754230499,-0.058096326887607574,0.005931392312049866
1789757535514220000,2.960219970703125,0.053884804248809814,-0.018637066707015038,0.04259646311402321
1789757535524231000,2.97023095703125,0.09243645519018173,-0.09729752689599991,0.124703049659729
1789757535534241800,2.98024169921875,0.005806223955005407,-0.04975796863436699,0.14289990067481995
1789757535544254000,2.99025390625,-0.0875580757856369,0.0713210478425026,0.21348032355308533
1789757535554264800,3.000264892578125,-0.1387709379196167,0.05789339169859886,-0.04580610245466232
1789757535564276000,3.01027587890625,-0.02737543173134327,-0.042285140603780746,-0.10965698957443237
1789757535574286800,3.020286865234375,-0.00872078724205494,-0.07051996886730194,-0.1569741666316986
1789757535584298000,3.030298095703125,0.0203942209482193,-0.022579343989491463,0.08237183839082718
1789757535594308900,3.040308837890625,0.05745770037174225,-0.1344773769378662,-0.015864983201026917
1789757535604319700,3.05031982421875,0.036616332828998566,-0.10145711898803711,0.054972704499959946
1789757535614331000,3.060330810546875,-0.03333265706896782,-0.0821494609117508,0.019955864176154137
1789757535624342000,3.070342041015625,-0.10504146665334702,0.07741676270961761,0.09524103254079819
1789757535634353000,3.080352783203125,-0.10464572161436081,0.07092690467834473,-0.1961042582988739
1789757535644364800,3.09036474609375,0.023864852264523506,-0.014824486337602139,-0.27776530385017395
1789757535654375700,3.100375732421875,0.1957647055387497,-0.04459249973297119,-0.17306499183177948
1789757535664387000,3.110386962890625,0.24581855535507202,-0.005820072256028652,-0.0037172401789575815
1789757535674398000,3.12039794921875,0.32824525237083435,-0.08234573900699615,0.03280694782733917
1789757535684408800,3.130408935546875,0.2348516583442688,-0.025064073503017426,-0.05543263256549835
1789757535694420000,3.140419921875,0.1283409297466278,0.11284452676773071,0.010319482535123825
1789757535704430800,3.150430908203125,0.10589980334043503,0.163670152425766,-0.04451926425099373
1789757535714441700,3.160441650390625,0.167947456240654,0.1864471137523651,-0.11582966148853302
1789757535724452900,3.170452880859375,0.2751902937889099,0.0833958238363266,-0.37126490473747253
1789757535734464000,3.180464111328125,0.3806842267513275,0.08055636286735535,-0.046352583914995193
1789757535744476000,3.190475830078125,0.396369993686676,0.0890587717294693,-0.007029680069535971
1789757535754486800,3.20048681640625,0.37592703104019165,0.10156390815973282,0.19763904809951782
1789757535764498000,3.210497802734375,0.371870756149292,0.05554208904504776,0.04102599620819092
1789757535774509000,3.220509033203125,0.21492642164230347,0.1532026082277298,0.15734487771987915
1789757535784520000,3.23052001953125,0.05609043315052986,0.31830713152885437,-0.0025840650778263807
1789757535794530800,3.24053076171875,0.13801220059394836,0.10619727522134781,-0.06432625651359558
1789757535804542000,3.2505419921875,0.15224812924861908,0.12982884049415588,-0.022758308798074722
1789757535814552800,3.260552734375,-0.009208944626152515,0.173307865858078,0.049562226980924606
1789757535824564000,3.27056396484375,-0.060316603630781174,0.19210605323314667,0.11790719628334045
1789757535834574800,3.280574951171875,-0.042510442435741425,0.10408379137516022,0.05475778877735138
1789757535844586000,3.2905859375,-0.14868880808353424,0.14866110682487488,0.11367729306221008
1789757535854598000,3.300597900390625,-0.24092020094394684,0.1622978299856186,-0.010311227291822433
1789757535864609000,3.310609130859375,-0.3246814012527466,0.12600693106651306,0.13934271037578583
1789757535874620000,3.320619873046875,-0.335480272769928,0.1072111427783966,0.10257484763860703
1789757535884631000,3.330631103515625,-0.3046954572200775,0.08854451030492783,0.20414142310619354
1789757535894642000,3.340641845703125,-0.33398276567459106,0.059478506445884705,-0.15770360827445984
1789757535904652800,3.35065283203125,-0.42020368576049805,-0.015994412824511528,-0.17229080200195312
1789757535914663700,3.36066357421875,-0.39569273591041565,0.0019568908028304577,-0.07780851423740387
1789757535924675000,3.370675048828125,-0.3575671911239624,-0.03254010155797005,0.05378946289420128
1789757535934686000,3.38068603515625,-0.425742506980896,-0.016475912183523178,0.0983329638838768
1789757535944696800,3.39069677734375,-0.37492379546165466,-0.01575978845357895,0.04693155735731125
1789757535954708700,3.400708740234375,-0.40461698174476624,-0.022527147084474564,-0.08066128939390182
1789757535964719900,3.410719970703125,-0.38993391394615173,-0.014217818155884743,-0.12590865790843964
1789757535974731000,3.42073095703125,-0.3893996775150299,-0.10824897885322571,-0.23313045501708984
1789757535984742000,3.430741943359375,-0.3177065849304199,-0.08570318669080734,-0.13167600333690643
1789757535994752800,3.440752685546875,-0.2776148319244385,-0.14794951677322388,-0.06353290379047394
1789757536004764000,3.450763916015625,-0.23433713614940643,-0.041902441531419754,0.20015892386436462
1789757536014774800,3.46077490234375,-0.20211873948574066,-0.02905428782105446,0.3123334050178528
1789757536024786000,3.470785888671875,-0.162546306848526,-0.04370540380477905,0.041561558842659
1789757536034797000,3.480797119140625,-0.1442842036485672,-0.015933159738779068,0.015310246497392654
1789757536044808000,3.490807861328125,-0.13279692828655243,-0.06405115127563477,-0.24838371574878693
1789757536054819800,3.50081982421875,-0.0691593661904335,-0.08407919108867645,-0.10622604191303253
1789757536064830700,3.510830810546875,-0.034084200859069824,-0.14366236329078674,-0.073987677693367
1789757536074841900,3.520841796875,-0.013251889497041702,-0.07131598889827728,0.2685374617576599
1789757536084853000,3.53085302734375,-0.09415020048618317,-0.10192609578371048,-0.1317894607782364
1789757536094864000,3.54086376953125,-0.023612918332219124,-0.11285970360040665,-0.073987677693367
1789757536104874800,3.550874755859375,-0.016469787806272507,-0.06385168433189392,-0.14504002034664154
1789757536114886000,3.560885986328125,-0.08551490306854248,-0.09535288065671921,-0.043892357498407364
1789757536124897000,3.57089697265625,-0.12561944127082825,-0.09532865136861801,-0.10604600608348846
1789757536134908000,3.580907958984375,0.001493500778451562,-0.14859506487846375,0.042825762182474136
1789757536144919000,3.5909189453125,0.03268364444375038,-0.15645937621593475,0.1638086438179016
1789757536154930000,3.600929931640625,-0.06687996536493301,-0.11242880672216415,-0.03075791336596012
1789757536164941800,3.61094189453125,-0.1479383260011673,-0.0551290325820446,-0.13909503817558289
1789757536174953000,3.620952880859375,-0.10441109538078308,-0.17638862133026123,-0.2479802370071411
1789757536184963800,3.6309638671875,-0.09533131122589111,-0.07723886519670486,0.06952368468046188
1789757536194975000,3.64097509765625,-0.09372276067733765,-0.14163969457149506,0.029606893658638
1789757536204985900,3.65098583984375,-0.05598177760839462,-0.1546444296836853,-0.05483368784189224
1789757536214996700,3.660996826171875,-0.08224693685770035,-0.19086502492427826,-0.301105260848999
1789757536225007900,3.6710078125,0.0763285905122757,-0.15735234320163727,0.15654246509075165
1789757536235019000,3.68101904296875,0.0538664273917675,-0.12630361318588257,0.09420718997716904
1789757536245030000,3.69102978515625,-0.043296076357364655,-0.054794006049633026,0.21133141219615936
1789757536255040800,3.701040771484375,0.0307557824999094,-0.09428761899471283,0.054481085389852524
1789757536265052700,3.711052734375,0.11734127253293991,0.024098943918943405,0.24899330735206604
1789757536275064000,3.72106396484375,0.09644238650798798,-0.04951215907931328,-0.03195633366703987
1789757536285075000,3.731074951171875,0.23457255959510803,-0.18645243346691132,-0.03628583624958992
1789757536295085800,3.7410859375,0.280861496925354,-0.09449215233325958,0.1360020488500595
1789757536305097000,3.751096923828125,0.2763170897960663,-0.07211067527532578,0.12344257533550262
1789757536315107800,3.76110791015625,0.31316378712654114,-0.03038613498210907,0.190270334482193
1789757536325118700,3.77111865234375,0.20224018394947052,-0.01685328222811222,0.05276281386613846
1789757536335129900,3.7811298828125,0.23714011907577515,0.050391003489494324,0.23366841673851013
1789757536345141000,3.79114111328125,0.25504136085510254,0.00503896689042449,0.12149927020072937
1789757536355152000,3.80115185546875,0.304657906293869,-0.050098322331905365,0.0763472318649292
1789757536365163800,3.811163818359375,0.3469313383102417,-0.11179870367050171,-0.02353222295641899
1789757536375175000,3.8211748046875,0.3012349307537079,-0.008205465972423553,0.025527730584144592
1789757536385186000,3.83118603515625,0.21842874586582184,0.02480228617787361,0.10966631025075912
1789757536395197000,3.841197021484375,0.2500615119934082,0.04599039629101753,0.10679621994495392
1789757536405207800,3.851207763671875,0.2980910837650299,0.02316870167851448,0.08406587690114975
1789757536415219200,3.86121923828125,0.3415807783603668,0.10302066057920456,0.1116010993719101
1789757536425230300,3.871230224609375,0.26347264647483826,0.06812312453985214,-0.25260987877845764
1789757536435241500,3.881241455078125,0.2635576128959656,0.028930451720952988,-0.21199241280555725
1789757536445252400,3.89125244140625,0.2573567032814026,0.05115799233317375,-0.1126362681388855
1789757536455263500,3.901263427734375,0.254523366689682,0.05528722330927849,0.17452973127365112
1789757536465275400,3.911275390625,0.18875233829021454,0.08913946151733398,0.11828163266181946
1789757536475286300,3.921286376953125,0.09888343513011932,0.14665628969669342,0.13001471757888794
1789757536485297400,3.93129736328125,0.04316265136003494,0.1448911428451538,0.05369571968913078
1789757536495308300,3.941308349609375,0.03080318681895733,0.20979636907577515,0.03364983946084976
1789757536505319400,3.9513193359375,0.01762453280389309,0.13229146599769592,-0.05945853143930435
1789757536515330300,3.961330322265625,0.10996484756469727,0.07041424512863159,-0.04757604002952576
1789757536525341200,3.971341064453125,0.09832310676574707,0.06811939924955368,-0.061648983508348465
1789757536535352300,3.981352294921875,-0.006219013594090939,0.12326574325561523,0.14121784269809723
1789757536545363500,3.991363525390625,-0.13350479304790497,0.1559762805700302,0.07507956773042679
1789757536555374300,4.001374267578125,-0.19590559601783752,0.28513720631599426,0.4989751875400543
1789757536565385200,4.01138525390625,-0.21838746964931488,0.19834744930267334,-0.16523076593875885
1789757536575397400,4.0213974609375,-0.09963764250278473,0.015861786901950836,-0.2839973568916321
1789757536585408500,4.031408447265625,-0.1504579484462738,0.03301707282662392,-0.30155399441719055
1789757536595419400,4.04141943359375,-0.07938510179519653,0.058641742914915085,0.04788470268249512
1789757536605430300,4.05143017578125,-0.24781273305416107,0.04192294925451279,0.17369243502616882
1789757536615441400,4.06144140625,-0.4192473292350769,0.09358108043670654,0.11402697116136551
1789757536625452300,4.071452392578125,-0.43222570419311523,0.1718476563692093,0.07340257614850998
1789757536635463200,4.081463134765625,-0.4443769156932831,0.1383458971977234,-0.2738203704357147
1789757536645474600,4.091474609375,-0.5267919301986694,0.08726006746292114,-0.4379113018512726
1789757536655485400,4.1014853515625,-0.564864456653595,0.12880778312683105,-0.6275933384895325
1789757536665496300,4.111496337890625,-0.4531554877758026,0.00692075677216053,-0.27150848507881165
1789757536675508200,4.12150830078125,-0.19087328016757965,-0.09177253395318985,0.031978439539670944
1789757536685519400,4.131519287109375,-0.18686603009700775,-0.12333418428897858,0.21125444769859314
1789757536695530500,4.141530517578125,-0.4084484875202179,0.004797418136149645,0.18808548152446747
1789757536705541400,4.151541259765625,-0.5246331691741943,0.1477939933538437,0.15519970655441284
1789757536715552300,4.16155224609375,-0.6797606945037842,0.11398915201425552,0.01305348426103592
1789757536725563400,4.1715634765625,-0.5154860019683838,-0.01696593314409256,-0.17080849409103394
1789757536735574300,4.18157421875,-0.24339774250984192,-0.08995785564184189,-0.14294223487377167
1789757536745585400,4.19158544921875,-0.24444809556007385,-0.13392291963100433,-0.044788509607315063
1789757536755596300,4.20159619140625,-0.25004738569259644,-0.12391608208417892,0.006596916355192661
1789757536765607400,4.211607421875,-0.4269731640815735,-0.05167384818196297,0.2675371766090393
1789757536775619300,4.221619384765625,-0.47320589423179626,0.07617013156414032,0.3324708938598633
1789757536785630200,4.231630126953125,-0.36764752864837646,-0.05380411073565483,0.043244943022727966
1789757536795641300,4.241641357421875,-0.2323504239320755,-0.1457231193780899,-0.22532473504543304
1789757536805652500,4.251652587890625,-0.1421070694923401,-0.1271291822195053,-0.17480802536010742
1789757536815663400,4.261663330078125,-0.10235859453678131,-0.17235925793647766,-0.14559927582740784
1789757536825674200,4.27167431640625,-0.20873484015464783,-0.05637965351343155,-0.17754602432250977
1789757536835685400,4.281685302734375,-0.18773527443408966,-0.05741642042994499,0.1276005655527115
1789757536845696500,4.291696533203125,-0.16676634550094604,-0.05855172500014305,0.18073701858520508
1789757536855707400,4.301707275390625,-0.1357325315475464,-0.06259334087371826,0.11810959875583649
1789757536865718300,4.31171826171875,-0.1171300858259201,-0.1449316293001175,-0.1700180619955063
1789757536875729400,4.3217294921875,-0.03532230481505394,-0.1808757781982422,-0.22958339750766754
1789757536885741300,4.3317412109375,-0.0105328019708395,-0.10048133134841919,-0.038410771638154984
1789757536895752400,4.34175244140625,-0.030881216749548912,-0.1324741542339325,-0.053834203630685806
1789757536905763300,4.351763427734375,-0.04180710017681122,-0.131072536110878,-0.006638728082180023
1789757536915774500,4.3617744140625,-0.0036970002111047506,-0.1232023611664772,0.26111069321632385
1789757536925785300,4.371785400390625,-0.08342618495225906,-0.07593125104904175,0.367646187543869
1789757536935796200,4.381796142578125,-0.15286783874034882,0.02436472848057747,0.3222768306732178
1789757536945807400,4.391807373046875,-0.15986768901348114,-0.0502365380525589,-0.19987450540065765
1789757536955818500,4.401818603515625,-0.03765976056456566,-0.09527724981307983,-0.18393415212631226
1789757536965829400,4.411829345703125,0.08483632653951645,-0.1008368656039238,-0.20647647976875305
1789757536975840300,4.42184033203125,0.08944545686244965,-0.22091133892536163,-0.3772743046283722
1789757536985852200,4.43185205078125,0.0022391858510673046,-0.12393072992563248,-0.11358408629894257
1789757536995863600,4.441863525390625,-0.06756466627120972,-0.046185605227947235,0.17425355315208435
1789757537005874400,4.45187451171875,-0.09333926439285278,-0.0842866525053978,0.267751544713974
1789757537015885300,4.46188525390625,-0.11831066757440567,-0.071644626557827,0.19742199778556824
1789757537025896200,4.471896240234375,-0.08678442984819412,-0.0007912251749075949,0.09764746576547623
1789757537035907300,4.4819072265625,-0.0030541131272912025,-0.0912790447473526,-0.30602383613586426
1789757537045918200,4.491918212890625,0.05928169935941696,-0.11532872170209885,-0.3185625374317169
1789757537055929300,4.501929443359375,0.04232002794742584,-0.027571972459554672,-0.1705339252948761
1789757537065940500,4.5119404296875,-0.024444090202450752,0.012704343535006046,0.012777580879628658
1789757537075951400,4.521951416015625,-0.03504427149891853,0.0018546254141256213,0.029028987511992455
1789757537085963300,4.53196337890625,0.068806491792202,-0.08368344604969025,0.11325278878211975
1789757537095974400,4.541974365234375,0.011304053477942944,-0.11868403851985931,-0.09103776514530182
1789757537105985300,4.5519853515625,-0.06781899183988571,-0.042037997394800186,0.14502324163913727
1789757537115996400,4.561996337890625,-0.05133908614516258,-0.06649540364742279,0.06363783031702042
1789757537126007300,4.57200732421875,-0.053109023720026016,-0.03917216882109642,0.17391826212406158
1789757537136018200,4.58201806640625,-0.025380723178386688,-0.08917461335659027,0.005462143570184708
1789757537146029300,4.592029296875,-0.030048979446291924,-0.0367838479578495,0.09663679450750351
1789757537156040400,4.60204052734375,-0.0408765934407711,-0.02750246413052082,-0.20816092193126678
1789757537166051300,4.61205126953125,0.015254853293299675,-0.04586575925350189,0.03193742781877518
1789757537176062500,4.6220625,0.038963377475738525,-0.11647681146860123,0.07168164104223251
1789757537186073300,4.6320732421875,0.01130778156220913,-0.02983725816011429,0.3251267075538635
1789757537196085500,4.64208544921875,0.007639011368155479,0.008287491276860237,-0.027460386976599693
1789757537206096400,4.652096435546875,0.01618482917547226,-0.16812749207019806,-0.19142615795135498
1789757537216107300,4.662107177734375,-0.0073170349933207035,-0.17011767625808716,-0.04263880476355553
1789757537226118400,4.672118408203125,0.025241173803806305,-0.0668240338563919,0.10094791650772095
1789757537236129300,4.68212939453125,-0.07671501487493515,-0.06439869850873947,0.10745508968830109
1789757537246140200,4.69214013671875,-0.08761027455329895,-0.08506456017494202,0.16013480722904205
1789757537256151600,4.702151611328125,-0.1339237093925476,-0.025778068229556084,0.19172042608261108
1789757537266162400,4.712162353515625,-0.1086236834526062,-0.025486717000603676,-0.0017446368001401424
1789757537276173300,4.72217333984375,0.00686269998550415,-0.059529904276132584,-0.1070588082075119
1789757537286184200,4.73218408203125,0.13910622894763947,-0.17425408959388733,-0.17479631304740906
1789757537296196400,4.7421962890625,0.12912975251674652,-0.17449617385864258,-0.1660853773355484
1789757537306207500,4.75220751953125,0.029382389038801193,-0.09987866133451462,0.19555112719535828
1789757537316218400,4.76221826171875,-0.020176108926534653,-0.0629563257098198,0.24220678210258484
1789757537326229200,4.772229248046875,0.042275551706552505,-0.0864534005522728,-0.08073186129331589
1789757537336240400,4.782240478515625,0.002894589677453041,-0.1033540889620781,-0.3071293234825134
1789757537346251300,4.792251220703125,0.09076692163944244,-0.10227257758378983,-0.11021625250577927
1789757537356262400,4.802262451171875,0.08387306332588196,0.016590960323810577,0.052731387317180634
1789757537366273300,4.812273193359375,0.08075902611017227,-0.022644858807325363,0.03750103712081909
1789757537376284400,4.822284423828125,0.24072925746440887,-0.17373983561992645,0.07142730802297592
1789757537386295300,4.83229541015625,0.2416837364435196,-0.10976937413215637,-0.06540830433368683
1789757537396307200,4.84230712890625,0.08281844854354858,-0.019905798137187958,-0.11691276729106903
1789757537406318300,4.852318359375,0.04031839594244957,-0.05543076992034912,-0.3276415169239044
1789757537416329200,4.8623291015625,-0.060499563813209534,0.00872025452554226,-0.008757272735238075
1789757537426340000,4.872340087890625,-0.007060572504997253,-0.09547591954469681,0.23105958104133606
1789757537436351000,4.88235107421875,0.15994039177894592,-0.06530417501926422,0.4217352569103241
1789757537446362000,4.892362060546875,0.17197708785533905,-0.1128314733505249,-0.12802986800670624
1789757537456373000,4.902373046875,-0.024983912706375122,-0.11429967731237411,-0.446286678314209
1789757537466384100,4.912384033203125,-0.0894947275519371,-0.03298671171069145,-0.34189289808273315
1789757537476395000,4.92239501953125,-0.024288827553391457,0.025256088003516197,0.10327552258968353
1789757537486406100,4.93240625,-0.12850657105445862,0.040891241282224655,0.08233508467674255
1789757537496417000,4.9424169921875,0.05493728443980217,-0.06333636492490768,0.24019981920719147
1789757537506429200,4.95242919921875,0.1267869770526886,-0.13917706906795502,-0.03495319187641144
1789757537516440000,4.962440185546875,-0.007830225862562656,-0.10776108503341675,0.009878995828330517
1789757537526451200,4.972451171875,-0.1847437471151352,-0.01492275670170784,0.0007342335302382708
1789757537536462000,4.982462158203125,-0.2644052803516388,0.027702733874320984,0.2665398120880127
1789757537546473000,4.992472900390625,-0.34069687128067017,0.009837450459599495,0.05469546839594841
1789757537556484000,5.002484130859375,-0.20490334928035736,-0.06271398067474365,0.04345240071415901
1789757537566495200,5.0124951171875,-0.2510641813278198,-0.0717703253030777,0.08342591673135757
1789757537576506000,5.022506103515625,-0.2436041384935379,-0.08485337346792221,-0.0939352810382843
1789757537586517000,5.03251708984375,-0.22701583802700043,-0.1786363273859024,-0.1757473200559616
1789757537596528000,5.042528076171875,-0.12859472632408142,-0.1372998058795929,0.013303820975124836
1789757537606540300,5.052540283203125,-0.1265249252319336,-0.13116973638534546,0.35063979029655457
1789757537616551200,5.06255126953125,-0.16610348224639893,-0.09257600456476212,0.2264176905155182
1789757537626562000,5.07256201171875,-0.19320274889469147,-0.020719392225146294,0.0706254318356514
1789757537636573200,5.0825732421875,-0.15600185096263885,-0.09273312985897064,-0.08010841906070709
1789757537646584000,5.092583984375,0.006583068054169416,-0.03953063115477562,0.08951044082641602
1789757537656595000,5.102594970703125,0.06845442205667496,-0.11386611312627792,-0.03508901223540306
1789757537666606000,5.112606201171875,0.10526303946971893,-0.14521737396717072,0.12998995184898376
1789757537676617200,5.1226171875,0.1019442081451416,-0.07860053330659866,-0.10501350462436676
1789757537686628000,5.132628173828125,0.1970403641462326,-0.046184007078409195,0.08117873966693878
1789757537696639000,5.142638916015625,0.278992235660553,-0.03522083908319473,0.23020657896995544
1789757537706650000,5.152650146484375,0.17779715359210968,-0.04542899876832962,0.005203816574066877
1789757537716662300,5.162662353515625,0.09658166766166687,-0.10941650718450546,-0.3207244873046875
1789757537726673200,5.172673095703125,0.15920457243919373,-0.12102442234754562,-0.281982421875
1789757537736684000,5.18268408203125,-0.02865002118051052,-0.15893585979938507,-0.4862458109855652
1789757537746695200,5.192695068359375,0.06084710359573364,-0.034261301159858704,-0.021986259147524834
1789757537756706000,5.2027060546875,0.26034876704216003,-0.021268537268042564,0.6922104358673096
1789757537766717200,5.21271728515625,0.46798691153526306,-0.184981569647789,0.2473892867565155
1789757537776728000,5.22272802734375,0.6121091842651367,0.007613977417349815,0.27676528692245483
1789757537786739200,5.2327392578125,0.5642839074134827,-0.006001433357596397,-0.0031337416730821133
1789757537796750000,5.24275,0.44406718015670776,-0.25805312395095825,-0.7687835097312927
1789757537806761000,5.252760986328125,0.2001330852508545,-0.12126916646957397,-0.310037225484848
1789757537816773000,5.262773193359375,-0.17014163732528687,0.36850452423095703,0.3041287362575531
1789757537826784300,5.2727841796875,0.022049641236662865,-0.012783439829945564,-0.03383519500494003
1789757537836795100,5.282795166015625,0.3502264618873596,0.022409169003367424,0.47766563296318054
1789757537846806000,5.292805908203125,0.0485672689974308,0.012589295394718647,0.23318558931350708
1789757537856817000,5.30281689453125,0.17542694509029388,-0.005633917171508074,-0.10025869309902191
1789757537866828300,5.312828369140625,0.15266065299510956,0.007731955498456955,-0.16954056918621063
1789757537876839200,5.322839111328125,0.18859894573688507,0.08319182693958282,0.5198501348495483
1789757537886850000,5.33285009765625,0.34110406041145325,-0.023731961846351624,0.08455802500247955
1789757537896861200,5.342861083984375,0.3822464346885681,-0.03633297234773636,0.10895950347185135
1789757537906873000,5.352873046875,0.04674433544278145,-0.03654149919748306,-0.4750855565071106
1789757537916884200,5.36288427734375,0.10994593799114227,0.10175112634897232,-0.13151754438877106
1789757537926895000,5.37289501953125,-0.14659716188907623,0.18195781111717224,-0.08718550205230713
1789757537936906000,5.382906005859375,0.20345166325569153,-0.08851947635412216,0.18926899135112762
1789757537946917000,5.392917236328125,0.40587666630744934,-0.13319960236549377,-0.09756676852703094
1789757537956929300,5.40292919921875,0.5016191601753235,-0.1329556554555893,0.1760280281305313
1789757537966940200,5.412940185546875,0.26641279458999634,0.006785734556615353,0.2209251970052719
1789757537976951000,5.422950927734375,0.08941510319709778,0.12918062508106232,-0.08481848239898682
1789757537986962200,5.432962158203125,0.02237614616751671,0.2102629542350769,-0.17449350655078888
1789757537996973000,5.44297314453125,0.24792538583278656,0.063603475689888,-0.033364348113536835
1789757538006984000,5.45298388671875,0.4124639928340912,0.026199113577604294,0.18610036373138428
1789757538016995000,5.4629951171875,0.4856202304363251,-0.06420321762561798,0.13045307993888855
1789757538027006200,5.473006103515625,0.4203730523586273,0.04470169171690941,0.16890406608581543
1789757538037017000,5.48301708984375,0.14841529726982117,0.1669626235961914,0.12545005977153778
1789757538047028000,5.493028076171875,-0.12023346871137619,0.10588009655475616,-0.482526957988739
1789757538057040000,5.503039794921875,-0.146055206656456,-0.0036674391012638807,-0.529147207736969
1789757538067051300,5.51305126953125,-0.09750045835971832,0.12482316046953201,-0.07419753074645996
1789757538077062100,5.523062255859375,0.024934377521276474,0.09278879314661026,0.382326602935791
1789757538087073000,5.533072998046875,0.04915662854909897,-0.23981738090515137,-0.3295147716999054
1789757538097084200,5.543084228515625,0.11096753180027008,-0.059234295040369034,-0.13142992556095123
1789757538107095000,5.553094970703125,-0.21491816639900208,0.16515646874904633,-0.05699271336197853
1789757538117106200,5.563106201171875,-0.17820967733860016,0.02291916497051716,0.06787785142660141
1789757538127117000,5.573116943359375,-0.25615376234054565,0.28399762511253357,-0.25974583625793457
1789757538137128200,5.583128173828125,0.04411233216524124,-0.06399735808372498,0.15635710954666138
1789757538147139000,5.59313916015625,0.24833524227142334,0.05486058443784714,0.47033795714378357
1789757538157150000,5.60314990234375,0.09723547101020813,-0.040174052119255066,-0.09164762496948242
1789757538167162000,5.613162109375,-0.07038228958845139,-0.01007846649736166,-0.2416301965713501
1789757538177173200,5.62317333984375,-0.2780470550060272,0.2258821278810501,-0.2635466754436493
1789757538187184000,5.63318408203125,-0.545436441898346,0.1092149019241333,-0.21619834005832672
1789757538197195000,5.643195068359375,-0.27769526839256287,0.11717961728572845,-0.04990497604012489
1789757538207206000,5.653205810546875,-0.2481112778186798,0.05944841355085373,0.04982667788863182
1789757538217217300,5.66321728515625,-0.03419791907072067,-0.014177071861922741,0.18335092067718506
1789757538227228200,5.673228271484375,0.008052866905927658,-0.0349515937268734,0.11307861655950546
1789757538237239000,5.683239013671875,-0.08671492338180542,0.1320381909608841,0.2605695426464081
1789757538247250200,5.693250244140625,-0.18287794291973114,0.0746326893568039,-0.10221318900585175
1789757538257261000,5.703260986328125,-0.2449655383825302,0.06300187110900879,-0.15617868304252625
1789757538267273200,5.713273193359375,-0.34583595395088196,0.040768999606370926,-0.3222392797470093
1789757538277284000,5.7232841796875,-0.1624874472618103,-0.0022540995851159096,-0.04613766819238663
1789757538287295000,5.733294921875,-0.12260980159044266,0.005277586169540882,0.1440567672252655
1789757538297306000,5.74330615234375,-0.0026770094409585,0.06315526366233826,0.18808895349502563
1789757538307317000,5.75331689453125,-0.013581855222582817,-0.04605484381318092,-0.10845030844211578
1789757538317328000,5.763327880859375,-0.05678685009479523,-0.018368886783719063,-0.39580726623535156
1789757538327339300,5.77333935546875,-0.009611881338059902,0.02918611466884613,-0.057244379073381424
1789757538337350100,5.78335009765625,0.040521591901779175,0.13950569927692413,0.28855350613594055
1789757538347361000,5.793361083984375,0.01685727760195732,0.15966129302978516,0.3299182653427124
1789757538357372200,5.8033720703125,0.23377281427383423,-0.0689883902668953,0.5222850441932678
1789757538367383000,5.813383056640625,0.04705219715833664,0.12313125282526016,-0.644143283367157
1789757538377394200,5.823394287109375,-0.11974664032459259,-0.05579988285899162,-0.28635480999946594
1789757538387405000,5.833405029296875,-0.14909148216247559,0.01660507544875145,0.02876799926161766
1789757538397417000,5.8434169921875,-0.4571007192134857,0.13477486371994019,0.08185997605323792
1789757538407428000,5.853427978515625,-0.1684233695268631,0.057727210223674774,0.4926973283290863
1789757538417439200,5.863439208984375,0.11404507607221603,-0.08074518293142319,0.06420455127954483
1789757538427450000,5.8734501953125,0.24224379658699036,-0.07275596261024475,0.21480071544647217
1789757538437461200,5.883461181640625,-0.09827969968318939,-0.059489425271749496,-0.0514589287340641
1789757538447472400,5.893472412109375,-0.32685428857803345,-0.0009890979854390025,-0.141793355345726
1789757538457483300,5.903483154296875,-0.5613706707954407,0.04357730597257614,-0.34462955594062805
1789757538467494100,5.913494140625,-0.1790752112865448,-0.062062837183475494,-0.00008202536264434457
1789757538477505300,5.92350537109375,-0.017180051654577255,-0.04777178168296814,0.371046781539917
1789757538487516200,5.93351611328125,-0.016994962468743324,-0.0888555720448494,0.28553348779678345
1789757538497528300,5.9435283203125,-0.019904199987649918,-0.0893610417842865,0.012654541991651058
1789757538507539200,5.953539306640625,-0.21743671596050262,-0.004993959795683622,-0.1830747425556183
1789757538517550300,5.96355029296875,-0.297676146030426,0.014580540359020233,-0.16005198657512665
1789757538527561200,5.973561279296875,-0.22195211052894592,-0.07223158329725266,-0.03668957203626633
1789757538537572000,5.983572021484375,-0.20314326882362366,-0.0708472728729248,-0.07045179605484009
1789757538547583000,5.9935830078125,-0.0932825431227684,-0.08932828158140182,-0.06927014887332916
1789757538557594400,6.003594482421875,0.01961258426308632,-0.01458826381713152,0.27013933658599854
1789757538567605200,6.013605224609375,-0.15271364152431488,-0.11194384843111038,-0.09564822912216187
1789757538577616100,6.0236162109375,-0.13046053051948547,0.014386395923793316,-0.020204603672027588
1789757538587627300,6.033627197265625,-0.2826884090900421,-0.03837775066494942,-0.21391601860523224
1789757538597639400,6.043639404296875,-0.1956411451101303,-0.008735700510442257,-0.10250906646251678
1789757538607650300,6.053650390625,-0.08250179886817932,-0.13787584006786346,-0.039018504321575165
1789757538617661200,6.0636611328125,0.062363773584365845,-0.13964897394180298,0.21604228019714355
1789757538627672300,6.07367236328125,-0.04264546558260918,-0.1170794814825058,-0.020927652716636658
1789757538637683200,6.08368310546875,0.09398908168077469,-0.05741775408387184,0.3270074129104614
1789757538647694000,6.093694091796875,-0.08626218140125275,-0.03497902303934097,-0.041915491223335266
1789757538657705200,6.103705322265625,-0.20127931237220764,-0.018934275954961777,-0.29804953932762146
1789757538667716400,6.11371630859375,-0.3487641215324402,-0.1342398226261139,-0.5412571430206299
1789757538677727200,6.123727294921875,-0.17670074105262756,-0.07385584712028503,-0.08511675894260406
1789757538687738000,6.133738037109375,-0.07554562389850616,-0.1354912519454956,0.1046995148062706
1789757538697750300,6.143750244140625,0.322965532541275,-0.06486847996711731,0.5524149537086487
1789757538707761400,6.153761474609375,0.272491455078125,-0.13997147977352142,0.030956318601965904
1789757538717772300,6.163772216796875,0.371012419462204,-0.15505003929138184,-0.04029788821935654
1789757538727783200,6.173783203125,0.1265382319688797,-0.020187560468912125,-0.2267569750547409
1789757538737794000,6.1837939453125,0.06731884926557541,-0.022098110988736153,-0.2094046175479889
1789757538747805200,6.19380517578125,-0.04276610538363457,0.0276247039437294,-0.3373945355415344
1789757538757816300,6.20381640625,0.23923654854297638,-0.09350278973579407,0.07161959260702133
1789757538767827200,6.2138271484375,0.5434268116950989,-0.31893110275268555,0.6898881196975708
1789757538777838300,6.22383837890625,0.5328258275985718,-0.11766830831766129,0.22950030863285065
1789757538787849200,6.23384912109375,0.26567694544792175,0.10969347506761551,0.2555049955844879
1789757538797861000,6.243861083984375,0.04267529025673866,-0.043650008738040924,-0.5122206807136536
1789757538807872300,6.253872314453125,-0.01943708024919033,-0.011885154992341995,-0.47468873858451843
1789757538817883100,6.263883056640625,0.08427093923091888,-0.14288365840911865,-0.1865784078836441
1789757538827894300,6.273894287109375,0.3509356677532196,-0.13357430696487427,0.3656906187534332
1789757538837905200,6.2839052734375,0.461715430021286,-0.07442842423915863,0.383672297000885
1789757538847916000,6.293916015625,0.4162089228630066,-0.09465140849351883,-0.05585447698831558
1789757538857927400,6.303927490234375,0.22788642346858978,-0.07341083139181137,-0.1953335404396057
1789757538867938300,6.313938232421875,0.18397116661071777,-0.05758446827530861,-0.13174551725387573
1789757538877949200,6.32394921875,0.024697089567780495,-0.03320109471678734,-0.00013022858183830976
1789757538887960300,6.333960205078125,0.032403212040662766,-0.01871136948466301,0.007552991155534983
1789757538897972200,6.34397216796875,0.07600262016057968,-0.0908081978559494,-0.09379280358552933
1789757538907983400,6.3539833984375,0.15973959863185883,-0.14449885487556458,-0.024762604385614395
1789757538917994200,6.363994140625,0.032338231801986694,-0.11303973942995071,-0.0236403476446867
1789757538928005000,6.374005126953125,-0.023213444277644157,-0.018188325688242912,0.05157051607966423
1789757538938016300,6.384016357421875,-0.07989110052585602,0.017407219856977463,0.04637788608670235
1789757538948027100,6.394027099609375,-0.008363657630980015,0.016328373923897743,0.08080749958753586
1789757538958038300,6.404038330078125,0.09508949518203735,-0.09254857897758484,-0.06235285475850105
1789757538968049400,6.41404931640625,0.12837502360343933,-0.0330255925655365,-0.020258400589227676
1789757538978060300,6.424060302734375,0.1359999179840088,-0.010459032841026783,0.01233469694852829
1789757538988071200,6.4340712890625,0.1676340103149414,0.0026173547375947237,0.04428916797041893
1789757538998083000,6.4440830078125,0.14134354889392853,0.029375998303294182,0.025962891057133675
1789757539008094200,6.45409423828125,0.20777928829193115,0.07100759446620941,0.24455489218235016
1789757539018105300,6.464105224609375,0.2077404111623764,-0.04415228217840195,-0.08192336559295654
1789757539028116200,6.4741162109375,0.20030753314495087,0.022166289389133453,-0.06432519108057022
1789757539038127000,6.484127197265625,0.10749290138483047,0.07236793637275696,-0.1347397118806839
1789757539048138200,6.49413818359375,0.11454282701015472,-0.022399581968784332,-0.26547133922576904
1789757539058149000,6.504149169921875,0.27047330141067505,-0.07724472135305405,0.023214241489768028
1789757539068160300,6.51416015625,0.26053890585899353,-0.05555620416998863,0.19934479892253876
1789757539078171100,6.524171142578125,0.27639642357826233,0.062190935015678406,0.30113640427589417
1789757539088182300,6.534182373046875,0.2685171961784363,0.09986188262701035,0.15097540616989136
1789757539098194200,6.544194091796875,0.14799532294273376,0.06575717777013779,-0.09174403548240662
1789757539108205300,6.554205322265625,0.0344807468354702,-0.037695448845624924,-0.15449637174606323
1789757539118216200,6.56421630859375,0.08132574707269669,-0.07891931384801865,-0.1623968929052353
1789757539128227300,6.574227294921875,0.09531933069229126,-0.0655348002910614,0.08872321248054504
1789757539138238200,6.58423828125,0.13052524626255035,-0.05934667959809303,0.18302308022975922
1789757539148249000,6.5942490234375,0.03742726519703865,-0.018743593245744705,0.22580303251743317
1789757539158260200,6.60426025390625,0.0004348942020442337,0.023611586540937424,0.06830262392759323
1789757539168271400,6.614271240234375,0.08049856871366501,-0.04601889103651047,-0.009630256332457066
1789757539178282200,6.6242822265625,-0.003318032482638955,0.027004186064004898,-0.037752971053123474
1789757539188293000,6.634293212890625,-0.1538795828819275,-0.059658534824848175,-0.34086012840270996
1789757539198305000,6.644304931640625,-0.17060315608978271,-0.15662316977977753,-0.36419206857681274
1789757539208316400,6.65431640625,-0.12619495391845703,0.057308297604322433,0.16779085993766785
1789757539218327300,6.664327392578125,-0.032102808356285095,-0.30916422605514526,0.12951165437698364
1789757539228338200,6.674338134765625,0.19984734058380127,-0.026159964501857758,0.26907646656036377
1789757539238349300,6.684349365234375,0.0837835818529129,-0.023442475125193596,0.04934464767575264
1789757539248360200,6.694360107421875,0.12336001545190811,0.03175872936844826,0.08244986832141876
1789757539258371000,6.70437109375,-0.01495151873677969,0.012221778742969036,-0.2352822870016098
1789757539268382200,6.71438232421875,0.040408141911029816,0.03701687231659889,-0.17208068072795868
1789757539278393300,6.724393310546875,0.11616948246955872,-0.021772140637040138,-0.08900364488363266
1789757539288404200,6.734404296875,0.27421292662620544,-0.09784772992134094,0.04638587310910225
1789757539298416000,6.744416015625,0.29823169112205505,-0.10362972319126129,-0.039083752781152725
1789757539308427300,6.75442724609375,0.1398116946220398,-0.05836024507880211,-0.1622626781463623
1789757539318438400,6.7644384765625,0.0007590008899569511,0.0404781848192215,-0.20315098762512207
1789757539328449300,6.77444921875,0.22218406200408936,-0.008326106704771519,-0.07204729318618774
1789757539338460200,6.784460205078125,0.2713302969932556,-0.08665952831506729,0.060626596212387085
1789757539348471000,6.794470947265625,0.4093630015850067,-0.20492225885391235,0.2788130044937134
1789757539358482200,6.804482177734375,0.3227975070476532,0.015867646783590317,-0.20982061326503754
1789757539368493300,6.814493408203125,0.30466800928115845,0.029111811891198158,-0.09206121414899826
1789757539378504200,6.824504150390625,0.5021888017654419,-0.027578631415963173,0.06286071985960007
1789757539388516000,6.83451611328125,0.508897066116333,0.00013022858183830976,0.18909402191638947
1789757539398527200,6.84452734375,0.4630872309207916,-0.08305919915437698,0.11228898912668228
1789757539408538000,6.8545380859375,0.46601855754852295,0.03555293381214142,-0.04589745029807091
1789757539418548700,6.864548828125,0.3031518757343292,0.1357961744070053,-0.3140751123428345
1789757539428560000,6.874559814453125,0.29671794176101685,0.07930015027523041,-0.20955827832221985
1789757539438570800,6.88457080078125,0.35703909397125244,-0.0033430662006139755,-0.20132672786712646
1789757539448582000,6.894581787109375,0.4049605429172516,-0.02816532552242279,0.22448690235614777
1789757539458592800,6.9045927734375,0.4395044147968292,0.09954150021076202,-0.16447389125823975
1789757539468604000,6.91460400390625,0.6943598389625549,0.13144244253635406,0.05079234018921852
1789757539478614800,6.92461474609375,0.713032603263855,0.015292136929929256,-0.05276574194431305
1789757539488627000,6.934626953125,0.6578745245933533,0.1193852499127388,-0.0692451149225235
1789757539498637800,6.944637939453125,0.4807381331920624,0.2282707244157791,-0.05276734009385109
1789757539508649000,6.95464892578125,0.4776288866996765,0.16537298262119293,-0.14040051400661469
1789757539518659800,6.964659912109375,0.6040736436843872,0.20310650765895844,0.05709311366081238
1789757539528670700,6.974670654296875,0.5741788744926453,0.08574020117521286,-0.04658108577132225
1789757539538681900,6.984681884765625,0.4244362413883209,0.2055523544549942,0.046915311366319656
1789757539548693000,6.99469287109375,0.36924514174461365,0.345567524433136,0.05543556064367294
1789757539558703900,7.004703857421875,0.570009708404541,0.04529717564582825,0.3484181761741638
1789757539568714800,7.01471484375,0.7062655091285706,0.0970301404595375,0.3494402766227722
1789757539578726000,7.024725830078125,0.4476203918457031,0.1954485923051834,0.07131226360797882
1789757539588737800,7.03473779296875,0.15539731085300446,0.21117696166038513,-0.07203345000743866
1789757539598749000,7.0447490234375,-0.07646707445383072,0.21897947788238525,-0.28133073449134827
1789757539608759800,7.054759765625,0.05164668336510658,0.21482069790363312,-0.029111012816429138
1789757539618771000,7.06477099609375,0.11074276268482208,0.0071005201898515224,0.12304043769836426
1789757539628781800,7.07478173828125,0.15243640542030334,0.09263326227664948,0.2052096128463745
1789757539638792700,7.084792724609375,-0.05276361107826233,0.21939866244792938,0.059485431760549545
1789757539648803800,7.094803955078125,-0.17193394899368286,0.21208243072032928,-0.08599267154932022
1789757539658815000,7.10481494140625,-0.10579966753721237,0.20961181819438934,0.08561796694993973
1789757539668825900,7.114825927734375,-0.0808064341545105,0.15407665073871613,0.08997782319784164
1789757539678836700,7.124836669921875,-0.1010666936635971,0.1852329671382904,0.27896052598953247
1789757539688848600,7.1348486328125,-0.226171612739563,0.19887474179267883,-0.04387611150741577
1789757539698860000,7.144860107421875,-0.2202913612127304,0.1684523969888687,0.020180368795990944
1789757539708871000,7.154870849609375,-0.19907794892787933,0.12918621301651,-0.0310513935983181
1789757539718881800,7.1648818359375,-0.2265564501285553,0.0790463462471962,0.12409611791372299
1789757539728893000,7.174892822265625,-0.323043555021286,0.08230499178171158,0.06983287632465363
1789757539738903800,7.18490380859375,-0.4288312494754791,0.07751370221376419,-0.05738659203052521
1789757539748915000,7.1949150390625,-0.4925388693809509,0.09289718419313431,-0.06199679151177406
1789757539758925800,7.20492578125,-0.4786938726902008,0.051483429968357086,-0.059848152101039886
1789757539768937000,7.21493701171875,-0.48342791199684143,0.08682890236377716,0.023927969858050346
1789757539778948900,7.224948974609375,-0.46659567952156067,-0.00797190610319376,-0.012556271627545357
1789757539788959700,7.234959716796875,-0.31056106090545654,0.01477708201855421,0.10686333477497101
1789757539798971000,7.244970947265625,-0.2898174524307251,-0.03393719345331192,0.03154274448752403
1789757539808982000,7.25498193359375,-0.18635763227939606,-0.01269768550992012,0.11318035423755646
1789757539818993000,7.264992919921875,-0.26649054884910583,0.06220505014061928,-0.0021406488958746195
1789757539829003800,7.275003662109375,-0.32583269476890564,0.014227937906980515,-0.1803324967622757
1789757539839014700,7.2850146484375,-0.2554120719432831,0.0014335796004161239,-0.12287452071905136
1789757539849025800,7.29502587890625,-0.19078007340431213,-0.05849899724125862,-0.08933946490287781
1789757539859037000,7.305036865234375,-0.08522354811429977,-0.0026405241806060076,0.04615071788430214
1789757539869047800,7.3150478515625,-0.019701533019542694,-0.06888825446367264,-0.12665487825870514
1789757539879059700,7.325059814453125,-0.018149442970752716,0.0034261567052453756,0.009998838417232037
1789757539889070800,7.33507080078125,-0.0016109461430460215,-0.026330141350626945,-0.09898250550031662
1789757539899082000,7.34508203125,0.1727997362613678,0.0693734809756279,0.25422775745391846
1789757539909092900,7.3550927734375,0.2539750039577484,0.009978864341974258,0.14995567500591278
1789757539919103700,7.365103759765625,0.2856866121292114,-0.07428834587335587,-0.11493377387523651
1789757539929115000,7.375114990234375,0.12716567516326904,-0.0244962889701128,-0.241392120718956
1789757539939125800,7.385125732421875,0.025597505271434784,0.011147992685437202,-0.26244014501571655
1789757539949136600,7.39513671875,0.03940732777118683,0.07937897741794586,0.11450527608394623
1789757539959148000,7.40514794921875,0.24394236505031586,-0.08652663230895996,-0.016932643949985504
1789757539969160000,7.415159912109375,0.4533027708530426,-0.11505468189716339,0.2515968084335327
1789757539979170800,7.4251708984375,0.27803507447242737,-0.027703532949090004,-0.09921366721391678
1789757539989181700,7.435181640625,0.2793664038181305,0.027608457952737808,0.02799008972942829
1789757539999192800,7.44519287109375,0.38059768080711365,0.07976274192333221,0.1705043613910675
1789757540009204000,7.455203857421875,0.3277783989906311,0.00782543234527111,0.3008996546268463
1789757540019214800,7.46521484375,0.3157361149787903,-0.014534734189510345,-0.05981592833995819
1789757540029225700,7.475225830078125,0.28789037466049194,0.04331444948911667,-0.1265140026807785
1789757540039236900,7.48523681640625,0.13826999068260193,0.045522477477788925,-0.03622431680560112
1789757540049247700,7.495247802734375,0.16630108654499054,-0.022946327924728394,-0.05800844356417656
1789757540059259000,7.5052587890625,0.15119431912899017,0.0018666095566004515,0.09785652160644531
1789757540069270800,7.515270751953125,0.20806105434894562,-0.030550185590982437,-0.2238011360168457
1789757540079282000,7.525281982421875,0.28414517641067505,0.012101669795811176,-0.03724271059036255
1789757540089292800,7.535292724609375,0.2897969186306,0.045100633054971695,0.05685209855437279
1789757540099304000,7.545303955078125,0.30485764145851135,0.07711555808782578,0.07652140408754349
1789757540109314800,7.555314697265625,0.36796149611473083,0.056536514312028885,0.09543357789516449
1789757540119326000,7.565325927734375,0.4626004099845886,0.06902061402797699,0.18341483175754547
1789757540129336800,7.5753369140625,0.47537851333618164,0.12460983544588089,0.19877168536186218
1789757540139347700,7.58534765625,0.36320430040359497,0.13025520741939545,0.033188313245773315
1789757540149358800,7.59535888671875,0.21471922099590302,0.1395762711763382,-0.2058809995651245
1789757540159371000,7.60537109375,0.2106190174818039,0.10118014365434647,-0.25707414746284485
1789757540169382000,7.6153818359375,0.31159624457359314,0.06207855045795441,-0.07925593852996826
1789757540179392800,7.625392822265625,0.31660032272338867,0.07006244361400604,0.05213537439703941
1789757540189403600,7.635403564453125,0.3257376253604889,0.1579560786485672,0.19914133846759796
1789757540199414800,7.645414794921875,0.4398343563079834,0.12164440751075745,0.21079371869564056
1789757540209426000,7.655426025390625,0.5924119353294373,0.16794346272945404,0.3453155755996704
1789757540219436800,7.665436767578125,0.4212692081928253,0.20300903916358948,0.13768994808197021
1789757540229448000,7.675447998046875,0.3128809332847595,0.25281253457069397,-0.10806149244308472
1789757540239458800,7.685458740234375,0.20762643218040466,0.1907222867012024,-0.10609980672597885
1789757540249471000,7.695470947265625,0.18494881689548492,0.1687205731868744,-0.12126117944717407
1789757540259481900,7.70548193359375,0.19125624001026154,0.16871418058872223,0.0014881744282320142
1789757540269493000,7.715492919921875,0.18052689731121063,0.10620126873254776,0.03321307897567749
1789757540279504000,7.72550390625,0.14849892258644104,0.12165959179401398,0.1319979876279831
1789757540289514800,7.7355146484375,0.10838373005390167,0.18944290280342102,0.22588692605495453
1789757540299525600,7.745525634765625,-0.1029849722981453,0.21940825879573822,0.00965475756675005
1789757540309537000,7.755537109375,-0.11736897379159927,0.1698223203420639,-0.10039158165454865
1789757540319548000,7.7655478515625,-0.1666662096977234,0.08015742152929306,-0.14124314486980438
1789757540329558800,7.775558837890625,-0.15088538825511932,0.09046092629432678,-0.00782489962875843
1789757540339570000,7.78556982421875,-0.27458709478378296,0.10199960321187973,-0.0434366911649704
1789757540349582000,7.79558203125,-0.32330483198165894,0.20370599627494812,-0.06720620393753052
1789757540359593000,7.805593017578125,-0.2460489124059677,0.217482790350914,0.05445605143904686
1789757540369603800,7.815603759765625,-0.08796394616365433,0.14780251681804657,0.13528752326965332
1789757540379614700,7.82561474609375,-0.18399512767791748,0.06977348774671555,-0.09778248518705368
1789757540389625900,7.8356259765625,-0.1974339783191681,0.07379166781902313,-0.09310384094715118
1789757540399636700,7.84563671875,-0.3431011736392975,0.11253746598958969,-0.060626063495874405
1789757540409647900,7.85564794921875,-0.3295872211456299,0.13864736258983612,0.06909145414829254
1789757540419659500,7.865659423828125,-0.32588064670562744,0.12119806557893753,0.01290461327880621
1789757540429671000,7.8756708984375,-0.37825915217399597,0.13286830484867096,-0.06842459738254547
1789757540439682800,7.885682861328125,-0.4058481752872467,0.07966367155313492,-0.11495987325906754
1789757540449693700,7.895693603515625,-0.34730708599090576,0.12891750037670135,0.04186489060521126
1789757540459704600,7.90570458984375,-0.42471960186958313,0.13364355266094208,0.04500262811779976
1789757540469715700,7.9157158203125,-0.26810842752456665,0.10101902484893799,-0.013746438547968864
1789757540479726800,7.925726806640625,-0.29067525267601013,0.01296533364802599,-0.13689632713794708
1789757540489737700,7.93573779296875,-0.24836000800132751,0.06449297070503235,0.06831593811511993
1789757540499748600,7.94574853515625,-0.3223002851009369,0.028333105146884918,0.21100464463233948
1789757540509759700,7.955759765625,-0.48394936323165894,0.1776656061410904,0.07206354290246964
1789757540519770600,7.9657705078125,-0.48729535937309265,0.1297936886548996,0.013279319740831852
1789757540529782800,7.97578271484375,-0.4876226484775543,0.05817835032939911,-0.09478510171175003
1789757540539793700,7.985793701171875,-0.4234689772129059,0.011180216446518898,0.06561575829982758
1789757540549804800,7.9958046875,-0.4829043447971344,-0.0678139328956604,0.004066114313900471
1789757540559815700,8.005815673828126,-0.5313680171966553,-0.0405476912856102,-0.00962493009865284
1789757540569826600,8.01582666015625,-0.5987321138381958,0.03255794197320938,0.09915667772293091
1789757540579837700,8.025837646484375,-0.6597587466239929,-0.0028487835079431534,-0.039685361087322235
1789757540589848800,8.035848876953125,-0.7182963490486145,0.021074391901493073,-0.18092824518680573
1789757540599859700,8.045859619140625,-0.5131264328956604,-0.13512586057186127,-0.07413414865732193
1789757540609870600,8.05587060546875,-0.3807539939880371,-0.16398601233959198,-0.0009616674506105483
1789757540619881700,8.0658818359375,-0.245372474193573,-0.11179950088262558,0.20819181203842163
1789757540629894000,8.075893798828124,-0.22705338895320892,-0.07789985835552216,0.04736112430691719
1789757540639904800,8.08590478515625,-0.23370756208896637,0.011844675056636333,0.07259058207273483
1789757540649915600,8.09591552734375,-0.18710410594940186,0.050932157784700394,0.02490215376019478
1789757540659926500,8.105926513671875,-0.07089361548423767,-0.06495103985071182,0.008322644978761673
1789757540669937700,8.115937744140625,0.019957195967435837,-0.08851521462202072,-0.0862502008676529
1789757540679948800,8.12594873046875,0.0703897476196289,-0.10464518517255783,-0.042506713420152664
1789757540689959700,8.135959716796876,0.14841504395008087,-0.08508852869272232,0.05096225067973137
1789757540699970800,8.145970703125,0.11246742308139801,0.0016378440195694566,0.1797788143157959
1789757540709981700,8.155981689453125,0.1843181699514389,-0.05638258159160614,0.21585719287395477
1789757540719993900,8.165993896484375,0.18675629794597626,-0.00654631620272994,-0.18446359038352966
1789757540730004700,8.176004638671875,0.2779221534729004,-0.059663329273462296,-0.054966047406196594
1789757540740015900,8.186015869140626,0.1604226976633072,0.0027017768006771803,-0.11046791821718216
1789757540750026800,8.19602685546875,0.06162181869149208,0.08765821158885956,-0.2790910303592682
1789757540760037600,8.20603759765625,0.10641485452651978,0.0014282532501965761,0.039319444447755814
1789757540770048500,8.216048583984374,0.2566634714603424,-0.006250705569982529,0.022369753569364548
1789757540780060000,8.226059814453125,0.49575701355934143,-0.09417949616909027,0.1526835560798645
1789757540790070800,8.23607080078125,0.49587446451187134,0.0038895467296242714,0.3215130567550659
1789757540800081700,8.24608154296875,0.16330184042453766,0.07012396305799484,-0.1838798224925995
1789757540810093600,8.256093505859376,0.0930580347776413,0.16564781963825226,-0.03742513433098793
1789757540820104700,8.266104736328124,0.15774115920066833,0.03857748582959175,-0.11698680371046066
1789757540830115800,8.27611572265625,0.2807842493057251,0.07017029821872711,0.20125187933444977
1789757540840126700,8.286126708984375,0.21237803995609283,0.027728034183382988,-0.0648980364203453
1789757540850137600,8.2961376953125,0.08034064620733261,0.09134988486766815,0.05017821490764618
1789757540860148700,8.306148681640625,-0.03151451796293259,0.05704384669661522,-0.04318155720829964
1789757540870159600,8.31615966796875,0.17707331478595734,0.025202825665473938,0.187654048204422
1789757540880170800,8.326170654296876,0.07458581775426865,0.04265212267637253,0.018692461773753166
1789757540890182000,8.336181884765624,0.012564527802169323,0.039386555552482605,-0.05240275338292122
1789757540900193800,8.34619384765625,-0.143698051571846,0.11370819061994553,-0.07039826363325119
1789757540910204700,8.35620458984375,-0.08333936333656311,0.10597170889377594,0.02793229930102825
1789757540920215600,8.366215576171875,-0.08064344525337219,0.12282365560531616,0.061344850808382034
1789757540930226700,8.376226806640625,-0.05659909546375275,0.05578656494617462,-0.052377719432115555
1789757540940237800,8.38623779296875,-0.17457181215286255,0.10594214498996735,-0.10096842795610428
1789757540950248700,8.396248779296876,-0.22468344867229462,0.06312597543001175,-0.07752728462219238
1789757540960259600,8.406259521484374,-0.09975482523441315,0.07641488313674927,0.19726885855197906
1789757540970270700,8.416270751953125,-0.07934515923261642,-0.02153751626610756,0.12516137957572937
1789757540980281900,8.42628173828125,-0.13554345071315765,0.03898628056049347,0.14203862845897675
1789757540990293800,8.436293701171875,-0.3068789839744568,0.10978695005178452,-0.023900272324681282
1789757541000304600,8.4463046875,-0.3357399106025696,0.09485966712236404,0.02443183958530426
1789757541010315800,8.456315673828126,-0.3890116512775421,0.011446799151599407,-0.09981554001569748
1789757541020326700,8.46632666015625,-0.3405229449272156,-0.028781313449144363,-0.07171466946601868
1789757541030337800,8.476337890625,-0.5088549852371216,-0.09957346320152283,-0.27890247106552124
1789757541040348700,8.4863486328125,-0.5031539797782898,-0.06155870109796524,-0.19370156526565552
1789757541050359800,8.49635986328125,-0.5689800977706909,-0.010064885020256042,-0.1049882024526596
1789757541060370700,8.50637060546875,-0.42486101388931274,-0.0201587975025177,0.08845982700586319
1789757541070381600,8.516381591796875,-0.3707466423511505,-0.05494634062051773,0.07328379899263382
1789757541080393700,8.526393798828124,-0.3688874840736389,-0.06970024853944778,-0.007616906892508268
1789757541090404900,8.53640478515625,-0.3568417429924011,-0.02364674024283886,0.02076653018593788
1789757541100415700,8.546415771484375,-0.3058624565601349,-0.006903446279466152,0.16052363812923431
1789757541110426600,8.556426513671875,-0.393460214138031,-0.09327562153339386,0.035476233810186386
1789757541120437500,8.5664375,-0.47973865270614624,-0.03350336477160454,-0.2123868316411972
1789757541130449000,8.576448974609375,-0.4745185673236847,-0.0947486162185669,-0.10350002348423004
1789757541140459800,8.586459716796876,-0.3345809280872345,-0.05697673186659813,0.17318856716156006
1789757541150470700,8.596470703125,-0.3447411358356476,-0.08668509125709534,0.20658406615257263
1789757541160482600,8.606482666015625,-0.3564678430557251,-0.11734899878501892,0.059537630528211594
1789757541170493700,8.61649365234375,-0.45590469241142273,-0.09454621374607086,-0.09538377821445465
1789757541180504800,8.6265048828125,-0.5733197331428528,-0.08503606170415878,-0.18741196393966675
1789757541190515700,8.636515625,-0.5093375444412231,-0.05038727447390556,-0.06759848445653915
1789757541200526600,8.646526611328126,-0.49060115218162537,-0.11578278988599777,0.1409560590982437
1789757541210537700,8.656537841796874,-0.35662388801574707,-0.17885497212409973,0.07791530340909958
1789757541220548600,8.666548583984374,-0.2536107003688812,-0.16363181173801422,0.031624238938093185
1789757541230559700,8.676559814453125,-0.3499864935874939,-0.1537512093782425,-0.10954726487398148
1789757541240571000,8.68657080078125,-0.4003545939922333,-0.15466360747814178,-0.29126620292663574
1789757541250581800,8.696581787109375,-0.36043593287467957,-0.21389125287532806,-0.15896807610988617
1789757541260593700,8.70659375,-0.35059264302253723,-0.26858991384506226,0.04026087000966072
1789757541270604500,8.7166044921875,-0.17160850763320923,-0.22096461057662964,0.045404765754938126
1789757541280615700,8.72661572265625,-0.1665612906217575,-0.19358517229557037,0.057079531252384186
1789757541290626800,8.736626708984375,-0.21681512892246246,-0.17201383411884308,-0.06926669180393219
1789757541300637700,8.7466376953125,-0.23785117268562317,-0.13516394793987274,-0.17395608127117157
1789757541310648600,8.756648681640625,-0.2076874077320099,-0.24542121589183807,-0.06374648958444595
1789757541320659700,8.76665966796875,-0.0845620185136795,-0.26577574014663696,-0.1122724786400795
1789757541330670800,8.7766708984375,0.057731471955776215,-0.23780457675457,-0.05638178437948227
1789757541340681700,8.786681640625,0.16908623278141022,-0.324948251247406,0.009367402642965317
1789757541350693600,8.796693603515624,0.31280237436294556,-0.2948231101036072,0.1720130443572998
1789757541360704800,8.806704833984375,0.2296326607465744,-0.1598099023103714,0.17789143323898315
1789757541370715600,8.816715576171875,0.3304540812969208,-0.09492384642362595,0.14697133004665375
1789757541380726800,8.826726806640625,0.4832068681716919,-0.12441276758909225,0.06638834625482559
1789757541390737700,8.836737548828125,0.5285402536392212,-0.0933467224240303,-0.00017070861940737814
1789757541400748800,8.846748779296876,0.6053114533424377,-0.0886923149228096,0.0630095899105072
1789757541410759700,8.856759765625,0.7279638648033142,-0.12383139878511429,0.27951979637145996
1789757541420770000,8.86677001953125,0.7039536237716675,-0.08773038536310196,0.2548123300075531
1789757541430781200,8.87678125,0.7567249536514282,-0.03220560774207115,0.26742130517959595
1789757541440793000,8.88679296875,0.6940352320671082,-0.07130427658557892,0.15167555212974548
1789757541450804000,8.896803955078125,0.6089485287666321,-0.029097698628902435,0.13792164623737335
1789757541460815000,8.906815185546876,0.5124499797821045,-0.025362880900502205,0.06855668872594833
1789757541470826200,8.916826171875,0.5381686687469482,0.006393184419721365,0.21447502076625824
1789757541480837000,8.926837158203124,0.4319727122783661,-0.017657024785876274,-0.008645153604447842
1789757541490848000,8.936847900390624,0.3888761103153229,0.027350131422281265,0.12500745058059692
1789757541500859100,8.946859130859375,0.2827898859977722,-0.005369731690734625,-0.06898971647024155
1789757541510870000,8.9568701171875,0.3165486454963684,-0.030675088986754417,0.0902063250541687
1789757541520881200,8.966881103515625,0.26570650935173035,0.0012551478575915098,0.24421612918376923
1789757541530893000,8.97689306640625,0.21391893923282623,-0.030342459678649902,0.21644841134548187
1789757541540904000,8.986904052734374,0.14335663616657257,-0.0003760383406188339,0.1263350397348404
1789757541550915000,8.9969150390625,0.04085155948996544,-0.0521731898188591,-0.029740851372480392
1789757541560926200,9.00692626953125,-0.09198851138353348,-0.01925997994840145,-0.11110547930002213
1789757541570937000,9.01693701171875,-0.12907250225543976,-0.10753471404314041,-0.21243849396705627
1789757541580948200,9.0269482421875,-0.1528441458940506,-0.11092358827590942,-0.09899155795574188
1789757541590959000,9.036958984375,-0.15773770213127136,-0.14221200346946716,0.013601296581327915
1789757541600970000,9.046969970703126,-0.14717507362365723,-0.1225472241640091,0.11479608714580536
1789757541610980900,9.05698095703125,-0.1636778861284256,-0.10313250869512558,0.11048709601163864
1789757541620993000,9.066992919921875,-0.21570459008216858,0.006411027628928423,0.20367270708084106
1789757541631004200,9.077004150390625,-0.25587040185928345,0.016868196427822113,0.05161845311522484
1789757541641015000,9.08701513671875,-0.18705910444259644,-0.10508993268013,-0.0498887300491333
1789757541651026000,9.09702587890625,-0.10654455423355103,-0.07996993511915207,0.0913003534078598
1789757541661037300,9.107037353515626,-0.05662679299712181,-0.20927785336971283,0.06320054084062576
1789757541671048200,9.117048095703124,-0.05687819793820381,-0.11968272179365158,0.10041368752717972
1789757541681059000,9.12705908203125,-0.16816078126430511,-0.10082461684942245,0.02719406969845295
1789757541691070000,9.137070068359375,-0.1503751277923584,-0.06593480706214905,0.01423353049904108
1789757541701082000,9.14708203125,-0.08810588717460632,-0.11416731774806976,0.07390245050191879
1789757541711093200,9.15709326171875,-0.008677377365529537,-0.08683183044195175,0.14819425344467163
1789757541721104100,9.167104248046876,-0.052436575293540955,-0.01227770559489727,0.05380943417549133
1789757541731115000,9.177114990234376,-0.027836957946419716,-0.05953603237867355,-0.12402421236038208
1789757541741126100,9.187126220703124,0.15549425780773163,-0.12225906550884247,-0.019276225939393044
1789757541751137000,9.197136962890625,0.25766563415527344,-0.2568701505661011,-0.060315538197755814
1789757541761148000,9.20714794921875,0.24635730683803558,-0.14435291290283203,0.11218059808015823
1789757541771159300,9.2171591796875,0.09075386822223663,-0.09961473941802979,-0.11140988022089005
1789757541781170200,9.227170166015625,0.21725589036941528,-0.09927332401275635,-0.06130623444914818
1789757541791182000,9.23718212890625,0.2800585627555847,-0.12335442751646042,-0.07480180263519287
1789757541801193000,9.24719287109375,0.30478519201278687,-0.060997575521469116,0.0976133719086647
1789757541811204000,9.2572041015625,0.21440976858139038,0.0756060779094696,0.005179315805435181
1789757541821215200,9.26721533203125,0.1787838637828827,0.08370368182659149,-0.2169930338859558
1789757541831226000,9.27722607421875,0.2741476595401764,0.017708955332636833,-0.20875000953674316
1789757541841237000,9.287237060546875,0.39234355092048645,-0.13279825448989868,-0.1926666498184204
1789757541851248000,9.297248046875,0.48574647307395935,-0.1446024626493454,0.012309929355978966
1789757541861259000,9.307259033203126,0.37272909283638,-0.0114369448274374,0.1415289044380188
1789757541871270100,9.317270263671874,0.28843313455581665,0.028605278581380844,-0.022359633818268776
1789757541881282000,9.327281982421875,0.3045910596847534,0.03365170210599899,-0.0925975814461708
1789757541891293000,9.33729296875,0.3792913854122162,0.004760933108627796,0.0028687571175396442
1789757541901304000,9.347303955078125,0.46754321455955505,-0.030717432498931885,0.1087600365281105
1789757541911315200,9.357315185546875,0.39665865898132324,0.004422445315867662,0.004768389742821455
1789757541921326000,9.367326171875,0.2310183048248291,0.033798445016145706,-0.07002222537994385
1789757541931337200,9.377337158203124,0.14946351945400238,0.12598615884780884,-0.09719499200582504
1789757541941348000,9.38734814453125,0.09201088547706604,-0.003635481232777238,-0.13354606926441193
1789757541951359000,9.39735888671875,0.2793152630329132,-0.05396709591150284,0.027327761054039
1789757541961370000,9.4073701171875,0.24258121848106384,-0.0793243795633316,0.22635218501091003
1789757541971382000,9.417382080078125,0.15807831287384033,-0.024596422910690308,0.16579562425613403
1789757541981393200,9.42739306640625,0.09472890198230743,-0.0014524880098178983,-0.0014114753575995564
1789757541991404000,9.437404052734376,0.06980224698781967,-0.01678190939128399,-0.1796880066394806
1789757542001415000,9.447414794921874,0.27682334184646606,-0.07694165408611298,-0.06004762277007103
1789757542011426300,9.45742626953125,0.3552553057670593,-0.019749470055103302,0.11008735746145248
1789757542021437200,9.467437255859375,0.24178679287433624,0.028022579848766327,0.05488109216094017
1789757542031448000,9.477447998046875,0.2776244282722473,0.10992303490638733,-0.07301535457372665
1789757542041459200,9.487459228515625,0.3843972086906433,0.10544759780168533,-0.2248900979757309
1789757542051470000,9.497469970703126,0.6715104579925537,-0.007952465675771236,-0.07556480169296265
1789757542061482200,9.507482177734374,0.7890487909317017,0.05903295800089836,0.08861961215734482
1789757542071493000,9.5174931640625,0.5749072432518005,0.07956966012716293,-0.06022872030735016
1789757542081504000,9.52750390625,0.581371009349823,0.14807415008544922,0.03629009798169136
1789757542091515100,9.53751513671875,0.6062456965446472,0.1396913230419159,-0.039682697504758835
1789757542101526000,9.547526123046875,0.7374402284622192,0.06851407885551453,0.08258462697267532
1789757542111537000,9.557536865234376,0.6527460813522339,0.1327870786190033,0.009767409414052963
1789757542121548300,9.56754833984375,0.3987226188182831,0.07358366996049881,0.01119433157145977
1789757542131559200,9.57755908203125,0.30069777369499207,0.17803896963596344,0.007507717236876488
1789757542141570000,9.587570068359375,0.2005845010280609,0.07512777298688889,0.01377999410033226
1789757542151582000,9.59758203125,0.1565941423177719,0.09918437153100967,0.07100280374288559
1789757542161593000,9.607593017578125,0.07505320757627487,0.05131884664297104,-0.009730923920869827
1789757542171604200,9.617604248046876,0.06538672745227814,0.003922303672879934,0.07631181180477142
1789757542181615000,9.627614990234376,0.022065354511141777,0.0342961885035038,-0.008743956685066223
1789757542191626000,9.6376259765625,0.0724068209528923,-0.01648044027388096,0.12202923744916916
1789757542201637000,9.64763720703125,0.07119215279817581,0.04297596216201782,0.1569715142250061
1789757542211648000,9.65764794921875,-0.10697571933269501,0.09811538457870483,0.01937662810087204
1789757542221659100,9.6676591796875,-0.158347025513649,0.14235661923885345,-0.06295792758464813
1789757542231670000,9.677669921875,-0.06815481930971146,0.16739964485168457,-0.04083797708153725
1789757542241682200,9.68768212890625,0.0964953824877739,-0.03464852273464203,-0.003734018187969923
1789757542251693000,9.697693115234374,0.31691908836364746,-0.01691719889640808,0.21714642643928528
1789757542261704200,9.7077041015625,0.22903504967689514,-0.060382116585969925,0.10409204661846161
1789757542271715000,9.717715087890625,0.16688725352287292,0.0876837819814682,0.05576606094837189
1789757542281726200,9.727726318359375,0.1389344483613968,0.17045322060585022,0.010271280072629452
1789757542291737000,9.737737060546875,0.19080697000026703,0.1536279022693634,-0.010206298902630806
1789757542301748000,9.747748046875,0.35054630041122437,0.12036023288965225,0.08698390424251556
1789757542311759000,9.757759033203126,0.4220007658004761,0.12729963660240173,0.17969919741153717
1789757542321770200,9.767770263671874,0.5181776285171509,0.1391829252243042,0.17258481681346893
1789757542331782100,9.7777822265625,0.5433138608932495,0.23814651370048523,0.15302017331123352
1789757542341793000,9.78779296875,0.4792803227901459,0.2650921046733856,-0.043828438967466354
1789757542351804000,9.797803955078125,0.5767155289649963,0.17905071377754211,-0.034260235726833344
1789757542361815000,9.80781494140625,0.701680064201355,0.12924852967262268,0.13487446308135986
1789757542371826200,9.817826171875,0.589752733707428,0.1474911868572235,-0.04405267909169197
1789757542381837000,9.827837158203126,0.5430172085762024,0.1653524786233902,0.06621044874191284
1789757542391848200,9.83784814453125,0.46015483140945435,0.2206444889307022,0.006595051847398281
1789757542401859000,9.847859130859375,0.4300898611545563,0.24561242759227753,0.13145682215690613
1789757542411871200,9.857871337890625,0.3642978072166443,0.2828085422515869,0.09359466284513474
1789757542421883000,9.8678828125,0.26835742592811584,0.20158983767032623,0.03404664993286133
1789757542431893800,9.877893798828126,0.18649505078792572,0.268197625875473,-0.0996224656701088
1789757542441905000,9.88790478515625,0.19082774221897125,0.16395510733127594,-0.029399966821074486
1789757542451915800,9.897915771484374,0.21262331306934357,0.18828043341636658,0.21576105058193207
1789757542461927000,9.907927001953125,0.06874630600214005,0.2051648646593094,0.15559864044189453
1789757542471937800,9.917937744140625,-0.009914682246744633,0.18091624975204468,0.03178216516971588
1789757542481949000,9.927948974609375,-0.07083369046449661,0.2201017439365387,0.005530852824449539
1789757542491959800,9.937959716796875,-0.1911899298429489,0.26036500930786133,0.02425846830010414
1789757542501972000,9.947971923828124,-0.24641111493110657,0.18900108337402344,-0.007124488707631826
1789757542511982800,9.95798291015625,-0.17694175243377686,0.12329157441854477,0.09499255567789078
1789757542521994000,9.967993896484375,-0.3063303828239441,0.05852935463190079,0.055573511868715286
1789757542532004900,9.9780048828125,-0.46511149406433105,0.12382713705301285,0.09139835834503174
1789757542542015700,9.988015625,-0.6266540288925171,0.14655588567256927,-0.011755725368857384
1789757542552026600,9.998026611328125,-0.6709005832672119,0.08870616555213928,-0.08043252676725388
1789757542562038000,10.0080380859375,-0.6243767738342285,0.09368840605020523,-0.013635384850203991
1789757542572049000,10.018048828125,-0.6313638687133789,0.04073065146803856,0.07389393448829651
1789757542582059800,10.028059814453124,-0.5900454521179199,0.1225365698337555,0.2842530310153961
1789757542592071700,10.03807177734375,-0.6585014462471008,0.17369216680526733,0.2145591676235199
1789757542602082800,10.048082763671875,-0.6700513362884521,0.14049425721168518,0.003849865635856986
1789757542612094000,10.058093994140625,-0.5666727423667908,0.13006159663200378,-0.15545058250427246
1789757542622104800,10.068104736328126,-0.4808529019355774,0.0030772825703024864,-0.41200965642929077
1789757542632116000,10.078115966796876,-0.327902227640152,0.027247333899140358,-0.3303701877593994
1789757542642126800,10.088126953125,-0.10406115651130676,-0.015853798016905785,-0.10769929736852646
1789757542652137700,10.0981376953125,0.07250562310218811,-0.006440588738769293,0.13291038572788239
1789757542662148900,10.10814892578125,0.04490089416503906,0.1553187519311905,0.22457344830036163
1789757542672160800,10.118160888671875,-0.004308728501200676,0.2387412041425705,0.12953348457813263
1789757542682172000,10.128171875,0.1736929565668106,0.23601119220256805,0.1426764577627182
1789757542692182800,10.138182861328126,0.26624712347984314,0.19440144300460815,0.2081015408039093
1789757542702193700,10.148193603515624,0.24516607820987701,0.11233053356409073,-0.03311054781079292
1789757542712205000,10.158205078125,0.22591862082481384,0.13394688069820404,-0.2686796486377716
1789757542722216000,10.1682158203125,0.2098509669303894,0.09796357899904251,-0.22582992911338806
1789757542732226800,10.178226806640625,0.2930507957935333,0.08157075941562653,0.05769525468349457
1789757542742237700,10.18823779296875,0.2705758213996887,0.12589775025844574,0.4223741590976715
1789757542752248800,10.198248779296875,0.29083317518234253,0.12109260261058807,0.32087576389312744
1789757542762261000,10.208260986328124,0.26982349157333374,0.22831785678863525,0.3176743686199188
1789757542772271900,10.21827197265625,0.23389185965061188,0.28616970777511597,0.024863537400960922
1789757542782282800,10.22828271484375,0.42606210708618164,0.1393805295228958,-0.0835215225815773
1789757542792294000,10.2382939453125,0.3719029724597931,0.13631656765937805,-0.0793243795633316
1789757542802304800,10.2483046875,0.28080129623413086,0.15950123965740204,0.1717887967824936
1789757542812316000,10.25831591796875,0.1795543134212494,0.15948419272899628,0.14102263748645782
1789757542822326800,10.268326904296876,0.03588077053427696,0.22328288853168488,0.36273959279060364
1789757542832338000,10.278337890625,-0.11864355951547623,0.2647850513458252,-0.019151058048009872
1789757542842349800,10.288349853515625,-0.10176204890012741,0.21158069372177124,0.03599528595805168
1789757542852360700,10.298360595703125,-0.00020719393796753138,0.08180325478315353,0.06899318099021912
1789757542862371800,10.308371826171875,-0.08389516919851303,0.1439843326807022,0.17883366346359253
1789757542872383000,10.318383056640625,-0.24319854378700256,0.15446467697620392,-0.04159431532025337
1789757542882393900,10.328393798828126,-0.3109211325645447,0.17590871453285217,-0.03405197709798813
1789757542892404700,10.33840478515625,-0.3590809404850006,0.1795670986175537,-0.1025862991809845
1789757542902416000,10.348415771484374,-0.37890923023223877,0.17807945609092712,-0.05830272287130356
1789757542912427000,10.358427001953125,-0.3718942105770111,0.16187278926372528,0.09505274891853333
1789757542922438000,10.36843798828125,-0.4569997787475586,0.1324421912431717,-0.07928496599197388
1789757542932449800,10.37844970703125,-0.5433564782142639,0.15922187268733978,-0.15101933479309082
1789757542942460700,10.388460693359375,-0.6120439767837524,0.156813845038414,-0.20241142809391022
1789757542952471800,10.398471923828126,-0.6278064250946045,0.17515742778778076,-0.1989506483078003
1789757542962483000,10.40848291015625,-0.6345087885856628,0.157728374004364,-0.12571771442890167
1789757542972493800,10.418493896484375,-0.5832972526550293,0.148200124502182,-0.02648194134235382
1789757542982505000,10.4285048828125,-0.6232652068138123,0.15161003172397614,0.13262541592121124
1789757542992515800,10.438515869140625,-0.6917195916175842,0.20776277780532837,0.09874095767736435
1789757543002526700,10.448526611328125,-0.7038436532020569,0.19987769424915314,0.18578211963176727
1789757543012539000,10.458538818359376,-0.6972443461418152,0.12287159264087677,-0.10652697831392288
1789757543022549800,10.4685498046875,-0.6834928393363953,0.11027750372886658,0.012378904968500137
1789757543032561000,10.478560791015624,-0.7114027738571167,0.08343790471553802,-0.23600827157497406
1789757543042571800,10.48857177734375,-0.736936092376709,0.07105953246355057,-0.21479672193527222
1789757543052582700,10.498582763671875,-0.7468848824501038,0.08746273815631866,-0.07641035318374634
1789757543062594000,10.508593994140625,-0.8104078769683838,0.1251952052116394,0.11887392401695251
1789757543072605000,10.51860498046875,-0.7410644888877869,0.10042567551136017,0.15430621802806854
1789757543082615800,10.52861572265625,-0.7443591356277466,0.006313023157417774,0.05672266706824303
1789757543092626700,10.538626708984374,-0.7877944707870483,-0.060623664408922195,-0.15025635063648224
1789757543102638800,10.548638916015625,-0.8178330659866333,-0.09378135204315186,-0.24796107411384583
1789757543112650000,10.55864990234375,-0.8087610006332397,-0.13154764473438263,-0.2750251889228821
1789757543122660900,10.568660888671875,-0.7868903279304504,-0.11985849589109421,-0.1588844507932663
1789757543132671700,10.578671630859375,-0.8279168605804443,-0.08602862805128098,0.00899615790694952
1789757543142683000,10.588682861328126,-0.8803324103355408,-0.09531080722808838,0.06887467205524445
1789757543152693800,10.59869384765625,-0.8830980658531189,-0.010385262779891491,0.07853022962808609
1789757543162705000,10.608704833984374,-0.8334463834762573,-0.08717884123325348,0.03614522144198418
1789757543172715800,10.6187158203125,-0.7755377888679504,-0.13045041263103485,-0.04269872605800629
1789757543182728000,10.62872802734375,-0.708618700504303,-0.1658630073070526,0.06565491110086441
1789757543192738800,10.63873876953125,-0.6921278834342957,-0.113187275826931,0.1378321647644043
1789757543202749700,10.648749755859376,-0.7051954865455627,-0.13505049049854279,-0.04990497604012489
1789757543212760800,10.6587607421875,-0.6732599139213562,-0.1752796769142151,-0.21579806506633759
1789757543222772000,10.66877197265625,-0.6087408065795898,-0.25472548604011536,-0.30601930618286133
1789757543232782800,10.678782958984375,-0.4969743490219116,-0.1650928109884262,-0.06961902230978012
1789757543242793700,10.688793701171875,-0.4877989590167999,-0.21099665760993958,-0.012413792312145233
1789757543252804900,10.698804931640625,-0.492424339056015,-0.13133059442043304,0.14921851456165314
1789757543262817000,10.708817138671876,-0.5587359666824341,-0.14433054625988007,0.2396213859319687
1789757543272828000,10.718827880859376,-0.46999573707580566,-0.15236103534698486,0.20045693218708038
1789757543282838800,10.7288388671875,-0.41965800523757935,-0.19320940971374512,0.13417485356330872
1789757543292849700,10.738849609375,-0.3802775740623474,-0.22016645967960358,-0.06743843108415604
1789757543302860800,10.74886083984375,-0.304922878742218,-0.29854273796081543,-0.0808064341545105
1789757543312872000,10.758871826171875,-0.28028517961502075,-0.2559492290019989,0.031195469200611115
1789757543322882800,10.7688828125,-0.2649051547050476,-0.2681150734424591,0.09303992986679077
1789757543332894000,10.77889404296875,-0.23376375436782837,-0.19733810424804688,0.08418545126914978
1789757543342905900,10.78890576171875,-0.3070451617240906,-0.16415032744407654,0.039562590420246124
1789757543352917000,10.7989169921875,-0.3216613829135895,-0.070317842066288,0.1700928956270218
1789757543362927900,10.808927978515625,-0.16553623974323273,-0.17140556871891022,0.13240624964237213
1789757543372938800,10.818938720703125,-0.0535561703145504,-0.1896684616804123,-0.015084677375853062
1789757543382950000,10.828949951171875,0.0777997225522995,-0.23744584619998932,-0.20653186738491058
1789757543392960800,10.838960693359375,0.1610487997531891,-0.2186303436756134,-0.27247172594070435
1789757543402971600,10.8489716796875,0.2024412602186203,-0.2727090120315552,-0.27978503704071045
1789757543412983000,10.858983154296874,0.18006378412246704,-0.12590999901294708,0.1038353219628334
1789757543422995000,10.868994873046875,0.18864502012729645,-0.10121849924325943,-0.14516891539096832
1789757543433006000,10.879006103515625,0.2031315416097641,-0.02714320458471775,0.14454813301563263
1789757543443017000,10.889016845703125,0.1635740101337433,-0.06084417551755905,-0.09849008917808533
1789757543453027800,10.89902783203125,0.25635188817977905,-0.112261563539505,0.17820516228675842
1789757543463039000,10.9090390625,0.2644774615764618,-0.09954603016376495,0.30125412344932556
1789757543473049900,10.9190498046875,0.26332324743270874,-0.15603993833065033,0.14001701772212982
1789757543483061000,10.92906103515625,0.23980647325515747,-0.08455776423215866,0.0171507578343153
1789757543493072100,10.939072021484375,0.4066082239151001,-0.310709148645401,-0.1905374526977539
1789757543503084000,10.949083984375,0.3672342002391815,-0.2419164925813675,0.08315107971429825
1789757543513095000,10.959094970703125,0.024686703458428383,0.018019480630755424,0.08596976846456528
1789757543523105800,10.969105712890626,-0.046353649348020554,0.0736055076122284,0.03362720087170601
1789757543533117000,10.979116943359376,0.02142246812582016,-0.03461869806051254,-0.2012271136045456
1789757543543128000,10.989128173828124,-0.07673206180334091,-0.05573490262031555,0.07440925389528275
1789757543553139000,10.999138916015625,0.0354251004755497,-0.14262159168720245,0.05801616609096527
1789757543563149800,11.00914990234375,-0.03605307638645172,-0.1451137810945511,0.22007323801517487
1789757543573161000,11.019160888671875,-0.28757452964782715,-0.08459318429231644,0.13665024936199188
1789757543583173000,11.029173095703126,-0.24655385315418243,-0.1277683526277542,0.05805185064673424
1789757543593184000,11.03918408203125,-0.3259357511997223,-0.09766983240842819,0.10893899947404861
1789757543603195000,11.04919482421875,-0.2677600681781769,-0.15508465468883514,-0.10104832053184509
1789757543613206000,11.0592060546875,-0.18646734952926636,-0.16680176556110382,-0.05977118760347366
1789757543623217000,11.069216796875,-0.24453571438789368,-0.17183886468410492,-0.15165077149868011
1789757543633228000,11.07922802734375,-0.24798530340194702,-0.12998490035533905,0.12806609272956848
1789757543643239000,11.089239013671875,-0.22939670085906982,-0.13858558237552643,0.03403972461819649
1789757543653250000,11.09925,-0.2383502572774887,-0.11268393695354462,0.15144598484039307
1789757543663262000,11.109261962890624,-0.13994857668876648,-0.21909452974796295,-0.0694240853190422
1789757543673273000,11.119273193359374,-0.07484148442745209,-0.1828417181968689,0.00688933115452528
1789757543683284000,11.129283935546875,-0.07486758381128311,-0.1880846917629242,0.03464958816766739
1789757543693295000,11.139295166015625,-0.012089685536921024,-0.15274827182292938,0.07988391071557999
1789757543703306000,11.149305908203125,-0.0447501614689827,-0.1050955280661583,0.058031611144542694
1789757543713316900,11.15931689453125,0.03176112473011017,-0.07978671044111252,-0.05588909983634949
1789757543723328000,11.169327880859376,0.10577143728733063,-0.11614498496055603,-0.2404102087020874
1789757543733339100,11.179339111328124,0.16582518815994263,-0.14787840843200684,-0.23094400763511658
1789757543743351000,11.18935107421875,0.15619413554668427,-0.1689019352197647,0.03627438470721245
1789757543753362000,11.19936181640625,0.14905738830566406,-0.02713015489280224,0.2609351873397827
1789757543763372800,11.209372802734375,0.16597245633602142,0.04414802044630051,0.2643839716911316
1789757543773384000,11.219384033203125,0.22887712717056274,-0.05043334513902664,0.18374480307102203
1789757543783395000,11.22939501953125,0.19716845452785492,-0.052271194756031036,-0.14143116772174835
1789757543793406000,11.239406005859376,0.27229171991348267,-0.15033650398254395,-0.04651983082294464
1789757543803417000,11.2494169921875,0.2447676658630371,-0.09478962421417236,-0.10504279285669327
1789757543813428000,11.259427978515625,0.168509379029274,-0.0826173797249794,-0.14718039333820343
1789757543823440100,11.269440185546875,0.10158707946538925,-0.08576230704784393,-0.002826412906870246
1789757543833451000,11.279450927734375,0.01624368503689766,-0.07028854638338089,0.12584102153778076
1789757543843462000,11.2894619140625,0.027342408895492554,-0.03802754357457161,0.08360248804092407
1789757543853473000,11.29947314453125,0.005877862684428692,-0.07035379111766815,-0.029355758801102638
1789757543863484000,11.30948388671875,0.03419765084981918,-0.08418891578912735,0.08474418520927429
1789757543873494800,11.319494873046875,-0.012791162356734276,-0.025351695716381073,0.1064891591668129
1789757543883506200,11.329506103515625,-0.03069213218986988,-0.030493460595607758,0.04592940956354141
1789757543893517000,11.33951708984375,-0.03927869722247124,-0.02317562699317932,-0.056652095168828964
1789757543903529000,11.349529052734376,0.03488660976290703,-0.11779534071683884,-0.08032733201980591
1789757543913539800,11.359539794921876,0.05826304107904434,-0.09652067720890045,0.2127612680196762
1789757543923551000,11.369551025390624,-0.05987371876835823,-0.12435124814510345,0.03592417761683464
1789757543933562000,11.37956201171875,-0.15771666169166565,-0.05456604063510895,0.022231535986065865
1789757543943573000,11.389572998046875,-0.1379120647907257,-0.13257455825805664,-0.09445912390947342
1789757543953583900,11.399583984375,-0.1448538601398468,-0.01378372311592102,0.28012141585350037
1789757543963595000,11.409594970703125,-0.18802157044410706,-0.05501637980341911,0.056002017110586166
1789757543973607200,11.419607177734376,-0.16626887023448944,-0.11870215088129044,0.018159296363592148
1789757543983618000,11.4296181640625,-0.16726382076740265,-0.11282375454902649,-0.23640720546245575
1789757543993629000,11.43962890625,-0.11855380982160568,-0.03569887578487396,0.032401613891124725
1789757544003640000,11.44964013671875,-0.13359187543392181,-0.07166886329650879,-0.12381408363580704
1789757544013651000,11.45965087890625,-0.20131340622901917,-0.01919127069413662,-0.06901741772890091
1789757544023661800,11.469661865234375,-0.1350984275341034,-0.06667064130306244,0.032338231801986694
1789757544033673000,11.4796728515625,0.043472908437252045,-0.10227283835411072,0.16963936388492584
1789757544043684000,11.48968408203125,-0.027341077104210854,-0.0953448936343193,0.2485341876745224
1789757544053696000,11.499696044921874,-0.1236971765756607,0.023391341790556908,0.28164979815483093
1789757544063707000,11.509706787109375,-0.16685156524181366,-0.0738111063838005,-0.08824357390403748
1789757544073718000,11.519718017578125,-0.10713683813810349,-0.14038561284542084,-0.31718701124191284
1789757544083729200,11.529729248046875,-0.01679469272494316,-0.03200453892350197,-0.22935542464256287
1789757544093740000,11.539739990234375,-0.10717066377401352,-0.04484470188617706,0.024635039269924164
1789757544103751000,11.5497509765625,-0.12704317271709442,0.048109207302331924,0.21056468784809113
1789757544113761800,11.55976171875,-0.023574035614728928,-0.0744478702545166,0.0627286285161972
1789757544123773000,11.56977294921875,0.15946555137634277,-0.028360001742839813,0.3240358531475067
1789757544133785000,11.57978515625,0.08962522447109222,-0.06306951493024826,0.004274906124919653
1789757544143796000,11.5897958984375,0.06516781449317932,-0.036378245800733566,-0.12874892354011536
1789757544153806800,11.599806884765625,0.02701324224472046,-0.09687168151140213,-0.18420365452766418
1789757544163818000,11.60981787109375,0.015033011324703693,0.09376031160354614,0.23872388899326324
1789757544173829000,11.6198291015625,-0.022340726107358932,-0.026004169136285782,-0.016593890264630318
1789757544183840000,11.629840087890624,0.08508852869272232,-0.040997765958309174,-0.12295681238174438
1789757544193851000,11.639850830078124,0.05321235582232475,-0.023487482219934464,-0.16813574731349945
1789757544203862800,11.64986279296875,0.08248821645975113,-0.02652748115360737,-0.22745898365974426
1789757544213874000,11.6598740234375,0.07673365622758865,0.01128221582621336,-0.006570817437022924
1789757544223885000,11.669885009765625,-0.02660471200942993,0.07105766236782074,0.22477266192436218
1789757544233896000,11.67989599609375,-0.0003230414295103401,0.06478884816169739,0.29051706194877625
1789757544243907000,11.689906982421874,0.06864137947559357,0.06538992375135422,-0.012434565462172031
1789757544253918000,11.69991796875,0.04024036228656769,0.034211501479148865,-0.21313384175300598
1789757544263928800,11.7099287109375,0.046372026205062866,-0.022856580093503,-0.25921985507011414
1789757544273940000,11.71993994140625,-0.05048155039548874,0.10458739846944809,0.008254467509686947
1789757544283951900,11.729951904296875,-0.11796098947525024,0.08114252239465714,0.1439846009016037
1789757544293963000,11.739962890625,-0.011769041419029236,0.10860557109117508,0.2905697822570801
1789757544303974000,11.749973876953124,-0.04080948233604431,-0.0260491780936718,-0.012739230878651142
1789757544313984800,11.75998486328125,-0.12137356400489807,-0.00008841694943839684,-0.13578499853610992
1789757544323996200,11.76999609375,-0.15340234339237213,-0.010906443931162357,-0.1760820895433426
1789757544334007000,11.780007080078125,-0.2195424735546112,0.056107744574546814,0.060092631727457047
1789757544344018000,11.790017822265625,-0.3033641278743744,0.03936711326241493,0.14929334819316864
1789757544354029800,11.80002978515625,-0.3357734680175781,0.032107867300510406,0.23347613215446472
1789757544364041000,11.810041015625,-0.3562049865722656,-0.02009621262550354,0.0033920682035386562
1789757544374052000,11.820052001953124,-0.28407061100006104,-0.09942299127578735,0.10001447796821594
1789757544384063000,11.83006298828125,-0.3465723395347595,-0.08068898320198059,0.10723431408405304
1789757544394073900,11.840073974609375,-0.3820195496082306,-0.07211653888225555,0.031138744205236435
1789757544404085000,11.8500849609375,-0.3642783463001251,-0.11906513571739197,-0.14466051757335663
1789757544414096000,11.860095947265625,-0.32866230607032776,-0.08876795321702957,0.04289047420024872
1789757544424107300,11.870107177734376,-0.2876160740852356,-0.08705713599920273,-0.09396591037511826
1789757544434118100,11.8801181640625,-0.29703274369239807,-0.10383398830890656,0.030071349814534187
1789757544444129300,11.89012939453125,-0.3179665207862854,-0.12796595692634583,-0.0193683709949255
1789757544454140400,11.900140380859375,-0.25478968024253845,-0.03975833207368851,0.08597509562969208
1789757544464151300,11.9101513671875,-0.21052688360214233,-0.1500672549009323,0.05451490730047226
1789757544474162400,11.920162353515625,-0.1807870864868164,-0.15957847237586975,0.1939697414636612
1789757544484173300,11.93017333984375,-0.3441603183746338,-0.02586808241903782,0.21727266907691956
1789757544494184200,11.94018408203125,-0.3621363639831543,-0.03069905750453472,0.16697460412979126
1789757544504196400,11.9501962890625,-0.2729436457157135,-0.018564896658062935,0.13861887156963348
1789757544514207500,11.96020751953125,-0.22548559308052063,-0.0349542535841465,-0.1059887483716011
1789757544524218400,11.97021826171875,-0.1359889954328537,-0.11840493977069855,-0.43596532940864563
1789757544534229200,11.980229248046875,-0.004415254574269056,-0.17128440737724304,-0.3399924635887146
1789757544544240000,11.990240234375,0.022492526099085808,-0.04290112853050232,0.22213932871818542
1789757544554251500,12.00025146484375,-0.12160499393939972,0.010641193017363548,0.29817789793014526
1789757544564262400,12.010262451171876,-0.10394397377967834,0.00401711231097579,0.24511894583702087
1789757544574274300,12.0202744140625,-0.11363042145967484,-0.12789671123027802,-0.04473098739981651
1789757544584285200,12.03028515625,-0.09798461943864822,-0.09728474169969559,-0.1609281599521637
1789757544594296600,12.040296630859375,-0.06804722547531128,-0.09747356176376343,-0.18300843238830566
1789757544604307500,12.050307373046875,-0.0902784988284111,-0.0427437350153923,-0.1085115596652031
1789757544614318300,12.060318359375,-0.2345893383026123,0.08506083488464355,0.005391835700720549
1789757544624329200,12.0703291015625,-0.18218418955802917,0.02822631224989891,0.22617322206497192
1789757544634340400,12.08034033203125,-0.0291762612760067,-0.1268860399723053,0.11554097384214401
1789757544644351200,12.090351318359374,0.04159511253237724,-0.17112168669700623,0.09742801636457443
1789757544654363400,12.10036328125,-0.17565704882144928,-0.06492839753627777,-0.10212530195713043
1789757544664374300,12.110374267578125,-0.23924054205417633,-0.07672780007123947,-0.28394702076911926
1789757544674385400,12.120385498046875,-0.17598247528076172,-0.07474161684513092,-0.19565072655677795
1789757544684396300,12.130396240234376,-0.19009190797805786,-0.013933924958109856,-0.11956074833869934
1789757544694407200,12.1404072265625,-0.13696664571762085,-0.012500612065196037,-0.029630329459905624
1789757544704418300,12.150418212890624,-0.11986568570137024,-0.14729224145412445,-0.1666792631149292
1789757544714429400,12.160429443359375,-0.16178090870380402,-0.06391027569770813,0.043527502566576004
1789757544724441300,12.17044140625,-0.24811872839927673,-0.006788397673517466,0.11943584680557251
1789757544734452200,12.1804521484375,-0.15053677558898926,-0.0486743301153183,0.31823229789733887
1789757544744463400,12.19046337890625,-0.1352638155221939,-0.15762771666049957,0.3819747865200043
1789757544754474500,12.200474609375,-0.11750426143407822,-0.06872766464948654,0.07429074496030807
1789757544764485400,12.2104853515625,-0.16461797058582306,-0.10272610932588577,-0.2680343687534332
1789757544774496300,12.220496337890625,-0.0713261142373085,-0.0761384442448616,-0.2545715570449829
1789757544784507400,12.23050732421875,-0.02165229804813862,-0.1543022245168686,-0.3064028024673462
