time,seconds_elapsed,z,y,x
1789757532614758100,0.060758056640625,0.133462056517601,0.2202761024236679,0.005051351618021727
1789757532624769300,0.070769287109375,0.07225462049245834,0.26247867941856384,-0.10513746738433838
1789757532634780200,0.0807802734375,0.19286401569843292,0.19397002458572388,0.018334852531552315
1789757532644792300,0.090792236328125,0.11536656320095062,0.12478723376989365,-0.13626404106616974
1789757532654803200,0.10080322265625,0.19115158915519714,0.16901950538158417,0.09812406450510025
1789757532664814300,0.110814453125,0.004067194648087025,0.15615405142307281,-0.0787375271320343
1789757532674825200,0.1208251953125,0.05182748660445213,0.2056746631860733,0.07307258248329163
1789757532684836000,0.130836181640625,-0.050756681710481644,0.19172503054141998,-0.04688365012407303
1789757532694847200,0.14084716796875,0.0038383896462619305,0.22114576399326324,0.10482119023799896
1789757532704858400,0.1508583984375,-0.09584655612707138,0.18519404530525208,-0.07258971035480499
1789757532714869200,0.160869140625,-0.03837304189801216,0.15868906676769257,-0.03026212565600872
1789757532724880100,0.170880126953125,-0.17822815477848053,0.11326246708631516,-0.09036886692047119
1789757532734891300,0.180891357421875,-0.151992067694664,0.2288147658109665,0.06538746505975723
1789757532744902100,0.190902099609375,-0.3694727122783661,0.026413729414343834,-0.18394699692726135
1789757532754913300,0.200913330078125,-0.24707646667957306,0.19456690549850464,0.047213759273290634
1789757532764925200,0.21092529296875,-0.5603933930397034,0.10973324626684189,-0.18379069864749908
1789757532774936300,0.220936279296875,-0.4831576943397522,0.16272620856761932,0.03825042396783829
1789757532784947200,0.230947265625,-0.5673879384994507,0.14225342869758606,0.14835748076438904
1789757532794958000,0.2409580078125,-0.5275824666023254,0.12209141999483109,0.08131199330091476
1789757532804969200,0.25096923828125,-0.5175833106040955,0.009121987968683243,-0.1584361493587494
1789757532814980400,0.26098046875,-0.50943922996521,-0.0005179927684366703,-0.24288733303546906
1789757532824991200,0.2709912109375,-0.4590287506580353,0.04560049995779991,0.07113929837942123
1789757532835002000,0.281002197265625,-0.45407834649086,0.09446696192026138,0.23406551778316498
1789757532845013200,0.29101318359375,-0.40170353651046753,0.09002294391393661,0.2091095745563507
1789757532855024000,0.301024169921875,-0.301704078912735,0.13344712555408478,0.05538534000515938
1789757532865035300,0.31103515625,-0.17532244324684143,0.094485342502594,-0.15590479969978333
1789757532875047200,0.321047119140625,-0.05639871582388878,0.0819779708981514,-0.05579109489917755
1789757532885058000,0.33105810546875,-0.05592973157763481,0.05429814010858536,-0.0682554841041565
1789757532895069200,0.341069091796875,-0.049441784620285034,0.0932677835226059,0.04122363030910492
1789757532905080300,0.351080322265625,0.015407785773277283,0.0906008929014206,0.14009402692317963
1789757532915091200,0.36109130859375,0.07870060950517654,0.156916543841362,0.2475462555885315
1789757532925102300,0.371102294921875,0.1538930982351303,0.13369004428386688,0.1868450790643692
1789757532935113200,0.38111328125,0.0826309323310852,0.13749192655086517,0.016230404376983643
1789757532945124000,0.3911240234375,0.07394076883792877,0.11007548123598099,0.10463350266218185
1789757532955135200,0.40113525390625,0.08530272543430328,0.0658499002456665,0.011599048040807247
1789757532965146400,0.411146484375,0.09620091319084167,0.03069058246910572,0.10783316940069199
1789757532975157200,0.4211572265625,0.01584923267364502,0.12618254125118256,0.17934314906597137
1789757532985169200,0.431169189453125,-0.06746935844421387,0.08130508661270142,0.021911991760134697
1789757532995180000,0.441179931640625,-0.027720775455236435,0.13489404320716858,0.08294683694839478
1789757533005191400,0.45119140625,-0.05434892326593399,0.09360094368457794,0.021700263023376465
1789757533015202300,0.461202392578125,0.062110744416713715,0.0638977587223053,0.06195783242583275
1789757533025213200,0.471213134765625,0.08312948048114777,0.12880805134773254,0.04552266746759415
1789757533035224300,0.481224365234375,0.07639461010694504,0.16453862190246582,0.08913671970367432
1789757533045235200,0.491235107421875,0.08221068978309631,0.13782311975955963,0.0758853629231453
1789757533055246000,0.50124609375,0.02152406983077526,0.14771650731563568,-0.030290016904473305
1789757533065257200,0.51125732421875,-0.04784807935357094,0.16354182362556458,-0.024678735062479973
1789757533075268400,0.521268310546875,-0.10197268426418304,0.15775780379772186,-0.024067886173725128
1789757533085279200,0.531279296875,-0.22034168243408203,0.11541754007339478,0.038107335567474365
1789757533095290000,0.5412900390625,-0.30498507618904114,0.09558098018169403,-0.07734636217355728
1789757533105302300,0.55130224609375,-0.36428302526474,0.08692943304777145,0.02381380833685398
1789757533115313400,0.5613134765625,-0.42563092708587646,0.11832421272993088,0.09069769084453583
1789757533125324300,0.57132421875,-0.4965519607067108,0.01436852477490902,-0.00048175640404224396
1789757533135335200,0.581335205078125,-0.550815761089325,0.036583442240953445,0.015101619996130466
1789757533145346000,0.591345947265625,-0.627030611038208,-0.0037498646415770054,-0.06181633099913597
1789757533155357200,0.601357177734375,-0.5857979655265808,0.025130659341812134,0.08588926494121552
1789757533165368300,0.611368408203125,-0.656165599822998,-0.040692027658224106,-0.012572325766086578
1789757533175379200,0.621379150390625,-0.6593369245529175,-0.014046253636479378,0.04209684580564499
1789757533185390300,0.631390380859375,-0.6767497658729553,-0.05717854201793671,0.022053362801671028
1789757533195401200,0.641401123046875,-0.6409507393836975,-0.024873601272702217,0.1593206822872162
1789757533205413000,0.6514130859375,-0.6588776111602783,-0.05845234543085098,0.1389225721359253
1789757533215424300,0.66142431640625,-0.6929950714111328,-0.027641821652650833,0.07337090373039246
1789757533225435100,0.67143505859375,-0.7408957481384277,-0.08636797964572906,-0.11662966012954712
1789757533235446300,0.6814462890625,-0.60898357629776,-0.11191970109939575,-0.05126170068979263
1789757533245457200,0.69145703125,-0.6022801399230957,-0.1847105473279953,-0.09461715817451477
1789757533255468000,0.701468017578125,-0.5538499355316162,-0.186098113656044,-0.09134265780448914
1789757533265479400,0.7114794921875,-0.5691189169883728,-0.15485018491744995,-0.09990818053483963
1789757533275490300,0.721490234375,-0.5645184516906738,-0.09206961840391159,0.048737555742263794
1789757533285501200,0.731501220703125,-0.5011104345321655,-0.12615196406841278,-0.04972190409898758
1789757533295512300,0.74151220703125,-0.3917694091796875,-0.176609069108963,-0.08108660578727722
1789757533305523200,0.751523193359375,-0.37760671973228455,-0.22775986790657043,-0.25033876299858093
1789757533315534000,0.7615341796875,-0.2638911008834839,-0.17458248138427734,-0.031593818217515945
1789757533325546200,0.771546142578125,-0.2811627686023712,-0.16809475421905518,0.2172871083021164
1789757533335557000,0.78155712890625,-0.2865253984928131,-0.07097594439983368,0.35549840331077576
1789757533345568300,0.791568359375,-0.24558943510055542,-0.07643329352140427,0.27625736594200134
1789757533355579100,0.8015791015625,-0.10495292395353317,-0.11665027588605881,0.2102002650499344
1789757533365590300,0.81159033203125,-0.015571915544569492,-0.1609860509634018,-0.07897321879863739
1789757533375601400,0.821601318359375,0.10762099921703339,-0.1825210005044937,-0.1253838986158371
1789757533385612300,0.8316123046875,0.12414218485355377,-0.21722331643104553,-0.24785096943378448
1789757533395623200,0.841623046875,0.09405097365379333,-0.13391970098018646,-0.043774910271167755
1789757533405634000,0.851634033203125,0.027083395048975945,-0.07513920962810516,-0.06216324120759964
1789757533415645700,0.861645751953125,0.023379530757665634,-0.06121336296200752,-0.01866075024008751
1789757533425656800,0.87165673828125,0.10674845427274704,-0.1274680197238922,-0.08381365239620209
1789757533435668700,0.881668701171875,0.21381732821464539,-0.1760469228029251,-0.20706316828727722
1789757533445679600,0.8916796875,0.2271568328142166,-0.12355254590511322,-0.08989553153514862
1789757533455690500,0.9016904296875,0.1835142970085144,-0.17988884449005127,-0.21316294372081757
1789757533465702000,0.911701904296875,0.18676601350307465,-0.09423226118087769,0.059445951133966446
1789757533475712800,0.921712646484375,0.11148806661367416,-0.16901284456253052,-0.1908690482378006
1789757533485723600,0.9317236328125,0.1610976904630661,-0.14677438139915466,0.16815169155597687
1789757533495734800,0.94173486328125,0.122208371758461,-0.1458401083946228,0.044005557894706726
1789757533505745700,0.95174560546875,0.13090385496616364,-0.17912589013576508,0.009921092540025711
1789757533515756500,0.961756591796875,0.14296545088291168,-0.18136373162269592,-0.1589203178882599
1789757533525767700,0.971767578125,0.1444307267665863,-0.22330690920352936,-0.05624959617853165
1789757533535778800,0.98177880859375,0.14724138379096985,-0.2126602679491043,-0.05583464726805687
1789757533545790700,0.991790771484375,0.09197039902210236,-0.22433608770370483,-0.04825688898563385
1789757533555801600,1.001801513671875,0.05476899817585945,-0.2033606618642807,-0.033272258937358856
1789757533565812700,1.011812744140625,0.0030181859619915485,-0.16161774098873138,0.16356810927391052
1789757533575824000,1.021823974609375,-0.05463000014424324,-0.06179523840546608,0.2362009733915329
1789757533585834800,1.031834716796875,-0.007712557911872864,-0.0406326986849308,0.05505727231502533
1789757533595845600,1.041845703125,0.13076844811439514,-0.11658259481191635,-0.04503635689616203
1789757533605856800,1.051856689453125,0.2617030143737793,-0.2022911161184311,-0.07365228235721588
1789757533615867600,1.06186767578125,0.32699331641197205,-0.1717970371246338,0.01830076426267624
1789757533625878800,1.071878662109375,0.2276342511177063,-0.09895078837871552,0.01823791302740574
1789757533635889700,1.0818896484375,0.1783057302236557,-0.05877577140927315,0.014528093859553337
1789757533645900800,1.09190087890625,0.21089589595794678,-0.0932551771402359,-0.05976158380508423
1789757533655912700,1.10191259765625,0.26934853196144104,-0.17781934142112732,-0.17361384630203247
1789757533665923800,1.111923828125,0.28882843255996704,-0.1643863171339035,-0.03754182532429695
1789757533675934700,1.121934814453125,0.20489749312400818,-0.13079655170440674,-0.15506750345230103
1789757533685945900,1.13194580078125,0.13441745936870575,-0.06443456560373306,-0.19069580733776093
1789757533695956700,1.141956787109375,0.17562934756278992,0.0038608619943261147,-0.1913357526063919
1789757533705967600,1.151967529296875,0.25135740637779236,-0.04759274050593376,-0.20503798127174377
1789757533715978500,1.161978515625,0.31670430302619934,-0.023987185209989548,-0.0690942257642746
1789757533725990000,1.171989990234375,0.3387869596481323,-0.08119960874319077,0.07581635564565659
1789757533736000800,1.182000732421875,0.39007633924484253,-0.07737936824560165,0.16008077561855316
1789757533746011600,1.19201171875,0.3025132119655609,-0.04876929149031639,0.20683524012565613
1789757533756022800,1.202022705078125,0.1943867951631546,0.03614775091409683,0.27716147899627686
1789757533766033700,1.21203369140625,0.16565954685211182,0.08482927083969116,0.14476187527179718
1789757533776044500,1.22204443359375,0.23052629828453064,0.05040712282061577,0.10284779220819473
1789757533786056700,1.232056640625,0.3302558362483978,-0.0212436281144619,0.026096556335687637
1789757533796067800,1.24206787109375,0.38540947437286377,-0.04213150218129158,0.19438067078590393
1789757533806078700,1.25207861328125,0.34503889083862305,-0.03494948893785477,0.27050021290779114
1789757533816089600,1.262089599609375,0.2719373106956482,-0.020505815744400024,0.17338789999485016
1789757533826100700,1.272100830078125,0.19087626039981842,-0.02758822590112686,0.09176840633153915
1789757533836112000,1.28211181640625,0.12219863384962082,0.04472765326499939,0.21386824548244476
1789757533846122800,1.292122802734375,0.05060487240552902,0.04785021021962166,0.032693129032850266
1789757533856133600,1.302133544921875,0.03667066991329193,0.01472432166337967,0.050351597368717194
1789757533866144800,1.312144775390625,0.08696021139621735,-0.020575346425175667,-0.0020900394301861525
1789757533876155600,1.32215576171875,0.1254335641860962,0.006891699507832527,0.1455681174993515
1789757533886166800,1.332166748046875,0.12344391644001007,-0.0526115745306015,0.10991639643907547
1789757533896178700,1.3421787109375,0.1785297989845276,-0.10826508700847626,0.02182929776608944
1789757533906189600,1.352189453125,0.10903915017843246,-0.10550472140312195,0.0267095398157835
1789757533916200700,1.36220068359375,-0.0035667116753757,0.033527590334415436,0.1303514838218689
1789757533926211800,1.3722119140625,-0.06531929224729538,0.05774371325969696,0.047613732516765594
1789757533936222700,1.38222265625,-0.06244306266307831,0.06787949800491333,-0.004900300409644842
1789757533946233900,1.39223388671875,0.031034154817461967,0.03454657271504402,-0.039176516234874725
1789757533956244700,1.40224462890625,0.11749498546123505,0.004701643716543913,0.09930606186389923
1789757533966255600,1.412255615234375,0.07652758061885834,0.03220943361520767,-0.09298375248908997
1789757533976266500,1.4222666015625,0.06023051217198372,-0.009109869599342346,-0.12392332404851913
1789757533986278000,1.43227783203125,0.11770153045654297,-0.030337397009134293,-0.14411142468452454
1789757533996288800,1.442288818359375,0.11145627498626709,-0.0412350632250309,0.06922368705272675
1789757534006300700,1.45230078125,0.0019079485209658742,0.04978325963020325,0.13283275067806244
1789757534016311600,1.4623115234375,-0.07108315825462341,0.08839606493711472,0.2148827761411667
1789757534026322700,1.47232275390625,-0.028924791142344475,0.053597334772348404,0.1774299442768097
1789757534036333800,1.482333740234375,0.01946856640279293,0.05663903430104256,0.03115192987024784
1789757534046344700,1.4923447265625,0.14038673043251038,0.07359351962804794,-0.045780133455991745
1789757534056355800,1.50235595703125,0.17614084482192993,0.010450972244143486,-0.0879596620798111
1789757534066366700,1.51236669921875,0.1995265930891037,0.06894810497760773,0.006046192720532417
1789757534076377600,1.522377685546875,0.1792883723974228,0.019060363993048668,0.08447664976119995
1789757534086388700,1.532388671875,0.12624458968639374,0.10222075879573822,0.2537255883216858
1789757534096400000,1.54239990234375,0.03849593177437782,0.1399114578962326,0.08813875168561935
1789757534106410800,1.55241064453125,0.037068210542201996,0.09582549333572388,-0.0608653798699379
1789757534116422700,1.562422607421875,0.09920022636651993,0.09075865149497986,-0.13794445991516113
1789757534126433500,1.57243359375,0.1556565910577774,0.0233742818236351,-0.08268680423498154
1789757534136445000,1.58244482421875,0.14684779942035675,0.007780246436595917,0.08256261795759201
1789757534146455800,1.592455810546875,0.119652658700943,0.022289680317044258,0.053293947130441666
1789757534156466700,1.602466796875,0.058116503059864044,0.039604298770427704,0.1304475963115692
1789757534166477600,1.6124775390625,0.02920735999941826,0.0946531668305397,0.01819082349538803
1789757534176488700,1.62248876953125,-0.0016471496783196926,0.12062428146600723,0.004279864951968193
1789757534186499800,1.632499755859375,0.09943313151597977,0.061497047543525696,-0.09932588785886765
1789757534196510700,1.6425107421875,0.1368674337863922,0.07652467489242554,-0.07367417961359024
1789757534206521900,1.65252197265625,0.12794770300388336,0.06955091655254364,-0.15701913833618164
1789757534216533800,1.66253369140625,0.11810534447431564,0.058203358203172684,-0.09431637078523636
1789757534226544600,1.672544677734375,0.1642424762248993,0.010631842538714409,-0.09645035862922668
1789757534236555800,1.6825556640625,0.23679658770561218,-0.021938664838671684,0.004996032919734716
1789757534246566700,1.692566650390625,0.2331581711769104,0.030848916620016098,0.04096388816833496
1789757534256577800,1.702577880859375,0.11240691691637039,0.10195624828338623,0.01641331985592842
1789757534266588700,1.712588623046875,0.12402494996786118,0.1323554366827011,-0.11533565074205399
1789757534276599600,1.722599609375,0.168703094124794,0.12858536839485168,-0.09032487869262695
1789757534286610700,1.732610595703125,0.22440949082374573,0.1619901955127716,0.018639953806996346
1789757534296621800,1.742621826171875,0.1960749626159668,0.20710745453834534,-0.10577424615621567
1789757534306632700,1.7526328125,0.18511632084846497,0.14431597292423248,0.015261631458997726
1789757534316643800,1.762643798828125,0.22885386645793915,0.07505905628204346,-0.018823426216840744
1789757534326655700,1.77265576171875,0.18210767209529877,-0.03492417559027672,0.01712285727262497
1789757534336667000,1.7826669921875,0.048158738762140274,0.1178223192691803,0.06893204897642136
1789757534346677800,1.792677734375,-0.11604884266853333,0.11215697973966599,-0.052750442177057266
1789757534356688600,1.802688720703125,-0.18717041611671448,0.22065287828445435,-0.0997309535741806
1789757534366699800,1.81269970703125,-0.21692857146263123,0.21155604720115662,-0.06366109848022461
1789757534376710700,1.822710693359375,-0.10643988102674484,0.1744775027036667,0.010548789985477924
1789757534386721500,1.832721435546875,0.014664703980088234,0.09414350986480713,-0.06747569888830185
1789757534396733000,1.84273291015625,0.07179520279169083,0.04617363214492798,0.03617211803793907
1789757534406743000,1.852742919921875,0.026592042297124863,0.07050906866788864,-0.003798465710133314
1789757534416754000,1.86275390625,-0.1427970826625824,0.20991314947605133,0.01199131365865469
1789757534426765000,1.87276513671875,-0.21047253906726837,0.19438239932060242,0.018858276307582855
1789757534436777000,1.88277685546875,-0.13326963782310486,0.09457958489656448,0.134272962808609
1789757534446788000,1.8927880859375,-0.18020306527614594,0.014169957488775253,-0.04686592146754265
1789757534456799000,1.902799072265625,-0.2549108564853668,0.06662096828222275,-0.02274642512202263
1789757534466810000,1.91281005859375,-0.3387002944946289,0.030345255509018898,-0.09043679386377335
1789757534476821000,1.922821044921875,-0.3700138032436371,0.023700911551713943,0.0933358445763588
1789757534486831900,1.932831787109375,-0.42501500248908997,0.010603487491607666,0.10660317540168762
1789757534496842800,1.9428427734375,-0.47081103920936584,0.03337918967008591,0.11013717204332352
1789757534506854100,1.952854248046875,-0.46026092767715454,0.023494869470596313,0.09122607111930847
1789757534516865000,1.962864990234375,-0.41715896129608154,0.048929017037153244,0.13647572696208954
1789757534526876000,1.9728759765625,-0.39021310210227966,-0.01332130841910839,0.029752742499113083
1789757534536887800,1.9828876953125,-0.35341203212738037,0.0611557774245739,0.08634234219789505
1789757534546899200,1.992899169921875,-0.39882612228393555,-0.008480023592710495,-0.1840611696243286
1789757534556910000,2.00291015625,-0.2729475796222687,0.0033190895337611437,-0.14436982572078705
1789757534566921000,2.0129208984375,-0.2333032339811325,-0.0663934126496315,-0.17422732710838318
1789757534576931800,2.022931884765625,-0.17130926251411438,-0.010954718105494976,0.028543779626488686
1789757534586943000,2.03294287109375,-0.20701000094413757,-0.03033560886979103,0.0725458562374115
1789757534596953900,2.042953857421875,-0.24646873772144318,0.01759314350783825,0.08248168975114822
1789757534606965000,2.052965087890625,-0.25831741094589233,0.0007470515556633472,0.0474291630089283
1789757534616976100,2.06297607421875,-0.2437196969985962,0.07740706205368042,0.051787614822387695
1789757534626987000,2.072987060546875,-0.24004986882209778,0.012440314516425133,-0.0008281912887468934
1789757534636998000,2.082997802734375,-0.15353287756443024,-0.03362612798810005,-0.0015351211186498404
1789757534647009800,2.093009765625,-0.12040926516056061,-0.06570683419704437,0.1449027806520462
1789757534657021000,2.10302099609375,-0.09538324922323227,-0.0376407764852047,0.1844804733991623
1789757534667032000,2.113031982421875,-0.179564967751503,-0.00961286947131157,0.1317533552646637
1789757534677043000,2.12304296875,-0.24033549427986145,0.01822548359632492,0.0584917813539505
1789757534687053800,2.1330537109375,-0.19607162475585938,-0.03817654028534889,0.09063347429037094
1789757534697065000,2.14306494140625,-0.16055168211460114,-0.013471880927681923,-0.051272712647914886
1789757534707076000,2.153076171875,-0.16578957438468933,-0.061457518488168716,-0.09745565801858902
1789757534717087000,2.1630869140625,-0.16956686973571777,-0.05268771946430206,-0.14362840354442596
1789757534727098000,2.17309814453125,-0.21097396314144135,-0.006657644174993038,-0.007185336202383041
1789757534737109000,2.18310888671875,-0.15226836502552032,0.0004413630813360214,-0.12934082746505737
1789757534747121000,2.193120849609375,-0.024988174438476562,-0.10760627686977386,-0.16840620338916779
1789757534757132000,2.203132080078125,-0.005214083939790726,-0.12227433919906616,-0.27463167905807495
1789757534767143000,2.213142822265625,-0.026035210117697716,-0.09274361282587051,-0.17992328107357025
1789757534777154000,2.223154052734375,-0.05668005719780922,-0.006976872216910124,-0.12255135923624039
1789757534787165000,2.2331650390625,-0.07943277806043625,-0.018659094348549843,-0.11863784492015839
1789757534797175800,2.24317578125,-0.04476716369390488,-0.015619234181940556,-0.06793181598186493
1789757534807187200,2.253187255859375,-0.01844394952058792,-0.050056833773851395,-0.0013783572940155864
1789757534817198000,2.263197998046875,0.0378914438188076,-0.06386668235063553,0.021773438900709152
1789757534827209000,2.273208984375,0.06497180461883545,-0.15320533514022827,-0.03522433340549469
1789757534837219800,2.2832197265625,0.03522378206253052,-0.13837343454360962,-0.05416838079690933
1789757534847231000,2.29323095703125,-0.0346735417842865,-0.08717868477106094,-0.10399771481752396
1789757534857243100,2.3032431640625,-0.028472574427723885,-0.013455551117658615,0.1573912799358368
1789757534867254000,2.31325390625,-0.05112994834780693,0.0038752350956201553,0.021125594154000282
1789757534877265000,2.323264892578125,-0.018967920914292336,-0.03533047065138817,0.0609482116997242
1789757534887276000,2.333276123046875,0.07440676540136337,-0.11020337790250778,-0.13821256160736084
1789757534897287000,2.343286865234375,0.11826134473085403,-0.018588008359074593,0.1002616137266159
1789757534907297800,2.3532978515625,0.09521301835775375,-0.027994560077786446,0.017337970435619354
1789757534917309000,2.363308837890625,0.07895651459693909,-0.05656465142965317,0.11746688187122345
1789757534927320000,2.373320068359375,0.007813626900315285,-0.03376320004463196,0.021403998136520386
1789757534937331000,2.3833310546875,0.015624160878360271,-0.010668618604540825,0.1599094569683075
1789757534947341800,2.393341796875,0.06023024395108223,-0.07638131827116013,-0.1854173243045807
1789757534957353000,2.40335302734375,0.041168536990880966,-0.06212756037712097,-0.22642047703266144
1789757534967365000,2.413365234375,-0.004810674116015434,-0.06650526821613312,-0.17250505089759827
1789757534977376000,2.4233759765625,-0.025157049298286438,-0.024743422865867615,-0.08037001639604568
1789757534987387000,2.433386962890625,-0.04025477543473244,-0.048679646104574203,-0.05164915323257446
1789757534997398000,2.44339794921875,0.01741695962846279,-0.09535647183656693,-0.022640623152256012
1789757535007409000,2.453408935546875,-0.08536694198846817,-0.08551102876663208,-0.02202117256820202
1789757535017420000,2.463419921875,-0.20403650403022766,-0.012924402952194214,0.16501475870609283
1789757535027431000,2.473430908203125,-0.17991837859153748,-0.03577379137277603,0.057539425790309906
1789757535037442000,2.483442138671875,-0.14887088537216187,-0.0660802498459816,0.07387471199035645
1789757535047453000,2.493452880859375,-0.1528235375881195,-0.09201943874359131,0.020865824073553085
1789757535057463800,2.5034638671875,-0.16144990921020508,-0.020118024200201035,0.26793166995048523
1789757535067476000,2.51347607421875,-0.20028012990951538,-0.0077473754063248634,0.2525774836540222
1789757535077487000,2.523487060546875,-0.12088160216808319,-0.06805357336997986,0.23264861106872559
1789757535087498000,2.533498046875,-0.05470125377178192,-0.06922562420368195,0.06568651646375656
1789757535097508900,2.5435087890625,-0.006952028721570969,-0.10816814005374908,-0.0403628945350647
1789757535107519700,2.553519775390625,0.11257810145616531,-0.04784727841615677,-0.0040738629177212715
1789757535117531100,2.56353125,0.08197283744812012,-0.11691127717494965,-0.14442339539527893
1789757535127542000,2.5735419921875,0.11433104425668716,-0.060461319983005524,0.054194364696741104
1789757535137553000,2.583552978515625,0.07715446501970291,-0.02822931669652462,0.021535329520702362
1789757535147564000,2.59356396484375,0.12920647859573364,-0.040551234036684036,-0.028268180787563324
1789757535157575000,2.603574951171875,0.18915799260139465,-0.073138028383255,-0.1589888632297516
1789757535167585800,2.613585693359375,0.2260691374540329,-0.08507777750492096,-0.13825508952140808
1789757535177598000,2.623597900390625,0.19959232211112976,-0.04120201617479324,-0.06455262750387192
1789757535187608800,2.63360888671875,0.15061599016189575,-0.008727431297302246,-0.004783835262060165
1789757535197620000,2.643619873046875,0.1701275110244751,-0.017159894108772278,-0.09349163621664047
1789757535207630800,2.653630859375,0.1137198954820633,-0.004459545016288757,-0.014434101060032845
1789757535217642000,2.66364208984375,0.05035959556698799,0.015176953747868538,-0.05162867531180382
1789757535227653000,2.673653076171875,0.050626710057258606,0.02446765825152397,-0.0814446285367012
1789757535237664000,2.6836640625,0.07070795446634293,0.019074736163020134,-0.17973297834396362
1789757535247675000,2.6936748046875,0.17863735556602478,-0.015710674226284027,-0.031166939064860344
1789757535257686000,2.70368603515625,0.17088709771633148,-0.05275728181004524,0.051187913864851
1789757535267697000,2.71369677734375,0.07846289128065109,-0.02212586998939514,0.24307160079479218
1789757535277709000,2.723708984375,0.005285635590553284,0.02116999216377735,0.10552896559238434
1789757535287720000,2.733719970703125,-0.001584787154570222,0.0334349125623703,0.09253779798746109
1789757535297730800,2.743730712890625,-0.019957637414336205,0.02281899005174637,0.1002032533288002
1789757535307742000,2.753741943359375,0.0011630939552560449,0.0475994348526001,0.1536606252193451
1789757535317753000,2.763753173828125,-0.0611313134431839,0.04688013345003128,-0.051209889352321625
1789757535327764000,2.773763916015625,0.0012622885406017303,-0.005965236574411392,-0.13748273253440857
1789757535337775000,2.783775146484375,0.06428983062505722,-0.02234659343957901,-0.0374433733522892
1789757535347786000,2.793785888671875,0.04846799373626709,-0.026902996003627777,0.13467459380626678
1789757535357796900,2.803796875,-0.02826981619000435,-0.03334498032927513,-0.01307530328631401
1789757535367807700,2.813807861328125,-0.09850962460041046,-0.0020491075702011585,0.13670887053012848
1789757535377820000,2.82381982421875,-0.19053085148334503,0.05429418385028839,0.12803412973880768
1789757535387831000,2.8338310546875,-0.13061052560806274,0.037588708102703094,0.17127294838428497
1789757535397842000,2.843842041015625,-0.14403851330280304,0.012068522162735462,0.06783867627382278
1789757535407852800,2.853852783203125,-0.07232330739498138,-0.00035618944093585014,0.03558140620589256
1789757535417864000,2.863864013671875,-0.040866635739803314,-0.04091189056634903,0.0051882159896194935
1789757535427874800,2.873874755859375,-0.023164870217442513,-0.03449287265539169,0.036653731018304825
1789757535437886000,2.883885986328125,-0.017635812982916832,-0.02286011353135109,-0.055286407470703125
1789757535447896800,2.893896728515625,0.028684813529253006,-0.02941814810037613,0.05409760773181915
1789757535457908000,2.903907958984375,0.030334951356053352,-0.07962020486593246,0.13409627974033356
1789757535467918800,2.9139189453125,-0.036098137497901917,0.05056043714284897,0.3671114146709442
1789757535477929700,2.9239296875,-0.1489412635564804,0.0684947669506073,0.09759995341300964
1789757535487942000,2.93394189453125,-0.05133507400751114,0.01958475261926651,-0.041766457259655
1789757535497953000,2.943953125,-0.00024846469750627875,-0.036631543189287186,-0.25113368034362793
1789757535507964000,2.9539638671875,0.060764554888010025,-0.02395889163017273,0.07944370806217194
1789757535517974800,2.963974853515625,0.047981273382902145,-0.07451973855495453,-0.045144177973270416
1789757535527986000,2.97398583984375,0.08696142584085464,-0.0627933070063591,0.2341417819261551
1789757535537996800,2.983996826171875,-0.040899764746427536,-0.020312462002038956,0.21509435772895813
1789757535548008000,2.994008056640625,-0.12353871762752533,0.10385023802518845,0.14998486638069153
1789757535558018800,3.004018798828125,-0.08650124818086624,0.02817833609879017,-0.044300395995378494
1789757535568030000,3.014030029296875,-0.01715066470205784,-0.05897706747055054,-0.22560440003871918
1789757535578040800,3.024040771484375,-0.005383519921451807,-0.05845586210489273,-0.02890661172568798
1789757535588053000,3.034052978515625,0.0438881553709507,-0.05417216569185257,0.12193430215120316
1789757535598063900,3.04406396484375,0.05494019016623497,-0.15115566551685333,-0.05954793840646744
1789757535608075000,3.054074951171875,0.0013765657786279917,-0.0845169872045517,-0.07120779156684875
1789757535618086000,3.0640859375,-0.04760256037116051,-0.00995301827788353,0.11697082966566086
1789757535628096800,3.0740966796875,-0.1414603441953659,0.09629059582948685,-0.05951526015996933
1789757535638108000,3.08410791015625,-0.06926944106817245,0.06534181535243988,-0.1810055673122406
1789757535648119000,3.094119140625,0.09010477364063263,-0.009185152128338814,-0.22895631194114685
1789757535658130000,3.1041298828125,0.2131761908531189,-0.01016201265156269,-0.046356458216905594
1789757535668140800,3.114140869140625,0.2823083996772766,-0.050385065376758575,0.030066944658756256
1789757535678152000,3.12415185546875,0.32156211137771606,-0.0531628280878067,0.015514384023845196
1789757535688162800,3.134162841796875,0.18734703958034515,0.028901945799589157,-0.038307301700115204
1789757535698175000,3.144175048828125,0.10305371880531311,0.17679069936275482,0.0056244246661663055
1789757535708185900,3.154185791015625,0.11685661971569061,0.16191108524799347,-0.08814866840839386
1789757535718197000,3.164197021484375,0.2082788050174713,0.16857776045799255,-0.1780107319355011
1789757535728208000,3.174207763671875,0.3336673378944397,0.04866653308272362,-0.2724517583847046
1789757535738218800,3.18421875,0.3936484754085541,0.10057712346315384,0.026299213990569115
1789757535748230000,3.19422998046875,0.37939977645874023,0.1091810017824173,0.09934040158987045
1789757535758241000,3.204240966796875,0.38566726446151733,0.08789204061031342,0.24104420840740204
1789757535768252000,3.214251953125,0.34612011909484863,0.09784640371799469,0.06752780824899673
1789757535778262800,3.2242626953125,0.1307441145181656,0.23988641798496246,0.1820582151412964
1789757535788274000,3.23427392578125,0.0816548615694046,0.2366677224636078,-0.11352017521858215
1789757535798286000,3.2442861328125,0.1683027297258377,0.1294952780008316,-0.009945676662027836
1789757535808297000,3.254296875,0.09133898466825485,0.16369345784187317,-0.08736137300729752
1789757535818307800,3.264307861328125,-0.04928106069564819,0.18788617849349976,0.10655423998832703
1789757535828318700,3.274318603515625,-0.052475519478321075,0.15545819699764252,0.04749518260359764
1789757535838329900,3.284329833984375,-0.07049023360013962,0.11381003260612488,0.10676085948944092
1789757535848341000,3.294341064453125,-0.1880890280008316,0.1853417456150055,0.08483105897903442
1789757535858351900,3.304351806640625,-0.26928234100341797,0.1379985213279724,-0.025699270889163017
1789757535868363000,3.314363037109375,-0.34398481249809265,0.13467970490455627,0.1688648909330368
1789757535878374000,3.324373779296875,-0.32113420963287354,0.08661139756441116,0.15199996531009674
1789757535888384800,3.334384765625,-0.3088565170764923,0.09239018708467484,0.1293521672487259
1789757535898397000,3.34439697265625,-0.36165574193000793,0.019513601437211037,-0.183452770113945
1789757535908407800,3.35440771484375,-0.4345283508300781,0.02411048486828804,-0.1559276580810547
1789757535918419000,3.3644189453125,-0.3803901970386505,-0.030669258907437325,-0.11023301631212234
1789757535928429800,3.374429931640625,-0.37201642990112305,0.02027221955358982,0.17535237967967987
1789757535938440700,3.384440673828125,-0.4266037046909332,-0.01922225020825863,-0.03852963447570801
1789757535948452000,3.3944521484375,-0.3731282353401184,0.005886563565582037,-0.01909921132028103
1789757535958463000,3.404462890625,-0.39995327591896057,-0.013756640255451202,-0.11872296035289764
1789757535968473900,3.414473876953125,-0.40307584404945374,-0.041155774146318436,-0.2054554522037506
1789757535978485000,3.424485107421875,-0.3676203489303589,-0.09908141940832138,-0.20807777345180511
1789757535988496000,3.434495849609375,-0.29663217067718506,-0.11004325747489929,-0.11283648014068604
1789757535998506800,3.4445068359375,-0.25316810607910156,-0.09298904240131378,-0.004468440543860197
1789757536008519000,3.454518798828125,-0.23748049139976501,-0.03614093363285065,0.2143145054578781
1789757536018529800,3.46452978515625,-0.17722424864768982,-0.027225609868764877,0.26534461975097656
1789757536028541000,3.474541015625,-0.13549837470054626,-0.03350986912846565,0.1171753853559494
1789757536038551800,3.4845517578125,-0.17526201903820038,-0.032123781740665436,-0.1834573745727539
1789757536048562700,3.494562744140625,-0.09801037609577179,-0.08215045928955078,-0.20481087267398834
1789757536058574000,3.504573974609375,-0.0472404919564724,-0.06738178431987762,-0.10729320347309113
1789757536068585000,3.5145849609375,-0.016926264390349388,-0.16276395320892334,0.03393210098147392
1789757536078595800,3.524595947265625,-0.025064710527658463,-0.057948216795921326,0.200168639421463
1789757536088606700,3.534606689453125,-0.05987675115466118,-0.09231498092412949,-0.21818387508392334
1789757536098617900,3.544617919921875,-0.04026081785559654,-0.05572209879755974,-0.12111468613147736
1789757536108630000,3.554630126953125,-0.02533326856791973,-0.09912629425525665,-0.06382529437541962
1789757536118641000,3.564640869140625,-0.1155293807387352,-0.054227571934461594,-0.06433229893445969
1789757536128651800,3.57465185546875,-0.09087703377008438,-0.10996247082948685,-0.08341837674379349
1789757536138663000,3.584662841796875,0.03031955659389496,-0.1583978235721588,0.039979495108127594
1789757536148673800,3.594673828125,0.0028937903698533773,-0.12946949899196625,0.2035742700099945
1789757536158685000,3.604684814453125,-0.12151558697223663,-0.05085545405745506,-0.1370452642440796
1789757536168695800,3.61469580078125,-0.1286744326353073,-0.10901542752981186,-0.20622992515563965
1789757536178707000,3.62470703125,-0.09247269481420517,-0.15914301574230194,-0.15583932399749756
1789757536188717800,3.6347177734375,-0.0966956689953804,-0.05324135720729828,0.12097443640232086
1789757536198728700,3.644728759765625,-0.08830199390649796,-0.14877274632453918,0.00773878488689661
1789757536208740900,3.654740966796875,-0.07069051265716553,-0.15678459405899048,-0.12944436073303223
1789757536218752000,3.664751953125,-0.03935270383954048,-0.18950970470905304,-0.13910041749477386
1789757536228763000,3.674762939453125,0.095237597823143,-0.143227681517601,0.13405841588974
1789757536238773800,3.684773681640625,-0.009968427009880543,-0.11048033833503723,0.1169431135058403
1789757536248785000,3.694784912109375,-0.025659238919615746,-0.043829407542943954,0.11920919269323349
1789757536258796000,3.704796142578125,0.08235885947942734,-0.07561551034450531,0.11534765362739563
1789757536268807000,3.714806884765625,0.11744573712348938,0.022213580086827278,0.2150907665491104
1789757536278817800,3.72481787109375,0.12729881703853607,-0.05323640629649162,-0.12020847201347351
1789757536288829000,3.734828857421875,0.2467050999403,-0.16110482811927795,0.05384508892893791
1789757536298839800,3.74483984375,0.27817341685295105,-0.06541424989700317,0.15785449743270874
1789757536308850700,3.7548505859375,0.2916397154331207,-0.055847376585006714,0.1195281520485878
1789757536318862800,3.76486279296875,0.26788604259490967,-0.03425666317343712,0.01795024797320366
1789757536328874000,3.7748740234375,0.1985442340373993,-0.010385151952505112,0.1040491834282875
1789757536338884900,3.784884765625,0.2503379285335541,0.06449033319950104,0.21767807006835938
1789757536348895700,3.794895751953125,0.26375892758369446,-0.013122167438268661,0.11620471626520157
1789757536358907000,3.804906982421875,0.32216766476631165,-0.08593879640102386,-0.061826761811971664
1789757536368918000,3.81491796875,0.34976574778556824,-0.06117938831448555,0.15029826760292053
1789757536378929000,3.824928955078125,0.25211086869239807,0.015567311085760593,0.006128269247710705
1789757536388939800,3.834939697265625,0.22227442264556885,0.044863149523735046,0.15550151467323303
1789757536398951000,3.844950927734375,0.26982855796813965,0.044684458523988724,0.09952963888645172
1789757536408962300,3.85496240234375,0.31842780113220215,0.06841029971837997,0.16477255523204803
1789757536418974500,3.864974365234375,0.3102875351905823,0.1495974063873291,0.031243905425071716
1789757536428985300,3.8749853515625,0.24513597786426544,0.04422676935791969,-0.2624300718307495
1789757536438996200,3.884996337890625,0.2761828303337097,0.07375962287187576,-0.10575868934392929
1789757536449007400,3.89500732421875,0.22629281878471375,0.051057372242212296,-0.03083227388560772
1789757536459018200,3.905018310546875,0.23997925221920013,0.07719995826482773,0.249210387468338
1789757536469029400,3.915029296875,0.1511383354663849,0.11798840016126633,0.12738914787769318
1789757536479040500,3.92504052734375,0.06592541188001633,0.1646198332309723,0.12670835852622986
1789757536489051400,3.935051513671875,0.04026372730731964,0.16625794768333435,0.10145999491214752
1789757536499062300,3.945062255859375,0.010397262871265411,0.23167705535888672,0.0005683703348040581
1789757536509073200,3.9550732421875,0.05282115191221237,0.10747788101434708,-0.04297191649675369
1789757536519085300,3.965085205078125,0.11748213320970535,0.07033118605613708,-0.06495814770460129
1789757536529096400,3.975096435546875,0.05290979519486427,0.06691621243953705,0.0009300534147769213
1789757536539107300,3.985107421875,-0.059778083115816116,0.1526431143283844,0.11969118565320969
1789757536549118200,3.9951181640625,-0.15894487500190735,0.19021126627922058,0.2868865728378296
1789757536559129300,4.00512939453125,-0.24029541015625,0.3188176453113556,0.39056268334388733
1789757536569140500,4.015140380859375,-0.18070665001869202,0.1108122393488884,-0.1389184594154358
1789757536579151400,4.0251513671875,-0.0928134024143219,-0.00939975120127201,-0.40030455589294434
1789757536589162200,4.035162353515625,-0.1268582046031952,0.06919359415769577,-0.09458405524492264
1789757536599173400,4.04517333984375,-0.10947605222463608,0.028579726815223694,-0.0030858039390295744
1789757536609184300,4.055184326171875,-0.3348260819911957,0.06546370685100555,0.2486758828163147
1789757536619196400,4.065196533203125,-0.4411318600177765,0.12665098905563354,0.10722100734710693
1789757536629207300,4.075207275390625,-0.4408586323261261,0.20463606715202332,0.01705409400165081
1789757536639218400,4.085218505859375,-0.459351122379303,0.1077522486448288,-0.3352918326854706
1789757536649229300,4.095229248046875,-0.544378399848938,0.09735207259654999,-0.4868938624858856
1789757536659240200,4.105240234375,-0.5341414213180542,0.06437776982784271,-0.4818238914012909
1789757536669251300,4.115251220703125,-0.3533170521259308,-0.002370635513216257,-0.17986643314361572
1789757536679262500,4.125262451171875,-0.12837077677249908,-0.09953200072050095,-0.016947325319051743
1789757536689273300,4.1352734375,-0.28617292642593384,-0.09503950923681259,0.17715904116630554
1789757536699284200,4.1452841796875,-0.44462358951568604,0.06900133192539215,0.25011754035949707
1789757536709295400,4.15529541015625,-0.5927662253379822,0.16590631008148193,0.12302295863628387
1789757536719306200,4.16530615234375,-0.6781190633773804,0.05599953234195709,-0.12819534540176392
1789757536729318400,4.175318359375,-0.37635278701782227,-0.025863375514745712,-0.17331674695014954
1789757536739329300,4.185329345703125,-0.250294029712677,-0.1344255805015564,-0.10922164469957352
1789757536749340400,4.19534033203125,-0.2317134290933609,-0.09991021454334259,0.08985497802495956
1789757536759351300,4.205351318359375,-0.3000374138355255,-0.08098635077476501,0.056683845818042755
1789757536769362400,4.215362548828125,-0.4756587743759155,0.017350606620311737,0.3559246063232422
1789757536779373300,4.225373291015625,-0.4385659694671631,0.026416698470711708,0.23605002462863922
1789757536789384400,4.235384521484375,-0.3051477372646332,-0.1148109957575798,-0.0089741051197052
1789757536799395300,4.245395263671875,-0.1956205815076828,-0.12181007117033005,-0.2690558433532715
1789757536809406200,4.25540625,-0.10869180411100388,-0.14412282407283783,-0.11899522691965103
1789757536819417300,4.265417236328125,-0.13567890226840973,-0.1063460260629654,-0.15066023170948029
1789757536829429500,4.275429443359375,-0.227975532412529,-0.057253580540418625,-0.09850142151117325
1789757536839440400,4.2854404296875,-0.16672134399414062,-0.05648770183324814,0.2201298177242279
1789757536849451300,4.295451171875,-0.17037546634674072,-0.042097307741642,0.2190629541873932
1789757536859462100,4.305462158203125,-0.1260426640510559,-0.08553580194711685,-0.009597577154636383
1789757536869473500,4.3154736328125,-0.10137832164764404,-0.1316540390253067,-0.22675466537475586
1789757536879484400,4.325484375,-0.01314306166023016,-0.11374953389167786,-0.13547711074352264
1789757536889495300,4.335495361328125,-0.024513160809874535,-0.07680057734251022,-0.08708135038614273
1789757536899506400,4.34550634765625,-0.050176575779914856,-0.12942302227020264,-0.09193115681409836
1789757536909517300,4.355517333984375,-0.04028905928134918,-0.1470843106508255,0.08139908313751221
1789757536919528200,4.365528076171875,-0.01470266841351986,-0.09101138263940811,0.3750322163105011
1789757536929540400,4.375540283203125,-0.11550624668598175,-0.03368338197469711,0.3119885325431824
1789757536939551200,4.38555126953125,-0.16040682792663574,0.008832408115267754,0.20715117454528809
1789757536949562400,4.395562255859375,-0.13114827871322632,-0.060723766684532166,-0.13627170026302338
1789757536959573200,4.4055732421875,0.027680568397045135,-0.07931116968393326,-0.19470946490764618
1789757536969584000,4.415584228515625,0.0901535376906395,-0.1114259660243988,-0.2738460898399353
1789757536979595500,4.425595458984375,0.06306751072406769,-0.2086402177810669,-0.37607210874557495
1789757536989606400,4.4356064453125,-0.04119684547185898,-0.05098401755094528,0.01809755526483059
1789757536999617300,4.4456171875,-0.07016028463840485,-0.07375407963991165,0.26130416989326477
1789757537009628400,4.45562841796875,-0.09461183100938797,-0.04353013262152672,0.37593647837638855
1789757537019639300,4.465639404296875,-0.11802313476800919,-0.05088908597826958,0.131182000041008
1789757537029650400,4.475650390625,-0.06125892698764801,0.005619198549538851,-0.0027446355670690536
1789757537039662300,4.485662353515625,0.03089519590139389,-0.11076530814170837,-0.4075523912906647
1789757537049673200,4.495673095703125,0.05576299503445625,-0.0776616781949997,-0.22431892156600952
1789757537059684400,4.505684326171875,0.011955564841628075,-0.04294947534799576,-0.11867620050907135
1789757537069695200,4.5156953125,-0.037743013352155685,0.04519449919462204,0.03439243882894516
1789757537079706400,4.525706298828125,0.012060964480042458,-0.051935162395238876,-0.044315971434116364
1789757537089717500,4.535717529296875,0.045439962297677994,-0.10313230007886887,0.03327895328402519
1789757537099728400,4.545728271484375,-0.010660247877240181,-0.06753040105104446,0.04417001083493233
1789757537109739300,4.5557392578125,-0.08583781868219376,-0.024029795080423355,0.0812702476978302
1789757537119750100,4.565750244140625,-0.035684339702129364,-0.0515621192753315,0.1459830105304718
1789757537129761500,4.575761474609375,-0.06562146544456482,-0.05662212520837784,0.07440496981143951
1789757537139773400,4.5857734375,-0.007845201529562473,-0.05994199961423874,0.03330506384372711
1789757537149784300,4.595784423828125,-0.04419362172484398,-0.005988487508147955,0.08077670633792877
1789757537159795200,4.605795166015625,-0.013228273019194603,-0.009578744880855083,-0.08198881894350052
1789757537169806300,4.615806396484375,0.019679076969623566,-0.07001598924398422,0.03843533247709274
1789757537179817500,4.6258173828125,0.053253162652254105,-0.07160308957099915,0.19795316457748413
1789757537189828400,4.635828369140625,0.0007547998102381825,0.03191851079463959,0.2893131673336029
1789757537199839200,4.645839111328125,0.03279872238636017,-0.05433402955532074,-0.11643292754888535
1789757537209850400,4.655850341796875,-0.0020873569883406162,-0.1434231698513031,-0.06607495248317719
1789757537219861200,4.665861328125,0.009926112368702888,-0.125383198261261,-0.087433360517025
1789757537229872000,4.6758720703125,-0.01840965449810028,-0.06564129889011383,0.1349637508392334
1789757537239884300,4.68588427734375,-0.08513760566711426,-0.06514517217874527,0.16916020214557648
1789757537249895400,4.6958955078125,-0.10347586125135422,-0.05163522809743881,0.17380103468894958
1789757537259906300,4.70590625,-0.14569200575351715,-0.035786278545856476,0.06711766123771667
1789757537269917200,4.715917236328125,-0.060255661606788635,-0.0385061614215374,-0.030124465003609657
1789757537279928300,4.72592822265625,0.057390935719013214,-0.08696305751800537,-0.201494961977005
1789757537289939500,4.735939453125,0.15580272674560547,-0.17445722222328186,-0.02366824261844158
1789757537299950300,4.745950439453125,0.08585165441036224,-0.14152908325195312,-0.08175032585859299
1789757537309961200,4.755961181640625,-0.017886992543935776,-0.056549739092588425,0.3416781723499298
1789757537319972400,4.765972412109375,0.0049307565204799175,-0.0651935413479805,0.05081024393439293
1789757537329983200,4.775983154296875,0.042838990688323975,-0.08925200253725052,-0.1809699833393097
1789757537339994400,4.785994384765625,0.01609043963253498,-0.09170554578304291,-0.278504341840744
1789757537350006300,4.79600634765625,0.11204493045806885,-0.07389086484909058,-0.018145740032196045
1789757537360017400,4.806017333984375,0.051255013793706894,0.039468914270401,0.08016867190599442
1789757537370028300,4.8160283203125,0.16342362761497498,-0.056544966995716095,0.13872438669204712
1789757537380039400,4.826039306640625,0.243509903550148,-0.15309986472129822,-0.24043382704257965
1789757537390050300,4.83605029296875,0.1914014369249344,-0.06077073514461517,-0.0005796751938760281
1789757537400061400,4.8460615234375,0.05315971374511719,-0.022320523858070374,-0.20672978460788727
1789757537410072000,4.856072021484375,0.015316197648644447,-0.011616747826337814,-0.18878966569900513
1789757537420083000,4.8660830078125,-0.0879589393734932,-0.012785246595740318,0.10237403959035873
1789757537430094000,4.876093994140625,0.08170200139284134,-0.08390576392412186,0.42857611179351807
1789757537440105200,4.886105224609375,0.16085731983184814,-0.06189684942364693,0.18055391311645508
1789757537450117000,4.8961171875,0.11861825734376907,-0.11436830461025238,-0.20243102312088013
1789757537460128000,4.9061279296875,-0.08497845381498337,-0.08991740643978119,-0.474068284034729
1789757537470139100,4.91613916015625,-0.04630056396126747,0.010448341257870197,-0.18753239512443542
1789757537480150000,4.92614990234375,-0.044382236897945404,0.05950725078582764,0.3441326916217804
1789757537490161200,4.9361611328125,-0.11936593055725098,-0.03433695435523987,-0.08924829959869385
1789757537500172000,4.946172119140625,0.10321865975856781,-0.12649928033351898,0.08380785584449768
1789757537510183200,4.95618310546875,0.11924848705530167,-0.1337665170431137,0.00898368563503027
1789757537520194000,4.966194091796875,-0.09980698674917221,-0.054748259484767914,0.017610514536499977
1789757537530205000,4.976204833984375,-0.20227450132369995,0.01622125506401062,0.0879770889878273
1789757537540216300,4.98621630859375,-0.33542558550834656,0.017112400382757187,0.20069701969623566
1789757537550227200,4.996227294921875,-0.2749902307987213,-0.0036634523421525955,0.04161203280091286
1789757537560239000,5.006239013671875,-0.2071470022201538,-0.05367974936962128,0.12110871821641922
1789757537570250000,5.01625,-0.2647482454776764,-0.06544612348079681,0.0014137441758066416
1789757537580261000,5.02626123046875,-0.2280089110136032,-0.12770959734916687,-0.11547008156776428
1789757537590272300,5.036272216796875,-0.20348413288593292,-0.17017343640327454,-0.12337461113929749
1789757537600283100,5.046283203125,-0.10211949795484543,-0.1414935141801834,0.22128820419311523
1789757537610294000,5.0562939453125,-0.15419255197048187,-0.09613454341888428,0.48602238297462463
1789757537620305200,5.06630517578125,-0.18628139793872833,-0.046159327030181885,0.21614685654640198
1789757537630316000,5.07631591796875,-0.2132357805967331,-0.07640990614891052,-0.09085755050182343
1789757537640327000,5.086326904296875,-0.0749523788690567,-0.09618588536977768,-0.032978594303131104
1789757537650338000,5.096338134765625,0.018126169219613075,-0.026848889887332916,0.03812967240810394
1789757537660350200,5.10635009765625,0.12104308605194092,-0.12585420906543732,0.11158181726932526
1789757537670361000,5.116361083984375,0.04067261144518852,-0.13134990632534027,-0.045649878680706024
1789757537680372000,5.1263720703125,0.17375576496124268,-0.03271900862455368,0.15777471661567688
1789757537690383000,5.136383056640625,0.2460227757692337,-0.007699941284954548,0.27820709347724915
1789757537700394200,5.146394287109375,0.23247750103473663,-0.050055451691150665,0.041298042982816696
1789757537710405000,5.156405029296875,0.13332109153270721,-0.048603229224681854,-0.16654756665229797
1789757537720416000,5.166416015625,0.11117997765541077,-0.12285108119249344,-0.39915037155151367
1789757537730427100,5.17642724609375,0.1318005621433258,-0.1281140297651291,-0.19644546508789062
1789757537740438000,5.18643798828125,-0.05563840642571449,-0.04318665713071823,-0.41048291325569153
1789757537750449200,5.19644921875,0.1286315619945526,-0.014522789046168327,0.4124266803264618
1789757537760461000,5.2064609375,0.34641027450561523,-0.08659882098436356,0.5610841512680054
1789757537770472000,5.216471923828125,0.5679237842559814,-0.14508716762065887,0.4083305895328522
1789757537780483000,5.226483154296875,0.6410033106803894,0.03006909415125847,0.27347227931022644
1789757537790494200,5.236494140625,0.5090221166610718,-0.03508727252483368,-0.36081600189208984
1789757537800505000,5.246505126953125,0.3682275712490082,-0.17284619808197021,-0.3580550253391266
1789757537810516200,5.25651611328125,0.13092075288295746,0.0914272740483284,0.15315312147140503
1789757537820527000,5.266527099609375,-0.2156292349100113,-0.14003585278987885,-0.14014554023742676
1789757537830538000,5.2765380859375,0.2831757962703705,0.05748254433274269,0.2626951336860657
1789757537840549000,5.286549072265625,0.1452135294675827,-0.0033301417715847492,0.2622680962085724
1789757537850560300,5.296560302734375,0.09050129354000092,0.042801667004823685,0.07445556670427322
1789757537860571100,5.306571044921875,0.1929292231798172,0.043442998081445694,-0.2871793508529663
1789757537870583000,5.3165830078125,0.13652241230010986,0.026745779439806938,0.07480602711439133
1789757537880594000,5.326593994140625,0.27292221784591675,0.046324338763952255,0.5936058759689331
1789757537890605300,5.336605224609375,0.35633453726768494,0.0305192768573761,-0.03684421256184578
1789757537901868000,5.347867919921875,0.28321319818496704,-0.03703595697879791,-0.07088595628738403
1789757537911879200,5.357879150390625,0.10834444314241409,0.008704367093741894,-0.20519369840621948
1789757537921890000,5.36789013671875,-0.027812859043478966,0.2216472625732422,-0.09140055626630783
1789757537931901000,5.37790087890625,-0.05261647701263428,0.0025647154543548822,0.023255186155438423
1789757537941912000,5.387912109375,0.3964531123638153,-0.14269232749938965,0.2414136677980423
1789757537951923200,5.397923095703125,0.49230507016181946,-0.16803497076034546,-0.0534704327583313
1789757537961934000,5.40793408203125,0.3874609172344208,-0.03938807547092438,0.08711371570825577
1789757537971945000,5.417945068359375,0.16473738849163055,0.055816780775785446,0.06135907396674156
1789757537981956000,5.4279560546875,0.05593687295913696,0.22305449843406677,-0.09015507996082306
1789757537991967200,5.43796728515625,0.07917694747447968,0.12753890454769135,-0.15629707276821136
1789757538001978000,5.44797802734375,0.38615646958351135,0.06947167217731476,0.14197681844234467
1789757538011990000,5.457989990234375,0.39776578545570374,-0.008822763338685036,0.10128909349441528
1789757538022001200,5.468001220703125,0.5281887650489807,-0.021224038675427437,0.19579829275608063
1789757538032012000,5.478011962890625,0.24360312521457672,0.11297930777072906,0.04292938485741615
1789757538042023200,5.488023193359375,0.09079920500516891,0.29431256651878357,0.18701955676078796
1789757538052034000,5.498033935546875,-0.2700548768043518,0.0680554211139679,-0.8260549306869507
1789757538062045200,5.508045166015625,-0.09283376485109329,0.06340234726667404,-0.3469479978084564
1789757538072056000,5.51805615234375,-0.03896035999059677,0.10037210583686829,0.1901928037405014
1789757538082067000,5.52806689453125,-0.02757028304040432,0.12333840876817703,-0.20465704798698425
1789757538092078300,5.538078369140625,0.06636213511228561,-0.21018505096435547,-0.3253035545349121
1789757538102089200,5.548089111328125,-0.016543403267860413,0.08086676150560379,0.0883154571056366
1789757538112101000,5.55810107421875,-0.2456614375114441,0.10871414840221405,-0.05539431795477867
1789757538122112000,5.568112060546875,-0.13474690914154053,0.14854705333709717,0.2763274312019348
1789757538132123000,5.578122802734375,-0.24710044264793396,0.03353029862046242,-0.2691898047924042
1789757538142134300,5.58813427734375,0.21857351064682007,0.08323527127504349,0.09885986149311066
1789757538152145200,5.598145263671875,0.1425570398569107,-0.020482603460550308,0.10794203728437424
1789757538162156000,5.608156005859375,0.09311278909444809,-0.03258150443434715,-0.09184126555919647
1789757538172167200,5.618167236328125,-0.14115463197231293,-0.010123779997229576,-0.19894163310527802
1789757538182178000,5.628177978515625,-0.4387913644313812,0.26641353964805603,-0.2946505844593048
1789757538192189000,5.63818896484375,-0.4393327832221985,0.040247783064842224,-0.16046908497810364
1789757538202200000,5.648199951171875,-0.21691890060901642,0.10321450233459473,0.1347399353981018
1789757538212212000,5.6582119140625,-0.1970672905445099,0.03132146596908569,0.11866467446088791
1789757538222223000,5.66822314453125,0.051361434161663055,-0.03928559273481369,0.20885182917118073
1789757538232234000,5.67823388671875,-0.045287810266017914,0.06267210841178894,0.24710308015346527
1789757538242245000,5.6882451171875,-0.14823922514915466,0.15970703959465027,0.0934261828660965
1789757538252256300,5.69825634765625,-0.21779699623584747,0.07462872564792633,-0.1843911111354828
1789757538262267100,5.70826708984375,-0.33830103278160095,0.06884433329105377,-0.2690306305885315
1789757538272278000,5.718278076171875,-0.2343703806400299,0.03220456466078758,-0.1253906488418579
1789757538282289200,5.7282890625,-0.1509203314781189,0.034456487745046616,0.07876408845186234
1789757538292300000,5.738300048828125,-0.06928431987762451,0.07393226027488708,0.1920269876718521
1789757538302311200,5.748311279296875,-0.014265244826674461,0.01710444502532482,0.04479284957051277
1789757538312322000,5.758322021484375,-0.020724209025502205,-0.055857378989458084,-0.2310941219329834
1789757538322333200,5.768333251953125,-0.05162964016199112,0.003795614466071129,-0.16403809189796448
1789757538332344000,5.778343994140625,0.06810528039932251,0.0876750722527504,0.22841224074363708
1789757538342356200,5.788356201171875,-0.047860097140073776,0.19695259630680084,0.11785644292831421
1789757538352367000,5.7983671875,0.16649667918682098,0.04946354404091835,0.5437358021736145
1789757538362378200,5.808378173828125,0.11904892325401306,-0.041425421833992004,-0.06104077771306038
1789757538372389000,5.81838916015625,0.1537347286939621,-0.053513508290052414,-0.2282867580652237
1789757538382400000,5.82839990234375,-0.17447470128536224,0.01305458415299654,-0.0885973796248436
1789757538392411000,5.838410888671875,-0.30386918783187866,0.08233219385147095,0.0775575041770935
1789757538402422300,5.84842236328125,-0.39358335733413696,0.128473162651062,0.37147819995880127
1789757538412433200,5.85843310546875,0.006339541636407375,-0.05983629822731018,0.36197444796562195
1789757538422444000,5.868444091796875,0.2609005272388458,-0.07293292880058289,0.20643432438373566
1789757538432455400,5.878455322265625,0.0382501482963562,-0.03902183473110199,0.0598779059946537
1789757538442467300,5.88846728515625,-0.1809098720550537,-0.050003860145807266,-0.0908748134970665
1789757538452478200,5.898478271484375,-0.5098821520805359,0.032797276973724365,-0.33488428592681885
1789757538462489000,5.908489013671875,-0.3684132695198059,-0.030540188774466515,-0.0700526088476181
1789757538472500200,5.918500244140625,-0.07101037353277206,-0.056713204830884933,0.13508668541908264
1789757538482511400,5.928511474609375,-0.01650572381913662,-0.05653824657201767,0.39598986506462097
1789757538492522200,5.938522216796875,-0.025520257651805878,-0.05811616778373718,0.22909672558307648
1789757538502533000,5.948533203125,-0.08793020993471146,-0.04465311020612717,-0.1422891616821289
1789757538512544300,5.958544189453125,-0.28257906436920166,0.03817705810070038,-0.1296255737543106
1789757538522555100,5.96855517578125,-0.2696066200733185,-0.024173710495233536,-0.1230960339307785
1789757538532566300,5.978566162109375,-0.20413468778133392,-0.09057164192199707,-0.0009810396004468203
1789757538542578200,5.988578125,-0.17340247333049774,-0.0785951167345047,-0.0826617106795311
1789757538552589000,5.998589111328125,-0.005632385145872831,-0.037054602056741714,0.11905276775360107
1789757538562600200,6.00860009765625,-0.08814091235399246,-0.08389640599489212,0.08647224307060242
1789757538572611300,6.018611328125,-0.09284885227680206,-0.07844411581754684,0.006730538792908192
1789757538582622200,6.028622314453125,-0.2413272261619568,0.007274803705513477,-0.17968261241912842
1789757538592633300,6.03863330078125,-0.25452426075935364,-0.04954533651471138,-0.22426339983940125
1789757538602644200,6.048644287109375,-0.1017276793718338,-0.035839516669511795,0.025635065510869026
1789757538612655000,6.058655029296875,-0.028598880395293236,-0.21021771430969238,-0.10413810610771179
1789757538622666200,6.068666259765625,0.033073194324970245,-0.07415757328271866,0.201826810836792
1789757538632677400,6.078677490234375,0.025352420285344124,-0.10149891674518585,0.2164507508277893
1789757538642689300,6.088689208984375,0.021109802648425102,-0.0143398717045784,0.20753984153270721
1789757538652700200,6.0987001953125,-0.12507404386997223,-0.03716103360056877,-0.17390790581703186
1789757538662711000,6.1087109375,-0.3215702176094055,-0.050451334565877914,-0.49976977705955505
1789757538672722200,6.11872216796875,-0.2703815996646881,-0.0997573658823967,-0.34138572216033936
1789757538682733300,6.1287333984375,-0.15760870277881622,-0.08473021537065506,0.00664150295779109
1789757538692744200,6.138744140625,0.13736967742443085,-0.10444186627864838,0.31039366126060486
1789757538702755300,6.14875537109375,0.34203213453292847,-0.049752507358789444,0.44023483991622925
1789757538712766200,6.15876611328125,0.34020519256591797,-0.15817351639270782,-0.06347226351499557
1789757538722777000,6.168777099609375,0.24731799960136414,-0.0874185636639595,-0.2586771249771118
1789757538732788200,6.178788330078125,0.11183261126279831,-0.01050887256860733,-0.14566457271575928
1789757538742800100,6.188800048828125,-0.029843291267752647,0.06783253699541092,-0.2906593084335327
1789757538752811300,6.198811279296875,0.017180675640702248,-0.019490916281938553,-0.31591060757637024
1789757538762822100,6.208822265625,0.4512203335762024,-0.18524369597434998,0.5611794590950012
1789757538772833000,6.2188330078125,0.4349247217178345,-0.22162941098213196,-0.22166579961776733
1789757538782844400,6.228844482421875,0.5423610210418701,-0.07410629093647003,0.3162381947040558
1789757538792855300,6.238855224609375,0.046467915177345276,0.10690050572156906,-0.1449965536594391
1789757538802866200,6.2488662109375,0.03848496451973915,-0.012772643938660622,-0.5738574862480164
1789757538812877000,6.258876953125,-0.03939944878220558,-0.10411188006401062,-0.31493717432022095
1789757538822888200,6.26888818359375,0.24625492095947266,-0.16545066237449646,0.1133323535323143
1789757538832899300,6.2788994140625,0.3910057246685028,-0.04434580355882645,0.38277366757392883
1789757538842911200,6.2889111328125,0.5027264952659607,-0.09962152689695358,0.18233484029769897
1789757538852922000,6.298922119140625,0.318867951631546,-0.0902557224035263,-0.15243302285671234
1789757538862933200,6.308933349609375,0.21866220235824585,-0.05847232788801193,-0.13415928184986115
1789757538872944000,6.318944091796875,0.08214642852544785,-0.0052123041823506355,-0.09760765731334686
1789757538882955300,6.328955322265625,0.017076557502150536,0.005500612780451775,0.05803971365094185
1789757538892966100,6.338966064453125,0.026048747822642326,-0.03740557283163071,-0.07444881647825241
1789757538902977300,6.348977294921875,0.1557498723268509,-0.11700557917356491,0.06659785658121109
1789757538912988200,6.35898828125,0.09353071451187134,-0.09431811422109604,-0.07498697191476822
1789757538922999000,6.3689990234375,-0.014063510112464428,-0.05405602976679802,0.05365470424294472
1789757538933010200,6.37901025390625,-0.06646040827035904,0.014726229012012482,0.02731684222817421
1789757538943022300,6.389022216796875,-0.06954149156808853,0.04787106066942215,0.0765065923333168
1789757538953033200,6.399033203125,0.04305856302380562,-0.02932598814368248,-0.02448873594403267
1789757538963044000,6.409044189453125,0.12009333074092865,-0.07842691987752914,-0.056258708238601685
1789757538973055200,6.41905517578125,0.1261456310749054,0.006040027365088463,0.001060505397617817
1789757538983066400,6.42906640625,0.14843352138996124,-0.011046672239899635,0.050367943942546844
1789757538993077200,6.4390771484375,0.15427489578723907,0.04542113095521927,0.019814828410744667
1789757539003088100,6.449088134765625,0.1563444286584854,0.030039511620998383,0.1266872137784958
1789757539013099300,6.459099365234375,0.15666955709457397,0.043929580599069595,-0.024405378848314285
1789757539023110100,6.469110107421875,0.23856493830680847,-0.020988058298826218,-0.030034124851226807
1789757539033121000,6.47912109375,0.1672404259443283,0.030712153762578964,-0.025218063965439796
1789757539043133200,6.48913330078125,0.09819076210260391,-0.0034885844215750694,-0.17976677417755127
1789757539053144300,6.499144287109375,0.2035302370786667,-0.017386555671691895,-0.12254609912633896
1789757539063155200,6.5091552734375,0.27311041951179504,-0.1160651445388794,0.20073026418685913
1789757539073166000,6.519166015625,0.262511283159256,0.040742043405771255,0.2777470350265503
1789757539083177200,6.52917724609375,0.2967228293418884,0.07704196870326996,0.29576897621154785
1789757539093188400,6.539188232421875,0.23237605392932892,0.08439601957798004,-0.02963174693286419
1789757539103199200,6.54919921875,0.060584113001823425,0.02478879503905773,-0.18691909313201904
1789757539113210000,6.559210205078125,0.06675412505865097,-0.0518263578414917,-0.15930716693401337
1789757539123221200,6.56922119140625,0.08274038136005402,-0.014108406379818916,0.019947730004787445
1789757539133232000,6.579232177734375,0.1005643904209137,-0.04130993410944939,0.13752523064613342
1789757539143244300,6.589244384765625,0.0931636318564415,-0.026540173217654228,0.12767347693443298
1789757539153255200,6.599255126953125,0.016172440722584724,0.04882781580090523,0.22302448749542236
1789757539163266300,6.609266357421875,0.03433869779109955,-0.03209299594163895,-0.03387736529111862
1789757539173277200,6.619277099609375,0.08912471681833267,-0.007453432772308588,-0.01612047478556633
1789757539183288300,6.629288330078125,-0.10263315588235855,-0.026193629950284958,-0.1392928510904312
1789757539193299200,6.63929931640625,-0.1774594485759735,-0.1245630756020546,-0.43065041303634644
1789757539203310300,6.649310302734375,-0.14043843746185303,-0.10861759632825851,-0.042988575994968414
1789757539213321200,6.6593212890625,-0.2336709052324295,-0.16703377664089203,-0.458625465631485
1789757539223332000,6.66933203125,0.1587902307510376,-0.17255185544490814,0.11460337787866592
1789757539233343200,6.67934326171875,0.1499464064836502,-0.00454367883503437,0.4034026861190796
1789757539243355400,6.68935546875,0.12276450544595718,0.007202920503914356,0.13928857445716858
1789757539253366300,6.6993662109375,0.05043863505125046,0.07383094727993011,-0.011053793132305145
1789757539263377200,6.709377197265625,-0.013589528389275074,0.013794397935271263,-0.23695258796215057
1789757539273388000,6.719387939453125,0.07711800187826157,0.07256077975034714,-0.11440138518810272
1789757539283399200,6.729399169921875,0.20241805911064148,-0.06340956687927246,0.043788570910692215
1789757539293410300,6.739410400390625,0.2959703803062439,-0.08705177903175354,0.0024094395339488983
1789757539303421200,6.749421142578125,0.24858373403549194,-0.10554464161396027,-0.13068152964115143
1789757539313432300,6.759432373046875,0.03154808655381203,0.02729649282991886,-0.18813496828079224
1789757539323443200,6.769443115234375,0.08292237669229507,0.03391819819808006,-0.1954396367073059
1789757539333454000,6.7794541015625,0.2679830491542816,-0.027217861264944077,-0.07521228492259979
1789757539343466200,6.78946630859375,0.3252714276313782,-0.13570937514305115,0.25895678997039795
1789757539353477000,6.79947705078125,0.35028278827667236,-0.07083530724048615,-0.027178805321455002
1789757539363488300,6.80948828125,0.35378044843673706,0.00446566566824913,-0.05949942395091057
1789757539373499100,6.8194990234375,0.37832173705101013,0.0036030677147209644,-0.07958099246025085
1789757539383510000,6.829510009765625,0.5409442186355591,0.006773484405130148,0.13866883516311646
1789757539393521400,6.839521484375,0.4710548520088196,-0.010451043024659157,0.24890051782131195
1789757539403532300,6.8495322265625,0.5123279690742493,-0.04604991525411606,0.1425703912973404
1789757539413542700,6.859542724609375,0.36289292573928833,0.11439035832881927,-0.3030923008918762
1789757539423554000,6.869553955078125,0.27762866020202637,0.06810098141431808,-0.31914857029914856
1789757539433565000,6.87956494140625,0.3407825827598572,0.006842682138085365,-0.17974114418029785
1789757539443576800,6.889576904296875,0.3732246160507202,-0.0013787848874926567,0.06920862197875977
1789757539453587700,6.899587646484375,0.4102121889591217,-0.006741592660546303,0.05484433472156525
1789757539463598800,6.909598876953125,0.6206166744232178,0.11724790930747986,0.17491163313388824
1789757539473610000,6.91960986328125,0.7332034111022949,0.08835580945014954,0.22038377821445465
1789757539483620900,6.929620849609375,0.691673219203949,0.07537710666656494,-0.138765349984169
1789757539493631700,6.9396318359375,0.5363677740097046,0.1742251217365265,-0.04964878782629967
1789757539503643000,6.949642822265625,0.45227622985839844,0.16500408947467804,-0.11876184493303299
1789757539513653800,6.95965380859375,0.5661112070083618,0.16911308467388153,-0.059700656682252884
1789757539523665000,6.969664794921875,0.578698992729187,0.12647709250450134,-0.09306197613477707
1789757539533676000,6.979676025390625,0.5354241728782654,0.14922049641609192,0.03673490509390831
1789757539543688000,6.98968798828125,0.33805394172668457,0.32195913791656494,-0.04227600619196892
1789757539553698800,6.99969873046875,0.48524975776672363,0.17920812964439392,0.2613251507282257
1789757539563709700,7.009709716796875,0.6417556405067444,0.04628138616681099,0.2770485281944275
1789757539573720800,7.019720947265625,0.6793200373649597,0.09852834790945053,0.3671185076236725
1789757539583732000,7.02973193359375,0.2696372866630554,0.26323309540748596,-0.15698356926441193
1789757539593742800,7.039742919921875,-0.03711491450667381,0.22702822089195251,-0.22713682055473328
1789757539603753700,7.049753662109375,-0.018622582778334618,0.2464386522769928,-0.07937433570623398
1789757539613764900,7.059764892578125,0.09311486780643463,0.13496991991996765,0.18377207219600677
1789757539623776000,7.06977587890625,0.1474945992231369,0.02962239645421505,0.17922194302082062
1789757539633788000,7.079787841796875,0.04720846936106682,0.1817011535167694,0.15758909285068512
1789757539643798800,7.089798828125,-0.14046171307563782,0.19850288331508636,-0.1385212242603302
1789757539653809700,7.0998095703125,-0.14840830862522125,0.2117616981267929,0.0037296712398529053
1789757539663820800,7.10982080078125,-0.039921607822179794,0.18412379920482635,0.19930440187454224
1789757539673832000,7.11983203125,-0.11693169921636581,0.1452445685863495,0.0991426408290863
1789757539683842800,7.1298427734375,-0.14079506695270538,0.20314504206180573,0.19697044789791107
1789757539693854000,7.13985400390625,-0.22983679175376892,0.18366988003253937,0.0868317037820816
1789757539703864800,7.14986474609375,-0.19374121725559235,0.1626034379005432,0.012182415463030338
1789757539713875700,7.159875732421875,-0.23003025352954865,0.11350861191749573,-0.0016732122749090195
1789757539723886800,7.169886962890625,-0.2520957589149475,0.09136505424976349,0.13998621702194214
1789757539733898800,7.179898681640625,-0.39206910133361816,0.07708597928285599,-0.03550997003912926
1789757539743910000,7.189909912109375,-0.46070265769958496,0.07753939926624298,-0.06311353296041489
1789757539753920800,7.199920654296875,-0.4908706843852997,0.06884417682886124,-0.06554127484560013
1789757539763931600,7.209931640625,-0.45897045731544495,0.07434829324483871,0.028137387707829475
1789757539773943000,7.219943115234375,-0.5014265775680542,0.060199446976184845,0.019222456961870193
1789757539783954000,7.229953857421875,-0.39053788781166077,0.0021058947313576937,-0.007972567342221737
1789757539793964800,7.23996484375,-0.2904541790485382,0.002074202988296747,0.1609852910041809
1789757539803976000,7.249975830078125,-0.24105557799339294,-0.05081983655691147,0.05283631011843681
1789757539813986800,7.25998681640625,-0.17822174727916718,0.04322090744972229,0.18534082174301147
1789757539823999000,7.2699990234375,-0.3469994366168976,0.04774320125579834,-0.1574762761592865
1789757539834009900,7.280009765625,-0.27976977825164795,0.04839780554175377,-0.10874440521001816
1789757539844020700,7.290020751953125,-0.24384282529354095,-0.040910325944423676,-0.17532134056091309
1789757539854032000,7.300031982421875,-0.135576531291008,-0.026609152555465698,0.016448628157377243
1789757539864042800,7.310042724609375,-0.07901980727910995,-0.03963962197303772,-0.1247699037194252
1789757539874054000,7.320053955078125,0.01375248096883297,-0.06167887523770332,0.008506128564476967
1789757539884065000,7.33006494140625,-0.044283676892519,0.008946578949689865,-0.032101571559906006
1789757539894076000,7.340075927734375,0.10293959826231003,0.020201364532113075,0.1422545164823532
1789757539904086800,7.350086669921875,0.20789429545402527,0.057891596108675,0.29340600967407227
1789757539914097700,7.36009765625,0.29343554377555847,-0.03306174650788307,-0.0054286206141114235
1789757539924109800,7.37010986328125,0.20307804644107819,-0.03163457661867142,-0.20275317132472992
1789757539934121000,7.380120849609375,0.055753305554389954,0.0008855490013957024,-0.3125576972961426
1789757539944131800,7.3901318359375,0.015939300879836082,0.06858108192682266,-0.07756930589675903
1789757539954142700,7.400142822265625,0.1015721783041954,-0.005499537102878094,-0.005041046068072319
1789757539964153900,7.41015380859375,0.4294240176677704,-0.1000993475317955,0.16912579536437988
1789757539974164700,7.420164794921875,0.3059675693511963,-0.07307092100381851,-0.13166892528533936
1789757539984175900,7.43017578125,0.30256128311157227,0.001115244347602129,-0.037123750895261765
1789757539994186800,7.440186767578125,0.3128677010536194,0.06622633337974548,0.04557112976908684
1789757540004198000,7.450197998046875,0.37599673867225647,0.05803942307829857,0.2637990415096283
1789757540014209800,7.460209716796875,0.32868513464927673,-0.0452645942568779,0.24011367559432983
1789757540024221000,7.470220947265625,0.33323952555656433,0.048704423010349274,-0.1389215588569641
1789757540034231800,7.480231689453125,0.16545534133911133,0.04694220796227455,-0.06878800690174103
1789757540044243000,7.490242919921875,0.20065367221832275,0.06569832563400269,0.047125380486249924
1789757540054253800,7.50025390625,0.08611510694026947,-0.01544925943017006,-0.15384207665920258
1789757540064264700,7.5102646484375,0.20253565907478333,0.009096204303205013,0.03523028641939163
1789757540074275800,7.52027587890625,0.23760603368282318,-0.02194240503013134,-0.1436302810907364
1789757540084287000,7.530286865234375,0.2836970090866089,0.031100761145353317,0.020371098071336746
1789757540094297900,7.5402978515625,0.29441410303115845,0.05301404744386673,0.024087272584438324
1789757540104308700,7.550308837890625,0.35415977239608765,0.06323771178722382,0.19141550362110138
1789757540114320600,7.560320556640625,0.3801594078540802,0.05610710009932518,0.0036983322352170944
1789757540124332000,7.57033203125,0.4946995675563812,0.1280156373977661,0.26605379581451416
1789757540134343000,7.580343017578125,0.42504778504371643,0.1457775980234146,0.02767849899828434
1789757540144353800,7.590353759765625,0.2821614742279053,0.12897898256778717,-0.09311401098966599
1789757540154365000,7.600364990234375,0.18272729218006134,0.11959294229745865,-0.3074289560317993
1789757540164375800,7.610375732421875,0.29349657893180847,0.09871106594800949,-0.09409672766923904
1789757540174386700,7.62038671875,0.2976263165473938,0.04124671220779419,-0.11612186580896378
1789757540184397800,7.630397705078125,0.33999624848365784,0.138440802693367,0.1566377729177475
1789757540194409000,7.640408935546875,0.3254050612449646,0.1348937451839447,0.07842125743627548
1789757540204420900,7.6504208984375,0.5681418776512146,0.15106084942817688,0.3331211507320404
1789757540214431700,7.660431640625,0.50154048204422,0.181611567735672,0.22632625699043274
1789757540224443000,7.67044287109375,0.3891714811325073,0.21331003308296204,0.04219011589884758
1789757540234454000,7.6804541015625,0.23714172840118408,0.26131218671798706,-0.15247949957847595
1789757540244465000,7.69046484375,0.18767379224300385,0.16280104219913483,-0.11892012506723404
1789757540254475800,7.700475830078125,0.18251977860927582,0.18954050540924072,-0.046618763357400894
1789757540264487000,7.71048681640625,0.1982988715171814,0.13455963134765625,0.05415741726756096
1789757540274497800,7.720497802734375,0.1451975703239441,0.10545927286148071,-0.010514521040022373
1789757540284509000,7.730509033203125,0.14931350946426392,0.1640564352273941,0.20873703062534332
1789757540294519800,7.740519775390625,0.0013908831169828773,0.21546050906181335,0.15972448885440826
1789757540304531700,7.75053173828125,-0.1378929167985916,0.21679438650608063,-0.057428326457738876
1789757540314542800,7.76054296875,-0.14380086958408356,0.14704540371894836,-0.16009345650672913
1789757540324553700,7.7705537109375,-0.15237519145011902,0.07676894962787628,-0.04719341918826103
1789757540334564900,7.78056494140625,-0.2252265065908432,0.09314872324466705,-0.0924711599946022
1789757540344576000,7.790575927734375,-0.3157658278942108,0.13575682044029236,-0.1220136359333992
1789757540354587000,7.8005869140625,-0.2755417227745056,0.2510514259338379,0.15051615238189697
1789757540364597800,7.81059765625,-0.15697960555553436,0.17120856046676636,0.1506768763065338
1789757540374608600,7.820608642578125,-0.11352907866239548,0.11160915344953537,0.02199959196150303
1789757540384620000,7.8306201171875,-0.1973586529493332,0.06356073915958405,-0.08663057535886765
1789757540394632000,7.8406318359375,-0.2708227336406708,0.12167970091104507,-0.09814529120922089
1789757540404642800,7.850642822265625,-0.36791396141052246,0.1195145770907402,0.015546418726444244
1789757540414654700,7.86065478515625,-0.3083912432193756,0.1335984319448471,0.052078597247600555
1789757540424665600,7.87066552734375,-0.35113582015037537,0.12254396080970764,-0.01710810326039791
1789757540434676700,7.8806767578125,-0.42365768551826477,0.10596098750829697,-0.21369439363479614
1789757540444687600,7.8906875,-0.3304189145565033,0.12302752584218979,0.06973421573638916
1789757540454698800,7.90069873046875,-0.42540693283081055,0.14139507710933685,0.00006618420593440533
1789757540464709600,7.910709716796875,-0.3451022803783417,0.14121049642562866,0.053185466676950455
1789757540474720800,7.920720703125,-0.27497485280036926,0.05154798924922943,-0.09593796730041504
1789757540484732700,7.930732666015625,-0.2671511769294739,0.02832675725221634,-0.031053634360432625
1789757540494743800,7.940743896484375,-0.27043378353118896,0.04744984954595566,0.10507677495479584
1789757540504754700,7.950754638671875,-0.39198341965675354,0.1449679136276245,0.20234811305999756
1789757540514765800,7.960765869140625,-0.5440182089805603,0.11962766200304031,0.01622644253075123
1789757540524776700,7.970776611328125,-0.4544370472431183,0.12157568335533142,-0.031584255397319794
1789757540534787600,7.98078759765625,-0.48057571053504944,0.03450069576501846,-0.018460199236869812
1789757540544798700,7.990798828125,-0.430367112159729,-0.007655256427824497,0.028297316282987595
1789757540554809900,8.000809814453126,-0.5206778049468994,-0.07923010736703873,-0.052827633917331696
1789757540564820700,8.01082080078125,-0.5516383647918701,0.015121674165129662,0.0923386961221695
1789757540574831600,8.02083154296875,-0.6548395752906799,0.01595231331884861,-0.029332870617508888
1789757540584843500,8.030843505859375,-0.6869599223136902,0.017297565937042236,-0.10869232565164566
1789757540594855000,8.04085498046875,-0.6451379060745239,-0.04351837933063507,-0.1713213473558426
1789757540604865800,8.05086572265625,-0.41945305466651917,-0.16755378246307373,0.02790808118879795
1789757540614876700,8.060876708984376,-0.32597848773002625,-0.11632467806339264,0.11315293610095978
1789757540624887800,8.0708876953125,-0.21541734039783478,-0.10989538580179214,0.17184597253799438
1789757540634898700,8.080898681640624,-0.22402574121952057,-0.0392872616648674,0.12178200483322144
1789757540644909600,8.09090966796875,-0.2315523773431778,0.03340061381459236,-0.013212370686233044
1789757540654920700,8.100920654296875,-0.10265324264764786,0.018782522529363632,0.09069698303937912
1789757540664931800,8.110931884765625,-0.03530770540237427,-0.07235224545001984,-0.11343491077423096
1789757540674943700,8.12094384765625,0.03285270556807518,-0.0861242488026619,-0.08920653909444809
1789757540684954600,8.13095458984375,0.10798636823892593,-0.10071593523025513,-0.07498468458652496
1789757540694965500,8.140965576171874,0.15532271564006805,-0.008508773520588875,0.13387584686279297
1789757540704977000,8.150976806640625,0.10488137602806091,-0.0350973978638649,0.11483196169137955
1789757540714987800,8.16098779296875,0.2641887366771698,-0.043742284178733826,0.20820719003677368
1789757540724998700,8.17099853515625,0.22973239421844482,-0.0007130173034965992,-0.09463369846343994
1789757540735009800,8.181009765625,0.24428576231002808,-0.03288932889699936,-0.03715949133038521
1789757540745020700,8.191020751953126,0.0822708010673523,0.04982299357652664,-0.22489586472511292
1789757540755031800,8.20103173828125,0.06543935835361481,0.08366724848747253,-0.17139428853988647
1789757540765043700,8.211043701171874,0.16978242993354797,-0.03768051415681839,0.14543259143829346
1789757540775054600,8.2210546875,0.37438535690307617,-0.02196013741195202,-0.014685709029436111
1789757540785065700,8.231065673828125,0.536229133605957,-0.04058653116226196,0.35865336656570435
1789757540795076600,8.24107666015625,0.3358444273471832,-0.0029368894174695015,0.05490388348698616
1789757540805087700,8.251087646484375,0.11724131554365158,0.16513828933238983,-0.04744528606534004
1789757540815099000,8.261098876953126,0.06075194850564003,0.11798489093780518,-0.2476276457309723
1789757540825109800,8.27110986328125,0.2477230727672577,0.00045403046533465385,-0.02206086926162243
1789757540835120600,8.28112060546875,0.26469460129737854,0.06043747067451477,0.1506539136171341
1789757540845131500,8.291131591796875,0.17860789597034454,0.05768724903464317,0.007409380283206701
1789757540855143700,8.301143798828125,-0.015545330941677094,0.11422136425971985,0.06540929526090622
1789757540865154800,8.31115478515625,0.06235433369874954,0.04163770750164986,-0.07065970450639725
1789757540875165700,8.321165771484376,0.1382211446762085,0.05640333518385887,0.13527455925941467
1789757540885176600,8.331176513671876,0.07212381064891815,0.024433325976133347,0.034272484481334686
1789757540895187700,8.341187744140624,-0.09794671833515167,0.07841666787862778,-0.08915144950151443
1789757540905198800,8.35119873046875,-0.12579093873500824,0.10865748673677444,-0.0596281923353672
1789757540915209700,8.361209716796875,-0.07102728635072708,0.13414472341537476,0.11005564033985138
1789757540925220600,8.371220703125,-0.08833859115839005,0.07795925438404083,-0.05836758762598038
1789757540935231700,8.381231689453125,-0.0807107612490654,0.059477709233760834,-0.06443453580141068
1789757540945244000,8.391243896484376,-0.2180335968732834,0.11805509030818939,-0.030944986268877983
1789757540955254800,8.4012548828125,-0.16783806681632996,0.061090871691703796,0.031007064506411552
1789757540965265700,8.411265625,-0.07591067999601364,0.05892661213874817,0.16382692754268646
1789757540975276800,8.42127685546875,-0.08373797684907913,-0.010197330266237259,0.14504177868366241
1789757540985287700,8.43128759765625,-0.24419890344142914,0.10876050591468811,0.0661153644323349
1789757540995298600,8.441298583984375,-0.3163303732872009,0.10523128509521484,0.001657809829339385
1789757541005309700,8.451309814453126,-0.3855281472206116,0.08284635096788406,-0.04253223538398743
1789757541015320800,8.46132080078125,-0.3349241018295288,-0.003092794679105282,-0.03852018713951111
1789757541025331700,8.471331787109374,-0.4516494870185852,-0.03939177095890045,-0.20392435789108276
1789757541035343600,8.481343505859375,-0.5078773498535156,-0.12131699174642563,-0.30746352672576904
1789757541045354500,8.4913544921875,-0.525312066078186,0.013561015948653221,-0.04918060079216957
1789757541055366000,8.501365966796875,-0.5269989371299744,-0.021004151552915573,-0.026572231203317642
1789757541065376800,8.511376708984375,-0.370978444814682,-0.021243836730718613,0.07144568115472794
1789757541075387600,8.5213876953125,-0.37031877040863037,-0.05161931738257408,0.028704607859253883
1789757541085398800,8.531398681640624,-0.3831428587436676,-0.05096757411956787,-0.08205156028270721
1789757541095409700,8.54140966796875,-0.3093099296092987,0.023619309067726135,0.14583246409893036
1789757541105420800,8.5514208984375,-0.3563172221183777,-0.05137166753411293,0.08673796057701111
1789757541115431700,8.561431640625,-0.4292830526828766,-0.052051570266485214,-0.05725890025496483
1789757541125443600,8.571443603515625,-0.49784916639328003,-0.05296310409903526,-0.18975237011909485
1789757541135454700,8.581454833984376,-0.42164015769958496,-0.07202654331922531,-0.07280072569847107
1789757541145465600,8.591465576171874,-0.3141407072544098,-0.0618540458381176,0.28888821601867676
1789757541155476700,8.601476806640624,-0.33142513036727905,-0.0960753932595253,0.3315531313419342
1789757541165487900,8.61148779296875,-0.3773283362388611,-0.08440407365560532,0.09343862533569336
1789757541175498800,8.621498779296875,-0.5458579659461975,-0.05875970050692558,-0.1816651076078415
1789757541185509600,8.631509521484375,-0.579997718334198,-0.07363199442625046,-0.21226827800273895
1789757541195520500,8.6415205078125,-0.4758409559726715,-0.032515186816453934,0.0959492027759552
1789757541205532000,8.651531982421876,-0.4494325518608093,-0.17526711523532867,0.22920963168144226
1789757541215543800,8.661543701171874,-0.2562708258628845,-0.1311449259519577,0.10144262760877609
1789757541225554700,8.6715546875,-0.31776100397109985,-0.15790848433971405,-0.04600957781076431
1789757541235565600,8.681565673828125,-0.3832460045814514,-0.13834355771541595,-0.24113859236240387
1789757541245576700,8.69157666015625,-0.38151201605796814,-0.16248948872089386,-0.22847643494606018
1789757541255587800,8.701587890625,-0.37044525146484375,-0.26007410883903503,0.03142118826508522
1789757541265598700,8.7115986328125,-0.271239310503006,-0.20640666782855988,-0.001143636298365891
1789757541275609900,8.72160986328125,-0.1368437111377716,-0.21736876666545868,0.08119704574346542
1789757541285620700,8.731620849609374,-0.21189646422863007,-0.17271851003170013,-0.05140262097120285
1789757541295631600,8.741631591796875,-0.22172993421554565,-0.10982875525951385,-0.13002632558345795
1789757541305643800,8.751643798828125,-0.2431972324848175,-0.1979404091835022,-0.14434945583343506
1789757541315654700,8.761654541015625,-0.12867490947246552,-0.248693585395813,-0.011194322258234024
1789757541325665800,8.771665771484376,-0.02437874861061573,-0.26548531651496887,-0.1797632873058319
1789757541335676700,8.7816767578125,0.13099832832813263,-0.26112812757492065,0.0758248120546341
1789757541345687600,8.7916875,0.25429806113243103,-0.32106178998947144,0.13183553516864777
1789757541355699000,8.801698974609375,0.2737921178340912,-0.22039644420146942,0.1554660201072693
1789757541365709800,8.811709716796875,0.2335301637649536,-0.11532246321439743,0.07169807702302933
1789757541375720700,8.821720703125,0.42276400327682495,-0.08230352401733398,0.12461161613464355
1789757541385731600,8.831731689453125,0.5018179416656494,-0.1228107139468193,-0.01846720650792122
1789757541395743500,8.841743408203126,0.5571086406707764,-0.09951604157686234,0.011950619518756866
1789757541405755000,8.8517548828125,0.6830316781997681,-0.10314806550741196,0.15408891439437866
1789757541415765000,8.861764892578124,0.7206696271896362,-0.11997444182634354,0.3162549138069153
1789757541425776000,8.871776123046875,0.7151995897293091,-0.015438633039593697,0.24117456376552582
1789757541435787300,8.881787353515625,0.717372477054596,-0.061572834849357605,0.15994176268577576
1789757541445798100,8.891798095703125,0.6683589220046997,-0.049604833126068115,0.2802523374557495
1789757541455809000,8.90180908203125,0.530493974685669,0.01179567351937294,0.143560528755188
1789757541465820200,8.911820068359376,0.5289005041122437,0.008619675412774086,0.1947757601737976
1789757541475831000,8.9218310546875,0.4914911091327667,-0.0165711659938097,0.12092150747776031
1789757541485843200,8.93184326171875,0.42377081513404846,0.00907659251242876,0.0677516758441925
1789757541495854000,8.94185400390625,0.3045666813850403,0.030508913099765778,0.07147663831710815
1789757541505865200,8.951865234375,0.3303682208061218,-0.027298688888549805,0.04979535937309265
1789757541515876000,8.9618759765625,0.26564890146255493,-0.0164998359978199,0.1001189798116684
1789757541525887000,8.971886962890625,0.2547551989555359,-0.011580046266317368,0.1697089970111847
1789757541535898000,8.981898193359376,0.18413375318050385,0.013391882181167603,0.16482529044151306
1789757541545909200,8.9919091796875,0.086233951151371,-0.03598640486598015,-0.009178223088383675
1789757541555920100,9.001920166015625,-0.034218959510326385,-0.018047085031867027,-0.07328956574201584
1789757541565931000,9.011930908203125,-0.1038113534450531,-0.07134225964546204,-0.1632269024848938
1789757541575943000,9.02194287109375,-0.14399653673171997,-0.1263725608587265,-0.19790560007095337
1789757541585954300,9.031954345703125,-0.14445583522319794,-0.11708785593509674,0.026050012558698654
1789757541595965200,9.041965087890626,-0.16851136088371277,-0.13296429812908173,0.02795550599694252
1789757541605976000,9.05197607421875,-0.1418849378824234,-0.10764207690954208,0.15600989758968353
1789757541615987000,9.061987060546874,-0.18296073377132416,-0.04198930040001869,0.20915354788303375
1789757541625998000,9.071998046875,-0.2568410634994507,0.04809615761041641,0.16474752128124237
1789757541636009000,9.082009033203125,-0.24419289827346802,-0.03960999473929405,-0.07980150729417801
1789757541646020000,9.09202001953125,-0.12866443395614624,-0.06632575392723083,0.06702814996242523
1789757541656032000,9.102031982421876,-0.09670837223529816,-0.17680113017559052,0.04461312294006348
1789757541666043100,9.112043212890624,-0.02853335812687874,-0.15413659811019897,0.02500014193356037
1789757541676054000,9.122053955078124,-0.12833824753761292,-0.12426071614027023,0.07483293861150742
1789757541686065200,9.132065185546875,-0.16560687124729156,-0.07794903218746185,-0.005917397327721119
1789757541696076000,9.142075927734375,-0.12946563959121704,-0.07596205174922943,0.043714072555303574
1789757541706087200,9.152087158203125,-0.04075150564312935,-0.11664332449436188,0.1422271728515625
1789757541716098000,9.16209814453125,-0.014052785001695156,-0.03644702211022377,0.15205290913581848
1789757541726109000,9.17210888671875,-0.07031182944774628,-0.016475312411785126,-0.09236639738082886
1789757541736120000,9.1821201171875,0.059493307024240494,-0.06480156630277634,-0.11537930369377136
1789757541746132200,9.19213232421875,0.21555334329605103,-0.19599509239196777,-0.0915488451719284
1789757541756143000,9.20214306640625,0.27251145243644714,-0.20464664697647095,0.054454702883958817
1789757541766154000,9.212154052734375,0.14089271426200867,-0.08448868989944458,0.013996554538607597
1789757541776165000,9.2221650390625,0.12089318782091141,-0.09862980991601944,-0.16535936295986176
1789757541786176300,9.23217626953125,0.26597175002098083,-0.09949010610580444,-0.058060742914676666
1789757541796187100,9.242187255859376,0.29033833742141724,-0.09984643012285233,-0.001953531289473176
1789757541806198000,9.252197998046874,0.28358063101768494,0.006741776131093502,0.13781346380710602
1789757541816209200,9.262209228515625,0.12672579288482666,0.09866930544376373,-0.243539497256279
1789757541826220000,9.272219970703125,0.23944266140460968,0.04283439368009567,-0.22647787630558014
1789757541836232200,9.282232177734375,0.32559725642204285,-0.060703981667757034,-0.1607276201248169
1789757541846243000,9.2922431640625,0.4721289873123169,-0.16071376204490662,-0.08906780183315277
1789757541856254200,9.302254150390626,0.4303431808948517,-0.055826228111982346,0.1000446006655693
1789757541866265000,9.31226513671875,0.31368106603622437,0.0273797158151865,0.12023504078388214
1789757541876276000,9.32227587890625,0.27812787890434265,0.050254937261343,-0.042389027774333954
1789757541886286800,9.332286865234375,0.35104358196258545,0.015888839960098267,-0.02731311321258545
1789757541896298200,9.34229833984375,0.39754718542099,-0.006544029805809259,-0.05837595462799072
1789757541906309000,9.35230908203125,0.482351690530777,-0.0025622709654271603,0.09295642375946045
1789757541916320000,9.362320068359375,0.282817542552948,0.00023671146482229233,-0.06717652082443237
1789757541926332000,9.372331787109376,0.19753724336624146,0.0915643647313118,-0.1041446328163147
1789757541936343300,9.38234326171875,0.08094405382871628,0.06346641480922699,-0.14759808778762817
1789757541946354200,9.392354248046875,0.2216402143239975,-0.032131899148225784,-0.03131190687417984
1789757541956365000,9.402364990234375,0.2625945806503296,-0.06766246259212494,0.026017693802714348
1789757541966376200,9.412376220703125,0.2173389494419098,-0.039841484278440475,0.27922144532203674
1789757541976387000,9.422386962890625,0.10246270149946213,-0.015890877693891525,-0.0024688085541129112
1789757541986398000,9.43239794921875,0.10109630227088928,0.019150638952851295,-0.03218061476945877
1789757541996409000,9.4424091796875,0.12386712431907654,-0.042535096406936646,-0.27197563648223877
1789757542006420200,9.452420166015624,0.36733582615852356,-0.05502662435173988,0.05303556099534035
1789757542016432000,9.46243212890625,0.27921393513679504,0.008972068317234516,0.06526079773902893
1789757542026443000,9.472443115234375,0.25632911920547485,0.06675150990486145,0.0190446600317955
1789757542036454100,9.4824541015625,0.3098999559879303,0.1522882580757141,-0.15422086417675018
1789757542046465300,9.49246533203125,0.5230368375778198,0.05759720504283905,-0.15944385528564453
1789757542056476200,9.50247607421875,0.7815578579902649,0.021289799362421036,0.0011910863686352968
1789757542066487000,9.512487060546874,0.674656331539154,0.0687510073184967,-0.12722466886043549
1789757542076498000,9.522497802734375,0.556768536567688,0.11181086301803589,-0.014593726024031639
1789757542086509000,9.532509033203125,0.5866740345954895,0.19125203788280487,-0.051458291709423065
1789757542096520200,9.542520263671875,0.6689686179161072,0.1072937473654747,0.08503004163503647
1789757542106532000,9.552531982421876,0.7457931041717529,0.10635007917881012,0.13266243040561676
1789757542116543000,9.56254296875,0.5125721096992493,0.12946978211402893,0.007511970587074757
1789757542126554000,9.57255419921875,0.3069167137145996,0.11887092888355255,-0.02175164222717285
1789757542136565200,9.582565185546875,0.27121010422706604,0.16144448518753052,0.03715295344591141
1789757542146576100,9.592576171875,0.16901861131191254,0.04753818362951279,0.15565809607505798
1789757542156587000,9.6025869140625,0.12112963944673538,0.1280418187379837,0.018207302317023277
1789757542166598100,9.61259814453125,0.06757035106420517,0.0098125534132123,0.04461575672030449
1789757542176609000,9.622609130859376,0.03718501329421997,0.05835026502609253,0.06044851616024971
1789757542186620000,9.632619873046876,0.029336754232645035,-0.005731092765927315,0.013601753860712051
1789757542196632000,9.642632080078124,0.10426665097475052,-0.0014103804714977741,0.12358497828245163
1789757542206643200,9.652643310546875,-0.011513812467455864,0.08914197981357574,0.07070550322532654
1789757542216654000,9.662654052734375,-0.1575106978416443,0.11439433693885803,-0.002658458659425378
1789757542226665000,9.6726650390625,-0.12229926139116287,0.21653759479522705,-0.05536092072725296
1789757542236676000,9.682676025390625,-0.033067379146814346,0.03703760728240013,-0.1062731072306633
1789757542246687200,9.692687255859376,0.24556994438171387,-0.01760571449995041,0.1401497721672058
1789757542256698000,9.702697998046874,0.29034462571144104,-0.03542226180434227,0.15181894600391388
1789757542266709000,9.712708984375,0.190532386302948,0.01075313612818718,0.0937122032046318
1789757542276720000,9.72272021484375,0.14620354771614075,0.1488683968782425,0.014905275776982307
1789757542286732300,9.732732177734375,0.1410001814365387,0.17728522419929504,-0.0015024763997644186
1789757542296743200,9.7427431640625,0.27919936180114746,0.14195571839809418,0.04202156513929367
1789757542306754000,9.752754150390626,0.3995104134082794,0.13600148260593414,0.15195809304714203
1789757542316765200,9.76276513671875,0.45962727069854736,0.14072033762931824,0.11138775944709778
1789757542326776000,9.772776123046874,0.5480741858482361,0.1784118264913559,0.18329079449176788
1789757542336787000,9.782786865234375,0.5195621252059937,0.25900015234947205,0.04764481261372566
1789757542346798000,9.792798095703125,0.47623008489608765,0.23662084341049194,-0.06459939479827881
1789757542356809200,9.802809326171875,0.6704762578010559,0.16565239429473877,-0.0023554619401693344
1789757542366821000,9.812821044921876,0.6484389305114746,0.13573139905929565,0.09386039525270462
1789757542376832000,9.82283203125,0.5664905309677124,0.1378544718027115,0.09723994880914688
1789757542386843100,9.832843017578124,0.5059431791305542,0.2362334430217743,0.02266465313732624
1789757542396854300,9.842854248046875,0.4275690019130707,0.20539590716362,0.01523443404585123
1789757542406865200,9.852865234375,0.4189879596233368,0.30223777890205383,0.14964307844638824
1789757542416876800,9.862876708984375,0.30154842138290405,0.23654717206954956,0.07756142318248749
1789757542426887700,9.8728876953125,0.22387687861919403,0.25539398193359375,-0.04244255647063255
1789757542436899000,9.882899169921876,0.17069409787654877,0.21729984879493713,-0.10987832397222519
1789757542446910000,9.892909912109374,0.21886461973190308,0.15338096022605896,0.07831690460443497
1789757542456921900,9.902921875,0.1525828093290329,0.22616435587406158,0.18956486880779266
1789757542466932700,9.9129326171875,0.012974453158676624,0.18951374292373657,0.057298824191093445
1789757542476943600,9.922943603515625,-0.03889193758368492,0.2042042762041092,0.020716309547424316
1789757542486955000,9.932955078125,-0.12720170617103577,0.25246867537498474,0.06320319324731827
1789757542496966000,9.9429658203125,-0.2464095950126648,0.25506073236465454,-0.02457885444164276
1789757542506976800,9.952976806640624,-0.20791417360305786,0.16413049399852753,0.06524588167667389
1789757542516988000,9.96298779296875,-0.21824510395526886,0.11711771786212921,0.10653819888830185
1789757542526998800,9.972998779296875,-0.40027037262916565,0.04397435113787651,-0.014774131588637829
1789757542537010000,9.983010009765625,-0.5395270586013794,0.19045168161392212,0.09480882436037064
1789757542547021800,9.993021728515625,-0.6775189638137817,0.08852270245552063,-0.16604231297969818
1789757542557032700,10.00303271484375,-0.631699800491333,0.10698986053466797,-0.06804783642292023
1789757542567043800,10.0130439453125,-0.6353198289871216,0.05849076807498932,-0.03990008682012558
1789757542577054700,10.0230546875,-0.6040095686912537,0.06870878487825394,0.17144836485385895
1789757542587065900,10.03306591796875,-0.6144070625305176,0.1594204604625702,0.25324147939682007
1789757542597077000,10.043076904296875,-0.6819746494293213,0.15643292665481567,0.14220577478408813
1789757542607087900,10.053087890625,-0.6278913021087646,0.1517145335674286,-0.11208263784646988
1789757542617098800,10.0630986328125,-0.5211725831031799,0.07404451817274094,-0.2589980363845825
1789757542627110000,10.07310986328125,-0.420950323343277,0.020714735612273216,-0.3578992187976837
1789757542637121800,10.083121826171874,-0.21804994344711304,0.045264557003974915,-0.2552841603755951
1789757542647133000,10.0931328125,-0.002233498729765415,-0.03577650338411331,0.01964862272143364
1789757542657143800,10.103143798828125,0.08141718804836273,0.07371190935373306,0.2292628437280655
1789757542667154700,10.11315478515625,-0.0004091449663974345,0.2142307311296463,0.1394079476594925
1789757542677165800,10.123165771484375,0.06695844233036041,0.25955453515052795,0.12319622933864594
1789757542687177000,10.133177001953126,0.24839657545089722,0.20410436391830444,0.1746746152639389
1789757542697187800,10.143187744140626,0.24798883497714996,0.18979573249816895,0.15530358254909515
1789757542707199000,10.153198974609374,0.22990694642066956,0.11740884184837341,-0.21139290928840637
1789757542717211000,10.1632109375,0.2073124200105667,0.08513505756855011,-0.25698649883270264
1789757542727221800,10.1732216796875,0.25942516326904297,0.08558007329702377,-0.15993930399417877
1789757542737233000,10.18323291015625,0.2975136935710907,0.1194152683019638,0.22878021001815796
1789757542747243800,10.193243896484375,0.2544309198856354,0.11019515246152878,0.28120124340057373
1789757542757255000,10.2032548828125,0.303323358297348,0.1807449460029602,0.34918534755706787
1789757542767265800,10.213265869140624,0.21868473291397095,0.28399619460105896,0.16948667168617249
1789757542777276700,10.223276611328124,0.322571724653244,0.22277307510375977,-0.04882088676095009
1789757542787288000,10.2332880859375,0.4332332909107208,0.15384258329868317,-0.17669463157653809
1789757542797300000,10.243300048828125,0.29185301065444946,0.03933890536427498,0.1396673321723938
1789757542807310800,10.253310791015625,0.25520482659339905,0.19610020518302917,0.12889081239700317
1789757542817321700,10.26332177734375,0.09790709614753723,0.19310680031776428,0.2302621752023697
1789757542827332600,10.27333251953125,-0.040278639644384384,0.2545427978038788,0.046913113445043564
1789757542837344000,10.283343994140624,-0.15108078718185425,0.2543518543243408,-0.00035666394978761673
1789757542847355000,10.29335498046875,-0.026935428380966187,0.13563595712184906,0.0489225834608078
1789757542857365800,10.30336572265625,-0.029326414689421654,0.12470394372940063,0.1525656133890152
1789757542867377000,10.313376953125,-0.16760721802711487,0.13833928108215332,0.09423951804637909
1789757542877387800,10.3233876953125,-0.2897850275039673,0.1883867383003235,0.012518825009465218
1789757542887400000,10.33339990234375,-0.32312172651290894,0.18826915323734283,-0.03817761689424515
1789757542897410800,10.343410888671874,-0.38440078496932983,0.19944298267364502,-0.07405439019203186
1789757542907422000,10.353421875,-0.3668932616710663,0.1814282238483429,0.028348242864012718
1789757542917432800,10.363432861328125,-0.4090985059738159,0.14265206456184387,-0.023240117356181145
1789757542927443700,10.373443603515625,-0.5104796290397644,0.16041593253612518,-0.08838903158903122
1789757542937454800,10.383454833984375,-0.5806776285171509,0.16253261268138885,-0.17295026779174805
1789757542947466000,10.393466064453126,-0.6288875937461853,0.18187163770198822,-0.18571238219738007
1789757542957476900,10.403476806640626,-0.6412896513938904,0.15547464787960052,-0.20178855955600739
1789757542967488800,10.41348876953125,-0.6145671010017395,0.16972526907920837,-0.042177557945251465
1789757542977499600,10.423499755859375,-0.5915848016738892,0.12769927084445953,0.08683661371469498
1789757542987511000,10.433510986328125,-0.6535089612007141,0.20441919565200806,0.1551094949245453
1789757542997522000,10.44352197265625,-0.7151001691818237,0.20329613983631134,0.12052062153816223
1789757543007532800,10.45353271484375,-0.6810685992240906,0.1900675892829895,0.09030968695878983
1789757543017543700,10.463543701171876,-0.7058173418045044,0.07899780571460724,-0.05349329113960266
1789757543027554800,10.473554931640624,-0.673946738243103,0.13852263987064362,-0.08027217537164688
1789757543037566000,10.48356591796875,-0.7407050132751465,0.05154034495353699,-0.30962467193603516
1789757543047576800,10.493576904296875,-0.7198105454444885,0.09556882083415985,-0.11991724371910095
1789757543057588700,10.503588623046875,-0.8032452464103699,0.10197639465332031,-0.07682117074728012
1789757543067600000,10.513599853515625,-0.7703153491020203,0.160612553358078,0.23343084752559662
1789757543077610800,10.52361083984375,-0.7421396374702454,0.03205804526805878,0.05923188105225563
1789757543087622000,10.533621826171874,-0.7566924095153809,-0.012184766121208668,-0.038401566445827484
1789757543097632800,10.5436328125,-0.8045626878738403,-0.08261685818433762,-0.19398877024650574
1789757543107644000,10.553643798828125,-0.8125791549682617,-0.10847444832324982,-0.27508047223091125
1789757543117654800,10.56365478515625,-0.7980023622512817,-0.14169205725193024,-0.2335122525691986
1789757543127665700,10.573665771484375,-0.7989974617958069,-0.07432402670383453,-0.020376848056912422
1789757543137677800,10.583677734375,-0.8633255362510681,-0.08674181252717972,0.08685426414012909
1789757543147689000,10.59368896484375,-0.8864256143569946,-0.03326689451932907,0.09613392502069473
1789757543157699800,10.603699951171874,-0.8651400208473206,-0.057761579751968384,0.010320747271180153
1789757543167710700,10.613710693359375,-0.8016281723976135,-0.09321384131908417,0.03822530061006546
1789757543177721900,10.623721923828125,-0.7417935729026794,-0.1427832543849945,0.03779546543955803
1789757543187733000,10.63373291015625,-0.6952717304229736,-0.1350456327199936,0.11714579910039902
1789757543197743900,10.643743896484375,-0.7102314829826355,-0.08941850066184998,0.06175791472196579
1789757543207754800,10.653754638671876,-0.6913931369781494,-0.17177477478981018,-0.1648230105638504
1789757543217766700,10.6637666015625,-0.6570143699645996,-0.1919119954109192,-0.2767447531223297
1789757543227778000,10.673778076171875,-0.5411806106567383,-0.2387489676475525,-0.20030848681926727
1789757543237789000,10.683788818359375,-0.48772886395454407,-0.19061632454395294,-0.024315616115927696
1789757543247799800,10.6937998046875,-0.46653321385383606,-0.15907391905784607,0.17497602105140686
1789757543257811000,10.70381103515625,-0.5446181893348694,-0.11727506667375565,0.13175290822982788
1789757543267821800,10.71382177734375,-0.5192636847496033,-0.13883556425571442,0.24198219180107117
1789757543277832700,10.723832763671876,-0.4428035318851471,-0.1761552393436432,0.1640186905860901
1789757543287843800,10.73384375,-0.40504080057144165,-0.15950120985507965,0.07805477827787399
1789757543297855000,10.74385498046875,-0.3465111553668976,-0.2875835597515106,-0.1285753697156906
1789757543307867000,10.753866943359375,-0.2732689380645752,-0.2869006097316742,0.011149893514811993
1789757543317877800,10.763877685546875,-0.2800131142139435,-0.243057519197464,0.017591014504432678
1789757543327888600,10.773888671875,-0.24363292753696442,-0.23042930662631989,0.15909771621227264
1789757543337900000,10.783900146484376,-0.28474974632263184,-0.20257477462291718,-0.06931015849113464
1789757543347911000,10.793910888671874,-0.33281490206718445,-0.09208282083272934,0.23865467309951782
1789757543357921800,10.803921875,-0.2646566331386566,-0.12477711588144302,0.09119384735822678
1789757543367932700,10.8139326171875,-0.08764511346817017,-0.20499008893966675,0.10595425963401794
1789757543377943800,10.82394384765625,0.010105677880346775,-0.21402272582054138,-0.1260848343372345
1789757543387956000,10.8339560546875,0.13894467055797577,-0.22177942097187042,-0.26400288939476013
1789757543397966800,10.843966796875,0.1816985160112381,-0.23963885009288788,-0.3281320631504059
1789757543407977700,10.853977783203124,0.19982506334781647,-0.19581013917922974,-0.08037500083446503
1789757543417989000,10.863989013671874,0.1567433625459671,-0.13089051842689514,-0.1538124680519104
1789757543428000000,10.874,0.2228650599718094,-0.06513406336307526,0.026150358840823174
1789757543438011000,10.884010986328125,0.15987490117549896,-0.0400255061686039,0.06103750318288803
1789757543448022000,10.89402197265625,0.21763820946216583,-0.07399297505617142,0.01449604332447052
1789757543458033200,10.904033203125,0.26541614532470703,-0.10252874344587326,0.3063034117221832
1789757543468045000,10.914045166015624,0.25888654589653015,-0.15484337508678436,0.13088324666023254
1789757543478056000,10.924055908203124,0.24675211310386658,-0.10570911318063736,0.1018233597278595
1789757543488066800,10.93406689453125,0.31798431277275085,-0.2178334891796112,-0.2613387703895569
1789757543498078000,10.944077880859375,0.45250722765922546,-0.3628289997577667,-0.054019950330257416
1789757543508089000,10.954089111328125,0.21108613908290863,-0.04315512999892235,-0.04405267536640167
1789757543518100000,10.964099853515625,-0.07636108994483948,0.05053993687033653,0.16636846959590912
1789757543528111000,10.974111083984376,0.010123835876584053,0.028572367504239082,-0.285687655210495
1789757543538122000,10.9841220703125,-0.026626190170645714,-0.03684445470571518,-0.05802043154835701
1789757543548134000,10.9941337890625,-0.043110065162181854,-0.07857337594032288,0.10482882708311081
1789757543558145000,11.00414501953125,0.05662904679775238,-0.1731446236371994,0.09817332029342651
1789757543568156000,11.014156005859375,-0.19756703078746796,-0.10986685752868652,0.20852068066596985
1789757543578167000,11.0241669921875,-0.2834784686565399,-0.08749230951070786,0.08779347687959671
1789757543588178000,11.034177978515626,-0.2732865810394287,-0.11191550642251968,0.10075856745243073
1789757543598188800,11.044188720703126,-0.3321586847305298,-0.12462784349918365,0.027689948678016663
1789757543608200200,11.0542001953125,-0.19565831124782562,-0.15570691227912903,-0.037813831120729446
1789757543618211000,11.064211181640625,-0.23157769441604614,-0.17474505305290222,-0.23364245891571045
1789757543628223000,11.074222900390625,-0.2512112557888031,-0.15541298687458038,-0.02390146069228649
1789757543638233900,11.08423388671875,-0.23474997282028198,-0.1395016610622406,0.008577384985983372
1789757543648244700,11.09424462890625,-0.23204796016216278,-0.1086493581533432,0.16119980812072754
1789757543658256100,11.104256103515626,-0.21199968457221985,-0.12679028511047363,0.042347975075244904
1789757543668267000,11.11426708984375,-0.07968112826347351,-0.2384868860244751,-0.08356291800737381
1789757543678278000,11.12427783203125,-0.0903601348400116,-0.1739901751279831,-0.007920622825622559
1789757543688289000,11.1342890625,-0.026777656748890877,-0.17747384309768677,0.004146909806877375
1789757543698300000,11.1442998046875,-0.03601083531975746,-0.11321256309747696,0.06800418347120285
1789757543708312000,11.15431201171875,-0.03445687144994736,-0.11813274025917053,-0.15512016415596008
1789757543718323000,11.164322998046876,0.09576504677534103,-0.08142878115177155,-0.09472258388996124
1789757543728333800,11.174333740234376,0.077826589345932,-0.1350841373205185,-0.36191707849502563
1789757543738345000,11.184344970703124,0.16962282359600067,-0.15815003216266632,0.05744210258126259
1789757543748355800,11.19435595703125,0.14313852787017822,-0.0739203467965126,-0.12022452056407928
1789757543758367000,11.204366943359375,0.15029896795749664,0.017832208424806595,0.3737737536430359
1789757543768378000,11.214378173828125,0.18308423459529877,-0.019873687997460365,0.05321909114718437
1789757543778389000,11.224388916015625,0.23176948726177216,-0.026665013283491135,0.07311743497848511
1789757543788401000,11.23440087890625,0.22684042155742645,-0.1151142343878746,-0.09672246128320694
1789757543798412000,11.244412109375,0.29048705101013184,-0.10693619400262833,0.004120261874049902
1789757543808423200,11.254423095703125,0.18590059876441956,-0.07224313169717789,-0.1989336609840393
1789757543818434000,11.26443408203125,0.15051837265491486,-0.0871557667851448,-0.08760581165552139
1789757543828445000,11.27444482421875,0.038479454815387726,-0.07382956892251968,-0.05302022397518158
1789757543838455800,11.284455810546875,0.015790918841958046,-0.0882553830742836,0.14688196778297424
1789757543848467000,11.294467041015626,0.02816932089626789,0.00039901677519083023,0.13307541608810425
1789757543858479000,11.30447900390625,0.021860558539628983,-0.09935527294874191,0.027505310252308846
1789757543868490000,11.314489990234375,0.018936283886432648,-0.03594348579645157,0.15222693979740143
1789757543878500900,11.3245009765625,-0.03020915947854519,-0.021957095712423325,0.014951910823583603
1789757543888512000,11.334511962890625,-0.03248684108257294,-0.023628300055861473,0.047288957983255386
1789757543898523000,11.34452294921875,-0.012772521004080772,-0.0593721829354763,-0.15070348978042603
1789757543908534000,11.354533935546876,0.07671421766281128,-0.09196741133928299,0.1866399198770523
1789757543918545000,11.364544921875,-0.020785173401236534,-0.12363239377737045,-0.02911473624408245
1789757543928556000,11.37455615234375,-0.12091494351625443,-0.10447879135608673,0.03391711413860321
1789757543938568000,11.38456787109375,-0.1642557680606842,-0.0746481865644455,-0.13134987652301788
1789757543948579000,11.3945791015625,-0.11495760828256607,-0.08857953548431396,0.15868298709392548
1789757543958590000,11.40458984375,-0.20379799604415894,-0.004510995000600815,0.13867971301078796
1789757543968601000,11.41460107421875,-0.16041521728038788,-0.09586000442504883,0.06553735584020615
1789757543978612000,11.424612060546876,-0.17139063775539398,-0.0945526584982872,-0.07840170711278915
1789757543988622800,11.434622802734374,-0.15020085871219635,-0.08050750941038132,-0.13722097873687744
1789757543998634000,11.444634033203124,-0.10398436337709427,-0.0012233457528054714,0.0023901835083961487
1789757544008645000,11.45464501953125,-0.17519555985927582,-0.07525569945573807,-0.13105633854866028
1789757544018657000,11.464656982421875,-0.17393960058689117,0.019675876945257187,0.15810196101665497
1789757544028668000,11.47466796875,-0.03893967717885971,-0.11991702765226364,0.024640902876853943
1789757544038678800,11.4846787109375,0.03418406471610069,-0.08399204164743423,0.24866095185279846
1789757544048690200,11.494690185546874,-0.08181478083133698,-0.034661415964365005,0.28391000628471375
1789757544058701000,11.504701171875,-0.17520172894001007,0.011178510263562202,0.17795588076114655
1789757544068712000,11.5147119140625,-0.12827123701572418,-0.11937737464904785,-0.2231510728597641
1789757544078723000,11.52472314453125,-0.06777060031890869,-0.03432665765285492,-0.2623578608036041
1789757544088735000,11.53473486328125,-0.053743790835142136,-0.05880992114543915,-0.22695623338222504
1789757544098746000,11.54474609375,-0.13361971080303192,-0.0011061495169997215,0.08417714387178421
1789757544108757000,11.554757080078126,-0.10210549831390381,0.009998150169849396,0.155752032995224
1789757544118767900,11.564767822265624,0.08243797719478607,-0.06480365246534348,0.2977382242679596
1789757544128779000,11.574779052734375,0.11935658007860184,-0.042780376970767975,0.05355776101350784
1789757544138790000,11.584789794921875,0.07779993116855621,-0.03795240819454193,-0.06363973021507263
1789757544148800800,11.59480078125,0.03479732200503349,-0.08493749797344208,-0.25920674204826355
1789757544158812200,11.604812255859375,0.02695431187748909,0.006788693368434906,0.06156568229198456
1789757544168824000,11.614823974609376,-0.03737490996718407,0.04539479687809944,0.07841614633798599
1789757544178835000,11.6248349609375,0.06184061989188194,-0.019384734332561493,0.05126069113612175
1789757544188845800,11.634845703125,0.06814167648553848,-0.05077873170375824,-0.2366163432598114
1789757544198857000,11.64485693359375,0.05085882171988487,-0.029752805829048157,-0.1706772744655609
1789757544208868000,11.6548681640625,0.09352049231529236,0.004013511352241039,-0.10289207845926285
1789757544218879000,11.66487890625,0.019750133156776428,0.07550287246704102,0.1345159411430359
1789757544228889900,11.674889892578125,-0.04548923671245575,0.06213904544711113,0.14711235463619232
1789757544238901000,11.68490087890625,0.05183492228388786,0.06753567606210709,0.14640182256698608
1789757544248913200,11.6949130859375,0.060605138540267944,0.05273483693599701,-0.11146503686904907
1789757544258924000,11.704924072265625,0.04067910090088844,-0.004366266541182995,-0.2745269238948822
1789757544268935000,11.714934814453125,-0.0003617812180891633,0.029970016330480576,-0.21184074878692627
1789757544278946000,11.724946044921875,-0.09830858558416367,0.11259592324495316,0.08074983209371567
1789757544288957000,11.73495703125,-0.10401106625795364,0.10218249261379242,0.34285587072372437
1789757544298968000,11.744968017578126,0.010358117520809174,0.05062583088874817,0.22654470801353455
1789757544308979000,11.75497900390625,-0.07556844502687454,-0.011601400561630726,-0.1227170005440712
1789757544318990800,11.764990966796875,-0.1347004622220993,0.03034258633852005,-0.11631689220666885
1789757544329002000,11.775001953125,-0.18332214653491974,0.03462981432676315,-0.03146437928080559
1789757544339012900,11.785012939453125,-0.2596725821495056,0.0787394791841507,0.10823546350002289
1789757544349024000,11.79502392578125,-0.322658509016037,0.023230012506246567,0.09763264656066895
1789757544359035100,11.80503515625,-0.3611600697040558,0.017024846747517586,0.1404741108417511
1789757544369046000,11.8150458984375,-0.32588958740234375,-0.04306986927986145,0.06728005409240723
1789757544379057000,11.825056884765624,-0.29381686449050903,-0.08112484216690063,0.21843388676643372
1789757544389069000,11.835069091796875,-0.3837069571018219,-0.08820252865552902,-0.049094878137111664
1789757544399080000,11.845079833984375,-0.36409199237823486,-0.06289797276258469,0.01783861592411995
1789757544409091000,11.855091064453125,-0.35256338119506836,-0.11593864858150482,-0.05424195155501366
1789757544419101200,11.86510107421875,-0.3160266578197479,-0.0887158215045929,0.052363321185112
1789757544429112300,11.8751123046875,-0.2777586281299591,-0.09067750722169876,-0.015698466449975967
1789757544439123500,11.88512353515625,-0.3220488727092743,-0.09868030995130539,0.024107800796628
1789757544449134300,11.89513427734375,-0.29949846863746643,-0.1208496168255806,0.033998265862464905
1789757544459145200,11.905145263671875,-0.23758052289485931,-0.046176180243492126,0.20202216506004333
1789757544469157400,11.915157470703125,-0.16857166588306427,-0.18872056901454926,0.12433522939682007
1789757544479168500,11.92516845703125,-0.2535203695297241,-0.07625128328800201,0.16509969532489777
1789757544489179400,11.935179443359376,-0.38663250207901,-0.0008406261913478374,0.18098695576190948
1789757544499190300,11.945190185546876,-0.317219078540802,-0.028745494782924652,0.13059115409851074
1789757544509201400,11.955201416015624,-0.24689818918704987,0.007011914160102606,0.1124805212020874
1789757544519212300,11.96521240234375,-0.19376732409000397,-0.053931862115859985,-0.40007784962654114
1789757544529223400,11.975223388671875,-0.05620919167995453,-0.15328416228294373,-0.35922715067863464
1789757544539235300,11.9852353515625,0.006423830054700375,-0.13781198859214783,-0.0935203805565834
1789757544549246200,11.99524609375,-0.014820395968854427,0.011174734681844711,0.4523427188396454
1789757544559257300,12.00525732421875,-0.1457672268152237,0.01839509606361389,0.20691509544849396
1789757544569268200,12.015268310546874,-0.10130474716424942,-0.04295721650123596,0.21437913179397583
1789757544579279400,12.025279296875,-0.11624880880117416,-0.1117117777466774,-0.24683189392089844
1789757544589290500,12.03529052734375,-0.06238753721117973,-0.08133503794670105,-0.11326134949922562
1789757544599301400,12.04530126953125,-0.07021376490592957,-0.10035479813814163,-0.2525918185710907
1789757544609312300,12.055312255859375,-0.1563035100698471,0.049319446086883545,0.1212320625782013
1789757544619324400,12.065324462890626,-0.26808518171310425,0.04635641351342201,0.04910620301961899
1789757544629335300,12.075335205078124,-0.08814983069896698,-0.02719200775027275,0.21121616661548615
1789757544639346400,12.085346435546874,0.03414173051714897,-0.17451967298984528,0.16963863372802734
1789757544649357300,12.095357421875,-0.06510303914546967,-0.08283020555973053,0.036234013736248016
1789757544659368200,12.1053681640625,-0.23944874107837677,-0.055965837091207504,-0.2351069450378418
1789757544669379300,12.11537939453125,-0.20388570427894592,-0.0771520808339119,-0.26301252841949463
1789757544679390500,12.125390380859375,-0.18926946818828583,-0.045160066336393356,-0.1728312373161316
1789757544689402400,12.13540234375,-0.16981792449951172,0.01922975480556488,-0.03478448465466499
1789757544699413200,12.145413330078124,-0.1189427599310875,-0.08684021979570389,-0.08817873150110245
1789757544709424400,12.15542431640625,-0.11993178725242615,-0.11860784143209457,-0.01820354163646698
1789757544719435500,12.165435546875,-0.22852350771427155,-0.00008891662582755089,0.07135270535945892
1789757544729446400,12.1754462890625,-0.20647722482681274,-0.036759525537490845,0.18568745255470276
1789757544739457300,12.185457275390625,-0.13696180284023285,-0.07180912047624588,0.4853273928165436
1789757544749468400,12.195468505859376,-0.11997202038764954,-0.0954202339053154,-0.01238630898296833
1789757544759480300,12.205480224609374,-0.1469394564628601,-0.0848056748509407,-0.033227674663066864
1789757544769491500,12.215491455078125,-0.13027755916118622,-0.11132857948541641,-0.1582292765378952
1789757544779502300,12.22550244140625,-0.034218668937683105,-0.0814385861158371,-0.27701476216316223
1789757544789513500,12.235513427734375,0.0038282526656985283,-0.1624870002269745,-0.266680508852005
1789757544799524400,12.2455244140625,0.007908482104539871,-0.20296598970890045,-0.09185754507780075
