time,seconds_elapsed,z,y,x
1788957342484649200,0.043649169921875,-0.5318839399546385,0.4636415938556194,0.2174242237142287
1788957342494699300,0.05369921875,-1.0939537593364714,0.5128396322667599,0.02019095697235316
1788957342504750300,0.063750244140625,-1.5666712245732546,0.45028234606683254,-0.31335842220131305
1788957342514800400,0.07380029296875,-2.1831156082212924,0.2694920636743307,-0.4712510094134137
1788957342524850200,0.08385009765625,-4.122032583978772,1.2508476178348065,0.1640613024422899
1788957342534901200,0.0939013671875,-5.084826061010361,2.068200358274579,1.3495993762269616
1788957342544951300,0.103951416015625,-4.972260589060187,1.0855798987448215,1.586219097869098
1788957342555002000,0.114002197265625,-2.2591379406720398,-0.27455986845791336,0.33286884956359863
1788957342565052200,0.12405224609375,-0.8238438560247421,0.6092658703207969,-1.0514105026394127
1788957342575103200,0.134103271484375,-0.893850873708725,1.7941104454159735,-2.0317101180061696
1788957342585153000,0.144153076171875,-0.0995277112007141,1.175679271864891,-2.040364256843924
1788957342595204000,0.1542041015625,0.3975666549235582,-0.07531681452989578,-1.5194646522402762
1788957342605254100,0.164254150390625,0.6760743842244148,-1.2967284945219755,-1.1499749217659234
1788957342615304200,0.17430419921875,1.080202297359705,-2.397226560935378,-1.3830302289247511
1788957342625355300,0.184355224609375,1.575460095706582,-2.4814362914949655,-2.0040294993981718
1788957342635405300,0.1944052734375,1.984864487940073,-1.673577940109372,-2.5686902120560404
1788957342645456400,0.204456298828125,5.291211387908459,-0.8966074789404869,-2.4986685813248157
1788957342655506200,0.214506103515625,9.423077383637427,-0.3217968359291553,-2.262590126952529
1788957342665557200,0.22455712890625,10.220148968070745,0.6421610087066888,-1.9152533377058802
1788957342675607300,0.234607177734375,7.40707716819942,0.9512398173600435,-1.374310769765824
1788957342685657300,0.2446572265625,5.9400856305181975,1.5719804368972778,-1.482402895694226
1788957342695708200,0.254708251953125,4.764372456383705,1.6682710658729076,-1.629809087140113
1788957342705758200,0.26475830078125,-12.648424747264384,-1.6858990770220756,-3.0107389827847477
1788957342715809000,0.27480908203125,-24.736475373148917,-8.312934121522307,-2.012887928636372
1788957342725859000,0.284859130859375,5.78013764514625,1.0118629206269978,3.2769507096141575
1788957342735910100,0.29491015625,3.3677041627287863,4.174160830622911,4.028417603953183
1788957342745960200,0.304960205078125,-2.1650281628668306,2.8873861593604087,3.6292481900081035
1788957342756011300,0.31501123046875,0.5046756150335073,3.216499163521826,4.278964436399937
1788957342766061300,0.325061279296875,3.038103959572315,2.4391829576551913,4.589712055048346
1788957342776111000,0.335111083984375,-0.22954116155803203,0.5578010560214519,2.995131079286337
1788957342786162200,0.345162109375,-4.381818661674857,-2.690269011545181,-1.1364641366772352
1788957342796212200,0.355212158203125,-0.5146417132526636,-5.352066546365618,-5.0541433379769325
1788957342806263300,0.36526318359375,-0.20244798744916914,-5.18061400116086,-3.330811186878383
1788957342816313300,0.375313232421875,-2.878500257593393,1.1469381844185291,1.9287614924460648
1788957342826364200,0.3853642578125,1.6726614097863435,3.726709031806886,3.2314749065965414
1788957342836414200,0.395414306640625,1.342061674198508,2.180138053715229,2.0118053940966725
1788957342846465000,0.405465087890625,0.39237259341180325,3.528132625094056,3.1303608029872176
1788957342856515000,0.41551513671875,1.7760645011156797,5.48061752295494,3.013557547336817
1788957342866565000,0.425565185546875,2.382278582650423,5.167883698925376,2.2937479201518
1788957342876616200,0.4356162109375,2.2593536292493344,4.4387072545886035,2.3603490749150513
1788957342886666200,0.445666259765625,2.012128926962614,4.058617219644785,2.3425730335973203
1788957342896717300,0.45571728515625,2.2544272787630555,4.382026166945695,3.059777738980949
1788957342906767000,0.46576708984375,2.6865070286631583,4.701844396278262,3.2830887739777563
1788957342916818200,0.475818115234375,2.2259224842906,4.518570480376482,3.053296268007159
1788957342926868200,0.4858681640625,1.9036328964084386,4.676145891398191,3.324231516227126
1788957342936919300,0.495919189453125,2.496978144019842,5.253626045879721,3.6499195143759247
1788957342946969300,0.50596923828125,3.3707974525690076,6.287011647006869,4.06203842626512
1788957342957019100,0.51601904296875,3.073242492970824,6.870605900454521,3.2915479747653005
1788957342967070200,0.5260703125,1.5430419271826743,6.3774167250752445,2.4064964935839175
1788957342977120300,0.536120361328125,-0.09598054011315106,5.7927095419496295,2.3928593056365846
1788957342987171000,0.546171142578125,-2.9833523786872624,5.759972808995842,2.402476152026653
1788957342997221000,0.55622119140625,-5.392341858130693,5.9379819362372155,2.4433862545639276
1788957343007272200,0.566272216796875,-4.827893034657835,5.547760967901349,2.2344410140499473
1788957343017322200,0.576322265625,-4.867539400869608,4.724828966024518,1.3476470731154084
1788957343027372000,0.5863720703125,-2.263079956296086,2.6932746231019493,2.2946204652026294
1788957343037423000,0.596423095703125,-4.604281263148784,0.09862404035925865,4.569489935752749
1788957343047473200,0.60647314453125,-5.53710922550559,-3.410547863677144,1.983406105825305
1788957343057524200,0.616524169921875,-6.254400586259365,-6.360593600568175,1.339083535170555
1788957343067574300,0.62657421875,-6.180802266085148,-9.387481754121184,1.8171254103004932
1788957343077625300,0.636625244140625,-5.909089019230008,-11.62596035312414,1.2564157733559607
1788957343087675100,0.646675048828125,-5.882430144885182,-12.652553809893131,0.2522586048007011
1788957343097726200,0.656726318359375,-4.656915705749392,-12.92674718312621,-0.8541828801870346
1788957343107776300,0.6667763671875,-3.25673823492974,-12.876032894933223,-2.394977905225754
1788957343117826300,0.676826416015625,-2.9592782601386305,-10.257783994460105,-3.4558833814412355
1788957343127877000,0.686877197265625,0.589765343298018,-8.23103851312399,-4.793227963989973
1788957343137927200,0.69692724609375,2.669920635521412,-6.583093611443043,-4.6806145612448455
1788957343147978200,0.706978271484375,2.0571827051758764,-5.308333787623048,-4.465923178294301
1788957343158028000,0.717028076171875,6.158069625273346,-5.58513295944035,-4.159824846756458
1788957343168079600,0.72707958984375,7.802312749826908,-4.933357150170207,-3.290135185357928
1788957343178129700,0.737129638671875,6.628757630509138,-3.837756792670488,-5.021033680057525
1788957343188179700,0.7471796875,16.44299238654971,-4.679004787960649,-2.012694159629941
1788957343198230800,0.757230712890625,35.93872048461437,-9.72193933418095,2.9399405224621296
1788957343208280800,0.76728076171875,20.145766708278654,-9.521534250736236,2.8050258560597894
1788957343218332000,0.777331787109375,2.130198257026076,-1.825671120327711,-3.021332272991538
1788957343228381700,0.787381591796875,6.384776440188288,0.9403501745551824,-5.690912132251262
1788957343238432800,0.797432861328125,5.878862807792425,1.8027514325112104,-5.283957471257448
1788957343248482800,0.80748291015625,4.9227334648251535,0.12135142047405242,-6.367787311464547
1788957343258533600,0.81753369140625,0.8864987573802471,-0.2921656677752733,-7.20117933255732
1788957343268583700,0.827583740234375,-1.7755688265532255,0.8893924329951405,-5.553944624972343
1788957343278633500,0.837633544921875,-1.267576488187164,1.0394959007009863,-2.8702415478140115
1788957343288684500,0.8476845703125,-2.1989579049974677,0.09832155028134584,0.05902794302999973
1788957343298734600,0.857734619140625,-3.43856750498116,-2.431364977380633,2.4561580578535795
1788957343308785700,0.86778564453125,-2.5711317599892616,-5.525768331801891,2.337190317645669
1788957343318835700,0.877835693359375,-1.4031775294184683,-8.08446497310996,0.7637333784550427
1788957343328886800,0.88788671875,-1.3523434142380952,-10.152539659178256,-0.035273557955026624
1788957343338936800,0.897936767578125,-2.056400614887476,-10.625247187542914,0.4555722691684961
1788957343348988000,0.90798779296875,-1.4691606984138488,-10.287398211479186,0.3307949658989906
1788957343359037700,0.91803759765625,-1.2849381034851073,-8.356596153116225,1.356084938853979
1788957343369087700,0.928087646484375,0.7089590742815286,-6.698062637403607,2.0161019222468135
1788957343379138800,0.938138916015625,2.593805364090204,-7.238004796129465,3.0825515885859724
1788957343389188900,0.94818896484375,4.198062515214085,-5.562050774538517,4.566434055313468
1788957343399239700,0.95823974609375,5.556439948919415,-0.9713345108836888,3.772890060484409
1788957343409289500,0.96828955078125,5.547216778022051,4.0859199448511,4.36010425799489
1788957343419340500,0.978340576171875,7.249574822413921,4.748454464022815,3.1946330764114856
1788957343429390600,0.988390625,4.291623426964879,5.922630053326487,2.129448899963498
1788957343439441700,0.998441650390625,0.5575587716981768,7.005394310128688,1.4389157822757959
1788957343449491700,1.00849169921875,2.389186170081794,5.225730907738209,2.4041589905470606
1788957343459541800,1.018541748046875,2.7067460990935563,2.7021482499092815,3.321384894624352
1788957343469592800,1.0285927734375,1.307400695183873,3.5545267110228536,3.4275685565829277
1788957343479642600,1.038642578125,0.8006491506591439,3.8294323241785166,3.898343071058392
1788957343489693700,1.048693603515625,-1.43220342515558,5.288119267112016,1.61164492328763
1788957343499743700,1.05874365234375,-4.573973218646645,7.342316234475374,-1.0918915661096573
1788957343509794800,1.068794921875,-2.357102932600677,6.99880850199759,-2.1745137840926647
1788957343519844900,1.078844970703125,-3.2789091502055525,4.623674530404806,-1.326459031397104
1788957343529895700,1.088895751953125,-3.9929435549899934,3.656201078863442,-0.8439139996290207
1788957343539945700,1.09894580078125,-3.9244077789023515,2.2424238294973966,-0.42996962587833404
1788957343549995800,1.108995849609375,-3.4138702860981223,3.1322897252231834,-2.3139275154799224
1788957343560046600,1.119046630859375,-2.5476982774317265,3.187683111143112,-1.8726725254774093
1788957343570096600,1.1290966796875,-1.761947712957859,3.4820997727155683,-1.0724778405874966
1788957343580147700,1.139147705078125,-0.45584114923775193,3.9706303086340426,0.13594985466897486
1788957343590197800,1.14919775390625,2.5712662000238895,1.5433233744725585,-1.4261071541070938
1788957343600248800,1.159248779296875,-0.9703069214016199,-0.5219781936205923,-6.273278305208683
1788957343610298600,1.169298583984375,-6.924391266655921,-2.142754810129851,-1.3731418721169233
1788957343620349700,1.179349609375,-3.6804721812888976,0.061701546153426164,-0.1741869386047125
1788957343630399700,1.189399658203125,-1.3550554496757685,0.33132264303490516,-0.7510667891055345
1788957343640449800,1.19944970703125,-2.312702211468667,0.41553631911724803,-0.508950808134675
1788957343650500900,1.2095009765625,-1.3296920219689607,1.5466338141947984,-1.2710714906960725
1788957343660550700,1.219550537109375,-2.7079893771529195,0.8725622942253947,-2.912249382460117
1788957343670601700,1.229601806640625,-4.293844025623798,0.5129986222207545,-4.854408116617798
1788957343680651800,1.23965185546875,2.134250747287273,1.8269199513450265,-5.286149428343773
1788957343690702600,1.24970263671875,12.5829349147439,3.51185281368345,-7.491562208569049
1788957343700752600,1.259752685546875,11.27513732919693,3.7440897901967167,-11.406051527786254
1788957343710802700,1.269802734375,1.4675146847724914,5.558565270510315,-11.391999621558188
1788957343720853800,1.279853759765625,0.7403355517327785,8.233971643966436,-12.261299406856297
1788957343730903600,1.289903564453125,1.8516168779671192,8.650634629026055,-10.112668252038954
1788957343740954600,1.29995458984375,-0.9532955808460711,8.705719387388228,-9.413270275372266
1788957343751004700,1.310004638671875,0.6295359204113483,6.441446421915292,-4.589809085682035
1788957343761055700,1.3200556640625,1.0722926932789385,5.017235456818342,1.0011433736920357
1788957343771105800,1.330105712890625,4.795250117467344,-0.9259557384997605,9.232896172565221
1788957343781156900,1.340156982421875,3.895575359910726,-7.640751484039425,10.915820033168792
1788957343791206700,1.35020654296875,0.12298194428533316,-0.8952063799709081,4.7460202226132155
1788957343801256700,1.360256591796875,8.592332662183045,-0.5779378351211547,7.751873186922073
1788957343811307800,1.370307861328125,4.709646302200854,-5.09154046395719,5.703667568928003
1788957343821357800,1.38035791015625,2.7258526583626863,1.2793109112530947,4.077993535766005
1788957343831408600,1.39040869140625,2.0302467674553393,7.28473264503479,0.6399006625592708
1788957343841458700,1.400458740234375,-0.9404626950189471,6.402188178238272,-2.388450257022679
1788957343851509800,1.410509765625,-1.2656395287752151,3.2245869006484744,-2.2062825487971303
1788957343861559600,1.4205595703125,4.49946625919491,4.4311406187266105,0.22636896126270292
1788957343871610600,1.430610595703125,8.352950490090251,4.201803455308079,1.4566478383213282
1788957343881660700,1.44066064453125,7.122673951119184,3.196376120686531,0.9914429406717419
1788957343891711700,1.450711669921875,4.420805687195062,4.076158721554279,1.0939897074326872
1788957343901761800,1.46076171875,3.576134147197008,5.433498628905415,1.2827049376055597
1788957343911811600,1.4708115234375,-0.025155337914079427,5.619447901496291,-1.1096157311096786
1788957343921862700,1.480862548828125,-1.3604160999260841,3.955548474836349,-2.946088523697853
1788957343931912700,1.49091259765625,-0.4703741169810295,0.5916705923974513,-3.602606266798079
1788957343941963800,1.5009638671875,-2.1483961770176885,3.2607834186673164,0.5147694312855601
1788957343952013800,1.511013916015625,-3.2028724969685074,4.575594097846746,2.4222207169383765
1788957343962064600,1.521064697265625,-2.149226051970571,4.533881446754932,2.494284959413111
1788957343972114700,1.53111474609375,-1.6853705231033265,3.7445448404878374,3.318548209893703
1788957343982164700,1.541164794921875,-2.0628408770680426,-1.2533768440514803,3.3162107068568467
1788957343992215600,1.551215576171875,-0.546896215647459,-19.170812253332137,5.9283776570677755
1788957344002265600,1.561265625,-0.5936110589407384,-29.399695147478578,5.525691759434342
1788957344012316700,1.571316650390625,-2.502554482847452,-31.130487843716143,2.845295614866912
1788957344022366700,1.58136669921875,-5.394717355090379,-25.77919695789814,2.4443843256905673
1788957344032417800,1.591417724609375,-10.864454587590695,-12.02347147846818,1.840582419864088
1788957344042467600,1.601467529296875,-14.763774394726752,1.847769554889202,-0.5757363795541226
1788957344052518700,1.6115185546875,-7.49079531584978,7.443570623338222,-3.348079132543504
1788957344062568700,1.621568603515625,-4.39326418479681,7.19148269892931,-6.967860990548133
1788957344072618800,1.63161865234375,-0.5625450356781483,2.7424574639439583,-9.148943047115207
1788957344082669800,1.641669921875,5.96462502849102,-2.6833827591627837,-10.165756868147849
1788957344092719900,1.651719970703125,16.525063936036823,-5.5046957331568,-12.06252104783058
1788957344102770700,1.661770751953125,21.91322763170004,-4.485331643119454,-11.79006370460987
1788957344112820700,1.67182080078125,9.078136988008021,-1.5245838949501513,-8.508302964365482
1788957344122871600,1.68187158203125,0.537226177765429,-2.1371225033313035,-5.755567267513275
1788957344132921600,1.691921630859375,-1.1694970760986207,-2.8656776008993385,-3.4051524343743917
1788957344142972700,1.70197265625,-1.1861153256833552,-2.164137351506948,-1.809196516997367
1788957344153022700,1.712022705078125,-0.8743602835580706,-1.2109919927865267,-0.7089449726909398
1788957344163072500,1.722072509765625,-0.5281210802897811,0.05932195754051208,0.20820304384455082
1788957344173123600,1.73212353515625,-0.20417481124177575,0.6454127039790153,0.9044916563190519
1788957344183173600,1.742173583984375,0.03685863518938422,0.8325432953089476,1.3771288959264754
1788957344193224700,1.752224609375,-0.08894932630211114,0.4922989485412836,1.6467562764182686
1788957344203274500,1.7622744140625,-0.4978711957156658,-0.08175766123235226,1.5145000155702233
1788957344213325600,1.77232568359375,-0.9294809900164603,0.2771013696342707,0.33670448220372196
1788957344223375600,1.782375732421875,-1.2208888251617551,0.8523270231872796,-0.2867076946303248
1788957344233426700,1.7924267578125,-0.8132524655140936,0.8231360000163316,-0.5347857988759875
1788957344243476700,1.802476806640625,-0.22391206962987778,1.2000240240484474,-0.7549807476788759
1788957344253526800,1.81252685546875,-0.03429755252972245,1.7437690821886063,-0.9877955240800976
1788957344263577300,1.822577392578125,-0.8170414825335145,2.112415932098031,-0.8415797114625573
1788957344273627400,1.83262744140625,-0.5625666629880667,2.7520804478138685,-0.5890428742423653
1788957344283678500,1.842678466796875,0.47045331969708204,3.136854256659746,-0.3801569627001881
1788957344293728500,1.852728515625,0.2930322214767337,2.369855738928914,-0.17932693184167145
1788957344303779600,1.862779541015625,-0.7771455254748463,0.5875818617790937,-0.10532295347601174
1788957344313829600,1.87282958984375,-0.6923249695405364,-0.9466443062633275,0.3326324104592204
1788957344323880700,1.882880615234375,-0.2503533557012677,-2.21128079547584,0.9404378528386353
1788957344333930500,1.892930419921875,0.08300123155266045,-2.758813555461168,1.0592232222169637
1788957344343980500,1.90298046875,0.37737171589583157,-2.7080887458741665,0.8921762184947729
1788957344354031600,1.913031494140625,0.01868131959438324,-2.281825573298335,0.6412596759527921
1788957344364081700,1.92308154296875,-0.810595082873106,-0.5413046792507171,-0.41657969069033857
1788957344374132700,1.9331328125,-0.8090072291597723,1.4140706793546676,-1.4194427277818322
1788957344384182800,1.943182861328125,-0.5472665102645754,1.6007155329942702,-1.4959177724361419
1788957344394233300,1.9532333984375,-0.9835139012381434,0.8491144908815622,-0.7869409433022141
1788957344404283600,1.96328369140625,-1.0823267421677707,0.11740706676244735,-0.3155202398777008
1788957344414334500,1.97333447265625,-0.3938531873583793,-0.24607085607647894,-0.20204072182253002
1788957344424384500,1.983384521484375,0.1275417995467782,-0.3078226711124182,0.08751490958482026
1788957344434434600,1.9934345703125,-0.044888066257536406,-0.22341478763222694,0.3339617593668401
1788957344444485600,2.003485595703125,-0.1608054789841175,-0.29418519090414047,0.5073815129913389
1788957344454535400,2.013535400390625,-0.032004034765064714,-0.8888929590404033,0.6978411026135086
1788957344464586500,2.02358642578125,-0.10043985760957003,-0.7244079147607088,0.901975581844896
1788957344474636500,2.033636474609375,-0.21897738970667122,-0.08435936816334724,0.6975995489425957
1788957344484687600,2.0436875,-0.29929683482944963,0.8166431308656931,0.33352132212296126
1788957344494737700,2.053737548828125,-0.7718713844642042,1.5206518161982296,-0.17025369080901145
1788957344504788700,2.063788818359375,-1.0094704725325108,1.6553221524506807,-0.10956877435222268
1788957344514838800,2.0738388671875,-0.765963621725142,1.1196025798559188,-0.12117153386250137
1788957344524889300,2.083889404296875,-0.6804729114443063,-0.22448037103712556,-0.42345293746069074
1788957344534939600,2.093939697265625,-0.435642995339632,-0.6723147394299507,-0.4776058218002319
1788957344544989700,2.10398974609375,-0.10545973159819841,-1.0711714341640473,-0.3880350025989115
1788957344555040500,2.11404052734375,0.036544308543205256,-1.572858388775587,-0.5140286959208548
1788957344565090600,2.124090576171875,0.3952300286695361,-1.5066875882536173,-0.825103646827489
1788957344575141600,2.1341416015625,0.15419453641176223,-1.0571084220200777,-0.6129620944902301
1788957344585191400,2.14419140625,-0.4870435122311115,-0.9819932675421237,-0.5541309892065823
1788957344595242500,2.154242431640625,-0.9413558444663882,-0.5798848775357007,-0.19521584423854946
1788957344605292500,2.16429248046875,-0.9300757410392164,-0.08892214603424071,0.1421668294876814
1788957344615343600,2.174343505859375,-0.9116901895210147,0.45654783620238304,0.26869857520908114
1788957344625393700,2.1843935546875,-1.059075338178873,0.6122948627531528,0.14685367212966083
1788957344635443700,2.194443603515625,-1.3518718512035905,0.577446836733818,0.14469927057474852
1788957344645494500,2.20449462890625,-0.9572747136101126,0.6591618278682232,0.30659809775352476
1788957344655544600,2.214544677734375,0.13536708634495734,0.36413960161805153,0.3279027515888214
1788957344665595600,2.224595703125,0.8505205582872033,-0.4362093970507383,0.007365121940523385
1788957344675645700,2.234645751953125,0.9731856917083263,-0.7676017443209886,-0.4883167470373213
1788957344685696500,2.244696533203125,0.3781403621807694,-0.49166824942231174,-0.9230018571302294
1788957344695746600,2.25474658203125,-0.04158171818852424,0.7388730779647826,-0.6430228862330317
1788957344705797600,2.264797607421875,-0.00004676175117492675,1.2450064905911684,-0.4671890572041273
1788957344715847400,2.274847412109375,0.5208031584918499,0.9471148463845253,-0.2844811046220362
1788957344725897500,2.2848974609375,0.3661830901443958,0.858911662274599,0.23158143521398306
1788957344735948500,2.294948486328125,0.32731706065535543,0.9020411944270134,0.7045870697423815
1788957344745998600,2.30499853515625,0.39574265436679124,0.7458411634117365,0.8304863627791405
1788957344756049700,2.315049560546875,0.3502969542264938,0.2835533222526312,0.40904798001125453
1788957344766099700,2.325099609375,0.49601577710732814,-0.37651042289137837,-0.18169439162537454
1788957344776150500,2.335150634765625,0.4835163610182702,-1.0799684886038303,-0.550487372007221
1788957344786200600,2.34520068359375,0.342525151181221,-1.5118249511420725,-0.6159697518736124
1788957344796251600,2.355251708984375,-0.3708627723932266,-1.139279924750328,-0.5938042434252798
1788957344806301700,2.3653017578125,-0.380012731923908,-0.5879197154313326,-0.5074453720077872
1788957344816351700,2.375351806640625,-0.3554606205999851,0.059032034683227534,-0.333372561302036
1788957344826402600,2.385402587890625,-0.23092954717651007,0.7959978177219629,-0.9015557489976286
1788957344836452600,2.39545263671875,-0.19038944699540733,0.7187894903570413,-0.8655912861689925
1788957344846503400,2.40550341796875,-0.6403016445755958,0.8263894488543272,-0.35733781264871356
1788957344856553500,2.415553466796875,-0.3299859876036644,0.9429816921025514,-0.9147510383963584
1788957344866604500,2.4256044921875,-0.030110037712007758,0.8861451216369867,-0.8844941395595669
1788957344876654600,2.435654541015625,0.42618075498938557,0.5634107125967741,-0.4836613224469125
1788957344886705700,2.44570556640625,0.450911876142025,0.2234159566760063,-0.2391204524166882
1788957344896755700,2.455755615234375,0.38256723871231074,-0.06337094067037105,-0.03889598623588681
1788957344906806500,2.465806640625,0.3684568802952766,0.0015063129097223282,-0.05223156088814139
1788957344916856600,2.475856689453125,0.6777084151670336,0.2307762563109398,-0.1873527096480131
1788957344926906600,2.48590673828125,0.7593276908420026,0.15333528923392295,-0.38792043630853296
1788957344936957700,2.495957763671875,0.40109775165915484,-0.08567278884947299,-0.8858952385291456
1788957344947007700,2.5060078125,-0.27064883249402044,-0.06036942076683044,-0.7011338605485856
1788957344957058600,2.51605859375,-0.34611499236673116,0.019241876086592672,-0.6314546135142445
1788957344967108600,2.526108642578125,0.26847923336997626,0.361865226945281,-0.9143398272469639
1788957344977159400,2.536159423828125,0.40768516722545023,0.20200199724733828,-1.3234795771948993
1788957344987209500,2.54620947265625,-0.367526467577368,-0.30796061827838417,-1.4474015788093209
1788957344997260500,2.556260498046875,-1.1503099989391863,-0.44728257972896096,-1.2252962663404643
1788957345007310600,2.566310546875,-0.9137760558843612,-0.8603840729147195,-1.0392201524995266
1788957345017360600,2.576360595703125,0.07096694875732064,-1.1495949825376273,-0.6984516357272863
1788957345027411500,2.586411376953125,0.32776465829238294,-1.5765484754651784,-0.8003887461572885
1788957345037461500,2.59646142578125,-0.04359261961951852,-1.4589350724756718,-0.6659298606984317
1788957345047512600,2.6065126953125,-0.19264555535912511,-0.8647370074272155,-0.2993595248021185
1788957345057562600,2.616562744140625,-0.17588249047622084,-1.23151923250854,-0.012713351100683211
1788957345067613700,2.62661376953125,0.0884008986391127,-1.071720300218463,0.2789303386271
1788957345077663700,2.636663818359375,0.47394320763945574,-0.671892714625597,0.5446516515910625
1788957345087714600,2.646714599609375,0.15829671103358267,-0.7247884385108947,0.5068842309936881
1788957345097764600,2.6567646484375,-0.14416297174096107,-0.854049609196186,0.264508137781918
1788957345107814700,2.666814697265625,0.2738390068374574,-0.5607599058270454,0.254280466017127
1788957345117865500,2.676865478515625,-0.1491325768470764,0.010675123271346091,0.17912950957342982
1788957345127915500,2.68691552734375,0.059264820525795216,0.31626667433083056,0.14643442380428312
1788957345137966600,2.696966552734375,0.2698223185420036,1.0475596724301577,0.12863587839379906
1788957345148016600,2.7070166015625,-0.16115487694367767,0.37228842128217216,-0.3080642247833311
1788957345158067500,2.7170673828125,-0.15852730491906403,-0.4383580995172262,-1.1733975906684995
1788957345168117000,2.727116943359375,-0.027534342005103823,-0.5650368524938821,-1.5630451430305838
1788957345178168000,2.73716796875,-0.15897008025050163,-0.6043985565453768,-1.4929910713344812
1788957345188218000,2.747218017578125,-0.2666508488990366,-0.2252379114061594,-1.3011049560405312
1788957345198269200,2.757269287109375,-0.08755334189906716,0.648740387097001,-1.1185535091944039
1788957345208319200,2.7673193359375,0.45932533809170123,1.1324562162101268,-0.8354555294938385
1788957345218369000,2.777369140625,0.6767265645228326,1.680890893471241,-0.791405813756585
1788957345228420000,2.787420166015625,0.21087182466238735,1.5953852778822182,-0.3506960365466773
1788957345238470100,2.79747021484375,0.43781727063879367,1.6091180351585148,-0.19877353672012685
1788957345248521200,2.807521240234375,0.5322035272978246,0.20160276879668235,0.748880092716217
1788957345258571300,2.8175712890625,0.8328137828134,-0.5455675973922014,0.8441426938183605
1788957345268622000,2.8276220703125,1.3657656442604957,-1.673928653243184,1.3104336331389843
1788957345278672000,2.837671875,1.0942211781010032,-2.4524293927192686,1.3474838453777134
1788957345288723000,2.847722900390625,0.8822454838499426,-3.1357980256050824,0.8734405383646487
1788957345298773000,2.85777294921875,0.6576230739936232,-3.2606074775785205,0.6873990574456751
1788957345308823000,2.867822998046875,0.22474019101709125,-3.132902304163575,0.758584763520211
1788957345318874000,2.8778740234375,0.11099866102486848,-2.928118567243218,-0.023219839806854724
1788957345328924200,2.887924072265625,0.20024433992505072,-3.5207980444222686,-0.309813333472982
1788957345338975200,2.897975341796875,0.6390814551308751,-3.1020114913374184,0.04473733267523348
1788957345349025000,2.90802490234375,0.5842123853459954,-2.1339672541707753,0.368415086980164
1788957345359076000,2.918076171875,-0.27452655071020127,-2.624893160793185,0.754309497353807
1788957345369126100,2.928126220703125,-0.8827963957309722,-2.3331799129605293,1.1431087623234837
1788957345379177200,2.93817724609375,-0.17154782227277754,-1.812632775056362,2.0602439924426377
1788957345389227300,2.948227294921875,-0.01039542954713106,-0.975672247827053,2.1029338180035353
1788957345399277000,2.958277099609375,0.47250440700799223,-0.16655425176918506,1.7619988586232065
1788957345409327900,2.968327880859375,-0.030140432850271463,0.038388475105166436,1.4827112309910355
1788957345419378000,2.9783779296875,-0.8335352289557456,0.35830256602764127,0.6841263193853199
1788957345429429000,2.988428955078125,-0.44027956909909843,1.8632868574947117,0.7459223388891667
1788957345439479000,2.99847900390625,-1.3518696592465043,1.8132617206096648,0.1909314449176192
1788957345449530000,3.008530029296875,-1.174675209388882,2.871611082601547,-0.04414871913231909
1788957345459580200,3.018580078125,-0.527775189461559,2.4326883349388835,-0.2424758272591978
1788957345469631200,3.02863134765625,-1.0203205139793454,1.5578782617866993,-0.2599731977660209
1788957345479681000,3.038680908203125,-1.4357365677177905,2.3730694402784107,-0.6206078600030392
1788957345489732000,3.048732177734375,-1.7698492798626422,2.650854116001725,-0.7257442048657685
1788957345499782100,3.0587822265625,-1.8154139302074908,3.154846424946189,0.550622542694211
1788957345509832200,3.068832275390625,-1.4096099005535243,1.8094822020709513,1.6061512943074105
1788957345519883300,3.07888330078125,-0.5634032599426806,0.300706117105484,1.9171575638920069
1788957345529933000,3.08893310546875,-0.12318462725058198,-0.2157037748634815,2.0552002991870046
1788957345539984000,3.09898388671875,-0.9079612321257591,-0.9164216019570827,1.9021219073235986
1788957345550034000,3.109033935546875,-1.7576196206256747,-1.0056178887575864,2.0176409683823584
1788957345560085000,3.1190849609375,-1.2705682173490525,-1.3141256195247173,2.4661820237398144
1788957345570135000,3.129135009765625,-0.8365791266962885,-1.2426824315577745,2.4925179497405887
1788957345580186000,3.13918603515625,-0.5360979043878614,-0.34001287609934805,2.0839855180360374
1788957345590236200,3.149236083984375,-1.3116026769183575,0.8936579814851283,1.810044219867885
1788957345600286000,3.159285888671875,-1.8955657636784016,0.9589157588154077,1.1754237627338617
1788957345610337000,3.1693369140625,-1.1457285163678228,0.8482716103166341,0.5433771746758371
1788957345620387000,3.179386962890625,-0.8900432981193065,1.6539532021850347,0.22638722757175564
1788957345630438100,3.189438232421875,-0.7037937274076044,2.7187206145256755,-0.47852585925459856
1788957345640488200,3.19948828125,-0.4495943638026714,2.7753146084070206,-1.3187676001116633
1788957345650539300,3.209539306640625,-0.5404677900351583,1.9732406856417655,-1.2935828899726272
1788957345660589000,3.219589111328125,-0.5756184522628783,1.4717776029139755,-1.0710682660505175
1788957345670639900,3.229639892578125,-0.5329540534041821,2.70979788787961,-0.9752338564097881
1788957345680690200,3.239690185546875,-0.18207725346311926,2.071451469025016,-0.6410784011017531
1788957345690741000,3.249740966796875,0.04197115589752793,0.8772042748123406,-0.5151878028281033
1788957345700791000,3.259791015625,0.015438246019929646,0.8114835561454296,-0.5510804425295442
1788957345710841000,3.269841064453125,-0.3277345554150641,0.9406441890656948,-0.4788626899935305
1788957345720892200,3.27989208984375,-0.21565467502474783,0.2928162406384945,0.17369257921651005
1788957345730942000,3.28994189453125,0.1688227812230587,0.10052139841318129,0.9505570957928895
1788957345740993000,3.299992919921875,0.5414357582844793,0.5116968919724225,1.266632777596265
1788957345751043000,3.31004296875,0.6466098048090935,0.328809929561615,1.3666612779259681
1788957345761094100,3.32009423828125,0.48549102209210393,0.1741939528673887,1.067548640557006
1788957345771144200,3.330144287109375,0.4593744379304349,0.3723088795483112,0.9139752317182719
1788957345781195300,3.3401953125,0.41637481576800345,0.33736382289528843,0.8790683881837874
1788957345791245000,3.3502451171875,0.27553894262313844,0.2529483406305313,0.4374297326259315
1788957345801295000,3.360295166015625,0.3071206603229046,-0.38337446344196796,0.16744805880375205
1788957345811346200,3.37034619140625,0.7708243596293032,-1.2590326778560876,0.1917273445356637
1788957345821396200,3.380396240234375,1.3443383869588375,-1.6497294470101593,0.33146957722492515
1788957345831447000,3.390447021484375,1.6246669019460678,-1.8408254348397255,0.4608906146470457
1788957345841497000,3.4004970703125,1.538763373080641,-1.80913031989336,0.6266001592203975
1788957345851548200,3.410548095703125,1.3564672161698341,-1.3692284980654716,0.7302890817537904
1788957345861598000,3.420597900390625,1.385056181794405,-1.4284294595748186,0.5464513944894075
1788957345871649000,3.43064892578125,1.179825724019855,-1.3806307665675879,0.4030779656909406
1788957345881699000,3.440698974609375,1.0398995130658149,-1.3630389957755804,0.2198122330956161
1788957345891749000,3.4507490234375,0.9445487952888011,-1.5391437507003545,-0.006320508258417248
1788957345901800200,3.46080029296875,0.7760778962433338,-1.520582258093357,-0.22806166358999908
1788957345911850000,3.47085009765625,0.7926631203413009,-1.3466992708712815,-0.40045916149467226
1788957345921901000,3.480901123046875,0.7366460495650767,-0.8533189568340778,-0.4477451557394117
1788957345931951000,3.490951171875,0.6539338640868664,-0.5443763417810201,-0.5969880610931665
1788957345942002200,3.501002197265625,0.9371534243404864,-0.4580424586743116,-0.8161168419692665
1788957345952052200,3.51105224609375,1.3429517549060284,-0.4130255053400993,-1.1075596022974699
1788957345962103000,3.52110302734375,1.1226314261578023,-0.3782382695972919,-1.35407374516204
1788957345972153000,3.531153076171875,0.5792646998107432,-0.4761854336082935,-1.396792504556477
1788957345982203000,3.541202880859375,0.10579261681437492,-0.361591086179018,-1.0436159032404422
1788957345992254000,3.55125390625,0.01936053403019905,0.04431143541336059,-0.4523028190437704
1788957346002304000,3.561303955078125,0.3197321584843099,0.40880350373089314,-0.38619616979919374
1788957346012355000,3.57135498046875,0.29384266107678414,0.910951061591506,-0.27951741780005396
1788957346022405000,3.581405029296875,0.005208236167579889,0.9954296722203493,-0.12624211512506006
1788957346032456200,3.591456298828125,-0.08024301888570189,1.0728139406740664,0.05679718830324709
1788957346042506000,3.601506103515625,0.06821136643886566,1.081861755004525,0.23632132321745156
1788957346052557000,3.61155712890625,0.2164484557509422,1.634960916945338,0.4171401010520756
1788957346062607000,3.621607177734375,0.18009455521330237,1.6349866359084844,0.31198066757470366
1788957346072657200,3.6316572265625,-0.030713118171691894,1.3474012816607952,0.26192148228958245
1788957346082708200,3.641708251953125,0.10747852407470344,0.7979051126480102,0.0006892243731766939
1788957346092758300,3.65175830078125,0.11043386674895882,0.3192284467458725,-0.10285378688350319
1788957346102809000,3.66180908203125,0.026231296582520006,0.04364098880589008,0.06847469355016947
1788957346112859100,3.671859130859375,0.0792284350156784,-0.23868483747839928,0.3955783306505531
1788957346122910000,3.681909912109375,0.10496727190613746,-0.4429337368696928,0.6313608708161861
1788957346132960000,3.6919599609375,0.10209829234108328,-0.402354473721981,0.7464975814938545
1788957346143011000,3.702010986328125,0.070706105864048,-0.4241296676784754,0.8580599408160895
1788957346153061000,3.71206103515625,-0.21851649419665337,-0.2865063268393278,0.8384485007647424
1788957346163112200,3.7221123046875,-0.2582452779948711,-0.3007330051124096,0.7607944023936987
1788957346173162200,3.732162353515625,-0.17335589460805056,-0.2183843922495842,0.758829458996281
1788957346183212300,3.74221240234375,-0.30929478949159384,0.008393149814009666,0.6715008657637983
1788957346193263400,3.752263427734375,-0.3904759660102427,-0.15280921953320503,0.5179801369603723
1788957346203313400,3.7623134765625,-0.28389059138298034,-0.5546136581569909,0.1603457159852609
1788957346213364500,3.772364501953125,-0.39240708020329473,-0.9140046039432287,0.0903909399451688
1788957346223414500,3.78241455078125,-0.5046890590369701,-1.2690367699980736,0.625831659065932
1788957346233465300,3.79246533203125,-0.8429203124165534,-1.3407196119397877,0.04629924822971224
1788957346243515100,3.80251513671875,-1.2300643575251102,-1.296639647194743,-0.05298953964859247
1788957346253566200,3.812566162109375,-1.216323416942358,-0.9369856665581464,0.13172449205890296
1788957346263616300,3.8226162109375,-1.065829342483729,-0.7184557283580303,0.29781846937257794
1788957346273666300,3.832666259765625,-0.8769616982281208,-0.640776860871911,0.3313599063053727
1788957346283717400,3.84271728515625,-1.0108559355415403,-0.3807978909522295,0.380773121837154
1788957346293767200,3.85276708984375,-1.0711777177743613,-0.06989362043738365,0.4491629135828465
1788957346303818200,3.862818359375,-0.7970116709396242,0.40783962713479993,0.19992409499473868
1788957346313868300,3.872868408203125,-0.5255892237246036,0.6397498559117317,-0.0022824849139899015
1788957346323919400,3.88291943359375,-0.1861949179150164,0.676422759270668,-0.10882634022077545
1788957346333969400,3.892969482421875,0.11637567788809537,0.679414342302084,-0.14743594726333395
1788957346344020500,3.9030205078125,0.4718760459765792,0.8463836046129465,-0.22545328945619983
1788957346354070500,3.913070556640625,0.8330243568241595,0.5931400804281234,-0.25087474922686814
1788957346364120300,3.923120361328125,0.663222209174931,0.33369594803750513,-0.2015564454369247
1788957346374171100,3.933171142578125,0.2614740307830274,0.5307879614114761,-0.028911274647805837
1788957346384221400,3.943221435546875,-0.13563582028374074,0.3663520169705152,0.218743380021397
1788957346394272300,3.953272216796875,-0.10445289264321327,0.22639351118206977,0.38591632994450625
1788957346404322300,3.963322265625,-0.00020326748713850974,0.42894495900571344,0.6406396443583071
1788957346414373400,3.973373291015625,-0.15402254084572195,0.29910744973719117,0.7376358643200248
1788957346424423200,3.983423095703125,-0.3180358759604394,0.2028553992062807,0.7727553276918828
1788957346434474200,3.99347412109375,-0.22574819901585577,-0.08664309518635273,0.9075541126295924
1788957346444524300,4.003524169921875,0.10649155886396765,-0.2543248896807432,0.6783439365915954
1788957346454574300,4.01357421875,0.3297464797593653,-0.5303858103513718,0.3587469853268936
1788957346464625400,4.02362548828125,0.030773762317746877,-0.6710714613705873,0.07055124409589916
1788957346474675500,4.033675537109375,-0.09197700356021522,-0.7329302439123392,-0.091625157915242
1788957346484726500,4.0437265625,-0.26892814618125555,-0.17823650625646115,-0.21622513185646383
1788957346494776300,4.0537763671875,-0.1983295923449099,0.1704302164196968,-0.21019553283602
1788957346504827100,4.0638271484375,-0.08756371716260909,0.2870288894087076,-0.08900960512198507
1788957346514877400,4.07387744140625,0.03491948382034898,0.5019435597211123,-0.016092344280797987
1788957346524928300,4.08392822265625,0.12333178063631058,0.6046154141664505,-0.0857069651137106
1788957346534978300,4.093978271484375,0.5703894655682146,0.4794494038403034,-0.08775087376516312
1788957346545028400,4.1040283203125,0.7719581859648227,0.34128187312185765,-0.2405918584098108
1788957346555079200,4.1140791015625,0.6918423005901276,0.26922435264885425,-0.29994963618237525
1788957346565129200,4.124129150390625,0.46978608796000476,0.2245662957549095,-0.15505882509090005
1788957346575180300,4.13418017578125,0.43495691277161236,0.2912432922333479,-0.1087716691577807
1788957346585230300,4.144230224609375,0.5438415042519569,0.24931027638912198,-0.04935783208273351
1788957346595281400,4.154281494140625,0.6531668252371251,0.02847206124663353,-0.010468878375831991
1788957346605331500,4.16433154296875,0.6899275530099869,0.0012555530190467834,-0.054446752719581125
1788957346615382500,4.174382568359375,0.677256287485361,-0.14766659594774245,-0.13054781296234577
1788957346625432300,4.184432373046875,0.640852410326153,-0.35061668770015236,-0.23134658527849242
1788957346635482400,4.194482421875,0.43738954674601555,-0.430409770861268,-0.22546740931309758
1788957346645533400,4.204533447265625,0.26678879606500266,-0.5477659842193127,-0.263844084382616
1788957346655583500,4.21458349609375,0.19513824895769358,-0.5296650948613881,-0.2783552056202665
1788957346665634300,4.22463427734375,0.4765384848296642,-0.6805488992899655,-0.22868271809779106
1788957346675684000,4.23468408203125,0.568428686889261,-0.72940382335186,-0.3320108079621568
1788957346685735200,4.244735107421875,0.4376853148221969,-0.42553310473561284,-0.33527437633536755
1788957346695785200,4.25478515625,0.3788740832827985,-0.14900456655323505,-0.2579149865945801
1788957346705836300,4.264836181640625,0.43350247617959975,0.08976210398972034,-0.15386672922950237
1788957346715886300,4.27488623046875,0.7608068234838545,0.27507775485217567,-0.00998038247283548
1788957346725936400,4.284936279296875,0.9784089793145656,0.24751111801266668,0.07334730455521493
1788957346735987500,4.294987548828125,0.9265608647860586,0.15494213990867137,0.06093512835819274
1788957346746037200,4.305037353515625,0.6369324604034423,0.2591319977015257,0.025827720750309525
1788957346756088300,4.31508837890625,0.466023082164675,0.3536421730011701,0.04387691645361483
1788957346766138400,4.325138427734375,0.4133974073924124,0.2669827112019062,0.07434501035567373
1788957346776189400,4.335189453125,0.194812962526083,-0.04483049085140228,-0.06027023470867425
1788957346786239500,4.345239501953125,-0.05868877420350909,-0.30132220317721364,-0.25041630140226334
1788957346796290300,4.355290283203125,-0.22820202190876004,-0.20212123971283436,-0.3227357242144644
1788957346806340000,4.365340087890625,-0.14402853170633315,-0.04519230990111828,-0.3192513892300427
1788957346816390400,4.375390380859375,0.014838818822056054,0.022704583761096,-0.3208803421387449
1788957346826441200,4.385441162109375,0.15613748717308043,-0.11650690305233001,-0.34710338234957305
1788957346836491300,4.3954912109375,0.04961772512793541,-0.2057224790751934,-0.6517847232289612
1788957346846542300,4.405542236328125,-0.4212184564068913,-0.4367927498966455,-0.853927297990769
1788957346856592400,4.41559228515625,-0.6070274437442421,-0.6563935321986675,-0.7521217049859463
1788957346866643500,4.4256435546875,-0.3262751503869891,-0.6567103430628776,-0.5918513557918369
1788957346876693200,4.435693359375,0.2449243163898587,-0.6829635592162608,-0.42735246564988044
1788957346886744300,4.445744384765625,0.678975950884819,-0.47270635932087895,-0.48550921533592045
1788957346896794400,4.45579443359375,0.9808417594194412,-0.4295218821108341,-0.5400501491449773
1788957346906844400,4.465844482421875,0.665302668710798,-0.5117477453768253,-0.6182347741961479
1788957346916895500,4.4758955078125,0.2919989329062402,-0.5062561622232199,-0.42049836197141555
1788957346926945500,4.485945556640625,0.3085290658161044,-0.588248801255226,-0.0629976321122609
1788957346936996000,4.49599609375,0.22000030301362275,-0.6890875950545072,0.09218960513127968
1788957346947046400,4.50604638671875,-0.038434944595396515,-0.6104214700967073,0.271764629982505
1788957346957097200,4.51609716796875,-0.40021161647439,-0.47210021012127396,0.5501160910094156
1788957346967147300,4.526147216796875,-0.6769011904373765,-0.2627741535961628,0.6959241630762815
1788957346977198300,4.5361982421875,-0.8462478494040667,-0.11327332795858383,0.8383543927405029
1788957346987248400,4.546248291015625,-0.8896741725459695,0.12156652452945708,0.826091708016768
1788957346997298200,4.556298095703125,-0.9717731945618987,0.4432780202627182,0.6512487166561186
1788957347007349200,4.566349365234375,-0.9118354432106017,0.7328636084169149,0.43946335734538733
1788957347017399300,4.5763994140625,-0.44791240206509825,0.8945487928450107,0.2333351104808971
1788957347027450400,4.586450439453125,-0.42795273309797044,0.7970499571233988,0.05275286308219656
1788957347037500400,4.59650048828125,-0.5630547387659549,0.6045031859636306,-0.10444653596766293
1788957347047551500,4.606551513671875,-0.6074173198446631,0.405317999702692,-0.214871488757804
1788957347057601300,4.616601318359375,-0.3382835680887103,0.13118249413669109,-0.4230483021825552
1788957347067652400,4.62665234375,-0.13960340874046087,0.26604689165651796,-0.5040865630991757
1788957347077702400,4.636702392578125,-0.09516133268475532,0.5957791967600584,-0.3725992773296311
1788957347087752400,4.64675244140625,-0.4951973003312945,0.9533113629370927,-0.002933094309829175
1788957347097803300,4.65680322265625,-0.8542945238679647,1.079624205210805,0.6205817026484757
1788957347107853300,4.666853271484375,-0.9379051194906234,1.1087240429669618,0.9279121332645416
1788957347117904400,4.676904296875,-0.8891431344091891,0.8185013259530067,0.8357770165331662
1788957347127954200,4.6869541015625,-0.5250611081972718,0.17786007415950297,0.7111940667919814
1788957347138005200,4.697005126953125,-0.366609791123867,-0.29190672457814215,0.6475652058377862
1788957347148055300,4.70705517578125,-0.006234510475397109,-0.5873416232824326,0.5003486917451023
1788957347158106400,4.7171064453125,0.15582915187627075,-0.9025053048074245,-0.04672324579544365
1788957347168156200,4.72715625,-0.02889291700720787,-1.4000415694803,-0.5927708817895502
1788957347178206200,4.737206298828125,-0.17869886307120322,-1.784396860653162,-0.5850982282698154
1788957347188257300,4.74725732421875,-0.3360053940236568,-1.8825649739384651,-0.2945310817323625
1788957347198307300,4.757307373046875,-0.3927902343019843,-1.6813702014207839,0.13264182609952985
1788957347208358400,4.7673583984375,-0.43261166481971736,-1.346614515197277,0.6685870972089469
1788957347218408200,4.777408203125,-0.543246460968256,-0.9320604851156472,1.0033910064883529
1788957347228459000,4.787458984375,-0.5251975940585136,-0.6123498078107833,0.9909167979057878
1788957347238509000,4.797509033203125,-0.29823446629494427,-0.48857379053831096,0.652638271318376
1788957347248560000,4.80756005859375,-0.35066169588565826,-0.4628694404393434,0.5221290733333677
1788957347258610200,4.817610107421875,-0.6720657331049442,-0.27921967696249483,0.40017720274813473
1788957347268660200,4.82766015625,-0.7287497433573007,0.059763856089115136,0.10611541902795434
1788957347278711300,4.837711181640625,-0.4972577399924397,0.528781297764182,-0.18250841142199933
1788957347288761000,4.847760986328125,-0.15276713395714758,0.9688719201624393,-0.531234974526614
1788957347298812200,4.857812255859375,0.012049041973054408,1.1935738249957561,-0.9879488149456679
1788957347308862200,4.8678623046875,-0.02610825472474098,1.123412493532896,-1.0557771003510803
1788957347318913300,4.877913330078125,-0.07899111912846565,1.029069491493702,-1.1397951077308506
1788957347328963300,4.88796337890625,0.09162760560065507,0.8870195663839578,-1.1862626982647926
1788957347339013000,4.89801318359375,0.08752367741316557,0.6079319913685322,-1.148232169751823
1788957347349064200,4.908064208984375,-0.1827060528859496,0.4417307908207178,-1.0073528227914124
1788957347359114200,4.9181142578125,-0.466506920158863,0.4349894998669624,-0.8562648010276257
1788957347369165000,4.9281650390625,-0.4750982228934765,0.38897710575461386,-0.7960492556482553
1788957347379215400,4.93821533203125,-0.501515105175972,0.39370881045162676,-0.8246421667955816
1788957347389266200,4.94826611328125,-0.6376172277972102,0.5660661955416202,-0.7083503677986562
1788957347399316200,4.958316162109375,-0.4686804648056626,0.7626017440766095,-0.5055708103075623
1788957347409367300,4.9683671875,-0.2417696517512202,0.6453653577059507,-0.43009412904083727
1788957347419417000,4.9784169921875,-0.033002105891704554,0.4347901779025793,-0.4666070925977081
1788957347429467100,4.988467041015625,0.16900369074791668,0.18555296674966812,-0.6683486122779547
1788957347439518200,4.998518310546875,0.27599983813315626,-0.1086994441717863,-0.9534497484944761
1788957347449568300,5.008568359375,0.29747692592591046,-0.4462392081558704,-1.2668747696585954
1788957347459619300,5.018619384765625,0.10609539915323257,-0.6773012956708669,-1.2392854825958608
1788957347469669000,5.028669189453125,-0.11407821460068225,-0.7906061878114938,-0.9037802931793033
1788957347479720200,5.03872021484375,-0.03561959491372108,-0.7678478280365466,-0.4837476855561137
1788957347489770200,5.048770263671875,0.29297493833154437,-0.6918529681146145,-0.07498268720470369
1788957347499821300,5.0588212890625,0.6553744182839989,-0.6515665504336356,0.06175093825310468
1788957347509871400,5.068871337890625,0.7566098101854324,-0.4606704690903425,0.18010675710774957
1788957347519921400,5.07892138671875,0.3497635780021548,-0.17726853800714015,0.5506424895036965
1788957347529972200,5.08897216796875,0.08277180671095848,-0.030233225700259207,0.873825299898535
1788957347540022000,5.09902197265625,0.19910364545732737,0.018711130210757255,0.908377777037397
1788957347550073000,5.109072998046875,0.5159682856813073,-0.02255377711355686,0.7084979595758021
1788957347560123100,5.119123046875,0.747997756923735,-0.04975099611878395,0.6367893256057053
1788957347570174200,5.12917431640625,0.8283356144860387,0.08678045783042908,0.4731389785844832
1788957347580224300,5.139224365234375,0.9284756123661995,0.03527063534557819,0.18824008694179356
1788957347590275300,5.149275390625,0.9555269931599497,-0.22604455161392686,0.02636749018281698
1788957347600325000,5.1593251953125,1.0911153210401534,-0.47908933835625644,-0.1900826460685581
1788957347610375200,5.169375244140625,1.3421733178794384,-0.7392600314557551,-0.4530306949269026
1788957347620426200,5.17942626953125,1.4900404048353433,-0.8053565976977348,-0.6893880393058062
1788957347630476300,5.189476318359375,1.2589084669545292,-0.8910539364665746,-0.7570104999408126
1788957347640527400,5.19952734375,0.8970017389550805,-0.9498580076128244,-0.678407211086154
1788957347650577400,5.209577392578125,0.6328156727343798,-1.039766826596856,-0.5371334945132955
1788957347660628200,5.219628173828125,0.351290641438961,-1.0068500609010458,-0.2199595326118171
1788957347670678000,5.229677978515625,-0.011753273896872996,-0.7179606383174657,0.17032675604522227
1788957347680728300,5.239728271484375,-0.07502338454127311,0.006365443378686905,0.42652098326180127
1788957347690779100,5.249779052734375,0.1616521589413285,0.6158674605429172,0.43452641239985823
1788957347700829200,5.2598291015625,0.3144564100384712,0.9703466688901186,0.345685880234465
1788957347710880300,5.26988037109375,0.2051771201521158,1.2371885103166103,0.29804084341898557
1788957347720930000,5.279929931640625,0.13483721725195646,1.216086685577035,0.2215533046092838
1788957347730981000,5.289981201171875,0.21843729148060081,0.9625596682757138,0.09799600812140852
1788957347741031200,5.30003125,0.189986273021996,0.7448924843847751,0.12315605874322354
1788957347751082200,5.310082275390625,-0.22302695735841988,0.6129021809965371,0.1907065866531804
1788957347761132300,5.32013232421875,-0.6898945275232196,0.3438426635205746,0.5383157265678048
1788957347771182300,5.330182373046875,-0.819435099671781,0.018088614398241044,0.7533894598994404
1788957347781233400,5.3402333984375,-0.6353238561630249,-0.22770050212740897,0.7525566623371094
1788957347791283200,5.350283203125,-0.32762568821310994,-0.21659633978903292,0.7413220054868608
1788957347801334000,5.360333984375,-0.30178017607778307,-0.16624913134276867,0.6083874800510705
1788957347811384300,5.37038427734375,-0.457959748826921,-0.23791502214968202,0.2890632813131436
1788957347821435100,5.38043505859375,-0.5937728253737091,-0.3901753756284714,0.04205792086552828
1788957347831485200,5.390485107421875,-1.0074489035770295,-0.5989180793076754,-0.1784535465406254
1788957347841536300,5.400536376953125,-1.42093910381943,-0.6609405279785394,-0.29578900937158614
1788957347851586000,5.4105859375,-1.493901464177668,-0.8200508934825659,-0.41388340081106867
1788957347861636000,5.420635986328125,-1.5842648950614033,-1.0550924060225486,-0.484177199547179
1788957347871687200,5.430687255859375,-1.869863459406048,-0.9372311657518148,-0.4590203637957573
1788957347881737200,5.4407373046875,-1.916653413762152,-0.5007990658611059,-0.39050891843177377
1788957347891788300,5.450788330078125,-1.306288496158272,0.10187222850024699,-0.2695130333971232
1788957347901838300,5.46083837890625,-0.4140907964840531,0.42378889141678805,-0.13724589496203699
1788957347911889400,5.470889404296875,0.06613163755536079,0.48305531937777996,0.11553995771631598
1788957347921939200,5.480939208984375,0.4855941902056336,0.7776379851669073,0.3779478352833539
1788957347931990300,5.490990234375,0.9800713595688343,0.6009586452245712,0.4529560953207314
1788957347942040300,5.501040283203125,1.1548303989730775,0.2531172674566507,0.5821569871861487
1788957347952090400,5.51109033203125,1.0457106835626064,0.03952537018060684,0.7588451680220664
1788957347962141200,5.52114111328125,1.0127344427645206,-0.30522271774709225,0.7681650772921741
1788957347972191000,5.53119091796875,0.8988532120406627,-0.374689052683115,0.7326350603580475
1788957347982242000,5.541241943359375,0.7539699632011354,-0.11902443883121012,0.8218550933603197
1788957347992292000,5.5512919921875,0.5782657519012689,0.26744331445097924,0.7989351132828741
1788957348002343200,5.56134326171875,0.4232078766584396,0.5974059211790561,0.6502509377904236
1788957348012393200,5.571393310546875,0.3458338373377919,0.8249316512614489,0.4779905102688819
1788957348022443300,5.581443359375,0.12840002381131052,0.7694388966202735,0.4289340357528999
1788957348032494300,5.591494384765625,-0.042003450731933116,0.7415864285767078,0.4344834135083481
1788957348042544000,5.601544189453125,-0.07300882984846829,0.8414613457798957,0.21613884181249884
1788957348052595200,5.61159521484375,-0.015177695387601851,0.8159031261533498,-0.07274814221882261
1788957348062645200,5.621645263671875,0.1366495273709297,0.5353437250196933,-0.20032748816385865
1788957348072696300,5.6316962890625,0.22933161046057937,0.3197936794131994,-0.1928440370732918
1788957348082746400,5.641746337890625,0.2830865815237164,0.1346668291211128,-0.2758074573662132
1788957348092797200,5.651797119140625,0.4688917694687843,-0.25556875226199627,-0.4313473805049434
1788957348102847000,5.661846923828125,0.46464024950414895,-0.6927502092152834,-0.47510680805873123
1788957348112897300,5.671897216796875,0.35685090591460467,-0.9198948310256004,-0.4606381011907011
1788957348122948000,5.681947998046875,0.3615302959024906,-0.9532038109093904,-0.5174661595562473
1788957348132998100,5.691998046875,0.335507089112699,-0.921516294747591,-0.4962012532094493
1788957348143049200,5.70204931640625,0.09952303502559662,-0.7942232092648744,-0.21771199114704504
1788957348153099300,5.712099365234375,0.12725845256075263,-0.5033838216573,0.13699061415987088
1788957348163150300,5.722150390625,0.48280178300812837,-0.30336393813788887,0.2604170325433835
1788957348173200100,5.7322001953125,0.8637510651297867,-0.4043856872886419,0.19744564911723136
1788957348183250200,5.742250244140625,1.002900300361961,-0.5469879855841397,-0.007180111629283056
1788957348193301000,5.752301025390625,0.8222150857791304,-0.5159639017671346,-0.2079503111924976
1788957348203351000,5.76235107421875,0.6392261242985725,-0.5610989285230636,-0.2273867600031197
1788957348213402000,5.772402099609375,0.32051307972893117,-0.7150304300844669,-0.13413401001919992
1788957348223452200,5.7824521484375,0.10323080350235105,-0.8349158696591854,0.1320982755410485
1788957348233503000,5.7925029296875,0.056392041568458076,-0.5745943699121475,0.3704530956137925
1788957348243553300,5.80255322265625,0.22799743924736976,-0.1370551855623722,0.391938951234892
1788957348253604000,5.81260400390625,0.3768995683394372,0.0434440049290657,0.4090988334156573
1788957348263654000,5.82265380859375,0.31842268332093954,0.15654022275507448,0.48077608586680143
1788957348273704000,5.832703857421875,0.29209961680173874,0.3121417033553123,0.44291996407266704
1788957348283755000,5.842755126953125,0.49682870092540976,0.4073883762359619,0.374958005817607
1788957348293805000,5.85280517578125,0.5391057079017162,0.4105763586223125,0.3181317740829661
1788957348303856000,5.862856201171875,0.4584564463026821,0.34920097568333147,0.287637614157889
1788957348313906200,5.87290625,0.419739177634567,0.3654787412673235,0.18771741477455942
1788957348323957000,5.88295703125,0.3409994029186666,0.33007366588711734,0.11156367449648677
1788957348334007000,5.893007080078125,0.2277837964966893,0.2669552386730909,0.14806878354046493
1788957348344057000,5.90305712890625,0.045313890454173084,0.21710896548628805,0.2419092063523829
1788957348354108200,5.913108154296875,-0.028805238723754883,0.2668734056085348,0.26364571226630357
1788957348364158200,5.923158203125,0.017425766575336454,0.20987726066708565,0.1887574984120205
1788957348374209300,5.933209228515625,-0.04631663775593042,-0.003956044149398804,0.14346711669759823
1788957348384259000,5.943259033203125,-0.17149989147782324,-0.19182021045088768,0.17667108357064426
1788957348394310000,5.953309814453125,-0.20143793362379073,-0.3818330792188644,0.16648149706022813
1788957348404360000,5.96335986328125,-0.11595014595240354,-0.6416092200428247,0.09327817668612115
1788957348414411000,5.973410888671875,-0.13603607164770365,-0.9248895705729723,0.050228550502657884
1788957348424461000,5.9834609375,-0.23708880045861006,-1.0829723465949297,0.12577605024958027
1788957348434511000,5.993510986328125,-0.1264130877777934,-1.084390981221199,0.12095864916364661
1788957348444562200,6.003562255859375,0.02472965984791517,-0.9162392311275005,-0.005263053361047059
1788957348454612000,6.013612060546875,-0.08986819471269845,-0.6511749207675457,-0.05298957618121058
1788957348464663000,6.0236630859375,-0.05343377628475427,-0.2867272761136293,-0.11131043038778006
1788957348474713000,6.033713134765625,0.15588234336823223,-0.011348492488265038,-0.18708456023111938
1788957348484764200,6.04376416015625,0.07885930944234132,0.25555939991176124,-0.16592231054119766
1788957348494814200,6.053814208984375,-0.150030402469635,0.476934206148982,-0.0515762661840301
1788957348504864000,6.063864013671875,-0.3432157637938857,0.4522960239768028,0.24921887177862226
1788957348514915000,6.0739150390625,-0.4474170197635889,0.3918552915394306,0.4285214728966355
1788957348524965000,6.083965087890625,-0.5403495704829693,0.35863515898287296,0.611863083739765
1788957348535016000,6.094015869140625,-0.705738870126009,0.26571254513561726,0.8471149145621806
1788957348545066200,6.104066162109375,-0.6986109179422259,0.17426584905982018,1.0548339012168346
1788957348555117000,6.114116943359375,-0.5775780618980526,0.1748784280002117,1.09806638228707
1788957348565167000,6.1241669921875,-0.42838118764311073,0.17598901959061622,1.066575484675914
1788957348575218000,6.134218017578125,-0.3322033713921904,0.29734277815222737,0.8827434964999556
1788957348585268000,6.14426806640625,-0.21912878087610005,0.351417482689023,0.8290102988772093
1788957348595318000,6.154318115234375,-0.03680529756695032,0.22534663247764108,0.7248242404766381
1788957348605369000,6.164369140625,-0.1534989553630352,0.12231412802636622,0.5080654036022723
1788957348615419100,6.174419189453125,-0.46427521558403967,-0.013958967247605323,0.5604542739439755
1788957348625470200,6.18447021484375,-0.562381369549036,-0.16103870321810246,0.6440890541598201
1788957348635520000,6.19452001953125,-0.541521244610846,-0.2926841386914253,0.6214821586195379
1788957348645571000,6.204571044921875,-0.43600393760651346,-0.36731940069794655,0.5158616835016757
1788957348655621000,6.21462109375,-0.40676089198738336,-0.4144377102255821,0.26945167686501514
1788957348665671200,6.224671142578125,-0.4384887401595711,-0.5139519774228334,0.02301669561730232
1788957348675722200,6.23472216796875,-0.37995997882336374,-0.48778468598723407,-0.2562603877879679
1788957348685772300,6.244772216796875,-0.3150432700157165,-0.2724929990559816,-0.40740105305444446
1788957348695823000,6.254822998046875,-0.23973610009700058,0.0016395839005708694,-0.41806960045453156
1788957348705873000,6.264872802734375,0.08078004837185145,0.28825287824571133,-0.45684773246441035
1788957348715924000,6.274924072265625,0.3805947695955634,0.4610597606688738,-0.4691784774556756
1788957348725974000,6.28497412109375,0.2918526563033461,0.45333881102800366,-0.35624760625921187
1788957348736024000,6.295024169921875,0.16601093867272138,0.33997897382974623,-0.2606166467687115
1788957348746075100,6.3050751953125,0.28336539846509695,0.2635352010965347,-0.18863286738535387
1788957348756125000,6.315125,0.5120175022289156,0.1999497408926487,-0.0952181317727547
1788957348766176000,6.325176025390625,0.4189782762646675,0.050586862421035765,0.11981102263163775
1788957348776226000,6.33522607421875,0.30052111592739816,-0.23523382024168968,0.2823789812436327
1788957348786277000,6.345277099609375,0.17032997091561555,-0.4576864848434925,0.15768146521206944
1788957348796327200,6.3553271484375,0.11704817032217979,-0.5633885007649659,0.026848359901783986
1788957348806378200,6.365378173828125,0.05951134263277053,-0.5422925212442875,0.07137375772623344
1788957348816428300,6.37542822265625,0.18452450048476457,-0.5042483295321464,-0.022244546767603606
1788957348826478000,6.38547802734375,0.30872926456332206,-0.4038999495983124,-0.16820580010218544
1788957348836529000,6.39552880859375,0.12101736621409653,-0.28900457339584823,-0.09267389978319406
1788957348846579200,6.4055791015625,-0.15349866310209034,-0.17947218553125857,0.05846033574249595
1788957348856630000,6.415630126953125,0.0066433835372328755,-0.07444412334859371,0.04415293864971027
1788957348866680000,6.42568017578125,0.16284750620573757,-0.07141454639434815,-0.02156551499487832
1788957348876731100,6.435731201171875,0.005477846889197826,-0.03538870876729488,0.04273801208417862
1788957348886781000,6.445781005859375,0.2224909507855773,0.0127051677942276,-0.0343228696340695
1788957348896831000,6.4558310546875,0.4889937695160508,-0.04531505949795246,-0.2764979421147145
1788957348906882000,6.465882080078125,0.39014351918548346,-0.29252924039065836,-0.3039838601345196
1788957348916932000,6.47593212890625,0.08069500043690205,-0.469509609106183,-0.13951724656065925
1788957348926983200,6.485983154296875,0.147163907122612,-0.5620172124117613,-0.007506265710573643
1788957348937033200,6.496033203125,0.13469225582331418,-0.571821982589364,0.18740009245369582
1788957348947084300,6.506084228515625,-0.19111527705192566,-0.35531916630268096,0.43600298775844276
1788957348957134000,6.516134033203125,-0.4767793078482151,-0.034573300731182095,0.688005864232406
1788957348967184100,6.52618408203125,-0.2866433972224593,0.2518026777267456,0.5980845510929823
1788957348977235200,6.536235107421875,-0.0026677579045295712,0.44483869370818135,0.2798963158487342
1788957348987285200,6.54628515625,-0.08542115217596292,0.5870353338122367,0.054230607484560454
1788957348997336000,6.556336181640625,-0.311168766669929,0.6143453655421733,-0.09187352491943165
1788957349007385900,6.5663857421875,-0.4297022071138024,0.5121832141846419,-0.2862150340088643
1788957349017437000,6.57643701171875,-0.36864801895320415,0.30886545816361904,-0.3147170337360352
1788957349027487000,6.586487060546875,-0.32809242894202467,0.19776304450333118,-0.23945141967041417
1788957349037538000,6.5965380859375,-0.11389788959771394,-0.0030839374899864196,-0.26000341024119406
1788957349047588000,6.606588134765625,0.20530103879272937,-0.24252280820608138,-0.4744511206289753
1788957349057638100,6.61663818359375,0.11384615941047668,-0.6036310793042182,-0.5603404748385772
1788957349067689200,6.626689208984375,0.008109364436566829,-1.0257242727190254,-0.4233305166574195
1788957349077739000,6.636739013671875,0.20399580141305923,-1.112962995710969,-0.32783410679940134
1788957349087790000,6.6467900390625,0.25113135433644057,-1.0422317554056644,-0.21444489737618713
1788957349097840000,6.656840087890625,0.23088468512147664,-0.5556085144132376,0.1373104024324566
1788957349107891200,6.66689111328125,0.2811772407710552,-0.20942367168068884,0.2648379907907918
1788957349117941200,6.676941162109375,0.6827978472605347,0.22357260854244232,-0.07519161724764853
1788957349127991000,6.686990966796875,0.6587433101952076,0.47821080195605753,-0.1518423472624272
1788957349138041900,6.697041748046875,0.16629910796433686,0.5145259779185056,-0.03559712735358626
1788957349148092000,6.707091796875,-0.3697077571392059,0.34536300495564937,0.27892368969060477
1788957349158143000,6.71714306640625,-0.753190064869821,0.21350188090503214,0.3737297791969031
1788957349168193300,6.727193359375,-0.6617562282755971,0.1404752231389284,0.7195680735141039
1788957349178244400,6.737244384765625,-0.3748582717701793,-0.07057868009209632,0.9585985095597803
1788957349188294400,6.74729443359375,-0.051419806113839145,-0.06643383537232875,0.9538508035760372
1788957349198344400,6.757344482421875,-0.08101210356205701,-0.13474515505433082,0.9890792802803218
1788957349208395500,6.7673955078125,-0.15683569857031107,-0.04590893373787403,0.926903759939596
1788957349218445600,6.777445556640625,-0.5357312630325556,-0.06015080958008766,0.7972764593556523
1788957349228496600,6.78749658203125,-0.9663692896917462,-0.11866788047850131,0.402786983387731
1788957349238546400,6.79754638671875,-1.0929156484603881,-0.21177520324289797,0.23494700265694407
1788957349248597500,6.807597412109375,-1.044041435176134,-0.31797990798950193,0.4593009708354249
1788957349258647600,6.8176474609375,-1.022409449082613,-0.1923246528416872,0.6620568186573684
1788957349268697600,6.827697509765625,-0.7184735562756657,-0.11694997064471244,0.49545065403785554
1788957349278748400,6.83774853515625,-0.4980649647220969,-0.2347878300398588,0.039329957206360996
1788957349288798500,6.847798583984375,-0.4188797843262553,-0.15696867730021477,-0.2839246763156727
1788957349298849300,6.857849365234375,-0.1906175566628575,-0.09461831184923648,-0.2975433422256261
1788957349308899300,6.8678994140625,0.027613983112573622,-0.10566577556431293,-0.24183581232260912
1788957349318950400,6.877950439453125,0.046752691085636615,-0.22309680772423743,-0.2773432886313647
1788957349329000400,6.88800048828125,0.009428338080644607,-0.05989478899240493,-0.22355456142909824
1788957349339050500,6.898050537109375,-0.042268239147961136,0.5638175398319959,-0.058083574851974844
1788957349349101600,6.9081015625,0.1436772340506315,1.0387982738256454,0.11979958792217076
1788957349359151400,6.9181513671875,0.22197452569603918,1.0823352177351713,0.3971619831128046
1788957349369202400,6.928202392578125,-0.177889884775877,0.7803267858594656,0.7451781694583595
1788957349379252500,6.93825244140625,-0.3631993981584906,0.525942859467864,1.0406275350794196
1788957349389303600,6.948303466796875,0.029892449438571927,0.04767945054173469,0.8840518026195466
1788957349399353600,6.958353515625,0.13302666069865227,-0.6123498078107833,0.515556124683842
1788957349409404400,6.968404296875,0.15781506499648093,-0.9891834713071584,0.15608294397424904
1788957349419454500,6.978454345703125,0.2956394813656807,-0.7558744816482067,-0.27496680529098955
1788957349429504500,6.98850439453125,0.30902912429273127,-0.36908757941424847,-0.547900570384413
1788957349439555300,6.998555419921875,0.15964929468631744,-0.3511982869803905,-0.41745742337293923
1788957349449605400,7.00860546875,0.12645984952896833,-0.2902840918123722,-0.1280620788275264
1788957349459656400,7.018656494140625,0.26947949645370245,-0.22549217842817304,-0.03618511984199285
1788957349469706500,7.02870654296875,0.05021013806313276,-0.5625368523716926,-0.09922474619876592
1788957349479757600,7.038757568359375,-0.2739151408135891,-0.6084872871637343,-0.11405242257229983
1788957349489807400,7.048807373046875,-0.3951727455243468,-0.27153730576634405,-0.0975591145414859
1788957349499857400,7.058857421875,-0.29154081387519837,0.22319559192359445,-0.24117968650143592
1788957349509908500,7.068908447265625,-0.17569646638482808,0.6641647507220506,-0.0727219026658684
1788957349519958500,7.07895849609375,-0.25422347513288257,0.795990218937397,0.1683547435862012
1788957349530009600,7.089009521484375,-0.3201756644681096,0.9390887763172387,0.43439971728026866
1788957349540059600,7.0990595703125,-0.4944014737784862,1.135684530606866,0.48876346789151426
1788957349550110500,7.1091103515625,-0.3412275125861168,1.1407470746934414,0.3613244711320847
1788957349560160500,7.119160400390625,0.04113134407252073,0.9844850843578576,0.19478601972023024
1788957349570210600,7.12921044921875,-0.1366387137159705,0.7474094356417655,0.19148818375123663
1788957349580261400,7.139261474609375,-0.2616904500126839,0.4459194746822118,0.13825398515919224
1788957349590311400,7.1493115234375,-0.3628784956410527,0.05814823758602142,0.022300341208605093
1788957349600362500,7.159362548828125,-0.6647676850512624,-0.01116495261490345,0.02185348792367149
1788957349610412300,7.169412353515625,-0.3553916470170021,-0.0941600466877222,0.11590326547021977
1788957349620463400,7.17946337890625,0.04208206892609596,-0.32805414275825023,-0.009308355829631909
1788957349630513400,7.189513427734375,0.5443590983852744,-0.4930857150048017,-0.4020150856997817
1788957349640563500,7.1995634765625,0.8212086852155626,-0.9465537053704262,-0.7002458987329154
1788957349650614500,7.209614501953125,0.650417088137567,-1.321052788439393,-0.7463624838721007
1788957349660664600,7.21966455078125,0.43966012202650306,-1.4258710072636605,-0.7857947689417749
1788957349670715600,7.229715576171875,0.2019827080249786,-1.5648714816749094,-0.6570934971615672
1788957349680765400,7.239765380859375,0.15920301222354172,-1.4967571458697317,-0.485470600358583
1788957349690816500,7.24981640625,0.4753644726142287,-1.4502929163366556,-0.25890646358365194
1788957349700866600,7.259866455078125,0.6581959054455161,-1.3883891256093979,-0.08904754424588754
1788957349710916600,7.26991650390625,0.5857432481750846,-1.060115787142515,-0.017821378296799955
1788957349720967400,7.279967529296875,0.26618980725854635,-0.5832289272665977,0.17930762435300274
1788957349731017500,7.290017578125,-0.05464607468396425,-0.24457564908266066,0.31293307292871175
1788957349741068300,7.300068359375,-0.2721606983616948,-0.20921733545362947,0.4481693359682336
1788957349751118300,7.310118408203125,-0.8246990115493535,-0.1104641157567501,0.49799113230090586
1788957349761169400,7.32016943359375,-0.594774695892632,-0.08743746043443679,0.5056383956510573
1788957349771219500,7.330219482421875,-0.2064589766561985,0.1626402931958437,0.4719783373072743
1788957349781269500,7.34026953125,-0.3078513126850128,0.3383335447102785,0.41846966915540396
1788957349791320600,7.350320556640625,-0.5020686474055052,0.35192250960171223,0.5178271748883649
1788957349801370400,7.360370361328125,-1.0559563293755054,0.455939933437109,0.5830121427107602
1788957349811421400,7.37042138671875,-1.0217667672649025,0.6238473533809185,0.7912565414790064
1788957349821471500,7.380471435546875,-0.6747568718850612,0.6434902114838361,0.9695472621407359
1788957349831522600,7.3905224609375,-0.32088352047652,0.9436340185314417,0.7996880505420267
1788957349841572600,7.400572509765625,0.3448457030832767,0.9735954415529966,0.5494145186113193
1788957349851622400,7.410622314453125,0.5466498396709562,0.7459177357792854,0.27088757315333933
1788957349861673500,7.420673583984375,0.22901070794314143,0.3877987096250057,0.08618809056100435
1788957349871723500,7.4307236328125,-0.37649522532224655,0.03415536758005619,-0.05135017494373023
1788957349881774300,7.4407744140625,-0.9228580647453665,-0.38082536348104473,0.08544791231872513
1788957349891824400,7.450824462890625,-1.4265817858815193,-0.705522597026825,0.19526918186098335
1788957349901875500,7.46087548828125,-1.2376599272206426,-1.0066787959873675,0.36633714819494634
1788957349911925500,7.470925537109375,-0.6924480113983154,-1.1501596306830644,0.5383543415451422
1788957349921975300,7.480975341796875,-0.46734863168001173,-1.162736203661561,0.4950961415117606
1788957349932026400,7.4910263671875,-0.6129968735426664,-0.9527373624414205,0.36833624959029254
1788957349942076400,7.501076416015625,-0.9935688467845321,-0.5517202748030424,0.19532189842890946
1788957349952127500,7.51112744140625,-1.0676035125494003,-0.18331658599972725,0.21891747621297836
1788957349962177500,7.521177490234375,-0.49153234808295965,0.06265080970227718,0.49703832508809864
1788957349972228600,7.531228515625,0.03396159857362509,0.2631166834235191,0.5264681254509836
1788957349982278400,7.5412783203125,0.36747955969572066,0.46237259683310983,0.32053591261524705
1788957349992328400,7.551328369140625,0.7259618662044406,0.6518336769372225,0.041486148859560486
1788957350002379500,7.561379638671875,0.5936950839623808,0.36588498398065566,-0.2697888911964372
1788957350012429600,7.5714296875,0.34109511837810275,-0.1879360624939203,-0.1838767041005194
1788957350022480400,7.58148046875,0.021069968296587464,-0.6045207216203212,0.018000808250624684
1788957350032530400,7.591530517578125,-0.22101620205789804,-0.9017132776468991,0.33167244285326447
1788957350042581500,7.60158154296875,-0.6292436594665051,-1.2369424266010522,0.5942550559327006
1788957350052631300,7.61163134765625,-1.2702920307561754,-1.1683277400583028,1.0027968399874865
1788957350062681300,7.621681396484375,-1.4484361825540661,-0.78108315718472,1.3271093119993804
1788957350072732400,7.631732421875,-0.9461264198690652,0.014281038808822632,0.9369333518490195
1788957350082782500,7.641782470703125,-0.8361468727588653,0.6482043805241584,0.5490593850307166
1788957350092833500,7.65183349609375,-0.8050722277984023,0.9933499433368443,0.3185006804605946
1788957350102883300,7.66188330078125,-0.7964177966997027,1.1016156722664832,0.26714257793873547
1788957350112934400,7.671934326171875,-0.9205462806716561,0.9726140293002128,0.17789967551752925
1788957350122984400,7.681984375,-0.8768731431618332,0.6913304055452346,0.04652743096239865
1788957350133034500,7.692034423828125,-0.9914406025841832,0.3141898680567741,0.02470557571942918
1788957350143085600,7.70208544921875,-0.35502018335610624,0.08121230230927468,-0.053524139715638006
1788957350153135600,7.712135498046875,0.07570142993330956,-0.2127063466131687,-0.15402224858477712
1788957350163186400,7.7221865234375,0.14940876343995332,-0.19357377611994742,-0.020968686179467476
1788957350173236200,7.732236328125,0.403087464171648,-0.24302608155310151,0.08357970729405059
1788957350183287000,7.742287109375,0.8747712024465203,-0.39164837079048154,-0.004877239231101702
1788957350193337000,7.752337158203125,1.1001043909206987,-0.3537316048502922,-0.18689170454014092
1788957350203387100,7.76238720703125,0.7978983906462788,-0.4134826014578342,-0.17150882370295
1788957350213438000,7.77243798828125,0.7122659338071942,-0.5190238738596439,-0.2355570060477592
1788957350223488000,7.782488037109375,0.889371097946167,-0.8376806581974029,-0.326861864233762
1788957350233539000,7.7925390625,0.8853528022155165,-0.8847171346604824,-0.5165305957391858
1788957350243589000,7.802589111328125,0.5974781096324324,-0.7075584867686033,-0.6561487636573612
1788957350253640200,7.81264013671875,0.35746406937688585,-0.7025970649689436,-0.6957850468665361
1788957350263690000,7.82268994140625,-0.20389204877763986,-0.7827899611026048,-0.48976906473748383
1788957350273740000,7.832739990234375,-0.9075240097522735,-0.6934983972340821,0.0631280809583608
1788957350283791000,7.842791015625,-1.0490645240351557,-0.4091828584372997,0.44884124388042834
1788957350293841200,7.852841064453125,-0.4049278313413262,-0.021901450684666632,0.35719445865526794
1788957350303892200,7.862892333984375,0.01357961254119873,0.20760522408187387,0.19506816112985834
1788957350313942300,7.8729423828125,-0.2064724206596613,0.25335984404087064,0.20202749701477585
1788957350323993000,7.8829931640625,-0.6007689678713679,0.12631167322993278,0.5239463518884032
1788957350334043100,7.893043212890625,-0.8342094749554991,-0.013440496331453323,0.7731419158566742
1788957350344093200,7.90309326171875,-0.4080889257207513,0.25304186413288116,0.6446740144409239
1788957350354144000,7.91314404296875,0.174447050845623,0.5867582704365253,0.35052316419780255
1788957350364194000,7.923194091796875,0.4301674865379929,0.7055360410302877,0.004279325853590853
1788957350374245000,7.9332451171875,0.42390667257755993,0.5098585706293582,-0.14370501710670067
1788957350384295000,7.943294921875,-0.00022445640563964844,0.039649288821220395,-0.1418493062374182
1788957350394345000,7.953344970703125,-0.4970867673397064,-0.25331191324591634,0.08016704930635168
1788957350404396000,7.96339599609375,-0.17816928623914718,-0.2500280692696571,0.43454424031749367
1788957350414446000,7.973446044921875,0.356508960609138,0.05359422754347324,0.41419327047783877
1788957350424497200,7.9834970703125,0.5898457150578499,0.3378483915418386,0.24633476770967244
1788957350434547200,7.993547119140625,0.678276570443809,0.28989889188706874,0.04411464333278127
1788957350444598300,8.003598388671875,0.3751157536625862,0.05475041184127331,-0.11521686324179171
1788957350454648000,8.01364794921875,-0.034411972689628596,-0.23304244767725465,-0.005912164919544011
1788957350464698000,8.023697998046876,-0.16284195324778555,-0.5249789828717708,0.2799907891991548
1788957350474749200,8.033749267578125,-0.04972527715563774,-0.6501409015446901,0.4125204784274101
1788957350484799200,8.04379931640625,0.21559008535593746,-0.6598474720448255,0.3678931089326739
1788957350494850000,8.05385009765625,0.1853024991199374,-0.7215683074206113,0.3112465080812573
1788957350504900000,8.063900146484375,0.18334113591909407,-0.7449754864931106,0.4613616662248969
1788957350514951000,8.073950927734375,0.43371261179894205,-0.7576204485327005,0.6123997113671154
1788957350525001000,8.0840009765625,0.5523582804456353,-0.7153221065074205,0.4472269770842045
1788957350535051000,8.094051025390625,0.046699791854619976,-0.7282844639331102,0.32356446665618566
1788957350545102000,8.10410205078125,-0.03956044149398803,-0.7948159144610166,0.27918533630147574
1788957350555152100,8.114152099609376,-0.285010243062675,-0.7273527360409497,-0.0017534560712054372
1788957350565203200,8.124203125,-0.5178270652905106,-0.20105331822037695,-0.24342925552651284
1788957350575253000,8.1342529296875,-0.7983034643158317,0.06096037239730358,-0.1652886888127774
1788957350585304000,8.144303955078126,-0.786006877322495,0.43969723916649817,-0.0872228678356856
1788957350595354000,8.15435400390625,-0.1373597214668989,0.7727794392198324,-0.047385582161694764
1788957350605404200,8.164404052734374,-0.2193336557984352,1.019727662652731,0.0746668261885643
1788957350615455200,8.174455322265626,-0.42398324494510886,1.0799275720715522,0.31969898686707016
1788957350625505000,8.184505126953125,-0.2505857031524181,1.0837801558464766,0.48703752088174224
1788957350635556000,8.19455615234375,-0.2944251371398568,0.7920324212223291,0.6458253033678978
1788957350645606100,8.204606201171876,-0.22274580232948063,0.6082856271117926,0.5304099949445575
1788957350655657000,8.214656982421875,-0.6030234687998891,0.21316987247169017,0.4317025871507823
1788957350665707000,8.22470703125,-0.8332306930512189,-0.3862736920148134,0.4096533985584974
1788957350675757000,8.234757080078126,-1.0686311020314694,-0.9680863227427006,0.2973394902165979
1788957350685808000,8.24480810546875,-0.5564753603756427,-1.1373697072148323,-0.15696918875686824
1788957350695858000,8.25485791015625,-0.8265408400237559,-1.5707915193736552,-0.22466062297485767
1788957350705909000,8.264908935546876,-0.6631523588091135,-1.4207172777622938,-0.3607777239695191
1788957350715959000,8.274958984375,-0.4388941060900688,-1.4142998119354246,-0.29209713258370756
1788957350726009000,8.285009033203124,-0.2664800223767757,-1.2098510060578584,-0.0913077990617603
1788957350736060200,8.29506005859375,-0.05334843608886003,-0.5949503447204828,0.2002238816589117
1788957350746110000,8.30510986328125,0.3232847363993525,0.028980595290660858,0.4139354597918689
1788957350756161000,8.3151611328125,0.5469941230639815,0.08698913214504718,0.3961063000474125
1788957350766211000,8.325211181640626,0.5946805878683924,0.061060325640439984,0.388972648775205
1788957350776262100,8.33526220703125,0.5047352362662554,0.006550736817717551,0.42420375582799313
1788957350786312200,8.345312255859374,0.7302905430585146,-0.18573358401358125,0.5044942671172321
1788957350796362200,8.3553623046875,0.9086372316911816,-0.2364870351731777,0.5105565628308802
1788957350806413000,8.3654130859375,0.715610275799036,0.010278817430138587,0.5095488470930606
1788957350816463000,8.375463134765624,0.5785068671807646,0.4040764752089977,0.5252331037633121
1788957350826514000,8.385513916015626,0.47941550157070156,0.7100444583654403,0.5845577647175639
1788957350836564000,8.39556396484375,0.2777484353661537,0.9381967959135771,0.6633343643125146
1788957350846615000,8.405614990234374,-0.05478869802504777,1.2970324459046125,0.6227971136756241
1788957350856665000,8.4156650390625,-0.15742489663511514,1.5650316406726836,0.47259171996526417
1788957350866715100,8.425715087890625,-0.12230068402290344,1.5603823535621166,0.3253417419943958
1788957350876766000,8.435765869140624,-0.2006619808152318,1.3151356733500956,0.17458908966481684
1788957350886816000,8.44581591796875,-0.4280722678244114,1.0369774881392717,0.19209968497939406
1788957350896867000,8.4558671875,-0.7382680978089571,0.8762392291724681,0.3011929507743567
1788957350906917000,8.465917236328124,-0.5994415186598897,0.760333214622736,0.3996890539050102
1788957350916968200,8.47596826171875,-0.0541819643035531,0.5514227531611919,0.3395736809644848
1788957350927018200,8.486018310546875,0.3261982857584953,0.22289164054095745,0.10528298679180442
1788957350937068000,8.496068115234374,0.4237202100947499,0.05660802240669727,-0.13351875506453215
1788957350947119000,8.506119140625,0.33626755209118125,-0.06802958013117313,-0.23096498381607233
1788957350957169200,8.516169189453125,0.39862142467349765,-0.19005729243159292,-0.22973902221769094
1788957350967220000,8.526219970703124,0.3176557906016707,-0.35505087075531483,-0.22806210198141633
1788957350977270000,8.53627001953125,0.20346534779816866,-0.42686581464409823,-0.19992241449430584
1788957350987321000,8.546321044921875,0.28001901064664125,-0.523984711137414,-0.2714228125412017
1788957350997371100,8.55637109375,0.370849036128819,-0.7770183919638395,-0.40245048144236206
1788957351007421000,8.5664208984375,0.4320478934571147,-0.8602934720218182,-0.6018696956548839
1788957351017472000,8.576471923828125,0.6010697043836116,-0.8148387117922306,-0.7468489522147923
1788957351027522000,8.58652197265625,0.7655410123988986,-0.7210387305885553,-0.7627285122614353
1788957351037573000,8.596572998046875,0.5062979555383325,-0.7368512167483567,-0.56222683657445
1788957351047623200,8.606623046875,0.3400610991552472,-0.7851625354528426,-0.41544272254966197
1788957351057673000,8.6166728515625,0.4984653622165322,-1.0353431649357079,-0.16853147012628614
1788957351067724000,8.62672412109375,0.4874570614680648,-1.1504413702338934,0.01781958819851279
1788957351077774000,8.636774169921875,0.1715212265267968,-1.0352513949990272,0.1415728091172874
1788957351087825200,8.6468251953125,0.4080944786787033,-0.8064712809413671,0.26404103172682225
1788957351097875200,8.656875244140625,0.8213809730425476,-0.46373219474852084,0.2766662661526352
1788957351107926000,8.666926025390625,0.9795651636123657,-0.14870996752083301,0.4314277157321572
1788957351117976000,8.67697607421875,0.9231906577005982,0.1645049180239439,0.5490152536280453
1788957351128026000,8.687026123046875,1.1246642471596597,0.4171621667534113,0.4493241685591638
1788957351138077000,8.697076904296875,1.215877719001472,0.5427677375406027,0.32471140820160505
1788957351148127000,8.707126953125,1.0540072411343455,0.6302969679117202,0.08144033891148865
1788957351158178000,8.717177978515625,0.6133411569356918,0.4824409868717193,-0.04362096893116831
1788957351168228000,8.72722802734375,0.264638778424263,0.3569599192470312,-0.14566270877942442
1788957351178279200,8.737279052734374,-0.09880144275277852,0.2869868038326502,-0.21058833154588938
1788957351188329200,8.7473291015625,-0.34643414131850003,0.1211211188495159,-0.3665549921967089
1788957351198379000,8.75737890625,-0.48097412918955085,-0.252087339887023,-0.37972295519709587
1788957351208430000,8.76743017578125,-0.8083402896836399,-0.5429056847065686,-0.24170937293134628
1788957351218480000,8.777480224609375,-1.0683581303089857,-0.7533516851723193,0.015516791148856282
1788957351228531200,8.78753125,-1.1571025816887617,-0.7189011340379714,0.2929203586000949
1788957351238581200,8.797581298828124,-0.900756707574427,-0.4867816464245319,0.4050747655313462
1788957351248631300,8.80763134765625,-0.5340113073721527,-0.1664309176504612,0.34462979531027377
1788957351258682000,8.81768212890625,-0.21745383340120314,0.07826280485391617,0.29949484161958095
1788957351268732200,8.827732177734376,0.11650135009437798,0.18424948293566704,0.28056261600404975
1788957351278783000,8.837782958984375,0.407322909784317,0.17643676335811614,0.1495625657621771
1788957351288833000,8.8478330078125,0.36314211501330135,0.1181020632892847,-0.028303061355277895
1788957351298884000,8.857884033203124,0.09365765012353658,-0.09742869309484958,-0.024002222356200215
1788957351308934100,8.86793408203125,-0.08678367270082235,-0.38028468073308463,0.16610869995877145
1788957351318984000,8.87798388671875,-0.2105252031818032,-0.5150953022390604,0.3386260979160666
1788957351329035000,8.888034912109376,-0.44221185233592986,-0.596462502849102,0.5552883425481617
1788957351339085000,8.8980849609375,-0.6526131368771195,-0.5493126291394234,0.7745757480520754
1788957351349136100,8.90813623046875,-0.5697805398896336,-0.2875263175368309,0.9577110592007636
1788957351359186200,8.918186279296876,-0.40019992603659627,-0.06336918710470199,1.0729701541490853
1788957351369237200,8.9282373046875,-0.5025172679558396,0.14555354931652545,1.0785071838796139
1788957351379287000,8.938287109375,-0.6137348324283957,0.339462841001153,1.237216128975898
1788957351389337000,8.948337158203126,-0.302134688603878,0.4943284085422754,1.275732322113961
1788957351399388200,8.95838818359375,0.019557225646078584,0.3085439711242914,1.136425558232516
1788957351409438200,8.968438232421875,0.17617109815925358,0.137460259231925,0.8586393481392413
1788957351419489000,8.978489013671876,0.13617518785744906,0.03310848887562751,0.6345805635150522
1788957351429539300,8.988539306640625,0.325122765481472,-0.3591775952965021,0.8413721331264823
1788957351439589000,8.998589111328124,0.06866583220809698,-0.5349608631819486,0.6890760507471859
1788957351449640000,9.008639892578126,-0.43096682022213934,-0.6275888779968023,0.38486857445724304
1788957351459690000,9.01868994140625,-0.6258221605852246,-0.7488023513048887,0.29196229069028046
1788957351469741000,9.028740966796875,-0.9439940840154886,-0.7151929271697998,0.1843511166792363
1788957351479791000,9.038791015625,-1.225077509023249,-0.30411504876613615,-0.005591244135797023
1788957351489842200,9.04884228515625,-0.9891209274649619,0.15484744736254213,-0.11999456250499933
1788957351499892200,9.058892333984375,-0.5007680862009525,0.5978337912023067,-0.0901567658631131
1788957351509942000,9.06894189453125,-0.08846534217745065,0.8660241246283054,-0.08690598390623927
1788957351519993000,9.0789931640625,-0.1527273864686489,0.868812878564,-0.04412367602260783
1788957351530043100,9.089043212890624,-0.6024979836210608,1.0244453388243913,0.16993894403772428
1788957351540094200,9.09909423828125,-0.4575684114217758,1.1942016015052794,0.10256534359725192
1788957351550144300,9.109144287109375,-0.11501198831945657,1.2626590516597032,-0.05657817525770515
1788957351560194000,9.119194091796874,0.11144845061898231,0.9401479299813509,-0.32919673692211504
1788957351570245000,9.1292451171875,0.26062398982495066,0.24799744022488593,-0.4281089465729892
1788957351580295200,9.139295166015625,-0.1419192844673991,-0.5195324079036713,-0.3413620987512171
1788957351590346000,9.149345947265624,-0.6779229347005487,-1.1454822865217924,-0.07856178780049085
1788957351600396000,9.15939599609375,-0.5980480184748769,-1.2500900774657726,0.11692954891119152
1788957351610447000,9.169447021484375,0.036165538358688354,-0.9672148006051778,0.03811773187238723
1788957351620497200,9.1794970703125,0.40662323708236214,-0.7194833178400993,-0.17730459570121018
1788957351630547000,9.189546875,0.5623115191832184,-0.5615139390647411,-0.2596850284744054
1788957351640598000,9.199597900390625,0.5574398214936256,-0.39386546231806274,-0.3747703012257814
1788957351650648000,9.20964794921875,0.08273907348513602,-0.5046709388583899,-0.4734497980993241
1788957351660699100,9.21969921875,-0.6789829651474952,-0.6970113737910986,-0.2354466592747718
1788957351670749200,9.229749267578125,-0.883093332850933,-0.5911059442520141,0.05586498548705131
1788957351680800300,9.23980029296875,-0.33983868857622146,-0.21950141358077524,0.08919299886487424
1788957351690850000,9.24985009765625,-0.04037760309576988,0.03234276520013809,0.005764627941325306
1788957351700900000,9.259900146484375,-0.07974310653954744,0.14560966341793535,0.013521744874119758
1788957351710951200,9.269951171875,-0.1816799247086048,0.14686463191509247,-0.12678798550479115
1788957351721001200,9.280001220703125,-0.479785796187818,0.18200433435738086,-0.292919701012969
1788957351731052300,9.29005224609375,-0.6972302772387862,-0.06737900726795196,-0.29120668655000626
1788957351741102300,9.300102294921874,-0.7699298950076102,-0.25629122131764887,-0.21227664995901285
1788957351751152000,9.310152099609375,-0.9049322396934032,-0.23981822542250156,-0.4094854215804487
1788957351761203000,9.320202880859375,-0.8899167491301894,-0.17528642427921295,-0.5021344061180949
1788957351771253000,9.3302529296875,-0.7527952203333378,-0.09413900389969349,-0.3589632949586957
1788957351781304000,9.340303955078125,-0.6007420798644423,-0.05796352866888046,-0.2455675827294588
1788957351791354000,9.35035400390625,-0.042263855233788485,0.1503098039329052,-0.25798838062435386
1788957351801405200,9.3604052734375,0.5985150514647364,0.3037438773661852,-0.10905739076398313
1788957351811455000,9.370455078125,0.37121494683176276,0.21495383327901363,-0.08802936191298066
1788957351821505000,9.380505126953125,0.07692746459692716,0.2860176665395498,-0.01633249144591391
1788957351831556000,9.39055615234375,0.22423165697306394,-0.02740706236362457,0.0006257306829094886
1788957351841606100,9.400606201171875,0.23385902475714682,-0.2164659914076328,-0.10455430719107389
1788957351851657200,9.4106572265625,0.23759441189318894,-0.26607377966344353,0.0968873527597636
1788957351861707300,9.420707275390624,0.7030898169219494,-0.09442074345052241,0.08610087806843221
1788957351871757000,9.430757080078125,1.282142919808626,0.04037409596443176,-0.1713071453846991
1788957351881808100,9.44080810546875,1.213024375396967,-0.18668810825943946,-0.2681923792526126
1788957351891858200,9.450858154296874,1.129706917501986,-0.6311871947497129,-0.2043465876121074
1788957351901909000,9.460908935546875,1.1339902939096091,-0.9751315650790929,-0.5345226178951561
1788957351911959300,9.470959228515625,0.3646297232225537,-1.2645745298922062,-0.5413002953365444
1788957351922010000,9.481010009765624,-0.579183159007132,-1.5677438222408293,-0.46201706139370796
1788957351932060000,9.491059814453125,-0.7544891647696494,-1.6550567795127629,-0.2827861372724175
1788957351942110000,9.50110986328125,-0.717301882147789,-1.391016551503539,-0.28374562995433805
1788957351952161000,9.5111611328125,-1.2160256030395626,-1.0093681812018156,-0.24828926277831195
1788957351962211000,9.521211181640625,-1.421477740740776,-0.4961842655420303,0.14405892684459684
1788957351972262100,9.53126220703125,-1.04625881896466,0.07999649677872657,0.3043812984868884
1788957351982312200,9.541312255859374,-0.814690535493195,0.5385866524636745,0.3309159619301557
1788957351992362000,9.551362060546875,-1.0393632142320275,0.759932232606411,0.3301001155026257
1788957352002413000,9.5614130859375,-1.4463044312223792,0.5539192461520434,0.41430794636607166
1788957352012463000,9.571463134765626,-1.2323004460141063,0.1585445483148098,0.5432955608069896
1788957352022514200,9.58151416015625,-1.1300550002872942,-0.17708675169944763,0.6949265303410589
1788957352032564200,9.591564208984375,-1.45303578530401,-0.34844343531429767,0.9360515275131911
1788957352042615300,9.601615234375,-1.415778360055387,-0.15607669689655304,1.2264824073851108
1788957352052665300,9.611665283203125,-0.9722349668547511,0.1616974593877792,1.4128615958258508
1788957352062715100,9.621715087890625,-0.29457828187495466,0.22548282607793807,1.4936939589068292
1788957352072766000,9.631765869140626,0.40848172443062064,-0.0063315411090850825,1.6450073869243262
1788957352082816000,9.64181591796875,0.8365075227648019,-0.11578501851856708,1.4814569931462407
1788957352092867000,9.6518671875,0.8295791848063468,-0.1591413451641798,1.148839780256152
1788957352102917000,9.661917236328126,0.7131283958554268,0.1568231313496828,0.7837969461880624
1788957352112967000,9.671966796875,0.5320438066914678,0.4514057971388101,0.33671573425009843
1788957352123018000,9.68201806640625,0.4129264288797974,0.32883155687153337,-0.146218808292225
1788957352133068000,9.692068115234376,0.4983487500995397,-0.19090543369352816,-0.6920823929563165
1788957352143119000,9.702119140625,0.49792497172951694,-0.7853525050669908,-1.0040777466434985
1788957352153169200,9.712169189453125,0.30112638834416866,-0.8336135548889636,-1.2809797212481497
1788957352163220200,9.72222021484375,-0.1518801219895482,-0.6229127028793097,-1.3197595337584613
1788957352173270300,9.732270263671875,-0.41115357398837804,-0.2686351545840502,-0.9582057839151471
1788957352183320300,9.7423203125,-0.7359466691240668,0.14158523020744324,-0.5285876018229871
1788957352193371400,9.752371337890626,-0.9218483031809329,0.26913258271217344,-0.19085523787625133
1788957352203421200,9.762421142578125,-0.9215724088490008,0.21967969275712965,-0.09267835676260291
1788957352213472000,9.772471923828125,-0.7361679106593132,0.277884044444561,-0.13758140139356254
1788957352223522300,9.782522216796876,-0.4339969816982746,0.41460020731091496,-0.29860381106399
1788957352233572400,9.792572265625,-0.47812604628205296,0.3788923495918512,-0.340459596953541
1788957352243623200,9.802623046875,-0.8379474924400448,0.3464642441958189,-0.14479820090457796
1788957352253673200,9.812673095703126,-0.8542661745563149,0.5291629905581474,0.11140797247812151
1788957352263724000,9.82272412109375,-0.6284440335214138,0.6953940017223358,0.25873956431783734
1788957352273774000,9.832774169921874,-0.46605128534585233,0.6688572924524545,0.27195048967711627
1788957352283825200,9.8428251953125,-0.26663345937281846,0.5997603753507137,0.21913711031302807
1788957352293875200,9.852875244140625,-0.09638181439042091,0.7368985630214214,0.09420549326464533
1788957352303925200,9.86292529296875,-0.24311843601167202,0.8601672152936458,0.015475728486105799
1788957352313976300,9.872976318359376,-0.24015987846702336,0.8922042755454778,-0.027018391839601096
1788957352324026000,9.883026123046875,0.004482406111061573,0.6853413942635059,-0.12352423446848988
1788957352334077200,9.8930771484375,0.09039835606664419,0.3138900083273649,-0.1616095253759995
1788957352344127200,9.903127197265626,0.036838615314662454,0.018975334104895592,-0.144329998870939
1788957352354177300,9.91317724609375,0.12463994062542914,-0.1434989548742771,-0.1591698771389201
1788957352364228400,9.923228271484374,0.12355419121533631,-0.3164905462145805,-0.23173688150402158
1788957352374278400,9.9332783203125,0.19597060812860725,-0.4565910908222198,-0.3410198246521875
1788957352384329200,9.9433291015625,0.5684168503209949,-0.5610632726877928,-0.2443632849736139
1788957352394379300,9.953379150390624,1.0141069001615046,-0.414102194660902,-0.3849114272182807
1788957352404430000,9.96343017578125,1.1421031654775142,-0.6603045681625604,-0.4547543038491159
1788957352414480100,9.973480224609375,0.9057216365054249,-0.8954682457774877,-0.41758002683930096
1788957352424530200,9.9835302734375,0.7508294732183217,-1.0697779339790343,-0.32657983242198824
1788957352434581200,9.993581298828126,0.5725318844243884,-1.0533557914882898,-0.31484950100928544
1788957352444631000,10.003631103515625,0.09753127668648957,-0.9081161304265261,-0.2686068052724004
1788957352454682000,10.01368212890625,0.09084054687619209,-0.8192384080559015,-0.11609342688061296
1788957352464732200,10.023732177734376,0.13727701161950825,-0.8464420568019151,-0.10867591716572642
1788957352474782200,10.0337822265625,0.022940438343584536,-0.8434481356829404,-0.06517528667859733
1788957352484833300,10.043833251953124,0.2820934788331389,-0.7297586281388998,-0.008421352995187044
1788957352494883300,10.05388330078125,1.1622758926734327,-0.5741928033739329,-0.15234342865236103
1788957352504934400,10.063934326171875,1.5257888868257403,-0.6528577592879533,-0.43460992596484715
1788957352514984200,10.073984130859374,1.3084382215380668,-0.8613193079382181,-0.40175497345887123
1788957352525035300,10.08403515625,0.953896469348669,-0.9342378291547297,-0.21914726638086138
1788957352535085300,10.094085205078125,0.5812769164159893,-0.8875181635558604,-0.11821399923115967
1788957352545135400,10.10413525390625,0.29087884283512827,-0.8237655300915241,0.030795608823373913
1788957352555186200,10.114186279296876,0.0733747405514121,-0.6417465826869011,0.1678184264861047
1788957352565236000,10.124236083984375,-0.0801756527379155,-0.42755438143014907,0.14974245237372816
1788957352575287000,10.134287109375,-0.1750330340400338,-0.16253741734325886,-0.05000431329272687
1788957352585337000,10.144337158203125,-0.44416415544748306,0.12130056706964969,-0.19666655450351536
1788957352595387100,10.15438720703125,-0.8181681484758854,0.3196726833820343,-0.09333824544344096
1788957352605438200,10.164438232421874,-0.8154746716082095,0.3283633548378944,-0.0688016239495948
1788957352615488300,10.17448828125,-0.6670277389377355,0.3547627014636993,-0.1592587975313887
1788957352625539300,10.184539306640625,-0.7206172903060912,0.3001934914082289,-0.24648385732416062
1788957352635589000,10.194589111328124,-0.5417278730988502,0.15874094766974448,-0.21152806008141486
1788957352645639200,10.20463916015625,-0.3675736677199602,-0.024348843836784363,-0.19309735424723476
1788957352655690200,10.214690185546875,-0.7583253819316625,-0.33132103559970855,-0.0002623041979968548
1788957352665740300,10.224740234375,-1.3012614617764948,-0.7194190204322337,0.4524836555033922
1788957352675791400,10.234791259765625,-1.1361620849907397,-0.9964274510860442,0.5451710723552853
1788957352685841400,10.24484130859375,-0.9339911609172821,-1.1298059939622878,0.28842655431218445
1788957352695892000,10.25489208984375,-0.9604279169440268,-1.2251724938303232,0.3114954413410276
1788957352705942300,10.2649423828125,-0.9843328164055943,-1.1428542761057614,0.47354332160167395
1788957352715992300,10.274992431640625,-0.7016542311608791,-0.9404910443305968,0.5293155507713556
1788957352726043100,10.285043212890624,-0.6643903761714697,-0.48379415504634377,0.44892095805313437
1788957352736093200,10.29509326171875,-0.6094254447966814,0.29757950951755047,0.30326372916642574
1788957352746144300,10.305144287109375,-1.051027640801668,1.2186030523121356,-0.22421079684812575
1788957352756194000,10.315194091796876,-0.9803174432843923,1.6325304749280214,-0.23301669218149035
1788957352766244000,10.325244140625,-0.8998603432565927,1.262536302062869,-0.11352931201364844
1788957352776295200,10.335295166015625,-1.3546797482311725,0.5645896932482719,0.07980862779011949
1788957352786345200,10.34534521484375,-1.6010253295958041,-0.4450298323661089,0.4904094084676355
1788957352796396300,10.355396240234375,-1.5594599780201912,-1.0966332076787948,0.640664194277674
1788957352806446300,10.3654462890625,-1.4872235938489435,-1.1474947953879833,0.6056205726210028
1788957352816497200,10.3754970703125,-1.178234217044711,-0.9198632668435573,0.37912557382583617
1788957352826547200,10.385547119140625,-0.8216957380801438,-0.501693968874216,-0.01329122405387461
1788957352836597200,10.39559716796875,-0.827585088379681,-0.12007365562319755,-0.29590074438406155
1788957352846648300,10.4056484375,-0.7898603378802538,0.35462650786340233,-0.6320424964047968
1788957352856698400,10.415698486328125,-0.9421826506793498,0.7725240031540394,-1.045279014147073
1788957352866749200,10.425749267578125,-0.8478259123757481,0.9383364966452121,-0.8066782016903161
1788957352876799200,10.43579931640625,-0.6545727465122938,1.2077239309012888,-0.7673656705427915
1788957352886849300,10.445849365234375,-0.3891717515438795,1.4495803841531276,-0.6932260830987245
1788957352896900000,10.455900146484375,-0.22916472946107386,1.3780425036400556,-0.6226742910135536
1788957352906950100,10.4659501953125,-0.10070610733032226,0.9914683673739433,-0.5819124378405511
1788957352917001200,10.476001220703125,-0.2102598302438855,0.7337836458712815,-0.6588667173791677
1788957352927051300,10.48605126953125,-0.10110884291231631,0.4829477673500776,-0.5746194312881678
1788957352937101000,10.49610107421875,0.3648182315319776,0.23644261150956153,-0.5219896648626774
1788957352947152100,10.506152099609375,0.7603083724424242,0.09877893866002559,-0.6034626639347523
1788957352957202200,10.5162021484375,0.7625169884026051,-0.14267770161926746,-0.5936672461073845
1788957352967253200,10.526253173828126,0.5278279425621032,-0.42401919304132457,-0.37740203796885907
1788957352977303300,10.53630322265625,0.33526714287698267,-0.5564519795000553,-0.08320530275739729
1788957352987354400,10.546354248046875,0.46437312300056216,-0.4616758467406034,0.03537868056362495
1788957352997404200,10.556404052734376,0.4238026276811957,-0.38872400777637955,0.04457489038882777
1788957353007454200,10.5664541015625,0.6205398362681269,-0.18554770605266094,-0.06587198197217657
1788957353017505300,10.57650537109375,0.8308613335713744,0.04314882137477398,-0.24703385588973759
1788957353027555300,10.586555419921876,0.7479144625544547,-0.18482874412834643,-0.4650950440669432
1788957353037606100,10.596606201171875,0.253722832134366,-0.6343348451256752,-0.5240940167307854
1788957353047656200,10.60665625,-0.04677636422216892,-1.148812307727337,-0.4942272497227415
1788957353057706200,10.616706298828126,-0.09745528884083032,-1.5112830993503332,-0.4116510386491194
1788957353067757000,10.626757080078125,-0.275321500480175,-1.6265321112960576,-0.058844489921606145
1788957353077807000,10.63680712890625,-0.6174591136485338,-1.6361878283917903,0.40143918550796803
1788957353087858200,10.646858154296876,-0.6977680373772979,-1.4344465279072522,0.5396216215346008
1788957353097908200,10.656908203125,-0.8090522373452782,-0.9363526293516159,0.4512034429671243
1788957353107958300,10.666958251953124,-0.874844267682731,-0.39969548364579677,0.4705632463449612
1788957353118009000,10.677009033203126,-0.39570758305341003,0.4466811067044735,0.3582373553043231
1788957353128059100,10.68705908203125,0.5294423920214176,0.8583657188296318,0.021593480714038014
1788957353138110200,10.697110107421874,0.9514616434171795,0.8553934250205755,-0.35138803739883
1788957353148160300,10.70716015625,0.706152711623907,0.6884738470703363,-0.18180886658420786
1788957353158211300,10.71721142578125,0.5471235946625471,0.36536242141127584,0.014102211643196642
1788957353168261400,10.727261474609374,0.5571496063753962,-0.3712146545708179,-0.007047744820732623
1788957353178310700,10.737310546875,0.4030705130368471,-0.9194044171601533,0.3316734657665714
1788957353188361700,10.74736181640625,0.3615981004416942,-1.0858581311643123,0.568468215182051
1788957353198411800,10.757411865234374,0.7290949035331606,-0.8306687336087226,0.5668375087076798
1788957353208462600,10.767462646484375,0.8176166520729661,-0.5229723192244767,0.4506677651878446
1788957353218513000,10.777512939453125,0.5872706038728356,-0.43308337398469443,0.4897136082231998
1788957353228562700,10.787562744140626,0.5390680062398314,-0.13285364221930504,0.6153082922901958
1788957353238613500,10.797613525390625,0.09260200359076261,-0.05105097280144691,0.6155687698572874
1788957353248663600,10.80766357421875,-0.42270138844102617,0.03188274647295475,0.5969904722459614
1788957353258714600,10.817714599609374,-0.4119967468142509,0.13038579080104828,0.7539141413606703
1788957353268764700,10.8277646484375,-0.17817396241426467,0.18090017250776289,0.8331923338022083
1788957353278814700,10.837814697265625,-0.12536240968108175,0.11071721373498439,0.647894364726916
1788957353288865800,10.84786572265625,-0.30619477764964104,0.05861176344454288,0.5075539469487965
1788957353298915600,10.85791552734375,-0.44639936715364453,-0.07230243514478206,0.408777127180621
1788957353308966700,10.867966552734375,-0.5258110497817396,-0.07867839991748332,-0.10736819556802511
1788957353319016700,10.8780166015625,-0.7997577547773719,-0.1316518652141094,-0.37549094365052876
1788957353329067800,10.88806787109375,-1.4560963419184088,-0.16486498350799084,-0.2134988852303475
1788957353339117800,10.898117919921875,-1.185671965830028,0.13564122711122034,-0.0005550765994936228
1788957353349167900,10.90816796875,-0.24724954446703193,0.4064993184417486,0.042152796074748033
1788957353359218700,10.91821875,-0.4772916412845254,0.25807985830008984,0.38180429151579737
1788957353369268700,10.928268798828125,-1.1354475069805978,0.1522001477241516,0.5268265834998339
1788957353379319600,10.938319580078126,-1.225924481241405,-0.009767360776662825,0.22799342065937817
1788957353389369600,10.94836962890625,-1.0555720062330365,-0.32658699281513687,-0.05444477995820343
1788957353399420000,10.958419921875,-1.2801453162506222,-0.8807838868647814,0.27816256912499665
1788957353409470700,10.968470703125,-1.563076414951682,-1.1382359686553478,0.8641955209616571
1788957353419520500,10.9785205078125,-1.2173261642441153,-0.6581482669115066,0.6861386090558022
1788957353429571600,10.988571533203125,-0.8038131676480174,-0.32412674018144605,0.2312267034921795
1788957353439621600,10.99862158203125,-1.0485223799824714,-0.26527064658701416,0.10052622071877121
1788957353449671700,11.008671630859375,-0.9602315175890922,-0.14775252066552638,0.12149857385978102
1788957353459722800,11.01872265625,-0.39697482651025057,-0.18771511321961878,-0.10621244966164231
1788957353469772800,11.028772705078126,-0.2138344738602638,-0.290952200332284,-0.28970680338107047
1788957353479823600,11.03882373046875,-0.14771540352553128,-0.08291326100826263,-0.17835699083097278
1788957353489873700,11.048873779296875,0.25446108328104017,0.38424540105760097,-0.04689261101298034
1788957353499923700,11.058923828125,0.46121699705719943,0.46593934940397735,0.2902780273977667
1788957353509974800,11.068974853515625,0.4538730640351772,0.6323363647848367,0.5698646379765123
1788957353520024800,11.07902490234375,0.4766200256332755,0.7591635863214731,0.6079935122974217
1788957353530076000,11.089075927734376,0.5926365148201584,1.0486322700977324,0.5569461927577853
1788957353540125700,11.099125732421875,0.4428638865038752,1.2804033826649188,0.5442605333816259
1788957353550176500,11.109176513671875,0.2056158038303256,1.368866094493866,0.43879203395508226
1788957353560226600,11.1192265625,0.10051642997711896,1.3217027767807243,0.4790213146213442
1788957353570276900,11.12927685546875,-0.17916969545334577,1.3340087161242962,0.40173685328029096
1788957353580327700,11.13932763671875,-0.2165381798610091,1.1659317848324775,0.2829087407387793
1788957353590377700,11.149377685546876,-0.07924217128008604,0.6499988627254962,0.23624482391513882
1788957353600428800,11.1594287109375,0.00395838223695755,0.04525017756819725,0.35350546794421966
1788957353610478600,11.169478515625,0.10591975032538176,-0.46729134853482246,0.3301129019189626
1788957353620528600,11.179528564453125,0.11080050810426473,-0.8060755596220492,0.3201946614295244
1788957353630579700,11.189579833984375,0.44112814875245093,-0.8923468988865614,0.40618426114320755
1788957353640629800,11.199629638671874,0.9970461675062775,-0.8768471319377422,0.3947353039551526
1788957353650680800,11.209680908203126,1.0510229646265505,-0.9534995789855718,0.24833843568228184
1788957353660730600,11.219730712890625,0.5568047384604812,-1.0591028107076883,0.010994783679768442
1788957353670780700,11.22978076171875,0.5705059315547347,-0.7902601508527993,-0.26357735973782837
1788957353680831700,11.239831787109376,1.0026192914634942,-0.8180600119262933,-0.5823235028594732
1788957353690881800,11.2498818359375,0.8408753625854849,-1.3193997605353593,-0.4546376917321235
1788957353700932900,11.259932861328124,0.29648703810572624,-1.4724047949016092,-0.019336276371777057
1788957353710983000,11.26998291015625,0.41098230907469985,-1.4860639024198055,0.36022352415286
1788957353721032700,11.28003271484375,0.543265165668726,-1.5212076965153216,0.874681332205981
1788957353731083500,11.29008349609375,0.3029971506521106,-1.380348442494869,0.9392198553510009
1788957353741133600,11.300133544921875,0.3093216774985194,-0.8996259499788284,0.7941855806682259
1788957353751184600,11.3101845703125,0.7689169185727834,-0.08489946638941764,0.6196624689117074
1788957353761234700,11.320234619140624,0.5443786798685789,0.6321323666453361,0.44214521684050556
1788957353771285800,11.33028564453125,-0.12259879018664359,0.5519909084379673,0.525788984080404
1788957353781335600,11.34033544921875,-0.538509203313291,0.5520213035762309,0.5673845846638084
1788957353791385600,11.350385498046874,-0.8437924190759658,0.745142659753561,0.5193321360912174
1788957353801436700,11.360436767578125,-1.2459504934430121,0.9330366366714239,0.549974454049021
1788957353811486700,11.37048681640625,-1.240896424923837,1.1588573164016007,0.44925212623625993
1788957353821537800,11.380537841796874,-0.721477414266765,1.2976906175523995,0.2812028866689652
1788957353831587800,11.390587890625,-0.15684855805188416,1.3610393463909625,0.17738332349322736
1788957353841637600,11.4006376953125,0.06583908434957265,1.0504220761239529,0.29337548195645213
1788957353851688700,11.410688720703124,-0.06503858162164687,0.46919455180764197,0.48610871559903024
1788957353861738800,11.42073876953125,-0.19611556955724954,-0.17361293810904024,0.47328072514273223
1788957353871789600,11.43078955078125,-0.2440595162540674,-0.6064975746512412,0.4494844006221741
1788957353881839900,11.44083984375,-0.18967384607195853,-0.8859241723626852,0.4347438545428216
1788957353891890000,11.450889892578125,0.17803601524829862,-0.762213037019968,0.18983458959162233
1788957353901940700,11.460940673828125,0.642576603770256,-0.5629243903845549,0.0895836056176573
1788957353911990500,11.470990478515626,0.6798752378121018,-0.38615795668065545,0.11822028284147382
1788957353922041600,11.48104150390625,0.7913198890388011,-0.322580679783225,0.3122903180457651
1788957353932091600,11.491091552734375,1.1471288846850394,-0.2812175727814436,0.4263379913777113
1788957353942141700,11.5011416015625,1.2038853756517172,-0.5125438641905784,0.3649664078310132
1788957353952192800,11.51119287109375,0.6926207376167178,-0.9186842861920594,0.41556897927783426
1788957353962242600,11.52124267578125,0.5386588409170509,-1.099603747922182,0.4751001956548542
1788957353972293600,11.531293701171874,0.6209469557642936,-1.0918307758331298,0.3309372239138931
1788957353982343700,11.54134375,0.27330869935303925,-1.1391764643758535,0.1298904815647751
1788957353992393700,11.551393798828125,-0.3048465779110789,-1.0599866078048943,0.10265146924443543
1788957354002444800,11.56144482421875,-0.43964667802304025,-0.8150380337566137,0.09003551410362123
1788957354012494800,11.571494873046875,-0.13452946647703648,-0.45517654784917827,0.0779747816927731
1788957354022546000,11.5815458984375,-0.24952333461791276,-0.1355874510973692,0.13923143362291157
1788957354032595700,11.591595703125,-0.5421455139890313,0.1257926177918911,0.3433927277959883
1788957354042645800,11.601645751953125,-0.21567308746427297,0.29305238748192786,0.5050377994094044
1788957354052696800,11.61169677734375,0.37700638971477746,0.2507049456179142,0.5772525562707335
1788957354062747000,11.621746826171876,0.5526189772084356,0.023593641555309294,0.7471567760549486
1788957354072797700,11.631797607421875,0.5355260958492756,-0.3285603387147188,0.842483455369249
1788957354082847500,11.641847412109374,0.6633949353933334,-0.712275578418374,0.754780841192603
1788957354092898600,11.651898681640626,0.1296548461779952,-1.0947948863357304,0.6576121142081915
1788957354102948600,11.661948486328125,-0.7410211959093809,-1.2059195118278265,0.5826346146352589
1788957354112998700,11.67199853515625,-0.9865876095950603,-1.058674356162548,0.5948511221297085
1788957354123049700,11.6820498046875,-0.8843143990784883,-0.6529010139077901,0.4220238545056432
1788957354133099800,11.692099853515625,-0.9711538936197757,-0.23701778104901314,0.5041719032950699
1788957354143150800,11.70215087890625,-1.3070923598870634,-0.06699497638642787,0.7581639808248728
1788957354153200600,11.71220068359375,-1.4996856005370616,0.15718553492128848,0.8834805786028503
1788957354163250700,11.722250732421875,-1.5515139874517916,0.34122283641099926,0.7916623458009213
1788957354173302000,11.732302001953125,-1.5475941836595535,0.46225803054273124,0.5239872684206813
1788957354183352000,11.74235205078125,-1.2009501989826559,0.5797790790736675,0.4390588681977242
1788957354193403000,11.75240283203125,-0.7149605797186493,0.7308090139746666,0.41366183048225935
1788957354203453200,11.762453125,-0.6055892276346683,0.8365665594756603,0.27764811679683626
1788957354213503000,11.7725029296875,-0.5364408726066351,0.8664373816043138,0.2743842926952988
1788957354223553800,11.7825537109375,-0.29166590155959127,0.7397317406207322,0.27601693539842964
1788957354233603800,11.792603759765624,0.03246025409996509,0.45171676278412337,0.1006294618975371
1788957354243655000,11.802655029296876,0.14123773194402456,0.19477789121270178,-0.1660495901826769
1788957354253705000,11.812705078125,-0.0012713351100683212,0.0039233109235763544,-0.2966158521171659
1788957354263755000,11.822755126953124,-0.24842969416230914,-0.16813713704645633,-0.347756987420097
1788957354273806000,11.83280615234375,-0.47784021507799623,-0.3116618108838796,-0.49950456907115875
1788957354283856000,11.84285595703125,-0.2806973482996225,-0.1931131728708744,-0.6458464192211627
1788957354293907000,11.852906982421874,0.04875438629686832,0.11746727251708507,-0.7023128412000834
1788957354303957000,11.86295703125,0.14343056581318378,0.35981121702492236,-0.7767993423856795
1788957354314008000,11.873008056640625,0.0027729718446731564,0.3384013492494821,-0.7843987114734947
1788957354324058000,11.88305810546875,-0.3041565498203039,0.22988719851672648,-0.7410619663111865
1788957354334108200,11.893108154296876,-0.4508972630947828,0.0726490566253662,-0.6211907744575291
1788957354344159000,11.903158935546875,-0.16991116098165512,-0.06405190867185592,-0.5884234271697699
1788957354354209000,11.913208984375,-0.05766834511458874,-0.2736059287339449,-0.5301721676006913
1788957354364259800,11.923259765625,-0.5181932682543993,-0.6154653094828129,-0.3289512377284467
1788957354374310100,11.93331005859375,-1.0632482399493455,-0.9467793308198451,-0.10064100620485841
1788957354384360200,11.943360107421874,-0.9697352589935063,-1.0598334630697965,-0.06044592006914317
1788957354394411000,11.953410888671876,-0.5932587383717298,-0.8572679867208004,-0.07194814181439578
1788957354404460800,11.963460693359375,-0.23623598302155732,-0.47596857598721976,0.12799582692459224
1788957354414511900,11.973511962890624,0.032892800298333164,0.1072924999833107,0.29753888524621724
1788957354424562000,11.98356201171875,0.49770957541316746,0.550193503627181,0.26690540818199515
1788957354434612000,11.993612060546875,0.9744126031547784,0.5925684180200099,0.05965381984338164
1788957354444663000,12.0036630859375,1.052260397467017,0.43079263269901275,-0.0242012520596385
1788957354454713000,12.013713134765625,1.0664163485914468,0.23682605786919592,-0.09542955516688525
1788957354464764000,12.023763916015625,0.9759218386739492,-0.3086795802026987,-0.11376710282489656
1788957354474814000,12.03381396484375,0.43656858575195073,-0.9306897812843322,0.028530513435602187
1788957354484864000,12.043864013671875,-0.0075385788112878795,-1.512120719218254,0.44251229658722874
1788957354494915000,12.0539150390625,0.11903905187845229,-1.6384925982028244,0.6546420123562217
1788957354504965000,12.063965087890624,0.24327333431243894,-1.3207400692284106,0.47062619204595685
1788957354515016200,12.07401611328125,0.21236323226392267,-1.0249404288649557,0.25442637729384004
1788957354525066000,12.08406591796875,0.20340046586841343,-0.7859317662596702,-0.007407792038470506
1788957354535116000,12.094115966796876,0.25920272485017776,-0.40807518945634363,-0.15365210009813307
1788957354545166800,12.104166748046875,-0.02768938643634319,-0.0985258406817913,-0.1120796611946076
1788957354555217200,12.114217041015625,-0.14468787239789963,0.2303746897727251,-0.06050086512677371
1788957354565268000,12.12426806640625,0.22737287760823963,0.5309837762445211,-0.09273615136444568
1788957354575318000,12.134318115234375,0.04248421998620033,0.8013169669181108,-0.21946729211546478
1788957354585367800,12.144367919921875,-0.3527057689338922,0.9107353730142116,0.0017039543736726045
1788957354595419000,12.1544189453125,-0.25577771883755923,0.9123778795242309,-0.1031724974438548
1788957354605469000,12.164468994140625,0.32873014232367276,0.7679033576160669,-0.4043904365289956
1788957354615520000,12.17452001953125,0.32410920452475545,0.392787019431591,-0.518253474009037
1788957354625570000,12.184570068359376,-0.11217384228408336,0.15045125823020933,-0.6398166375376284
1788957354635619800,12.194619873046875,-0.3115960521712899,-0.04458031548261642,-0.9361818028293549
1788957354645671000,12.2046708984375,-0.5010629774942994,-0.1891214728862047,-1.223400077330321
1788957354655721000,12.214720947265626,-0.8554737967804074,-0.4257698361009359,-1.4789957175992428
1788957354665772000,12.22477197265625,-1.146898583060503,-0.8919272121697663,-1.4653122062921524
1788957354675822000,12.234822021484375,-1.1744470997214316,-1.2340168945431709,-1.3135783609054983
1788957354685872000,12.2448720703125,-1.2958552188187837,-1.4188719421565532,-1.0679995991948992
1788957354695923200,12.254923095703125,-1.772941692920029,-1.5098767396837471,-0.4641168832171708
1788957354705973000,12.264972900390624,-1.912733317708969,-1.2864806567519902,0.39971506512910127
1788957354716023800,12.27502392578125,-1.5024343147233128,-0.5587964967995882,0.9914538273919373
1788957354726073900,12.285073974609375,-1.1460995416373014,-0.03563654604852199,1.3069094045355916
1788957354736124200,12.295124267578124,-0.8929863658338785,-0.16987492062449455,1.520768428315222
1788957354746175000,12.305175048828126,-0.7851847472846507,-0.11487725602388381,1.6838633334107695
1788957354756225000,12.31522509765625,-0.5558639504790306,-0.03268880215883255,1.4408841597393154
1788957354766275800,12.32527587890625,-0.48626200646460055,-0.1393511875450611,0.9528074320029467
1788957354776326000,12.335325927734376,-0.4855345689728856,-0.039973113948106764,0.4382902949780226
1788957354786377000,12.345376953125,-0.34507600470781324,0.285123932570219,0.15973083548992872
1788957354796427000,12.355427001953124,-0.383366864657402,0.4681418278843164,0.058820730020105835
1788957354806477000,12.36547705078125,-0.460695603531599,0.4353951580584049,0.25457090033106505
1788957354816528100,12.375528076171875,-0.5363549478888512,0.44790626458525656,0.42460554156191643
1788957354826578000,12.385577880859374,-0.1919359457850456,0.4295604605555534,0.166005604910478
1788957354836629000,12.39562890625,-0.1511333952754736,0.35264965483248234,-0.04645590009614825
1788957354846679000,12.405678955078125,-0.579763296982646,0.37031215277314183,0.045413113044947384
1788957354856729000,12.41572900390625,-0.6268050341427326,0.40796646838486195,0.2111110402457416
1788957354866780200,12.4257802734375,-0.41924248015880583,0.15888474005460737,0.246060480812937
1788957354876830200,12.435830322265625,-0.26439006436020135,-0.2186415818810463,0.2516454413384199
1788957354886881000,12.445881103515624,-0.1088850298717618,-0.4474433232486248,0.2432493689149618
1788957354896930800,12.455930908203126,-0.18206629367768765,-0.502445664024353,0.07934037095755338
1788957354906980900,12.46598095703125,-0.1469061329692602,-0.6296306129574776,-0.1809473726503551
1788957354917032000,12.476031982421874,-0.26818565725088117,-0.6932306862086057,-0.33135493786931036
1788957354927082000,12.48608203125,-0.46852702780961986,-0.6880430544376372,-0.3570672520790249
1788957354937133000,12.496133056640625,-0.18120704649984837,-0.6531283929228783,-0.3832162041403353
1788957354947182800,12.506182861328124,0.12421645451635122,-0.7508814956665039,-0.5130976986810565
1788957354957233000,12.51623291015625,-0.0737251614242792,-0.8398083178758621,-0.24818594853430984
1788957354967284000,12.526283935546875,-0.3698988957971334,-0.6098463005572557,0.20424480773806572
1788957354977334000,12.536333984375,-0.47013826239854095,-0.30504268500506876,0.31999921192266045
