time,seconds_elapsed,z,y,x
1788957342483393300,0.042393310546875,0.43678557872772217,-0.6870495080947876,0.08263895660638809
1788957342493443300,0.052443359375,0.4437564015388489,-0.6564686894416809,0.22852931916713715
1788957342503494100,0.062494140625,0.5451272130012512,-0.4527573585510254,0.32158520817756653
1788957342513544400,0.07254443359375,0.8087655305862427,0.13645558059215546,0.30667924880981445
1788957342523594200,0.08259423828125,1.2247036695480347,1.3356554508209229,0.18491631746292114
1788957342533645000,0.09264501953125,1.2649109363555908,2.561448812484741,-0.0007486145477741957
1788957342543695000,0.102695068359375,1.0803190469741821,3.5450820922851562,-0.3166455924510956
1788957342553746200,0.11274609375,0.8961963057518005,3.9690709114074707,-0.1446530520915985
1788957342563796200,0.122796142578125,1.0501424074172974,4.120053768157959,-0.12228330224752426
1788957342573847300,0.132847412109375,1.3029733896255493,4.121508598327637,-0.2340412586927414
1788957342583897000,0.14289697265625,1.4155606031417847,4.009970188140869,-0.21262198686599731
1788957342593948200,0.1529482421875,1.3776649236679077,3.881352186203003,-0.1399746835231781
1788957342603998200,0.162998291015625,1.2116061449050903,3.785410165786743,-0.10333464294672012
1788957342614048300,0.17304833984375,0.9740767478942871,3.7154815196990967,-0.1894143968820572
1788957342624099300,0.183099365234375,0.7749942541122437,3.65498423576355,-0.44626376032829285
1788957342634149400,0.1931494140625,0.6424679160118103,3.3722777366638184,-0.8532634973526001
1788957342644200200,0.2032001953125,0.5598662495613098,1.1292232275009155,-1.4905060529708862
1788957342654250200,0.213250244140625,0.5059622526168823,-1.6997803449630737,-1.7173445224761963
1788957342664301000,0.223301025390625,0.33027270436286926,-4.2249956130981445,-1.9408241510391235
1788957342674351000,0.23335107421875,0.21518553793430328,-6.061565399169922,-2.1781165599823
1788957342684401200,0.243401123046875,0.18626201152801514,-7.662327766418457,-2.360358476638794
1788957342694452200,0.2534521484375,0.2349930703639984,-9.257305145263672,-2.3565516471862793
1788957342704502000,0.263501953125,-0.347322016954422,-4.411310195922852,-2.1762609481811523
1788957342714553000,0.273552978515625,-1.3380690813064575,-2.099942684173584,-2.0110394954681396
1788957342724603100,0.28360302734375,-1.7525464296340942,-3.0991992950439453,-2.235139846801758
1788957342734654200,0.293654296875,-2.0815320014953613,-3.4802606105804443,-2.5197575092315674
1788957342744704300,0.303704345703125,-2.406205177307129,-2.7579588890075684,-2.8015260696411133
1788957342754755300,0.31375537109375,-2.5976524353027344,-2.58439040184021,-2.988450527191162
1788957342764805400,0.323805419921875,-2.686065912246704,-2.6073803901672363,-3.1255128383636475
1788957342774855200,0.333855224609375,-2.711510181427002,-1.7839890718460083,-3.221182346343994
1788957342784906200,0.34390625,-2.5175764560699463,-0.4949343800544739,-3.114149808883667
1788957342794956300,0.353956298828125,-1.8544362783432007,-0.12602025270462036,-2.655536413192749
1788957342805007000,0.364007080078125,-0.8968466520309448,0.8701401948928833,-1.8398722410202026
1788957342815057200,0.37405712890625,0.1248742938041687,2.298311710357666,-0.874715268611908
1788957342825108200,0.384108154296875,0.7330926060676575,3.103440761566162,0.520104706287384
1788957342835158000,0.394157958984375,1.0737208127975464,3.789644479751587,2.12595534324646
1788957342845209000,0.404208984375,1.6899107694625854,4.265363693237305,3.2964389324188232
1788957342855259100,0.414259033203125,2.375401496887207,4.142090320587158,4.069677352905273
1788957342865309200,0.42430908203125,2.760627269744873,4.009801864624023,4.461284160614014
1788957342875360300,0.4343603515625,2.7912356853485107,3.9837288856506348,4.586503505706787
1788957342885410300,0.444410400390625,2.5466976165771484,3.9937117099761963,4.569077014923096
1788957342895461400,0.45446142578125,2.0341222286224365,4.00473690032959,4.541065692901611
1788957342905511200,0.46451123046875,1.248984694480896,3.855868339538574,4.648557186126709
1788957342915562200,0.474562255859375,0.29154741764068604,3.7306716442108154,4.911563873291016
1788957342925612300,0.4846123046875,-0.7278333902359009,3.384289503097534,5.38096284866333
1788957342935663000,0.4946630859375,-1.7206196784973145,3.1910574436187744,5.986955165863037
1788957342945713400,0.50471337890625,-2.5357940196990967,3.025406837463379,6.664544582366943
1788957342955763200,0.51476318359375,-3.1062426567077637,2.6898045539855957,7.26449728012085
1788957342965814000,0.52481396484375,-3.5066006183624268,2.2041995525360107,7.662653923034668
1788957342975864000,0.534864013671875,-3.7414374351501465,1.7608277797698975,7.849494457244873
1788957342985915100,0.5449150390625,-3.6417136192321777,1.9027931690216064,7.824797630310059
1788957342995965200,0.554965087890625,-3.0723559856414795,1.8511067628860474,7.485224723815918
1788957343006016300,0.565016357421875,-2.3685312271118164,1.5707316398620605,6.761789321899414
1788957343016066300,0.57506640625,-1.898663878440857,1.0357561111450195,5.8393354415893555
1788957343026116000,0.5851162109375,-1.9017348289489746,-0.18654218316078186,4.2698822021484375
1788957343036167200,0.595167236328125,-2.283388137817383,-0.8856360912322998,3.104440927505493
1788957343046217200,0.60521728515625,-2.692281484603882,-1.2735803127288818,1.737766981124878
1788957343056268300,0.615268310546875,-2.7192795276641846,-1.3921242952346802,0.4140712022781372
1788957343066318300,0.625318359375,-2.3596057891845703,-1.770202875137329,-0.5758742094039917
1788957343076369400,0.635369384765625,-1.8804750442504883,-2.1345198154449463,-1.1948421001434326
1788957343086419200,0.645419189453125,-1.4729256629943848,-2.306903123855591,-1.5132994651794434
1788957343096470000,0.655469970703125,-1.3533601760864258,-2.726689100265503,-1.6308940649032593
1788957343106520000,0.66552001953125,-1.5751808881759644,-2.9032764434814453,-1.6752692461013794
1788957343116570000,0.675570068359375,-1.72021484375,-2.541966199874878,-1.6592994928359985
1788957343126621200,0.68562109375,-1.6494085788726807,-2.302656412124634,-1.6250255107879639
1788957343136671200,0.695671142578125,-1.6062482595443726,-2.3451995849609375,-1.390051245689392
1788957343146722300,0.705722412109375,-1.5523667335510254,-1.538803219795227,-1.1261333227157593
1788957343156772000,0.715772216796875,-1.853424072265625,-1.5632712841033936,-0.55119788646698
1788957343166823700,0.72582373046875,-2.52213716506958,-0.8022950887680054,0.5151005983352661
1788957343176873700,0.735873779296875,-2.7967984676361084,1.3873127698898315,0.45485779643058777
1788957343186923800,0.745923828125,-1.230432391166687,4.614433765411377,-2.8719844818115234
1788957343196974800,0.755974853515625,-1.2047741413116455,0.8047239184379578,-2.614614486694336
1788957343207025000,0.76602490234375,-1.4138437509536743,0.32877281308174133,-1.3008631467819214
1788957343217075700,0.77607568359375,-1.409240484237671,1.1707011461257935,-0.15897154808044434
1788957343227125800,0.786125732421875,-1.725154161453247,1.6128604412078857,0.8120995163917542
1788957343237176600,0.796176513671875,-2.6379218101501465,1.8863487243652344,1.3867971897125244
1788957343247226600,0.8062265625,-3.6737239360809326,2.5252573490142822,1.616371512413025
1788957343257277700,0.816277587890625,-4.326189994812012,3.520853281021118,1.9864033460617065
1788957343267327700,0.82632763671875,-4.349626064300537,3.894791841506958,2.8757262229919434
1788957343277377500,0.83637744140625,-3.817984104156494,3.563433885574341,3.784029006958008
1788957343287428600,0.8464287109375,-2.912224531173706,2.702777624130249,4.196619987487793
1788957343297478700,0.856478759765625,-1.9570406675338745,1.8578096628189087,3.850937843322754
1788957343307529700,0.86652978515625,-1.1903858184814453,0.8290228843688965,3.051149606704712
1788957343317579800,0.876579833984375,-0.7931029200553894,-0.17118479311466217,2.034637212753296
1788957343327630800,0.886630859375,-0.8633955121040344,-0.6620929837226868,1.1304911375045776
1788957343337681000,0.896680908203125,-1.2462291717529297,-0.7866855263710022,0.36214062571525574
1788957343347731700,0.906731689453125,-1.6123675107955933,-0.689341127872467,-0.29340872168540955
1788957343357781800,0.91678173828125,-1.6368600130081177,-0.3816309869289398,-0.9384492039680481
1788957343367831800,0.926831787109375,-1.5953298807144165,-0.41571518778800964,-1.5730797052383423
1788957343377882600,0.936882568359375,-1.8344769477844238,-0.5965824127197266,-2.2168333530426025
1788957343387932700,0.9469326171875,-2.2482285499572754,-1.2579907178878784,-2.682328224182129
1788957343397983700,0.956983642578125,-1.9811744689941406,-1.7949193716049194,-3.0224382877349854
1788957343408033500,0.967033447265625,-1.325195074081421,-1.9081333875656128,-3.3275723457336426
1788957343418084600,0.977084716796875,-1.1353113651275635,-2.292534112930298,-3.5425326824188232
1788957343428134700,0.987134765625,-1.0842373371124268,-1.9693964719772339,-3.846766471862793
1788957343438185700,0.997185791015625,-1.0801613330841064,-1.5591471195220947,-3.9519765377044678
1788957343448235800,1.00723583984375,-1.273494005203247,-1.4200853109359741,-4.199306964874268
1788957343458285800,1.017285888671875,-1.075098991394043,-1.2027748823165894,-4.48492956161499
1788957343468337000,1.0273369140625,-0.23783999681472778,-1.2459415197372437,-4.6730780601501465
1788957343478386700,1.03738671875,0.836164653301239,-1.3144780397415161,-4.424356937408447
1788957343488437800,1.047437744140625,1.5207253694534302,-1.041765809059143,-3.396221160888672
1788957343498487800,1.05748779296875,1.813765287399292,-0.5351046919822693,-2.3317596912384033
1788957343508538600,1.06753857421875,1.6909464597702026,-0.6293166875839233,-1.7558069229125977
1788957343518588700,1.077588623046875,1.4974368810653687,-0.5247703194618225,-1.6783316135406494
1788957343528639700,1.0876396484375,1.7894023656845093,-1.0597429275512695,-1.5520330667495728
1788957343538689500,1.097689453125,2.0132219791412354,-0.9608879685401917,-1.5474443435668945
1788957343548739600,1.107739501953125,1.7797796726226807,-0.6288202404975891,-2.0280351638793945
1788957343558790700,1.117790771484375,1.3121285438537598,0.07395997643470764,-2.5485332012176514
1788957343568840700,1.1278408203125,0.7668313980102539,1.144147276878357,-2.247879981994629
1788957343578891800,1.137891845703125,0.5391441583633423,2.338871955871582,-0.8718486428260803
1788957343588941800,1.14794189453125,0.9416236877441406,1.8636924028396606,0.27159610390663147
1788957343598992600,1.15799267578125,1.3616561889648438,2.6191818714141846,0.875010073184967
1788957343609042700,1.168042724609375,1.3233857154846191,3.6996214389801025,0.8803848624229431
1788957343619093800,1.17809375,1.335880994796753,3.991633653640747,0.6074020862579346
1788957343629143800,1.188143798828125,1.2877923250198364,3.991969347000122,0.2961738705635071
1788957343639193900,1.19819384765625,1.0067158937454224,4.060194492340088,0.07263798266649246
1788957343649244700,1.20824462890625,0.833779513835907,4.162124156951904,0.22170309722423553
1788957343659294700,1.218294677734375,0.8469493985176086,4.990124702453613,0.1960986703634262
1788957343669345500,1.228345458984375,1.1492975950241089,5.608328342437744,0.20678193867206573
1788957343679395600,1.2383955078125,1.8139170408248901,4.922706127166748,0.7849316000938416
1788957343689446700,1.24844677734375,2.489978313446045,2.1321568489074707,1.2262085676193237
1788957343699496700,1.25849658203125,3.008054494857788,0.4567292034626007,0.8369697332382202
1788957343709546800,1.268546630859375,4.0281877517700195,0.2487616091966629,0.6170567870140076
1788957343719597800,1.278597900390625,4.610813617706299,0.1898793876171112,0.8268318772315979
1788957343729647600,1.288647705078125,4.835994720458984,0.6188938617706299,1.3565807342529297
1788957343739698700,1.29869873046875,5.122204780578613,1.840010166168213,1.996230959892273
1788957343749748700,1.308748779296875,5.07289457321167,3.3589961528778076,2.520812511444092
1788957343759799800,1.3187998046875,5.18059778213501,4.284391403198242,2.507509231567383
1788957343769849900,1.328849853515625,4.420698165893555,3.767458200454712,2.519847869873047
1788957343779900700,1.338900634765625,4.118916988372803,3.3111820220947266,2.035670280456543
1788957343789950700,1.34895068359375,5.179709434509277,2.1874263286590576,0.8798990845680237
1788957343800000800,1.359000732421875,5.3123698234558105,0.19963641464710236,0.25938016176223755
1788957343810051600,1.369051513671875,5.1446099281311035,-0.3892894387245178,0.0052051483653485775
1788957343820101600,1.3791015625,5.426948070526123,-0.6453020572662354,-0.32984742522239685
1788957343830152700,1.389152587890625,5.729288101196289,-0.7372156977653503,-0.632040798664093
1788957343840202800,1.39920263671875,5.334348201751709,-0.5004825592041016,-0.7185746431350708
1788957343850253800,1.40925390625,4.379708766937256,-0.6482040882110596,-0.7332659959793091
1788957343860303600,1.4193037109375,3.6224703788757324,-2.044938564300537,-0.6773862242698669
1788957343870354700,1.429354736328125,3.2197635173797607,-3.91872239112854,-0.188437819480896
1788957343880404700,1.43940478515625,3.302615165710449,-5.132683753967285,-0.039143674075603485
1788957343890455800,1.449455810546875,3.8801634311676025,-6.230962753295898,-0.004030161537230015
1788957343900505900,1.459505859375,4.609385013580322,-7.000943183898926,0.5210306644439697
1788957343910555600,1.4695556640625,4.975104331970215,-6.488485336303711,0.8202059268951416
1788957343920606700,1.479606689453125,4.615471363067627,-5.485708236694336,0.7975791692733765
1788957343930656800,1.48965673828125,3.6667797565460205,-4.544748783111572,0.8532906770706177
1788957343940707600,1.49970751953125,3.5460710525512695,-3.054702043533325,0.9583374261856079
1788957343950757600,1.509757568359375,3.612760066986084,-1.6146670579910278,0.9759465456008911
1788957343960808700,1.51980859375,3.769822835922241,-0.539158821105957,0.9515719413757324
1788957343970858800,1.529858642578125,3.8158533573150635,0.18985489010810852,0.787446916103363
1788957343980908500,1.539908447265625,2.80252742767334,0.4564543664455414,0.5796918869018555
1788957343990959600,1.549959716796875,0.3650496006011963,-0.07129761576652527,0.672527551651001
1788957344001009700,1.560009765625,-2.1587836742401123,-0.9237184524536133,0.3787457048892975
1788957344011060700,1.570060791015625,-4.1706390380859375,-1.344389796257019,-0.25356462597846985
1788957344021110800,1.58011083984375,-5.246394634246826,-1.0169028043746948,-0.7650989890098572
1788957344031161900,1.590161865234375,-4.9367356300354,1.369509220123291,-0.8261088132858276
1788957344041211600,1.600211669921875,-3.7281155586242676,2.027780055999756,-0.24100755155086517
1788957344051262700,1.6102626953125,-2.1121716499328613,2.5409820079803467,0.3723996579647064
1788957344061312800,1.620312744140625,-0.4342454671859741,3.052015781402588,0.9427284002304077
1788957344071362800,1.63036279296875,0.9644054770469666,3.8937981128692627,1.5233606100082397
1788957344081413600,1.64041357421875,1.9734199047088623,4.232885360717773,2.2024402618408203
1788957344091463700,1.650463623046875,1.6861999034881592,2.995002031326294,1.099749207496643
1788957344101514800,1.6605146484375,0.4816742241382599,0.878750741481781,-0.2192727029323578
1788957344111564500,1.670564453125,-0.5336034893989563,0.0516783744096756,-0.5260414481163025
1788957344121615600,1.68061572265625,-1.0752207040786743,0.33444535732269287,-0.43788012862205505
1788957344131665700,1.690665771484375,-1.19329035282135,0.6763712763786316,-0.3146436810493469
1788957344141716700,1.700716796875,-1.2831612825393677,0.7446579337120056,-0.26476243138313293
1788957344151766800,1.710766845703125,-1.387340784072876,0.6546803712844849,-0.24024908244609833
1788957344161816600,1.720816650390625,-1.4484258890151978,0.4950059950351715,-0.17143459618091583
1788957344171867600,1.73086767578125,-1.4086369276046753,0.2166004776954651,-0.11653486639261246
1788957344181917700,1.740917724609375,-1.2031937837600708,-0.11752503365278244,-0.04754861071705818
1788957344191968800,1.75096875,-0.9372694492340088,-0.3176131248474121,0.06413770467042923
1788957344202018600,1.7610185546875,-0.7155618071556091,-0.34335950016975403,0.18141107261180878
1788957344212069600,1.771069580078125,-0.5313323140144348,-0.2563233971595764,0.23452435433864594
1788957344222119700,1.78111962890625,-0.38927558064460754,-0.20443809032440186,0.27246347069740295
1788957344232170500,1.79117041015625,-0.29596588015556335,-0.225291445851326,0.3307110667228699
1788957344242220500,1.801220458984375,-0.20601575076580048,-0.3702795207500458,0.33851706981658936
1788957344252270600,1.8112705078125,-0.14785976707935333,-0.438552588224411,0.3036096692085266
1788957344262321400,1.8213212890625,-0.0912335067987442,-0.279516339302063,0.2876032888889313
1788957344272371500,1.831371337890625,0.03117709420621395,-0.24357803165912628,0.2658681571483612
1788957344282422500,1.841422607421875,0.14258351922035217,-0.28841742873191833,0.39348524808883667
1788957344292472600,1.85147265625,0.1800994575023651,-0.10393864661455154,0.5746750235557556
1788957344302523600,1.861523681640625,0.16405338048934937,0.2806902527809143,0.5897687077522278
1788957344312573700,1.87157373046875,0.18317382037639618,0.5108779072761536,0.5242334008216858
1788957344322624800,1.881624755859375,0.19658896327018738,0.5412073135375977,0.5573849678039551
1788957344332674600,1.891674560546875,0.26559677720069885,0.4944624602794647,0.647057056427002
1788957344342724600,1.901724609375,0.36261361837387085,0.35781991481781006,0.661771833896637
1788957344352775700,1.911775634765625,0.3938109576702118,0.2688461244106293,0.5596643686294556
1788957344362825700,1.92182568359375,0.3898630738258362,0.14727920293807983,0.4527917206287384
1788957344372876500,1.93187646484375,0.3288489878177643,0.0241926871240139,0.3980693519115448
1788957344382926600,1.941926513671875,0.3129397928714752,0.005224056541919708,0.32321321964263916
1788957344392977400,1.951977294921875,0.3668674826622009,0.060996510088443756,0.22139497101306915
1788957344403027500,1.96202734375,0.43331387639045715,0.08672317862510681,0.14897723495960236
1788957344413078500,1.97207861328125,0.48859551548957825,0.03075205348432064,0.13505183160305023
1788957344423128600,1.982128662109375,0.5318378210067749,0.023614780977368355,0.10508940368890762
1788957344433178600,1.9921787109375,0.5873689651489258,0.05946545675396919,0.08206424117088318
1788957344443229700,2.002229736328125,0.5934053063392639,0.02238679863512516,0.083048015832901
1788957344453279500,2.012279541015625,0.5788929462432861,-0.06083725020289421,0.06518646329641342
1788957344463330600,2.02233056640625,0.5686437487602234,-0.03997085243463516,0.005489840172231197
1788957344473380600,2.032380615234375,0.5348767042160034,0.016985908150672913,-0.05040937662124634
1788957344483431700,2.042431640625,0.500455379486084,0.13056014478206635,-0.12131151556968689
1788957344493481700,2.052481689453125,0.46779727935791016,0.2621770203113556,-0.1980006992816925
1788957344503532500,2.062532470703125,0.4626011848449707,0.3684467375278473,-0.22635218501091003
1788957344513582600,2.07258251953125,0.4246775209903717,0.32984474301338196,-0.2753647267818451
1788957344523633400,2.08263330078125,0.4094974994659424,0.28107720613479614,-0.35283368825912476
1788957344533683500,2.092683349609375,0.4354934096336365,0.24193672835826874,-0.4102085530757904
1788957344543733500,2.1027333984375,0.44581982493400574,0.1829509139060974,-0.4825000762939453
1788957344553784600,2.11278466796875,0.3783763349056244,0.05838128551840782,-0.5645310282707214
1788957344563834600,2.122834716796875,0.34395578503608704,-0.06934072822332382,-0.5997750163078308
1788957344573885700,2.1328857421875,0.278357595205307,-0.1696670651435852,-0.6100153923034668
1788957344583935500,2.142935546875,0.19476096332073212,-0.22075287997722626,-0.6291305422782898
1788957344593986600,2.152986572265625,0.12112242728471756,-0.2323746532201767,-0.6334688067436218
1788957344604036600,2.16303662109375,0.07630409300327301,-0.21726679801940918,-0.6197801828384399
1788957344614087700,2.173087646484375,0.041248369961977005,-0.17594173550605774,-0.6069389581680298
1788957344624137700,2.1831376953125,0.026430541649460793,-0.09743281453847885,-0.6056818962097168
1788957344634187800,2.193187744140625,0.010291785933077335,-0.006699447985738516,-0.6648586988449097
1788957344644238600,2.203238525390625,-0.004334561061114073,-0.07918430119752884,-0.6927571892738342
1788957344654288600,2.21328857421875,-0.05928809195756912,-0.26846209168434143,-0.5979385375976562
1788957344664339500,2.22333935546875,-0.09723946452140808,-0.44465309381484985,-0.4477423429489136
1788957344674389500,2.233389404296875,-0.05035531520843506,-0.5621600151062012,-0.34440451860427856
1788957344684440600,2.243440673828125,0.05291195213794708,-0.6138402223587036,-0.2615210711956024
1788957344694490600,2.25349072265625,0.1418950855731964,-0.7110296487808228,-0.19278089702129364
1788957344704541700,2.263541748046875,0.13822737336158752,-0.8063159584999084,-0.14892344176769257
1788957344714591500,2.273591552734375,0.10008825361728668,-0.86478191614151,-0.1285039186477661
1788957344724641500,2.2836416015625,0.04705405980348587,-0.8254566192626953,-0.1396487057209015
1788957344734692600,2.293692626953125,-0.025372734293341637,-0.7809440493583679,-0.16249357163906097
1788957344744742700,2.30374267578125,-0.09996654093265533,-0.7579135298728943,-0.20001937448978424
1788957344754793700,2.313793701171875,-0.15764236450195312,-0.7517890930175781,-0.245391383767128
1788957344764843500,2.323843505859375,-0.18678373098373413,-0.7681962847709656,-0.2933160364627838
1788957344774894600,2.33389453125,-0.19799190759658813,-0.7983065247535706,-0.3432830572128296
1788957344784944600,2.343944580078125,-0.18361803889274597,-0.8468460440635681,-0.37273576855659485
1788957344794995500,2.353995361328125,-0.17001141607761383,-0.8713090419769287,-0.3854784369468689
1788957344805045500,2.36404541015625,-0.1623859852552414,-0.942700982093811,-0.3938106894493103
1788957344815095600,2.374095458984375,-0.15348117053508759,-1.0394560098648071,-0.38080060482025146
1788957344825146600,2.384146728515625,-0.017913220450282097,-1.3154854774475098,-0.4161924123764038
1788957344835196400,2.394196533203125,-0.05482356622815132,-1.2934041023254395,-0.32555705308914185
1788957344845247500,2.40424755859375,-0.11244052648544312,-1.1953976154327393,-0.19909259676933289
1788957344855297500,2.414297607421875,-0.10106243193149567,-1.1754205226898193,-0.09573850780725479
1788957344865348600,2.4243486328125,-0.09169317036867142,-1.154371976852417,-0.0004719121498055756
1788957344875398700,2.434398681640625,-0.09978438168764114,-1.0741804838180542,0.09428521990776062
1788957344885449700,2.44444970703125,-0.09107185155153275,-0.960049033164978,0.1520284116268158
1788957344895499500,2.45449951171875,-0.07752302289009094,-0.8429706692695618,0.17211876809597015
1788957344905550600,2.464550537109375,-0.05395990610122681,-0.7845731377601624,0.17574705183506012
1788957344915600600,2.4746005859375,0.019180884584784508,-0.8173661828041077,0.17429563403129578
1788957344925650700,2.484650634765625,0.10482681542634964,-0.8593450784683228,0.15745380520820618
1788957344935701500,2.494701416015625,0.19070842862129211,-0.8456383347511292,0.10124006867408752
1788957344945751600,2.50475146484375,0.22747762501239777,-0.7159541249275208,0.05573170632123947
1788957344955802600,2.514802734375,0.24013803899288177,-0.622839093208313,0.05390078201889992
1788957344965852400,2.524852294921875,0.2511182427406311,-0.5768646597862244,0.13403956592082977
1788957344975903500,2.534903564453125,0.27777835726737976,-0.5114941596984863,0.24196815490722656
1788957344985953500,2.54495361328125,0.2859276235103607,-0.38297906517982483,0.26027604937553406
1788957344996004600,2.555004638671875,0.2617911398410797,-0.2663073241710663,0.21317219734191895
1788957345006054700,2.5650546875,0.18082624673843384,-0.2337706834077835,0.12915851175785065
1788957345016104700,2.575104736328125,0.07139748334884644,-0.26211363077163696,0.09302687644958496
1788957345026155500,2.585155517578125,0.03147430345416069,-0.11722569167613983,0.07318766415119171
1788957345036205600,2.59520556640625,0.06162847578525543,0.050400055944919586,0.10289549082517624
1788957345046256600,2.605256591796875,0.1352800577878952,0.1367940604686737,0.15370513498783112
1788957345056306700,2.615306640625,0.23611825704574585,0.13819222152233124,0.1599009782075882
1788957345066357500,2.625357421875,0.3063817620277405,0.06088279187679291,0.16451996564865112
1788957345076407600,2.635407470703125,0.32037535309791565,-0.09303832799196243,0.15537600219249725
1788957345086458600,2.645458740234375,0.3351154029369354,-0.10414610803127289,0.08918739855289459
1788957345096508400,2.65550830078125,0.31374433636665344,-0.15717950463294983,0.06815828382968903
1788957345106558500,2.665558349609375,0.2884773313999176,-0.09391637146472931,0.10396501421928406
1788957345116609500,2.675609619140625,0.28215524554252625,0.03146151825785637,0.15488678216934204
1788957345126659600,2.68565966796875,0.28655746579170227,0.1256796270608902,0.24986043572425842
1788957345136710700,2.695710693359375,0.3222486078739166,0.15609265863895416,0.37288329005241394
1788957345146760400,2.705760498046875,0.44880175590515137,0.2434331625699997,0.39933380484580994
1788957345156811500,2.7158115234375,0.4996050298213959,0.2561880946159363,0.43351975083351135
1788957345166861000,2.725861083984375,0.4907761216163635,0.22374974191188812,0.3757352828979492
1788957345176912100,2.735912109375,0.4694673717021942,0.17467381060123444,0.2813799977302551
1788957345186962200,2.745962158203125,0.4585079252719879,0.1224345713853836,0.1798536479473114
1788957345197013200,2.75601318359375,0.4138126075267792,0.05282486602663994,0.12549187242984772
1788957345207063300,2.766063232421875,0.35589098930358887,-0.028682244941592216,0.15129098296165466
1788957345217113000,2.776113037109375,0.3032730519771576,-0.06876308470964432,0.20182952284812927
1788957345227164000,2.786163818359375,0.2790566682815552,0.05812695249915123,0.2209686040878296
1788957345237214200,2.796214111328125,0.21598555147647858,0.1182699203491211,0.2728501856327057
1788957345247265000,2.80626513671875,0.15507134795188904,0.2697947323322296,0.31766292452812195
1788957345257315000,2.816315185546875,0.06854577362537384,0.28124871850013733,0.37233150005340576
1788957345267366100,2.8263662109375,0.09350331872701645,0.3854142725467682,0.38012948632240295
1788957345277416000,2.836416015625,0.1531304270029068,0.47874715924263,0.3555149734020233
1788957345287467000,2.846467041015625,0.2083369642496109,0.5055944919586182,0.2679789960384369
1788957345297517000,2.85651708984375,0.3272053003311157,0.482677698135376,0.1679977923631668
1788957345307567000,2.866567138671875,0.4051956832408905,0.37841999530792236,0.05853228643536568
1788957345317618200,2.8766181640625,0.4124315083026886,0.16033615171909332,-0.04210324585437775
1788957345327668200,2.886668212890625,0.4797777831554413,-0.05327041074633598,-0.02912033535540104
1788957345337719000,2.896718994140625,0.6395975351333618,-0.28599685430526733,0.06090223416686058
1788957345347769000,2.90676904296875,0.8300846815109253,-0.4650134742259979,0.1707134246826172
1788957345357820200,2.916820068359375,0.9230636358261108,-0.3529857397079468,0.22778256237506866
1788957345367870200,2.9268701171875,0.9247816205024719,-0.35482466220855713,0.2674442231655121
1788957345377921000,2.936921142578125,0.7399566173553467,-0.46620073914527893,0.19141817092895508
1788957345387971000,2.94697119140625,0.46068185567855835,-0.7103694677352905,0.03032434917986393
1788957345398020900,2.957020751953125,0.08730374276638031,-0.9205029606819153,-0.12206785380840302
1788957345408072000,2.967072021484375,-0.14828747510910034,-0.876065731048584,-0.2062399834394455
1788957345418122000,2.9771220703125,-0.1798296868801117,-0.5933525562286377,-0.1881595253944397
1788957345428173000,2.987173095703125,-0.16587099432945251,-0.5642186403274536,-0.22762517631053925
1788957345438223000,2.99722314453125,-0.3224624693393707,-0.5029909610748291,-0.5206738114356995
1788957345448274200,3.007274169921875,-0.3089868724346161,-0.6284580826759338,-0.7519667148590088
1788957345458324200,3.01732421875,-0.43388620018959045,-0.715797483921051,-0.7066700458526611
1788957345468375000,3.027375,-0.44323042035102844,-0.519585371017456,-0.5059912800788879
1788957345478425000,3.037425048828125,-0.28753671050071716,-0.31942006945610046,-0.2041051983833313
1788957345488476200,3.04747607421875,-0.06298881769180298,-0.04320712387561798,0.11745712161064148
1788957345498526200,3.057526123046875,0.2240525335073471,0.20414941012859344,0.3683852255344391
1788957345508576300,3.067576171875,0.29026085138320923,0.3148069381713867,0.48091548681259155
1788957345518627000,3.077626953125,0.2721846401691437,0.3171270787715912,0.509422242641449
1788957345528676900,3.0876767578125,0.29935768246650696,0.31890395283699036,0.4433942139148712
1788957345538728000,3.09772802734375,0.34102869033813477,0.3054983913898468,0.2792438864707947
1788957345548778000,3.107778076171875,0.41325974464416504,0.15107473731040955,0.039437953382730484
1788957345558829000,3.1178291015625,0.427984356880188,-0.15380899608135223,-0.14982038736343384
1788957345568879000,3.127879150390625,0.26867035031318665,-0.31051498651504517,-0.2898821532726288
1788957345578930200,3.13793017578125,0.08650240302085876,-0.3055284917354584,-0.3802296221256256
1788957345588980200,3.147980224609375,-0.09921606630086899,-0.08567655831575394,-0.4312741756439209
1788957345599030000,3.158030029296875,-0.17812180519104004,0.07998431473970413,-0.49454715847969055
1788957345609081000,3.1680810546875,-0.24416419863700867,0.07754672318696976,-0.5495664477348328
1788957345619131100,3.178131103515625,-0.2895926535129547,0.09735850989818573,-0.5442633032798767
1788957345629182200,3.18818212890625,-0.29627907276153564,0.14408446848392487,-0.4778078496456146
1788957345639232300,3.198232177734375,-0.26254481077194214,0.1964704394340515,-0.3860989809036255
1788957345649283000,3.208282958984375,-0.3222965598106384,0.24576608836650848,-0.2894270122051239
1788957345659332900,3.218332763671875,-0.3406912684440613,0.32332560420036316,-0.15700426697731018
1788957345669384000,3.228384033203125,-0.3357228636741638,0.4004257023334503,0.00526560191065073
1788957345679434000,3.23843408203125,-0.3109253942966461,0.4723387658596039,0.1789122223854065
1788957345689485000,3.248485107421875,-0.3161393105983734,0.47370123863220215,0.3099682331085205
1788957345699535000,3.25853515625,-0.23551931977272034,0.46686357259750366,0.3597981333732605
1788957345709585200,3.268585205078125,-0.1929875612258911,0.4525698721408844,0.27211275696754456
1788957345719636000,3.278635986328125,-0.20365218818187714,0.3996025323867798,0.13297642767429352
1788957345729686000,3.28868603515625,-0.24973127245903015,0.3388161361217499,0.0009094694978557527
1788957345739737000,3.298737060546875,-0.21832887828350067,0.368320494890213,-0.059664662927389145
1788957345749787100,3.308787109375,-0.1987202912569046,0.44878605008125305,-0.07714218646287918
1788957345759838200,3.318838134765625,-0.18215729296207428,0.5540626645088196,-0.09388601779937744
1788957345769888300,3.32888818359375,-0.16805052757263184,0.6337103843688965,-0.11368182301521301
1788957345779939000,3.33893896484375,-0.1600991189479828,0.697642982006073,-0.08036887645721436
1788957345789989000,3.348989013671875,-0.11317209154367447,0.7433367371559143,-0.01950552500784397
1788957345800039200,3.3590390625,-0.0957275927066803,0.7164204120635986,-0.0012604740913957357
1788957345810090000,3.369090087890625,-0.1001761332154274,0.5805501937866211,0.010965566150844097
1788957345820140000,3.37914013671875,-0.09113683551549911,0.4334568977355957,0.021260015666484833
1788957345830191000,3.389191162109375,-0.08778657764196396,0.33973947167396545,0.03116404451429844
1788957345840241200,3.3992412109375,-0.0590132512152195,0.34129419922828674,0.07324651628732681
1788957345850292000,3.4092919921875,-0.04530622810125351,0.3241210877895355,0.11727682501077652
1788957345860342000,3.419342041015625,-0.03219788521528244,0.28278401494026184,0.1462205946445465
1788957345870393000,3.42939306640625,-0.02912539429962635,0.2709779739379883,0.13382597267627716
1788957345880443100,3.439443115234375,-0.014307566918432713,0.27013081312179565,0.1251094490289688
1788957345890493200,3.4494931640625,-0.0080296965315938,0.2888845205307007,0.1308075487613678
1788957345900544300,3.459544189453125,0.015328622423112392,0.3215489983558655,0.12837128341197968
1788957345910594000,3.469593994140625,0.0563729964196682,0.320687472820282,0.09696169942617416
1788957345920645000,3.47964501953125,0.09471159428358078,0.2984689772129059,0.018145181238651276
1788957345930695200,3.489695068359375,0.1287020593881607,0.23644955456256866,-0.08713729679584503
1788957345940746000,3.49974609375,0.14343732595443726,0.13247095048427582,-0.16493462026119232
1788957345950796000,3.509796142578125,0.15520450472831726,0.027882497757673264,-0.20301330089569092
1788957345960847000,3.51984716796875,0.1479111611843109,0.027210582047700882,-0.20830953121185303
1788957345970897200,3.529897216796875,0.08453592658042908,0.0765504315495491,-0.21303130686283112
1788957345980947000,3.539947021484375,0.06615957617759705,0.13274580240249634,-0.1849842369556427
1788957345990998000,3.549998046875,0.037397705018520355,0.0945049300789833,-0.1280924528837204
1788957346001048000,3.560048095703125,0.027761057019233704,0.045012217015028,-0.06428364664316177
1788957346011099100,3.57009912109375,0.004550809506326914,0.06265193223953247,-0.0010700580896809697
1788957346021149200,3.580149169921875,-0.036382775753736496,0.1192459687590599,0.056769806891679764
1788957346031200300,3.5902001953125,-0.07265316694974899,0.13429363071918488,0.11434228718280792
1788957346041250000,3.60025,-0.033180322498083115,0.10527662187814713,0.1649809628725052
1788957346051301000,3.610301025390625,0.05194708704948425,0.04915476217865944,0.2092440277338028
1788957346061351200,3.62035107421875,0.12862960994243622,0.04183027148246765,0.23202471435070038
1788957346071401200,3.630401123046875,0.17886695265769958,0.10358897596597672,0.2755759060382843
1788957346081452000,3.6404521484375,0.2227529138326645,0.1318131536245346,0.3449203670024872
1788957346091502000,3.650502197265625,0.2698802053928375,0.1692662537097931,0.37578293681144714
1788957346101553000,3.660552978515625,0.3033822476863861,0.1887107938528061,0.3330269455909729
1788957346111603000,3.67060302734375,0.30732372403144836,0.16418547928333282,0.24219372868537903
1788957346121654000,3.680654052734375,0.3130013346672058,0.09660936146974564,0.1683884859085083
1788957346131704000,3.6907041015625,0.34161245822906494,0.017522001639008522,0.16892403364181519
1788957346141755100,3.700755126953125,0.37201911211013794,0.012132029980421066,0.25720009207725525
1788957346151805200,3.71080517578125,0.3987966477870941,0.07094661146402359,0.37279486656188965
1788957346161856300,3.720856201171875,0.3998241126537323,0.13732004165649414,0.49666115641593933
1788957346171906300,3.73090625,0.4304608404636383,0.19151350855827332,0.5631123781204224
1788957346181956400,3.740956298828125,0.45461809635162354,0.24119211733341217,0.5339126586914062
1788957346192007400,3.75100732421875,0.46653521060943604,0.22585444152355194,0.4243347644805908
1788957346202057500,3.761057373046875,0.4590059220790863,0.0973324105143547,0.25684937834739685
1788957346212108300,3.7711083984375,0.48012426495552063,0.020000606775283813,0.10452268272638321
1788957346222158300,3.781158447265625,0.5020226240158081,-0.025607891380786896,-0.0548027940094471
1788957346232209400,3.79120947265625,0.5151352286338806,-0.02352849580347538,-0.18398287892341614
1788957346242259200,3.80125927734375,0.4942621886730194,0.004355067387223244,-0.27076730132102966
1788957346252310300,3.811310302734375,0.4196063280105591,0.04139963909983635,-0.31646662950515747
1788957346262360300,3.8213603515625,0.2736837565898895,0.07536079734563828,-0.27977997064590454
1788957346272410400,3.831410400390625,0.18633311986923218,0.08413325250148773,-0.22903850674629211
1788957346282461400,3.84146142578125,0.1264823079109192,0.12011761963367462,-0.20445699989795685
1788957346292511200,3.85151123046875,0.09803654998540878,0.12944774329662323,-0.20050273835659027
1788957346302562300,3.861562255859375,0.09324126690626144,0.0885825976729393,-0.20623067021369934
1788957346312612400,3.8716123046875,0.1450354903936386,0.05074573680758476,-0.20461812615394592
1788957346322663400,3.881663330078125,0.13515302538871765,-0.016112657263875008,-0.1876564472913742
1788957346332713500,3.89171337890625,0.10904552787542343,-0.07706975191831589,-0.18122145533561707
1788957346342764300,3.901764404296875,0.04433257877826691,-0.15111468732357025,-0.18296661972999573
1788957346352814300,3.911814453125,-0.02797757275402546,-0.22207993268966675,-0.2404480278491974
1788957346362864000,3.921864013671875,-0.11124130338430405,-0.25281068682670593,-0.30222004652023315
1788957346372915200,3.931915283203125,-0.15097486972808838,-0.2602244019508362,-0.3611627221107483
1788957346382965200,3.94196533203125,-0.1840318888425827,-0.31002843379974365,-0.40490221977233887
1788957346393016300,3.952016357421875,-0.17766240239143372,-0.3968394994735718,-0.405642569065094
1788957346403066400,3.96206640625,-0.1481226235628128,-0.47367116808891296,-0.3941987156867981
1788957346413117400,3.972117431640625,-0.1294804960489273,-0.44060614705085754,-0.3811854422092438
1788957346423167200,3.982167236328125,-0.1150064766407013,-0.4021455645561218,-0.39499738812446594
1788957346433218300,3.99221826171875,-0.11643046885728836,-0.34367161989212036,-0.37759628891944885
1788957346443268400,4.002268310546875,-0.08206291496753693,-0.3476567566394806,-0.34306734800338745
1788957346453318400,4.012318359375,-0.0384664312005043,-0.3142964243888855,-0.28536781668663025
1788957346463369500,4.022369384765625,-0.005042695440351963,-0.20550201833248138,-0.23531530797481537
1788957346473419500,4.03241943359375,0.06006839871406555,-0.12859392166137695,-0.1991967260837555
1788957346483470300,4.04247021484375,0.1524617075920105,-0.09442344307899475,-0.153804212808609
1788957346493520400,4.052520263671875,0.22530555725097656,-0.09088756144046783,-0.1063900887966156
1788957346503571200,4.0625712890625,0.24828889966011047,-0.09457124769687653,-0.06866161525249481
1788957346513621200,4.072621337890625,0.2161157876253128,-0.058334413915872574,-0.03171318769454956
1788957346523672300,4.08267236328125,0.16690510511398315,-0.0309885423630476,0.041673146188259125
1788957346533722400,4.092722412109375,0.13115163147449493,-0.046905990689992905,0.08547628670930862
1788957346543772200,4.102772216796875,0.10094445943832397,-0.045514486730098724,0.10799358040094376
1788957346553823200,4.1128232421875,0.06679021567106247,-0.01501064095646143,0.08472367376089096
1788957346563873300,4.122873291015625,0.0337129570543766,0.011128551326692104,0.013961621560156345
1788957346573924400,4.13292431640625,-0.002681004349142313,-0.006096774712204933,-0.05071830376982689
1788957346583974400,4.142974365234375,-0.03412974253296852,-0.02966681495308876,-0.09945708513259888
1788957346594025500,4.153025390625,-0.07919495552778244,-0.059409528970718384,-0.13872618973255157
1788957346604075500,4.163075439453125,-0.13079503178596497,-0.059117648750543594,-0.14493055641651154
1788957346614126300,4.173126220703125,-0.17011341452598572,-0.04878591373562813,-0.10432427376508713
1788957346624176400,4.18317626953125,-0.17529910802841187,-0.04212960973381996,-0.05799219757318497
1788957346634226400,4.193226318359375,-0.16535434126853943,-0.02099316567182541,-0.02508777566254139
1788957346644277200,4.20327734375,-0.15682582557201385,0.0030274814926087856,-0.009619603864848614
1788957346654327300,4.213327392578125,-0.16414819657802582,-0.000636761833447963,0.007435279432684183
1788957346664378400,4.22337841796875,-0.16637645661830902,-0.060613278299570084,0.03148628771305084
1788957346674428200,4.23342822265625,-0.14879827201366425,-0.09159356355667114,0.07198044657707214
1788957346684479200,4.243479248046875,-0.12176425009965897,-0.07529182732105255,0.11453963071107864
1788957346694529300,4.253529296875,-0.09266389161348343,-0.04958166927099228,0.16598817706108093
1788957346704580400,4.263580322265625,-0.04532460495829582,-0.020800620317459106,0.24904045462608337
1788957346714630400,4.27363037109375,0.021095698699355125,-0.04872865602374077,0.3324815332889557
1788957346724680400,4.283680419921875,0.08001014590263367,-0.07672859728336334,0.35194870829582214
1788957346734731500,4.2937314453125,0.10783299058675766,-0.09257733821868896,0.3268745243549347
1788957346744781300,4.30378125,0.11676842719316483,-0.08388318121433258,0.3090294897556305
1788957346754832400,4.313832275390625,0.13725373148918152,-0.09181860089302063,0.31553852558135986
1788957346764882400,4.32388232421875,0.1349855214357376,-0.1101699098944664,0.3251517117023468
1788957346774933200,4.333933349609375,0.10124965757131577,-0.09839261323213577,0.3209439218044281
1788957346784983300,4.3439833984375,0.06660033017396927,-0.07176553457975388,0.2797996997833252
1788957346795034400,4.354034423828125,0.0212421715259552,-0.06286311894655228,0.263602077960968
1788957346805084200,4.364084228515625,0.007709585130214691,-0.10404784232378006,0.2894328832626343
1788957346815134200,4.37413427734375,0.02671683207154274,-0.15377198159694672,0.3284282088279724
1788957346825185300,4.384185302734375,0.056349027901887894,-0.2096131443977356,0.36065298318862915
1788957346835235300,4.3942353515625,0.07121185958385468,-0.19231458008289337,0.37273895740509033
1788957346845286400,4.404286376953125,0.07366889715194702,-0.11130228638648987,0.35624387860298157
1788957346855336400,4.41433642578125,0.0751299038529396,-0.05169009044766426,0.3260992765426636
1788957346865387500,4.424387451171875,0.09253499656915665,-0.08211857080459595,0.2867673337459564
1788957346875437300,4.434437255859375,0.13742710649967194,-0.1529509276151657,0.2987496852874756
1788957346885488400,4.44448828125,0.19544805586338043,-0.22089776396751404,0.39366793632507324
1788957346895538400,4.454538330078125,0.24289093911647797,-0.2599005401134491,0.5010162591934204
1788957346905588500,4.46458837890625,0.23883840441703796,-0.2210221290588379,0.5651786923408508
1788957346915639300,4.474639404296875,0.23016290366649628,-0.1995581090450287,0.5656266212463379
1788957346925689300,4.484689453125,0.22165383398532867,-0.220623180270195,0.5406142473220825
1788957346935740200,4.494740234375,0.19199314713478088,-0.26904210448265076,0.5084642767906189
1788957346945790200,4.504790283203125,0.1375780999660492,-0.2970212996006012,0.4756235182285309
1788957346955841300,4.51484130859375,0.060385845601558685,-0.30294230580329895,0.4554969370365143
1788957346965891300,4.524891357421875,-0.011803129687905312,-0.2833169400691986,0.4485064148902893
1788957346975942400,4.5349423828125,-0.08311805874109268,-0.2755684554576874,0.4445737302303314
1788957346985992400,4.544992431640625,-0.11297954618930817,-0.26344043016433716,0.4370420277118683
1788957346996042200,4.555042236328125,-0.09750791639089584,-0.22211669385433197,0.4448871910572052
1788957347006093300,4.56509326171875,-0.06937401741743088,-0.22573192417621613,0.4874056279659271
1788957347016143400,4.575143310546875,0.0016618125373497605,-0.25749918818473816,0.5651792287826538
1788957347026194400,4.5851943359375,0.06386073678731918,-0.3002626299858093,0.609846293926239
1788957347036244500,4.595244384765625,0.10724496096372604,-0.3375663161277771,0.5743325352668762
1788957347046295300,4.60529541015625,0.09491612762212753,-0.41807499527931213,0.47324079275131226
1788957347056345300,4.615345458984375,0.06270838528871536,-0.5322237014770508,0.3484557271003723
1788957347066396200,4.625396240234375,0.03266366943717003,-0.6201556921005249,0.21022939682006836
1788957347076446200,4.6354462890625,0.00026525085559114814,-0.6209940314292908,0.10795842111110687
1788957347086496300,4.645496337890625,-0.05076410993933678,-0.47684377431869507,0.04496720805764198
1788957347096547300,4.65554736328125,-0.13092152774333954,-0.32356181740760803,0.025316542014479637
1788957347106597400,4.665597412109375,-0.2065931260585785,-0.24337483942508698,0.03605201095342636
1788957347116648400,4.6756484375,-0.26398131251335144,-0.2310049831867218,0.03933195769786835
1788957347126698200,4.6856982421875,-0.32096365094184875,-0.26325052976608276,0.03718678280711174
1788957347136749300,4.695749267578125,-0.3704078793525696,-0.26426973938941956,0.05336815118789673
1788957347146799400,4.70579931640625,-0.38097476959228516,-0.28970611095428467,0.09151633083820343
1788957347156850400,4.715850341796875,-0.3402441143989563,-0.2711992859840393,0.07616347819566727
1788957347166900200,4.725900146484375,-0.27636662125587463,-0.21528275310993195,0.0324530154466629
1788957347176950300,4.7359501953125,-0.22565443813800812,-0.1523115038871765,-0.00344533147290349
1788957347187001300,4.74600146484375,-0.190957173705101,-0.09750737994909286,-0.04207528010010719
1788957347197051400,4.756051513671875,-0.1462477594614029,-0.058035872876644135,-0.12476030737161636
1788957347207102200,4.766102294921875,-0.12265454977750778,-0.039142075926065445,-0.249893456697464
1788957347217152000,4.776152099609375,-0.13267841935157776,-0.002584864152595401,-0.3443259596824646
1788957347227203000,4.786203125,-0.1510843187570572,0.005172924138605595,-0.3619201183319092
1788957347237253000,4.796253173828125,-0.18072263896465302,-0.011229751631617546,-0.3360469937324524
1788957347247304200,4.80630419921875,-0.22526401281356812,0.014171745628118515,-0.30498015880584717
1788957347257354200,4.816354248046875,-0.2768148183822632,0.07955501228570938,-0.24023790657520294
1788957347267404300,4.826404296875,-0.33468905091285706,0.10437700897455215,-0.15636004507541656
1788957347277455000,4.836455078125,-0.3567293584346771,0.09370039403438568,-0.11050201207399368
1788957347287505200,4.846505126953125,-0.3376408815383911,0.09004440158605576,-0.10362865775823593
1788957347297556200,4.85655615234375,-0.28765869140625,0.0901099219918251,-0.11513245105743408
1788957347307606300,4.866606201171875,-0.2542743682861328,0.10154606401920319,-0.11915568262338638
1788957347317657300,4.8766572265625,-0.19947102665901184,0.11979670822620392,-0.09987226873636246
1788957347327707400,4.886707275390625,-0.13003017008304596,0.12581731379032135,-0.09144123643636703
1788957347337757200,4.896757080078125,-0.0680895745754242,0.13453251123428345,-0.11515188962221146
1788957347347808000,4.90680810546875,-0.04018284007906914,0.16552051901817322,-0.13222621381282806
1788957347357858300,4.9168583984375,-0.04429689049720764,0.172165647149086,-0.1145193874835968
1788957347367909000,4.9269091796875,-0.04547454044222832,0.1411467343568802,-0.07873982191085815
1788957347377959200,4.936959228515625,-0.038485072553157806,0.12461649626493454,-0.044251084327697754
1788957347388010200,4.94701025390625,-0.03533162549138069,0.1409270316362381,-0.005754292011260986
1788957347398060300,4.957060302734375,-0.02630111202597618,0.13746385276317596,0.05421184003353119
1788957347408111000,4.967111083984375,-0.019641878083348274,0.12448014318943024,0.09125933796167374
1788957347418161200,4.9771611328125,-0.012737632729113102,0.0911988839507103,0.09875320643186569
1788957347428211200,4.987211181640625,0.009207080118358135,0.05385284498333931,0.09064068645238876
1788957347438262300,4.99726220703125,0.04319886863231659,0.0373055599629879,0.09300664067268372
1788957347448312300,5.007312255859375,0.10454638302326202,0.05156758800148964,0.07393680512905121
1788957347458363400,5.01736328125,0.14953649044036865,0.08511169999837875,0.006835002917796373
1788957347468413200,5.0274130859375,0.1792917251586914,0.09786930680274963,-0.10749343782663345
1788957347478464000,5.037464111328125,0.17912288010120392,0.06090276688337326,-0.21630646288394928
1788957347488514300,5.047514404296875,0.18121320009231567,0.026043051853775978,-0.2629418671131134
1788957347498565000,5.057565185546875,0.17441122233867645,0.008194546215236187,-0.23715156316757202
1788957347508615200,5.067615234375,0.15369927883148193,0.050096988677978516,-0.17204579710960388
1788957347518665200,5.077665283203125,0.10167522728443146,0.15505988895893097,-0.11273054033517838
1788957347528716000,5.087716064453125,0.0280955508351326,0.24644066393375397,-0.046848200261592865
1788957347538766000,5.09776611328125,-0.007400392089039087,0.29736030101776123,0.023238476365804672
1788957347548817200,5.107817138671875,-0.014970427379012108,0.31472572684288025,0.06431693583726883
1788957347558867200,5.1178671875,-0.0017113472567871213,0.3502565324306488,0.05163496360182762
1788957347568918300,5.127918212890625,0.01996971294283867,0.39835962653160095,0.012347213923931122
1788957347578968300,5.13796826171875,0.03921424597501755,0.4244053363800049,-0.012938701547682285
1788957347589019400,5.148019287109375,0.06657982617616653,0.4254857897758484,-0.0331486314535141
1788957347599069200,5.158069091796875,0.10378684848546982,0.4060108959674835,-0.026033997535705566
1788957347609119200,5.168119140625,0.16905958950519562,0.3708108365535736,-0.003376888344064355
1788957347619170300,5.17817041015625,0.26088327169418335,0.3305736482143402,0.006572148762643337
1788957347629220400,5.188220458984375,0.32444918155670166,0.3037090301513672,-0.009029713459312916
1788957347639271200,5.198271240234375,0.3569645285606384,0.26998621225357056,-0.004147873260080814
1788957347649321200,5.2083212890625,0.3363146185874939,0.20533078908920288,0.0004013383586425334
1788957347659372000,5.2183720703125,0.29071491956710815,0.1631721407175064,-0.014444719068706036
1788957347669422000,5.228422119140625,0.2346561849117279,0.15038710832595825,-0.035300467163324356
1788957347679472000,5.23847216796875,0.18267101049423218,0.12277545034885406,-0.028188228607177734
1788957347689523200,5.248523193359375,0.15614433586597443,0.08881029486656189,0.013655890710651875
1788957347699573200,5.2585732421875,0.14347247779369354,0.10034231841564178,0.057742390781641006
1788957347709624300,5.268624267578125,0.13764281570911407,0.15778909623622894,0.10133647173643112
1788957347719674000,5.278674072265625,0.137348011136055,0.2134406417608261,0.13960610330104828
1788957347729725200,5.28872509765625,0.16632479429244995,0.19764916598796844,0.13484063744544983
1788957347739775200,5.298775146484375,0.20579524338245392,0.16852323710918427,0.059781309217214584
1788957347749826300,5.308826416015625,0.24346405267715454,0.15586496889591217,-0.07733127474784851
1788957347759876400,5.31887646484375,0.23772813379764557,0.15425615012645721,-0.2065206915140152
1788957347769926400,5.328926513671875,0.2281237095594406,0.10736667364835739,-0.2672300934791565
1788957347779977200,5.338977294921875,0.24310480058193207,0.012435897253453732,-0.24204085767269135
1788957347790027300,5.34902734375,0.28638648986816406,-0.11149430274963379,-0.14344237744808197
1788957347800078000,5.359078125,0.3347758650779724,-0.20175468921661377,-0.03611272946000099
1788957347810128100,5.369128173828125,0.38290637731552124,-0.26392751932144165,0.03988403454422951
1788957347820179200,5.37917919921875,0.4012182652950287,-0.26476746797561646,0.06992555409669876
1788957347830229200,5.389229248046875,0.3985835909843445,-0.16802255809307098,0.030364563688635826
1788957347840280300,5.3992802734375,0.39545145630836487,-0.04796619340777397,-0.03332599997520447
1788957347850330000,5.409330078125,0.38829952478408813,-0.0015267902053892612,-0.11576388031244278
1788957347860380200,5.419380126953125,0.3807918131351471,-0.0024948492646217346,-0.23910339176654816
1788957347870431200,5.42943115234375,0.34157171845436096,-0.04634859040379524,-0.3846145272254944
1788957347880481300,5.439481201171875,0.2893769443035126,-0.08723237365484238,-0.46148425340652466
1788957347890532400,5.449532470703125,0.2288648784160614,-0.13969558477401733,-0.38990116119384766
1788957347900582400,5.45958251953125,0.16625314950942993,-0.18908444046974182,-0.27699193358421326
1788957347910633000,5.469633056640625,0.08600172400474548,-0.1861448436975479,-0.18626601994037628
1788957347920683300,5.479683349609375,0.010979413986206055,-0.1786123514175415,-0.08620705455541611
1788957347930734000,5.489734130859375,-0.06149531900882721,-0.18440206348896027,0.011296330019831657
1788957347940784000,5.4997841796875,-0.08711306750774384,-0.13248054683208466,0.05161738768219948
1788957347950834200,5.509834228515625,-0.10562150180339813,-0.08025649189949036,0.031124362722039223
1788957347960885200,5.51988525390625,-0.11180269718170166,-0.05227572098374367,-0.01350355800241232
1788957347970935000,5.52993505859375,-0.09653719514608383,-0.05314657464623451,-0.07970841228961945
1788957347980986000,5.539986083984375,-0.07217193394899368,-0.07998431473970413,-0.15530303120613098
1788957347991036200,5.5500361328125,-0.04590623825788498,-0.11348395049571991,-0.2301304042339325
1788957348001087200,5.560087158203125,-0.005280249286442995,-0.1595079004764557,-0.26923438906669617
1788957348011137300,5.57013720703125,0.034389663487672806,-0.20811937749385834,-0.279409795999527
1788957348021187300,5.580187255859375,0.05284883454442024,-0.22173425555229187,-0.27826252579689026
1788957348031238400,5.59023828125,0.07106885313987732,-0.2178281992673874,-0.28071847558021545
1788957348041288200,5.6002880859375,0.0906931534409523,-0.20612066984176636,-0.25593671202659607
1788957348051339300,5.61033935546875,0.1040041595697403,-0.19492954015731812,-0.1919635832309723
1788957348061389300,5.620389404296875,0.11897805333137512,-0.17625679075717926,-0.1221405565738678
1788957348071440100,5.630440185546875,0.13405553996562958,-0.12223802506923676,-0.06411853432655334
1788957348081490200,5.640490234375,0.14598223567008972,-0.03838680312037468,0.00017070861940737814
1788957348091541200,5.650541259765625,0.14726348221302032,0.027107518166303635,0.048416800796985626
1788957348101591000,5.660591064453125,0.13318228721618652,0.08488346636295319,0.048957690596580505
1788957348111641000,5.67064111328125,0.1165630966424942,0.13699114322662354,0.02209331840276718
1788957348121692200,5.680692138671875,0.10559806227684021,0.15644899010658264,0.012746421620249748
1788957348131742200,5.6907421875,0.09076745063066483,0.1459854394197464,0.010379670187830925
1788957348141793300,5.700793212890625,0.054479219019412994,0.15177488327026367,0.01660986989736557
1788957348151843300,5.71084326171875,0.03321734070777893,0.11192227154970169,0.053942859172821045
1788957348161894400,5.720894287109375,0.00971654336899519,0.041721079498529434,0.10049198567867279
1788957348171944200,5.730944091796875,-0.02393942140042782,-0.023440077900886536,0.1265305131673813
1788957348181994000,5.740993896484375,-0.08165039122104645,-0.057729609310626984,0.10295514017343521
1788957348192045000,5.751045166015625,-0.14758040010929108,-0.07445825636386871,0.07896459102630615
1788957348202095000,5.76109521484375,-0.194435253739357,-0.0754161924123764,0.08258329331874847
1788957348212146000,5.77114599609375,-0.19840070605278015,-0.051182761788368225,0.08731226623058319
1788957348222196200,5.7811962890625,-0.16656741499900818,-0.06016773357987404,0.06455635279417038
1788957348232247000,5.7912470703125,-0.09199730306863785,-0.07414426654577255,0.06928399950265884
1788957348242297000,5.801297119140625,-0.010854511521756649,-0.08795755356550217,0.12428466975688934
1788957348252348200,5.81134814453125,0.045757900923490524,-0.09691029787063599,0.16630882024765015
1788957348262398000,5.82139794921875,0.05251540616154671,-0.08202323317527771,0.16811789572238922
1788957348272448000,5.831447998046875,0.031157920137047768,-0.06927627325057983,0.1711357980966568
1788957348282499000,5.8414990234375,0.03025750443339348,-0.09296509623527527,0.22845341265201569
1788957348292549000,5.851549072265625,0.05115106701850891,-0.1232881098985672,0.3074542284011841
1788957348302600200,5.86160009765625,0.07000704854726791,-0.1473495066165924,0.3655524253845215
1788957348312650000,5.87164990234375,0.0744132474064827,-0.13801752030849457,0.42047053575515747
1788957348322701000,5.881701171875,0.0716848373413086,-0.11209271848201752,0.4805964529514313
1788957348332751000,5.891751220703125,0.06765201687812805,-0.09483090788125992,0.5003208518028259
1788957348342801200,5.90180126953125,0.058456119149923325,-0.059242550283670425,0.4687435030937195
1788957348352852200,5.911852294921875,0.05018460750579834,-0.020171580836176872,0.42383435368537903
1788957348362902300,5.92190234375,0.034753452986478806,0.018197912722826004,0.39858385920524597
1788957348372953000,5.931953125,0.025616945698857307,0.05989103019237518,0.3803366720676422
1788957348383003000,5.9420029296875,0.02171807922422886,0.11435747146606445,0.3656464219093323
1788957348393054000,5.952053955078125,0.016819193959236145,0.16357028484344482,0.3783795237541199
1788957348403104000,5.96210400390625,0.016219716519117355,0.18978351354599,0.39621153473854065
1788957348413155000,5.972155029296875,0.014671088196337223,0.21170452237129211,0.3938405215740204
1788957348423205000,5.982205078125,0.008536762557923794,0.1975085437297821,0.3916569948196411
1788957348433255200,5.992255126953125,0.017718011513352394,0.1320219486951828,0.4458214044570923
1788957348443306000,6.002305908203125,0.04755233973264694,0.06233341619372368,0.5128287076950073
1788957348453356000,6.01235595703125,0.06316432356834412,0.015978699550032616,0.5467720031738281
1788957348463407000,6.022406982421875,0.05825771391391754,-0.01441036444157362,0.5868171453475952
1788957348473457200,6.03245703125,0.05483528599143028,-0.024950889870524406,0.6186262369155884
1788957348483508200,6.04250830078125,0.041496310383081436,-0.0016370450612157583,0.6076363921165466
1788957348493558300,6.052558349609375,0.009215602651238441,0.04352058097720146,0.5382863879203796
1788957348503608000,6.062608154296875,-0.03518994525074959,0.09714332967996597,0.45695316791534424
1788957348513659000,6.072658935546875,-0.07161186635494232,0.13767370581626892,0.3792565166950226
1788957348523709200,6.082709228515625,-0.09634091705083847,0.15186569094657898,0.2911841869354248
1788957348533760000,6.092760009765625,-0.12836062908172607,0.16560015082359314,0.21106857061386108
1788957348543810000,6.10281005859375,-0.15674912929534912,0.15301936864852905,0.18783994019031525
1788957348553861000,6.112861083984375,-0.15394295752048492,0.12472275644540787,0.2010553479194641
1788957348563911000,6.122910888671875,-0.14504560828208923,0.08105703443288803,0.21489739418029785
1788957348573962000,6.1329619140625,-0.14559954404830933,0.04259193316102028,0.21585026383399963
1788957348584012000,6.143011962890625,-0.15376879274845123,-0.01961631141602993,0.209468275308609
1788957348594062000,6.15306201171875,-0.15429583191871643,-0.07147551327943802,0.19216890633106232
1788957348604113200,6.163113037109375,-0.13598127663135529,-0.06588340550661087,0.1483234316110611
1788957348614163200,6.1731630859375,-0.12928448617458344,-0.01618296466767788,0.08416334539651871
1788957348624214300,6.18321435546875,-0.12416376173496246,0.03732127323746681,0.031801339238882065
1788957348634264000,6.19326416015625,-0.11355265974998474,0.07173757255077362,0.0054845139384269714
1788957348644315000,6.20331494140625,-0.09236454963684082,0.07772062718868256,0.003923634998500347
1788957348654365200,6.213365234375,-0.06216643378138542,0.08023651689291,0.018367022275924683
1788957348664415200,6.223415283203125,-0.030546989291906357,0.08097820729017258,0.04032345488667488
1788957348674466000,6.233466064453125,0.009132245555520058,0.08207249641418457,0.07063688337802887
1788957348684516000,6.24351611328125,0.0504184328019619,0.0800628811120987,0.1091880053281784
1788957348694567000,6.25356689453125,0.09274591505527496,0.07320018112659454,0.15546175837516785
1788957348704617000,6.263616943359375,0.12981098890304565,0.055992163717746735,0.19810590147972107
1788957348714668000,6.27366796875,0.13848170638084412,0.04313974827528,0.1988784819841385
1788957348724718000,6.283718017578125,0.11167539656162262,0.0580206923186779,0.16888169944286346
1788957348734768000,6.29376806640625,0.06846001744270325,0.09256428480148315,0.15166090428829193
1788957348744819200,6.303819091796875,0.04508811607956886,0.11859589070081711,0.1357591599225998
1788957348754869000,6.313868896484375,0.05687073990702629,0.1268700659275055,0.1087280809879303
1788957348764920000,6.323920166015625,0.07794539630413055,0.1294698417186737,0.08647444099187851
1788957348774970000,6.33397021484375,0.08608721196651459,0.12887835502624512,0.08057846873998642
1788957348785021200,6.344021240234375,0.09187372773885727,0.14243890345096588,0.07375092059373856
1788957348795071200,6.3540712890625,0.08044477552175522,0.1594567745923996,0.05384086072444916
1788957348805122000,6.3641220703125,0.04969964548945427,0.1810709834098816,0.04271950200200081
1788957348815172000,6.374172119140625,0.019957195967435837,0.20007823407649994,0.06178027763962746
1788957348825222000,6.384221923828125,-0.00007084008393576369,0.19596950709819794,0.08766540139913559
1788957348835273000,6.39427294921875,-0.021672803908586502,0.1970483511686325,0.07638824731111526
1788957348845323000,6.404322998046875,-0.036196086555719376,0.1885022670030594,0.09035173058509827
1788957348855374000,6.4143740234375,-0.00823902152478695,0.16752588748931885,0.14972424507141113
1788957348865424100,6.424424072265625,0.044072654098272324,0.14117629826068878,0.17090542614459991
1788957348875475200,6.43447509765625,0.07416477799415588,0.12269023060798645,0.12773878872394562
1788957348885525000,6.44452490234375,0.09258212894201279,0.08913972973823547,0.09054374694824219
1788957348895575000,6.454574951171875,0.09883443266153336,0.07596080750226974,0.06771966069936752
1788957348905626000,6.464626220703125,0.0894651710987091,0.11025779694318771,0.011974637396633625
1788957348915676200,6.47467626953125,0.04230191558599472,0.16701535880565643,-0.06275046616792679
1788957348925727200,6.484727294921875,-0.005760417319834232,0.19493061304092407,-0.1296120584011078
1788957348935777300,6.49477734375,-0.0490567572414875,0.2244243174791336,-0.17835961282253265
1788957348945827800,6.504827880859375,-0.09418482333421707,0.26307156682014465,-0.2233172357082367
1788957348955878100,6.514878173828125,-0.12488920241594315,0.28444716334342957,-0.23455844819545746
1788957348965928200,6.52492822265625,-0.1316096931695938,0.252990186214447,-0.19768564403057098
1788957348975979000,6.53497900390625,-0.10310747474431992,0.21417248249053955,-0.15337437391281128
1788957348986029000,6.545029052734375,-0.07007815688848495,0.19537721574306488,-0.14811302721500397
1788957348996080000,6.555080078125,-0.04542899876832962,0.19910165667533875,-0.17523333430290222
1788957349006130000,6.5651298828125,-0.003982224967330694,0.19597962498664856,-0.18788547813892365
1788957349016181000,6.575180908203125,0.068151094019413,0.18313919007778168,-0.17949652671813965
1788957349026231000,6.58523095703125,0.1374819576740265,0.17107906937599182,-0.17461681365966797
1788957349036282000,6.5952822265625,0.18899895250797272,0.16650934517383575,-0.14450019598007202
1788957349046332200,6.605332275390625,0.23464126884937286,0.14556971192359924,-0.09933164715766907
1788957349056382200,6.61538232421875,0.2359965443611145,0.15335386991500854,-0.09187746047973633
1788957349066433300,6.625433349609375,0.22656656801700592,0.1662329137325287,-0.1031050831079483
1788957349076483000,6.635483154296875,0.24390986561775208,0.14859746396541595,-0.0953664630651474
1788957349086534100,6.6455341796875,0.2959112823009491,0.11376038938760757,-0.11518145352602005
1788957349096584200,6.655584228515625,0.30362778902053833,0.03852741792798042,-0.13790513575077057
1788957349106635000,6.665635009765625,0.3035452365875244,-0.020187294110655785,-0.0986006110906601
1788957349116685000,6.67568505859375,0.31548845767974854,-0.09461252391338348,-0.018577147275209427
1788957349126734800,6.68573486328125,0.32872381806373596,-0.1297508031129837,0.041672877967357635
1788957349136786000,6.695785888671875,0.279668927192688,-0.08413591980934143,0.04778776317834854
1788957349146836000,6.7058359375,0.20451213419437408,-0.0024764735717326403,-0.00977380108088255
1788957349156887000,6.715886962890625,0.14580753445625305,0.08287756890058517,-0.12112748622894287
1788957349166937300,6.725937255859375,0.10702764987945557,0.10749796032905579,-0.27282965183258057
1788957349176988400,6.735988525390625,0.07372428476810455,0.07615788280963898,-0.4454304575920105
1788957349187038500,6.74603857421875,-0.017314808443188667,0.05550161004066467,-0.6097317934036255
1788957349197088500,6.756088623046875,-0.1061599925160408,0.07701089233160019,-0.7343056797981262
1788957349207139600,6.7661396484375,-0.2001703828573227,0.17514970898628235,-0.8037832975387573
1788957349217189600,6.776189697265625,-0.2691577076911926,0.29388540983200073,-0.8015238642692566
1788957349227240400,6.786240478515625,-0.2787834405899048,0.4030342698097229,-0.7007490396499634
1788957349237290500,6.79629052734375,-0.26424524188041687,0.420621782541275,-0.5620478987693787
1788957349247341300,6.80634130859375,-0.24253034591674805,0.33709439635276794,-0.4762978255748749
1788957349257391400,6.816391357421875,-0.20102684199810028,0.22295798361301422,-0.4297716021537781
1788957349267441400,6.82644140625,-0.13563452661037445,0.08126236498355865,-0.3702438473701477
1788957349277492500,6.836492431640625,-0.09940355271100998,-0.014628477394580841,-0.3142511546611786
1788957349287542300,6.846542236328125,-0.07194183766841888,-0.10240493714809418,-0.28748849034309387
1788957349297593300,6.85659326171875,-0.07664897292852402,-0.20389454066753387,-0.2620161771774292
1788957349307643400,6.866643310546875,-0.0860975980758667,-0.2912198603153229,-0.24379268288612366
1788957349317694500,6.876694580078125,-0.12116051465272903,-0.3598055839538574,-0.21456876397132874
1788957349327744500,6.88674462890625,-0.14520485699176788,-0.41113346815109253,-0.17298029363155365
1788957349337794600,6.896794677734375,-0.1341562122106552,-0.4174228012561798,-0.10935871303081512
1788957349347845600,6.906845703125,-0.10033459216356277,-0.4089861810207367,-0.04609239473938942
1788957349357895400,6.9168955078125,-0.07695949822664261,-0.36495667695999146,0.005940447095781565
1788957349367946500,6.926946533203125,-0.07939815521240234,-0.2774678170681,0.020836573094129562
1788957349377996500,6.93699658203125,-0.0875876396894455,-0.22846779227256775,0.023309582844376564
1788957349388047400,6.94704736328125,-0.10932569205760956,-0.20649245381355286,0.04509131237864494
1788957349398097400,6.957097412109375,-0.13333222270011902,-0.16113616526126862,0.07185900956392288
1788957349408148500,6.9671484375,-0.12994281947612762,-0.11968139559030533,0.09417203813791275
1788957349418198300,6.9771982421875,-0.075445756316185,-0.1303926259279251,0.06671565026044846
1788957349428248300,6.987248291015625,-0.0035779569298028946,-0.14398513734340668,0.03916311636567116
1788957349438299400,6.99729931640625,0.04246197268366814,-0.1706998348236084,0.019817912951111794
1788957349448349400,7.007349365234375,0.09176614135503769,-0.21446089446544647,0.0474625900387764
1788957349458400500,7.017400390625,0.1271084100008011,-0.26447880268096924,0.07389393448829651
1788957349468450600,7.027450439453125,0.10349869728088379,-0.2722240686416626,0.0608188770711422
1788957349478501600,7.037501708984375,0.0682874470949173,-0.30726566910743713,-0.0060152821242809296
1788957349488551400,7.047551513671875,0.028449485078454018,-0.3563131093978882,-0.10188508778810501
1788957349498601500,7.0576015625,-0.005860019475221634,-0.40711185336112976,-0.1602916717529297
1788957349508652500,7.067652587890625,-0.029415413737297058,-0.4482611417770386,-0.179246187210083
1788957349518702600,7.07770263671875,-0.04325878992676735,-0.47900572419166565,-0.19982576370239258
1788957349528753400,7.08775341796875,-0.05470505729317665,-0.5103370547294617,-0.23706340789794922
1788957349538803500,7.097803466796875,-0.08854930847883224,-0.4758046269416809,-0.24449895322322845
1788957349548854300,7.107854248046875,-0.13305018842220306,-0.4728940427303314,-0.214847594499588
1788957349558904300,7.117904296875,-0.16129088401794434,-0.4711611270904541,-0.19332125782966614
1788957349568954400,7.127954345703125,-0.21135911345481873,-0.3505963683128357,-0.17604319751262665
1788957349579005400,7.13800537109375,-0.26196983456611633,-0.27070632576942444,-0.16245496273040771
1788957349589055500,7.148055419921875,-0.27760177850723267,-0.19419850409030914,-0.1477777361869812
1788957349599106600,7.1581064453125,-0.2399691939353943,-0.11216329038143158,-0.12584128975868225
1788957349609156400,7.16815625,-0.16921938955783844,-0.08462008088827133,-0.05630828067660332
1788957349619207400,7.17820751953125,-0.08214733004570007,-0.08497534692287445,0.04277808964252472
1788957349629257500,7.188257568359375,0.017531588673591614,-0.14254648983478546,0.1284722238779068
1788957349639307500,7.1983076171875,0.06112460792064667,-0.18238632380962372,0.20566022396087646
1788957349649358600,7.208358642578125,0.06924032419919968,-0.15052852034568787,0.28234779834747314
1788957349659408600,7.21840869140625,0.07537731528282166,-0.11558651924133301,0.33053290843963623
1788957349669459500,7.22845947265625,0.09227586537599564,-0.10086935758590698,0.29961493611335754
1788957349679509500,7.238509521484375,0.1214369460940361,-0.12277518957853317,0.2523542046546936
1788957349689560300,7.248560302734375,0.16979968547821045,-0.19980871677398682,0.22023436427116394
1788957349699610400,7.2586103515625,0.19369329512119293,-0.27169010043144226,0.20530308783054352
1788957349709660400,7.268660400390625,0.16019979119300842,-0.336788147687912,0.1990627646446228
1788957349719711500,7.27871142578125,0.13091886043548584,-0.35608968138694763,0.20075947046279907
1788957349729761300,7.28876123046875,0.07550407946109772,-0.35735946893692017,0.21454106271266937
1788957349739812400,7.298812255859375,0.022962307557463646,-0.31949862837791443,0.20245777070522308
1788957349749862400,7.3088623046875,-0.03996046632528305,-0.2357560694217682,0.15950976312160492
1788957349759913500,7.31891357421875,-0.09996148198843002,-0.20638246834278107,0.11789334565401077
1788957349769963500,7.328963623046875,-0.15191443264484406,-0.14344531297683716,0.11084209382534027
1788957349780013600,7.339013671875,-0.18524256348609924,-0.1237669512629509,0.08566217124462128
1788957349790064600,7.349064697265625,-0.22646749019622803,-0.07650862634181976,0.04869749769568443
1788957349800114400,7.359114501953125,-0.24798983335494995,0.0031848743092268705,0.03705868497490883
1788957349810165500,7.36916552734375,-0.23338532447814941,-0.003275954397395253,0.06439709663391113
1788957349820215600,7.379215576171875,-0.21130798757076263,-0.044262003153562546,0.12028646469116211
1788957349830266400,7.389266357421875,-0.16500680148601532,-0.09623891860246658,0.1919041872024536
1788957349840316400,7.39931640625,-0.12181005626916885,-0.15105050802230835,0.3140820264816284
1788957349850366500,7.409366455078125,-0.10403132438659668,-0.13220171630382538,0.43868494033813477
1788957349860417300,7.419417236328125,-0.08669468015432358,-0.05397189036011696,0.4798313081264496
1788957349870467300,7.42946728515625,-0.07897230982780457,0.011320298537611961,0.4096519649028778
1788957349880518400,7.439518310546875,-0.07424014061689377,0.05747048184275627,0.2904355525970459
1788957349890568400,7.449568359375,-0.05433647707104683,0.11306317150592804,0.20720085501670837
1788957349900619500,7.45961962890625,-0.022762304171919823,0.08316092938184738,0.183432936668396
1788957349910669600,7.469669677734375,0.00019281286222394556,0.03518515080213547,0.23985706269741058
1788957349920719400,7.47971923828125,-0.012267851270735264,0.043708331882953644,0.3391612768173218
1788957349930770400,7.4897705078125,-0.03871463984251022,0.10882502049207687,0.4011032283306122
1788957349940820500,7.499820556640625,-0.05902470275759697,0.17937001585960388,0.39146310091018677
1788957349950871600,7.50987158203125,-0.060091033577919006,0.2046618014574051,0.37095651030540466
1788957349960921600,7.519921630859375,-0.04922720044851303,0.13788463175296783,0.36545202136039734
1788957349970972400,7.529972412109375,-0.039987098425626755,0.04174158722162247,0.3696366250514984
1788957349981022500,7.5400224609375,-0.017375528812408447,-0.049797117710113525,0.40293973684310913
1788957349991072500,7.550072509765625,0.015193333849310875,-0.0811755433678627,0.46356791257858276
1788957350001123300,7.560123291015625,0.04747430980205536,-0.03479499742388725,0.47980573773384094
1788957350011173400,7.57017333984375,0.0617523118853569,0.034141458570957184,0.4203543961048126
1788957350021224400,7.580224365234375,0.08313483744859695,0.08382592350244522,0.3003465235233307
1788957350031274500,7.5902744140625,0.09181247651576996,0.0821734294295311,0.165574848651886
1788957350041325600,7.60032568359375,0.06084391102194786,0.03453667089343071,0.021279189735651016
1788957350051375400,7.610375244140625,-0.011927765794098377,0.019051987677812576,-0.10556238144636154
1788957350061425400,7.62042529296875,-0.05953443422913551,-0.02828223817050457,-0.1555890589952469
1788957350071476500,7.6304765625,-0.053998518735170364,-0.0387660376727581,-0.12399891018867493
1788957350081526500,7.640526611328125,-0.039617981761693954,-0.004057325888425112,-0.07324918359518051
1788957350091577600,7.65057763671875,-0.01062175165861845,0.016150740906596184,-0.061113689094781876
1788957350101627400,7.66062744140625,-0.013551495037972927,0.06391506642103195,-0.08255533128976822
1788957350111678500,7.670678466796875,-0.007266434840857983,0.11341497302055359,-0.13202327489852905
1788957350121728500,7.680728515625,-0.010867561213672161,0.16016118228435516,-0.18846605718135834
1788957350131778600,7.690778564453125,0.0052171326242387295,0.2881566882133484,-0.1838420033454895
1788957350141829400,7.700829345703125,0.04144171625375748,0.3133257031440735,-0.12407401204109192
1788957350151879400,7.71087939453125,0.07334292680025101,0.355055570602417,-0.05192258581519127
1788957350161930500,7.720930419921875,0.10938721150159836,0.3971734642982483,0.004179564770311117
1788957350171980000,7.73097998046875,0.12622371315956116,0.4266977906227112,0.08462593704462051
1788957350182031000,7.741031005859375,0.1672220081090927,0.43153780698776245,0.18981680274009705
1788957350192081000,7.751080810546875,0.18626467883586884,0.38282355666160583,0.2382597029209137
1788957350202131000,7.761130859375,0.175811767578125,0.3556598424911499,0.20842936635017395
1788957350212182000,7.77118212890625,0.15655818581581116,0.3239900469779968,0.1824856549501419
1788957350222232000,7.781232177734375,0.1177482008934021,0.2889079749584198,0.15805888175964355
1788957350232283100,7.791283203125,0.10107122361660004,0.23700961470603943,0.10221105813980103
1788957350242333200,7.801333251953125,0.06385594606399536,0.22451379895210266,0.029024461284279823
1788957350252384300,7.81138427734375,0.008372445590794086,0.20263433456420898,-0.045708633959293365
1788957350262434000,7.82143408203125,-0.05547204613685608,0.21153141558170319,-0.16406430304050446
1788957350272484000,7.831484130859375,-0.10566464066505432,0.19425150752067566,-0.25804007053375244
1788957350282535200,7.84153515625,-0.10245446860790253,0.1537054032087326,-0.24717196822166443
1788957350292585200,7.851585205078125,-0.054371628910303116,0.06816547363996506,-0.15873238444328308
1788957350302636000,7.861635986328125,-0.05396762862801552,0.07047469913959503,-0.1148885041475296
1788957350312686000,7.87168603515625,-0.12036502361297607,0.09445460140705109,-0.1426498293876648
1788957350322737000,7.88173681640625,-0.21404118835926056,0.12953215837478638,-0.23063960671424866
1788957350332787000,7.891786865234375,-0.26183879375457764,0.12506923079490662,-0.27529895305633545
1788957350342837000,7.9018369140625,-0.2212841808795929,0.0928330048918724,-0.21365875005722046
1788957350352888000,7.91188818359375,-0.1370963305234909,0.07362015545368195,-0.09780751913785934
1788957350362938000,7.921938232421875,-0.052980128675699234,0.08178221434354782,-0.023072296753525734
1788957350372989200,7.9319892578125,-0.0009507485083304346,0.06064044311642647,-0.02442651242017746
1788957350383039000,7.9420390625,-0.001731853699311614,0.12011229246854782,-0.04559890925884247
1788957350393089000,7.952089111328125,0.006817159708589315,0.19871655106544495,-0.041490450501441956
1788957350403140000,7.96214013671875,0.05239769443869591,0.18755444884300232,-0.00487092137336731
1788957350413190100,7.972190185546875,0.1325170248746872,0.14772528409957886,0.0876515582203865
1788957350423241200,7.9822412109375,0.22465787827968597,0.12590226531028748,0.2300606369972229
1788957350433291300,7.992291259765625,0.2979033291339874,0.11983904987573624,0.33423417806625366
1788957350443342000,8.002342041015625,0.3460104167461395,0.1332123875617981,0.3736433684825897
1788957350453392100,8.01239208984375,0.36263224482536316,0.13923566043376923,0.35501429438591003
1788957350463442200,8.022442138671876,0.3642338812351227,0.12667351961135864,0.2870389521121979
1788957350473493000,8.032492919921875,0.3766026794910431,0.13377298414707184,0.22590476274490356
1788957350483543000,8.04254296875,0.3575964868068695,0.14100612699985504,0.16927877068519592
1788957350493594000,8.052593994140626,0.3253091275691986,0.18998245894908905,0.10801701247692108
1788957350503644000,8.062643798828125,0.28083086013793945,0.2126520872116089,0.07691395282745361
1788957350513695000,8.072695068359375,0.3062398135662079,0.1786094307899475,0.07573284208774567
1788957350523745000,8.0827451171875,0.3604697585105896,0.14238004386425018,0.09294991195201874
1788957350533795000,8.092795166015625,0.4124016761779785,0.1456911563873291,0.1105550080537796
1788957350543846100,8.10284619140625,0.45589667558670044,0.10713257640600204,0.11260776966810226
1788957350553896200,8.112896240234376,0.4937029182910919,0.08231271803379059,0.08996317535638809
1788957350563947000,8.122947021484375,0.532221794128418,0.02574877254664898,0.03377793729305267
1788957350573997000,8.1329970703125,0.5229820013046265,-0.01332965400069952,-0.03219708427786827
1788957350584048000,8.143048095703126,0.4878269135951996,-0.006578540429472923,-0.06256084889173508
1788957350594098200,8.15309814453125,0.4579553008079529,-0.05265282467007637,-0.06162954121828079
1788957350604148200,8.163148193359374,0.39312970638275146,-0.008314921520650387,-0.08838711678981781
1788957350614199000,8.173198974609376,0.31272435188293457,0.08363843709230423,-0.1299540102481842
1788957350624249000,8.1832490234375,0.21605107188224792,0.1243981197476387,-0.12682399153709412
1788957350634300000,8.1932998046875,0.11475241184234619,0.1836225539445877,-0.13575729727745056
1788957350644350000,8.203349853515626,0.09688393771648407,0.1809612661600113,-0.13112500309944153
1788957350654401000,8.213401123046875,0.08977808803319931,0.2168726623058319,-0.18548570573329926
1788957350664451000,8.223451171875,0.06272783130407333,0.20041592419147491,-0.31077200174331665
1788957350674501000,8.233501220703126,0.0679207295179367,0.1691914200782776,-0.3835812211036682
1788957350684552200,8.24355224609375,0.06760434061288834,0.11406345665454865,-0.3997868299484253
1788957350694602000,8.25360205078125,0.02062911167740822,0.1491207778453827,-0.3972996771335602
1788957350704653000,8.263653076171876,-0.0372895821928978,0.14185833930969238,-0.3948213458061218
1788957350714703000,8.273703125,-0.09646821767091751,0.09807063639163971,-0.3647739589214325
1788957350724753200,8.283753173828124,-0.11530528962612152,0.04946182668209076,-0.3364488482475281
1788957350734804200,8.29380419921875,-0.06378456950187683,-0.006988667417317629,-0.26225826144218445
1788957350744854000,8.30385400390625,0.007083741948008537,-0.05745450407266617,-0.14848001301288605
1788957350754905000,8.313905029296874,0.05487017333507538,-0.10341241210699081,-0.02966255508363247
1788957350764955100,8.323955078125,0.07662713527679443,-0.10089065879583359,0.049011219292879105
1788957350775006000,8.334005859375,0.06694760918617249,-0.09608712047338486,0.09460320323705673
1788957350785056000,8.344055908203124,0.04190217703580856,-0.14778493344783783,0.10501988977193832
1788957350795106000,8.35410595703125,0.01811482198536396,-0.19340035319328308,0.060799967497587204
1788957350805157000,8.3641572265625,-0.02497512474656105,-0.21514080464839935,-0.01938674785196781
1788957350815207000,8.37420703125,-0.05279157683253288,-0.25019919872283936,-0.0752076655626297
1788957350825258000,8.384258056640626,-0.05570347607135773,-0.2657800018787384,-0.10320867598056793
1788957350835308000,8.39430810546875,-0.04969671741127968,-0.26616084575653076,-0.12292006611824036
1788957350845359000,8.404359130859374,-0.03922570124268532,-0.24005307257175446,-0.13515329360961914
1788957350855409200,8.4144091796875,-0.025131186470389366,-0.22127965092658997,-0.12866796553134918
1788957350865459000,8.424458984375,-0.016713999211788177,-0.21746760606765747,-0.13935042917728424
1788957350875510000,8.434510009765624,-0.030908647924661636,-0.1878383457660675,-0.15575923025608063
1788957350885560000,8.44456005859375,-0.07840985059738159,-0.11130601912736893,-0.17148520052433014
1788957350895611100,8.454611083984375,-0.12784184515476227,-0.026270220056176186,-0.1806563287973404
1788957350905661200,8.4646611328125,-0.14404211938381195,0.015171496197581291,-0.1933356374502182
1788957350915712000,8.4747119140625,-0.14934954047203064,-0.008154066279530525,-0.20594091713428497
1788957350925762300,8.48476220703125,-0.15092159807682037,-0.021983861923217773,-0.2138875275850296
1788957350935812000,8.49481201171875,-0.16031137108802795,-0.01432141475379467,-0.2105569690465927
1788957350945863000,8.50486279296875,-0.1658044159412384,0.023856064304709435,-0.17115923762321472
1788957350955913000,8.514912841796875,-0.15590864419937134,0.030302511528134346,-0.12059805542230606
1788957350965964000,8.524964111328124,-0.13635171949863434,0.026382870972156525,-0.07961013913154602
1788957350976014000,8.53501416015625,-0.09953085333108902,0.04073970764875412,-0.0188400000333786
1788957350986065200,8.545065185546875,-0.04290858656167984,0.028681445866823196,0.05404432490468025
1788957350996115000,8.555114990234374,0.0008982842555269599,0.021268537268042564,0.09078370034694672
1788957351006165000,8.5651650390625,0.012382900342345238,0.03543948382139206,0.12002120912075043
1788957351016216000,8.575216064453125,0.02414075657725334,0.042990077286958694,0.15359808504581451
1788957351026266000,8.58526611328125,0.04977741092443466,0.03949547931551933,0.1800946742296219
1788957351036317200,8.595317138671875,0.049542251974344254,0.07409020513296127,0.20109103620052338
1788957351046367200,8.6053671875,0.0453786663711071,0.11244691908359528,0.23315416276454926
1788957351056417000,8.6154169921875,0.017787786200642586,0.10006428509950638,0.25733086466789246
1788957351066468000,8.625468017578125,-0.021072793751955032,0.10674615204334259,0.23686474561691284
1788957351076518100,8.63551806640625,-0.08610185980796814,0.14047960937023163,0.18645669519901276
1788957351086569000,8.64556884765625,-0.12086357176303864,0.14476251602172852,0.1625947654247284
1788957351096619000,8.655618896484375,-0.12520372867584229,0.11661955714225769,0.16798341274261475
1788957351106670000,8.665670166015625,-0.0990791767835617,0.09377842396497726,0.17718224227428436
1788957351116719900,8.675719970703126,-0.062185078859329224,0.09025373309850693,0.19715194404125214
1788957351126770000,8.68577001953125,-0.01489266287535429,0.056779392063617706,0.2462095022201538
1788957351136821000,8.695821044921875,0.0320785753428936,0.02557220496237278,0.2774025797843933
1788957351146871000,8.70587109375,0.08686112612485886,0.013856693170964718,0.2718624174594879
1788957351156922000,8.715922119140625,0.10281959176063538,0.009975935332477093,0.22532100975513458
1788957351166972200,8.72597216796875,0.087999626994133,0.006126069463789463,0.18693552911281586
1788957351177023200,8.736023193359374,0.07247606664896011,0.0025449167005717754,0.15084463357925415
1788957351187073300,8.7460732421875,0.06662376970052719,-0.007488009985536337,0.1445353478193283
1788957351197123000,8.756123046875,0.032758746296167374,-0.015030082315206528,0.15790973603725433
1788957351207174100,8.766174072265626,-0.01919659785926342,-0.010848652571439743,0.16234204173088074
1788957351217224200,8.77622412109375,-0.10105924308300018,0.0032674323301762342,0.15803277492523193
1788957351227275000,8.78627490234375,-0.17814603447914124,0.057785533368587494,0.18902957439422607
1788957351237325300,8.7963251953125,-0.20225749909877777,0.10151810199022293,0.2532772719860077
1788957351247375000,8.806375,-0.208163321018219,0.11208339780569077,0.3204834759235382
1788957351257426000,8.816426025390625,-0.19825662672519684,0.10467421263456345,0.3849809765815735
1788957351267476000,8.82647607421875,-0.18502657115459442,0.08450423181056976,0.4608674943447113
1788957351277527000,8.836527099609375,-0.14186951518058777,0.09321170300245285,0.5341033339500427
1788957351287577000,8.8465771484375,-0.08851548284292221,0.08868992328643799,0.5320212841033936
1788957351297628200,8.856628173828126,-0.053592655807733536,0.04938193038105965,0.4566538333892822
1788957351307678200,8.86667822265625,-0.040578585118055344,-0.016451677307486534,0.3648639917373657
1788957351317728000,8.87672802734375,-0.038172684609889984,-0.10252184420824051,0.28496861457824707
1788957351327779000,8.886779052734376,-0.04477972164750099,-0.1647050678730011,0.2153639793395996
1788957351337829000,8.8968291015625,-0.06586876511573792,-0.2025190144777298,0.16011430323123932
1788957351347880200,8.906880126953125,-0.0975758284330368,-0.24410107731819153,0.13543584942817688
1788957351357930200,8.91693017578125,-0.1401459276676178,-0.2766880393028259,0.14341601729393005
1788957351367981300,8.926981201171875,-0.17300187051296234,-0.26859229803085327,0.14511777460575104
1788957351378031000,8.937031005859374,-0.21519699692726135,-0.2274363487958908,0.13795174658298492
1788957351388081200,8.9470810546875,-0.27385446429252625,-0.17827892303466797,0.14592871069908142
1788957351398132000,8.957132080078125,-0.29077085852622986,-0.12024971097707748,0.14404399693012238
1788957351408182300,8.967182373046874,-0.24878504872322083,-0.0914047509431839,0.08389037102460861
1788957351418233000,8.977233154296876,-0.21334849298000336,-0.06673642247915268,0.015478026121854782
1788957351428283100,8.987283203125,-0.22163571417331696,-0.06992342323064804,-0.0032738239970058203
1788957351438333000,8.9973330078125,-0.20845040678977966,-0.011375159956514835,-0.005845105741173029
1788957351448384000,9.007384033203126,-0.18381750583648682,0.0208863727748394,-0.045750442892313004
1788957351458434000,9.01743408203125,-0.20225590467453003,0.044919803738594055,-0.09770099073648453
1788957351468485000,9.027485107421874,-0.24484889209270477,0.10443320125341415,-0.11758202314376831
1788957351478535200,9.03753515625,-0.26130616664886475,0.17523866891860962,-0.11689066886901855
1788957351488586200,9.047586181640625,-0.2393081933259964,0.20529456436634064,-0.07193384319543839
1788957351498636000,9.057635986328124,-0.1772267073392868,0.2166886329650879,0.0031939290929585695
1788957351508686000,9.06768603515625,-0.14131078124046326,0.1288469284772873,0.0927744135260582
1788957351518737200,9.077737060546875,-0.11443842947483063,0.09011444449424744,0.12789244949817657
1788957351528787200,9.087787109375,-0.10258682817220688,0.13094496726989746,0.10289894789457321
1788957351538838300,9.09783837890625,-0.10243555903434753,0.1541842371225357,0.015560850501060486
1788957351548888300,9.107888427734375,-0.0784953385591507,0.137947216629982,-0.14635588228702545
1788957351558938000,9.117938232421874,-0.030736073851585388,0.10258975625038147,-0.2889449894428253
1788957351568989000,9.127989013671876,0.028182368725538254,0.10115404427051544,-0.3109791874885559
1788957351579039000,9.1380390625,0.06592708826065063,0.17148040235042572,-0.2343645691871643
1788957351589090000,9.148090087890624,0.08366187661886215,0.2758992314338684,-0.15113279223442078
1788957351599140000,9.15814013671875,0.1161780059337616,0.3189484179019928,-0.07496532052755356
1788957351609191200,9.168191162109375,0.17201091349124908,0.30818286538124084,0.027516312897205353
1788957351619241200,9.1782412109375,0.22813543677330017,0.25572630763053894,0.12051708996295929
1788957351629291000,9.188291015625,0.25888296961784363,0.1644991934299469,0.15780773758888245
1788957351639342000,9.198342041015625,0.25690901279449463,0.11089349538087845,0.17570337653160095
1788957351649392000,9.20839208984375,0.24436339735984802,0.1588144153356552,0.18944396078586578
1788957351659443200,9.218443115234376,0.2155083268880844,0.26805567741394043,0.14955034852027893
1788957351669493200,9.2284931640625,0.20154137909412384,0.32534027099609375,0.09357309341430664
1788957351679544300,9.23854443359375,0.24418523907661438,0.31837478280067444,0.08804330229759216
1788957351689594000,9.248593994140625,0.3166232109069824,0.2612164318561554,0.09579230844974518
1788957351699644200,9.25864404296875,0.3651638627052307,0.1794685572385788,0.07267952710390091
1788957351709695000,9.268695068359374,0.3618772625923157,0.11773994565010071,0.05140300467610359
1788957351719745300,9.278745361328125,0.32475197315216064,0.14369085431098938,0.07022888958454132
1788957351729796000,9.288796142578125,0.2701622545719147,0.15779443085193634,0.10264009237289429
1788957351739846100,9.29884619140625,0.22149324417114258,0.18966740369796753,0.09856785088777542
1788957351749896000,9.30889599609375,0.17034563422203064,0.23269343376159668,0.04741012677550316
1788957351759947000,9.318947021484375,0.16729098558425903,0.32820531725883484,-0.01594514399766922
1788957351769997000,9.3289970703125,0.1996028572320938,0.3714406490325928,-0.07809160649776459
1788957351780048100,9.339048095703125,0.19214573502540588,0.36582404375076294,-0.14051289856433868
1788957351790098200,9.34909814453125,0.2047901600599289,0.28214967250823975,-0.12323431670665741
1788957351800149200,9.359149169921874,0.24017265439033508,0.18609769642353058,-0.02865082025527954
1788957351810199000,9.369198974609375,0.2732357978820801,0.14328472316265106,0.021565746515989304
1788957351820249000,9.3792490234375,0.29650676250457764,0.14327673614025116,0.03617371618747711
1788957351830300200,9.389300048828124,0.2747005224227905,0.1606173813343048,0.07885540276765823
1788957351840350200,9.39935009765625,0.272716760635376,0.20750099420547485,0.11433243751525879
1788957351850401300,9.4094013671875,0.2576714754104614,0.2169935703277588,0.09677554666996002
1788957351860451300,9.419451416015624,0.25963956117630005,0.18602286279201508,0.12731428444385529
1788957351870501000,9.429501220703125,0.3056142330169678,0.13165922462940216,0.22026605904102325
1788957351880552000,9.439552001953125,0.33582621812820435,0.08675567060709,0.2643405795097351
1788957351890602000,9.44960205078125,0.3449232876300812,0.011225756257772446,0.2581769526004791
1788957351900653000,9.459653076171875,0.33753302693367004,-0.047263920307159424,0.2310428023338318
1788957351910703000,9.469703125,0.29883837699890137,-0.009473662823438644,0.11965742707252502
1788957351920754200,9.479754150390624,0.22695298492908478,0.03337739780545235,-0.08052227646112442
1788957351930804000,9.489803955078125,0.15872973203659058,0.04518851637840271,-0.2466004639863968
1788957351940854000,9.49985400390625,0.13258813321590424,0.002481533447280526,-0.336828351020813
1788957351950905000,9.509905029296876,0.09719099849462509,-0.03603017330169678,-0.3862832486629486
1788957351960955100,9.519955078125,0.0409354493021965,-0.07810625433921814,-0.36847496032714844
1788957351971006200,9.530006103515625,-0.016291355714201927,-0.11199045181274414,-0.2703057825565338
1788957351981056300,9.54005615234375,-0.046656716614961624,-0.15200310945510864,-0.22460834681987762
1788957351991106000,9.55010595703125,-0.1006922572851181,-0.16393354535102844,-0.2566123604774475
1788957352001157000,9.5601572265625,-0.18052849173545837,-0.15024782717227936,-0.30552634596824646
1788957352011207200,9.570207275390626,-0.24678342044353485,-0.18748201429843903,-0.29740026593208313
1788957352021258200,9.58025830078125,-0.30137157440185547,-0.20448443293571472,-0.29104381799697876
1788957352031308300,9.590308349609375,-0.341460645198822,-0.19276519119739532,-0.30770963430404663
1788957352041359000,9.600359130859376,-0.3551676869392395,-0.19230979681015015,-0.31479814648628235
1788957352051409000,9.610408935546875,-0.3532731235027313,-0.21561351418495178,-0.2746416926383972
1788957352061459000,9.620458984375,-0.3651904761791229,-0.2516607344150543,-0.1888604611158371
1788957352071510000,9.630510009765626,-0.37997183203697205,-0.2860024571418762,-0.0951978862285614
1788957352081560000,9.64056005859375,-0.37369316816329956,-0.2930489182472229,-0.04147607088088989
1788957352091611100,9.650611083984375,-0.3338325619697571,-0.31498509645462036,-0.057321880012750626
1788957352101661200,9.6606611328125,-0.22875088453292847,-0.3969566822052002,-0.1280897855758667
1788957352111711000,9.6707109375,-0.09778887778520584,-0.5159056782722473,-0.19388584792613983
1788957352121762000,9.680761962890625,0.02948652021586895,-0.5903418660163879,-0.2061619609594345
1788957352131812000,9.69081201171875,0.10845110565423965,-0.596831202507019,-0.18890467286109924
1788957352141863200,9.70086328125,0.1392444372177124,-0.5920758247375488,-0.19054624438285828
1788957352151913200,9.710913330078125,0.1439387947320938,-0.5761078000068665,-0.2212277203798294
1788957352161964300,9.72096435546875,0.1218220442533493,-0.5710152983665466,-0.2671036124229431
1788957352172014300,9.731014404296875,0.10355834662914276,-0.5764409303665161,-0.2873691916465759
1788957352182064400,9.741064453125,0.1053655743598938,-0.5429631471633911,-0.25708693265914917
1788957352192115200,9.751115234375,0.11019761115312576,-0.4695126414299011,-0.18169575929641724
1788957352202165200,9.761165283203125,0.09189397096633911,-0.3987463116645813,-0.1213301569223404
1788957352212216000,9.771216064453125,0.05309198051691055,-0.35647422075271606,-0.10184300690889359
1788957352222266000,9.78126611328125,0.004253867082297802,-0.33294281363487244,-0.12396162748336792
1788957352232316200,9.791316162109375,-0.08212842792272568,-0.30020377039909363,-0.19776500761508942
1788957352242367200,9.8013671875,-0.18508543074131012,-0.2443133294582367,-0.2820332944393158
1788957352252417000,9.8114169921875,-0.2523006796836853,-0.1958850771188736,-0.3263187110424042
1788957352262468000,9.821468017578125,-0.2563875615596771,-0.18257246911525726,-0.32219642400741577
1788957352272518100,9.83151806640625,-0.24297510087490082,-0.15304706990718842,-0.30606672167778015
1788957352282569200,9.8415693359375,-0.22744859755039215,-0.15862399339675903,-0.3020400106906891
1788957352292619300,9.851619384765625,-0.22180695831775665,-0.16865266859531403,-0.3015609085559845
1788957352302669300,9.86166943359375,-0.22030574083328247,-0.15278927981853485,-0.2837486267089844
1788957352312720400,9.871720458984376,-0.18168990314006805,-0.11120668053627014,-0.20674465596675873
1788957352322770200,9.881770263671875,-0.10538474470376968,-0.07626600563526154,-0.08602169901132584
1788957352332821200,9.8918212890625,-0.027946146205067635,-0.034392859786748886,0.02696530520915985
1788957352342871300,9.901871337890626,0.03199415281414986,-0.030591465532779694,0.1443300098180771
1788957352352921300,9.91192138671875,0.07316689193248749,-0.02425047755241394,0.20912285149097443
1788957352362972200,9.92197216796875,0.08824677020311356,-0.01296320278197527,0.21943329274654388
1788957352373022200,9.932022216796875,0.0662839487195015,-0.004596616141498089,0.1580359786748886
1788957352383073000,9.942072998046875,0.04013863205909729,-0.007393201347440481,0.1195511668920517
1788957352393123000,9.952123046875,0.06587062776088715,-0.010341853834688663,0.13323742151260376
1788957352403174100,9.962174072265626,0.08293642848730087,0.01962430216372013,0.1306125968694687
1788957352413224200,9.97222412109375,0.06578940153121948,0.06971090286970139,0.11586108803749084
1788957352423274200,9.982274169921874,0.018976621329784393,0.11195769160985947,0.1231222003698349
1788957352433325300,9.9923251953125,-0.012116051279008389,0.13402117788791656,0.12011256068944931
1788957352443375000,10.002375,-0.026751186698675156,0.11999911069869995,0.09196827560663223
1788957352453426200,10.01242626953125,-0.029742183163762093,0.09030698984861374,0.14277313649654388
1788957352463476200,10.022476318359375,-0.012466522864997387,0.10057400912046432,0.2800537645816803
1788957352473526300,10.0325263671875,0.023966852575540543,0.11109349876642227,0.40797337889671326
1788957352483577300,10.042577392578124,0.05131565034389496,0.07101371884346008,0.5383590459823608
1788957352493627400,10.05262744140625,0.07531179487705231,0.0033563817851245403,0.66446852684021
1788957352503678200,10.06267822265625,0.07945088297128677,-0.03849306330084801,0.6836512684822083
1788957352513728300,10.072728271484374,0.04297010228037834,-0.03922516852617264,0.6235685348510742
1788957352523779000,10.082779052734375,-0.020361464470624924,-0.02648140862584114,0.5883979797363281
1788957352533829000,10.0928291015625,-0.04298608377575874,-0.0028274781070649624,0.5908193588256836
1788957352543879200,10.102879150390624,-0.029412750154733658,-0.010366886854171753,0.5712030529975891
1788957352553930200,10.11293017578125,-0.0367170013487339,-0.04486920312047005,0.5172846913337708
1788957352563980000,10.12297998046875,-0.06923366338014603,-0.09306203573942184,0.4704149067401886
1788957352574031000,10.133031005859374,-0.0831923559308052,-0.13715173304080963,0.4618525803089142
1788957352584081200,10.1430810546875,-0.06575078517198563,-0.1930759847164154,0.446545273065567
1788957352594131200,10.153131103515625,-0.05681934207677841,-0.22259019315242767,0.42753881216049194
1788957352604182300,10.163182373046874,-0.04723089560866356,-0.23413074016571045,0.46010926365852356
1788957352614232300,10.173232421875,-0.031661257147789,-0.22885741293430328,0.4988388419151306
1788957352624283400,10.183283447265625,-0.037456296384334564,-0.22180749475955963,0.49045974016189575
1788957352634333200,10.193333251953124,-0.05555273965001106,-0.22640730440616608,0.5002255439758301
1788957352644383200,10.20338330078125,-0.04517147317528725,-0.22605577111244202,0.5179693698883057
1788957352654434300,10.213434326171875,-0.019482888281345367,-0.21958854794502258,0.4698931872844696
1788957352664484400,10.223484375,-0.00842677429318428,-0.18870866298675537,0.3978978395462036
1788957352674535200,10.23353515625,0.020432837307453156,-0.21498847007751465,0.3694981634616852
1788957352684585200,10.243585205078125,0.054915446788072586,-0.231663316488266,0.33749282360076904
1788957352694636000,10.253635986328124,0.03260747715830803,-0.20533743500709534,0.25599315762519836
1788957352704686000,10.26368603515625,-0.036973729729652405,-0.24616530537605286,0.1619769185781479
1788957352714736000,10.273736083984375,-0.15712863206863403,-0.3239727318286896,0.112373948097229
1788957352724787200,10.283787109375,-0.23649536073207855,-0.37959206104278564,0.10516396909952164
1788957352734837200,10.293837158203125,-0.2389441430568695,-0.42498645186424255,0.13570243120193481
1788957352744888300,10.303888427734375,-0.13541002571582794,-0.396413117647171,0.13780739903450012
1788957352754938000,10.313938232421876,-0.07420419156551361,-0.3941749930381775,0.1256500631570816
1788957352764988200,10.32398828125,-0.058341335505247116,-0.3631443679332733,0.09884801506996155
1788957352775039200,10.334039306640625,-0.09383940696716309,-0.2855622470378876,0.06438910961151123
1788957352785089300,10.34408935546875,-0.18054501712322235,-0.18166007101535797,0.059373047202825546
1788957352795140400,10.354140380859375,-0.22273720800876617,-0.05921032652258873,0.07813075184822083
1788957352805190100,10.364190185546875,-0.20420825481414795,0.02744067832827568,0.05828620865941048
1788957352815241200,10.3742412109375,-0.16469654440879822,0.0062704128213226795,-0.0041159153915941715
1788957352825291300,10.384291259765625,-0.1400575041770935,-0.060084108263254166,-0.0876411721110344
1788957352835341300,10.39434130859375,-0.12141671031713486,-0.12149500846862793,-0.17264235019683838
1788957352845392100,10.40439208984375,-0.11824408173561096,-0.16281048953533173,-0.21025842428207397
1788957352855442200,10.414442138671875,-0.1453489363193512,-0.12861444056034088,-0.20133177936077118
1788957352865493200,10.4244931640625,-0.15418876707553864,-0.1148562803864479,-0.20131421089172363
1788957352875543000,10.43454296875,-0.1171596422791481,-0.1524161696434021,-0.20463517308235168
1788957352885593000,10.444593017578125,-0.05637672170996666,-0.20448629558086395,-0.2211472988128662
1788957352895644200,10.45464404296875,-0.0006013417732901871,-0.2396826297044754,-0.22576335072517395
1788957352905694200,10.464694091796876,0.0375409834086895,-0.20666396617889404,-0.18682847917079926
1788957352915745300,10.474745361328125,0.09546633809804916,-0.14579901099205017,-0.13645105063915253
1788957352925795300,10.48479541015625,0.1325436681509018,-0.08875144273042679,-0.10058173537254333
1788957352935845000,10.49484521484375,0.16970407962799072,-0.07107870280742645,-0.046615973114967346
1788957352945896200,10.504896240234375,0.1916903406381607,-0.04267049953341484,0.0009198558400385082
1788957352955946200,10.5149462890625,0.15891587734222412,0.006097573786973953,-0.021584654226899147
1788957352965997300,10.524997314453126,0.05615568161010742,0.019303124397993088,-0.12166598439216614
1788957352976047400,10.53504736328125,-0.053640857338905334,-0.040525853633880615,-0.21346008777618408
1788957352986098200,10.54509814453125,-0.13176149129867554,-0.0810043066740036,-0.21629688143730164
1788957352996148200,10.555148193359376,-0.17045801877975464,-0.09226734936237335,-0.17883792519569397
1788957353006198300,10.5651982421875,-0.14946086704730988,-0.11321044713258743,-0.15583354234695435
1788957353016249000,10.5752490234375,-0.1143936887383461,-0.143179789185524,-0.14659583568572998
1788957353026299100,10.585299072265625,-0.09095706790685654,-0.15885701775550842,-0.1717592477798462
1788957353036350200,10.59535009765625,-0.07013700902462006,-0.10049491375684738,-0.2249833196401596
1788957353046400300,10.605400146484374,-0.05896265059709549,-0.04386971890926361,-0.25026124715805054
1788957353056450000,10.615449951171875,-0.000483363721286878,0.004245611373335123,-0.24473677575588226
1788957353066501000,10.625501220703125,0.042878489941358566,0.04914970323443413,-0.2264147698879242
1788957353076551200,10.63555126953125,0.04535762593150139,0.10493546724319458,-0.19233642518520355
1788957353086602200,10.645602294921876,0.05709817260503769,0.17761792242527008,-0.15118952095508575
1788957353096652300,10.65565234375,0.08018005639314651,0.23437175154685974,-0.1386241912841797
1788957353106702000,10.6657021484375,0.11256249994039536,0.23720882833003998,-0.16081790626049042
1788957353116753200,10.675753173828125,0.15825700759887695,0.2246381640434265,-0.12334350496530533
1788957353126803200,10.68580322265625,0.22711464762687683,0.1947106271982193,-0.04869430139660835
1788957353136854300,10.695854248046874,0.29389554262161255,0.1641862839460373,-0.057010289281606674
1788957353146904300,10.705904296875,0.278097927570343,0.15781386196613312,-0.14246100187301636
1788957353156955100,10.715955078125,0.22429674863815308,0.16466644406318665,-0.17762139439582825
1788957353167005200,10.726005126953124,0.1938174068927765,0.22904624044895172,-0.16160647571086884
1788957353177054700,10.7360546875,0.18778188526630402,0.28228920698165894,-0.1417827010154724
1788957353187105500,10.74610546875,0.2047765851020813,0.30067887902259827,-0.11253320425748825
1788957353197155800,10.75615576171875,0.26804476976394653,0.3640354871749878,-0.003357979701831937
1788957353207206700,10.76620654296875,0.34656965732574463,0.47678545117378235,0.09673985838890076
1788957353217256700,10.776256591796875,0.3885863721370697,0.5218509435653687,0.11090734601020813
1788957353227306500,10.786306396484376,0.41074252128601074,0.508754312992096,0.0961821898818016
1788957353237357600,10.796357666015625,0.3926154673099518,0.5329544544219971,0.059781573712825775
1788957353247407600,10.80640771484375,0.3591882586479187,0.5344586372375488,0.015215171501040459
1788957353257458700,10.816458740234374,0.312020480632782,0.5112028121948242,0.013037238270044327
1788957353267508700,10.8265087890625,0.26512807607650757,0.49020513892173767,0.08293749392032623
1788957353277558800,10.836558837890625,0.23995719850063324,0.48027580976486206,0.13524703681468964
1788957353287609900,10.84660986328125,0.2247345745563507,0.41465577483177185,0.12428227066993713
1788957353297659600,10.85665966796875,0.2217225432395935,0.3465731143951416,0.08139073103666306
1788957353307710700,10.866710693359375,0.2505384683609009,0.2930084466934204,0.032764606177806854
1788957353317760800,10.8767607421875,0.2926880717277527,0.2820010483264923,-0.04283561557531357
1788957353327811800,10.886811767578125,0.33641448616981506,0.2882421910762787,-0.16238971054553986
1788957353337862000,10.89686181640625,0.3900071680545807,0.1474110186100006,-0.2052769809961319
1788957353347911700,10.90691162109375,0.43199267983436584,-0.08806966990232468,-0.12941232323646545
1788957353357962500,10.91696240234375,0.4269276261329651,-0.19435909390449524,-0.06322877109050751
1788957353368012500,10.927012451171874,0.4068963825702667,-0.21624840795993805,-0.07948657125234604
1788957353378063600,10.937063720703126,0.3703213334083557,-0.22761878371238708,-0.11983931809663773
1788957353388113700,10.94711376953125,0.2983954846858978,-0.24891501665115356,-0.12595820426940918
1788957353398163700,10.957163818359374,0.16559961438179016,-0.24556289613246918,-0.15776513516902924
1788957353408214800,10.96721484375,0.02033722959458828,-0.1979983001947403,-0.2094096839427948
1788957353418264600,10.9772646484375,-0.014553909189999104,-0.15421301126480103,-0.1889059990644455
1788957353428315600,10.987315673828125,0.01962403580546379,-0.10189946740865707,-0.1508622169494629
1788957353438365700,10.99736572265625,0.06035708263516426,-0.037391047924757004,-0.1957806944847107
1788957353448415700,11.007415771484375,0.08522514998912811,-0.012692625634372234,-0.21789690852165222
1788957353458466800,11.017466796875,0.13008689880371094,0.00027377295191399753,-0.16300728917121887
1788957353468516600,11.0275166015625,0.17569459974765778,0.027117105200886726,-0.11505388468503952
1788957353478567700,11.037567626953125,0.18882104754447937,0.02093537524342537,-0.07424147427082062
1788957353488617700,11.04761767578125,0.18613259494304657,-0.01769031397998333,-0.005494900047779083
1788957353498667800,11.057667724609376,0.14994396269321442,-0.052326321601867676,0.05036437138915062
1788957353508718800,11.06771875,0.10439032316207886,-0.07394133508205414,0.05042881891131401
1788957353518769000,11.077768798828124,0.04927567020058632,-0.104659304022789,0.02027224749326706
1788957353528819700,11.08781982421875,0.020002203062176704,-0.1111116036772728,-0.0031409321818500757
1788957353538869500,11.097869384765625,0.019284481182694435,-0.100970558822155,-0.03520006686449051
1788957353548920600,11.107920654296874,0.002350239548832178,-0.13455328345298767,-0.07351203262805939
1788957353558970600,11.117970703125,-0.0064863949082791805,-0.16600628197193146,-0.13898584246635437
1788957353569020700,11.128020751953125,-0.01817474327981472,-0.17623095214366913,-0.20625010132789612
1788957353579071700,11.13807177734375,-0.03142796456813812,-0.1947804093360901,-0.23574860394001007
1788957353589121800,11.148121826171876,-0.05120699480175972,-0.18053728342056274,-0.23585887253284454
1788957353599172600,11.158172607421875,-0.06327910721302032,-0.12194135040044785,-0.2006492167711258
1788957353609222700,11.16822265625,-0.08138114213943481,-0.021158548071980476,-0.13426512479782104
1788957353619272700,11.178272705078125,-0.09164869040250778,0.08965665102005005,-0.06990718096494675
1788957353629323800,11.18832373046875,-0.09889861941337585,0.15492300689220428,-0.018580608069896698
1788957353639373800,11.198373779296874,-0.08263282477855682,0.20655210316181183,0.03424079343676567
1788957353649425000,11.2084248046875,-0.05722680315375328,0.3101711869239807,0.04187687486410141
1788957353659474700,11.218474609375,-0.07142437994480133,0.45257094502449036,0.017222663387656212
1788957353669524700,11.228524658203124,-0.08358650654554367,0.4880375862121582,0.028504345566034317
1788957353679575800,11.238575927734376,-0.08178035169839859,0.4659522473812103,0.07844927161931992
1788957353689625900,11.2486259765625,-0.07149841636419296,0.4708780348300934,0.03707120195031166
1788957353699676700,11.2586767578125,-0.05368160456418991,0.44553354382514954,-0.07170401513576508
1788957353709726700,11.268726806640625,-0.07680290192365646,0.33376625180244446,-0.11604617536067963
1788957353719776500,11.278776611328125,-0.08500943332910538,0.2352932095527649,-0.10281159728765488
1788957353729827600,11.28882763671875,-0.0629563257098198,0.14717960357666016,-0.11230497062206268
1788957353739877600,11.298877685546875,-0.01423273142427206,-0.017129717394709587,-0.16375458240509033
1788957353749928700,11.3089287109375,0.05203337222337723,-0.21046695113182068,-0.1786475032567978
1788957353759978800,11.318978759765624,0.10519832372665405,-0.2508772313594818,-0.12378106266260147
1788957353770029800,11.32902978515625,0.09762882441282272,-0.20073843002319336,-0.07815605401992798
1788957353780079600,11.33907958984375,0.06246950104832649,-0.14675535261631012,-0.05174042657017708
1788957353790129700,11.349129638671876,0.01774251088500023,-0.061763763427734375,-0.009637713432312012
1788957353800180700,11.3591806640625,-0.01293577253818512,0.07762981206178665,0.029707828536629677
1788957353810230800,11.369230712890625,-0.05859833210706711,0.165855273604393,0.06641470640897751
1788957353820281900,11.37928173828125,-0.07783780992031097,0.17957641184329987,0.11918897181749344
1788957353830332000,11.389331787109375,-0.06942541152238846,0.18474668264389038,0.1816403716802597
1788957353840381700,11.399381591796875,-0.07608278095722198,0.1741132140159607,0.22003303468227386
1788957353850432500,11.4094326171875,-0.1343889683485031,0.17253156006336212,0.198712557554245
1788957353860482800,11.41948291015625,-0.22447144985198975,0.20521892607212067,0.17024017870426178
1788957353870533600,11.42953369140625,-0.29107391834259033,0.23073121905326843,0.14550606906414032
1788957353880583700,11.439583740234376,-0.30011799931526184,0.2402227222919464,0.1306898295879364
1788957353890633700,11.4496337890625,-0.24906201660633087,0.19428744912147522,0.16478095948696136
1788957353900684500,11.4596845703125,-0.16909687221050262,0.15838856995105743,0.2224557101726532
1788957353910734600,11.469734619140626,-0.11440646648406982,0.13745959103107452,0.2444547563791275
1788957353920785700,11.47978564453125,-0.09566101431846619,0.09582053869962692,0.2445428967475891
1788957353930835700,11.489835693359375,-0.07094927132129669,0.04664313420653343,0.28636863827705383
1788957353940885800,11.4998857421875,-0.036743633449077606,0.019842147827148438,0.31311503052711487
1788957353950936800,11.509936767578125,-0.0224472526460886,0.008591890335083008,0.27081364393234253
1788957353960986600,11.519986572265625,-0.026096848770976067,-0.03832421824336052,0.23029258847236633
1788957353971037700,11.53003759765625,-0.022339660674333572,-0.049975547939538956,0.24480895698070526
1788957353981087700,11.540087646484375,-0.024211330339312553,-0.00046152580762282014,0.2632089853286743
1788957353991137800,11.5501376953125,-0.03809705004096031,0.0417461134493351,0.24972034990787506
1788957354001188900,11.56018896484375,-0.06960171461105347,0.05290183052420616,0.2581210136413574
1788957354011239000,11.570239013671875,-0.08543500304222107,0.06028357893228531,0.3334392309188843
1788957354021289500,11.58028955078125,-0.09924003481864929,0.055803343653678894,0.3590223491191864
1788957354031339500,11.590339599609376,-0.1426439732313156,0.036793433129787445,0.3055567145347595
1788957354041389800,11.600389892578125,-0.18225209414958954,0.02997041493654251,0.2905615270137787
1788957354051440600,11.610440673828125,-0.19072148203849792,0.02732856012880802,0.3153369128704071
1788957354061490700,11.62049072265625,-0.17983794212341309,0.005752161610871553,0.28240400552749634
1788957354071541800,11.630541748046875,-0.17394942045211792,-0.03537743166089058,0.17543040215969086
1788957354081591600,11.640591552734374,-0.1903369277715683,-0.052450425922870636,0.09501652419567108
1788957354091642600,11.650642578125,-0.19134119153022766,-0.006909038871526718,0.014450578019022942
1788957354101692700,11.660692626953125,-0.18516719341278076,0.03332227095961571,-0.09819820523262024
1788957354111742700,11.67074267578125,-0.20304818451404572,0.044205278158187866,-0.13199958205223083
1788957354121793800,11.680793701171876,-0.1919822245836258,0.05691467970609665,-0.042382609099149704
1788957354131843800,11.69084375,-0.1446562558412552,0.03928029537200928,0.0429096482694149
1788957354141895000,11.70089501953125,-0.10528407990932465,0.02443503588438034,0.05844626575708389
1788957354151944700,11.71094482421875,-0.11029428243637085,0.03056137077510357,0.057733070105314255
1788957354161994800,11.720994873046875,-0.11678387224674225,0.08088845759630203,0.0847734734416008
1788957354172045800,11.7310458984375,-0.0893850028514862,0.11923877894878387,0.11052517592906952
1788957354182096100,11.74109619140625,-0.04983413591980934,0.12389478087425232,0.14038001000881195
1788957354192147000,11.75114697265625,-0.024943167343735695,0.13090555369853973,0.18726682662963867
1788957354202197000,11.761197021484374,-0.023675234988331795,0.1812528818845749,0.21087601780891418
1788957354212246800,11.771246826171875,-0.03408180549740791,0.22976236045360565,0.18652833998203278
1788957354222297900,11.7812978515625,-0.06106921285390854,0.2600957751274109,0.1573060005903244
1788957354232348000,11.791347900390624,-0.07053329050540924,0.26669055223464966,0.1421174556016922
1788957354242399000,11.80139892578125,-0.048286039382219315,0.2655371427536011,0.11964970082044601
1788957354252449000,11.811448974609375,-0.018570221960544586,0.26716724038124084,0.1026076003909111
1788957354262499000,11.8214990234375,0.0011757856700569391,0.2727130055427551,0.09486472606658936
1788957354272550100,11.831550048828126,0.006819023750722408,0.2492990344762802,0.09569031000137329
1788957354282600000,11.841599853515625,0.029888922348618507,0.15826500952243805,0.08447067439556122
1788957354292651000,11.851651123046874,0.06368443369865417,0.03352227434515953,0.0486394427716732
1788957354302701000,11.861701171875,0.07021850347518921,-0.07104407995939255,0.012014051899313927
1788957354312752000,11.871752197265625,0.050391800701618195,-0.109891876578331,-0.01570173166692257
1788957354322802200,11.88180224609375,0.029228458181023598,-0.08666538447141647,-0.051955875009298325
1788957354332852000,11.89185205078125,0.01164280716329813,-0.07103662937879562,-0.07375917583703995
1788957354342902800,11.90190283203125,0.02196788229048252,-0.08375401794910431,-0.06155843660235405
1788957354352952800,11.911952880859374,0.04250431805849075,-0.10072421282529831,-0.05686355009675026
1788957354363004000,11.92200390625,0.025132782757282257,-0.06205831095576286,-0.0855705589056015
1788957354373054000,11.932053955078125,-0.028428178280591965,0.028244420886039734,-0.11973652243614197
1788957354383104000,11.94210400390625,-0.07177538424730301,0.09848902374505997,-0.10651446133852005
1788957354393155000,11.952155029296875,-0.06607834994792938,0.13076333701610565,-0.06289400905370712
1788957354403204900,11.962204833984375,-0.044491302222013474,0.14411616325378418,-0.018099108710885048
1788957354413256000,11.972255859375,-0.028331240639090538,0.15822772681713104,0.02798076719045639
1788957354423306000,11.982305908203125,-0.019993681460618973,0.15771692991256714,0.09383967518806458
1788957354433356000,11.99235595703125,-0.03267645463347435,0.14856763184070587,0.15552274882793427
1788957354443407000,12.002406982421874,-0.048644766211509705,0.15299168229103088,0.16303472220897675
1788957354453457000,12.012456787109375,-0.04878378286957741,0.13619858026504517,0.12546497583389282
1788957354463508000,12.022508056640625,-0.027996746823191643,0.09606821089982986,0.06313742697238922
1788957354473558000,12.03255810546875,-0.006695719435811043,0.07864820957183838,-0.0057444386184215546
1788957354483608000,12.042608154296875,0.0029555761720985174,0.04796299710869789,-0.03396196290850639
1788957354493659100,12.0526591796875,0.03562457114458084,0.020265590399503708,0.03212997317314148
1788957354503709200,12.062709228515626,0.0908966138958931,0.011482219211757183,0.1256287693977356
1788957354513760000,12.072760009765625,0.09838169813156128,0.02057451754808426,0.16268132627010345
1788957354523809800,12.082809814453125,0.0768556296825409,0.025374332442879677,0.17100849747657776
1788957354533860000,12.092860107421876,0.04289846494793892,0.04632116109132767,0.15508198738098145
1788957354543911000,12.102910888671875,-0.013246030546724796,0.09117837995290756,0.0724041610956192
1788957354553961000,12.1129609375,-0.06284793466329575,0.11494096368551254,-0.005330583080649376
1788957354564012000,12.123011962890626,-0.08393272012472153,0.12073361128568649,0.019666379317641258
1788957354574062000,12.13306201171875,-0.0765640139579773,0.16135214269161224,0.08378490805625916
1788957354584111900,12.14311181640625,-0.08471382409334183,0.18324385583400726,0.11160402745008469
1788957354594163000,12.153162841796876,-0.07476797699928284,0.09973938018083572,0.13914138078689575
1788957354604213000,12.163212890625,-0.028921663761138916,-0.0662732943892479,0.21555252373218536
1788957354614264000,12.17326416015625,0.027666514739394188,-0.2124347686767578,0.2612244188785553
1788957354624314000,12.183314208984376,0.08689867705106735,-0.342579185962677,0.273130863904953
1788957354634364000,12.193364013671875,0.16282114386558533,-0.4551667273044586,0.30854693055152893
1788957354644415000,12.2034150390625,0.2553074061870575,-0.530267596244812,0.3483894169330597
1788957354654465000,12.213465087890626,0.3271919786930084,-0.6181154251098633,0.3061404824256897
1788957354664516000,12.22351611328125,0.3309773802757263,-0.7265875935554504,0.18468569219112396
1788957354674566100,12.233566162109375,0.2825949490070343,-0.8130937218666077,0.06719901412725449
1788957354684616200,12.2436162109375,0.2223832756280899,-0.8471656441688538,-0.02225630357861519
1788957354694667000,12.2536669921875,0.1508539617061615,-0.814568042755127,-0.11285198479890823
1788957354704716800,12.263716796875,0.05808620527386665,-0.7758251428604126,-0.16130127012729645
1788957354714768000,12.273767822265626,0.03682459518313408,-0.7914195656776428,-0.15263187885284424
1788957354724818000,12.28381787109375,0.0534946508705616,-0.7818161845207214,-0.11669252812862396
1788957354734868000,12.293867919921874,0.014358965680003166,-0.7473844885826111,-0.08211085200309753
1788957354744919000,12.3039189453125,-0.04722237214446068,-0.7006793022155762,-0.06814683228731155
1788957354754968800,12.31396875,-0.08198541402816772,-0.6579885482788086,-0.027903003618121147
1788957354765020000,12.32402001953125,-0.07582099735736847,-0.5918811559677124,0.016454074531793594
1788957354775070000,12.334070068359376,-0.026448918506503105,-0.5695609450340271,0.028688102960586548
1788957354785121000,12.34412109375,0.06720326840877533,-0.5638889074325562,0.002886333968490362
1788957354795171000,12.354171142578124,0.16444674134254456,-0.5507838129997253,-0.03320642188191414
1788957354805221000,12.36422119140625,0.23323644697666168,-0.5201473236083984,-0.07011357694864273
1788957354815272200,12.374272216796875,0.2729545831680298,-0.47338753938674927,-0.07094820588827133
1788957354825322000,12.384322021484374,0.2937370836734772,-0.4413057565689087,-0.013331251218914986
