time,seconds_elapsed,z,y,x
1788799247990157000,0.071156982421875,-1.6832289810299872,0.7489934899628162,-0.17339973374977707
1788799248000127000,0.081126953125,-2.074417917615175,0.3291501213014126,-0.5272529191531241
1788799248010098200,0.09109814453125,-1.4734171868145465,0.27718641756922,-0.5330494766026735
1788799248020068000,0.101068115234375,-0.423209045702219,0.1004646997898817,-0.25680808479860423
1788799248030038000,0.1110380859375,0.5276525859951973,-0.28813714291155335,-0.002694792041927576
1788799248040008200,0.12100830078125,1.064808328872919,-0.6464063911914825,0.1213525895178318
1788799248049978400,0.130978271484375,1.5017179831475018,-0.6178507433146238,0.20648367270603774
1788799248059948300,0.1409482421875,2.0090549263447524,-0.41618075450062747,0.37060529050081964
1788799248069918200,0.150918212890625,2.438603111940622,0.2680979789674282,0.5523777157984674
1788799248079889200,0.16088916015625,1.478002176517248,0.6390314785093069,1.673160299219191
1788799248089859300,0.170859375,-0.6303454832285642,-1.0291770435214043,1.68812420572564
1788799248099829200,0.180829345703125,-1.1028268016219138,0.2538765613913536,0.17330694089978932
1788799248109799200,0.190799072265625,-1.3064894255578516,1.093628180643916,-0.8646664264090359
1788799248119769000,0.20076904296875,-2.188952059289813,0.9288269100219011,-0.19162907179296015
1788799248129739000,0.210739013671875,-2.4109201552450656,0.984885481852293,0.25805428546741604
1788799248139710200,0.220710205078125,-2.073357010385394,1.0023802220106124,0.5424905280344188
1788799248149680000,0.23068017578125,-1.5525830779880285,1.3648977753847837,1.1040348622374236
1788799248159650000,0.240650146484375,-1.289847502836585,2.133227249458432,1.830444472209364
1788799248169620000,0.250619873046875,-1.3445190042227506,1.1164975995779036,1.5835187528692185
1788799248179590000,0.26058984375,-0.7511749256551266,-0.3188765645682812,1.343231302499771
1788799248189560000,0.27056005859375,0.18627192867398262,-1.3402262754648924,1.0978659643441437
1788799248199531000,0.280531005859375,0.8075994081884622,-1.8122545893937347,0.27875761240869756
1788799248209501000,0.2905009765625,1.0318448014259338,-1.7470447428584097,-0.539956479512155
1788799248219471000,0.30047119140625,0.9260217894732952,-1.5781746153622864,-0.9132790661476552
1788799248229441000,0.31044091796875,0.49243046596646306,-1.3769441870093344,-0.9446119236528873
1788799248239411200,0.3204111328125,-0.06434826126992702,-1.1628080998539925,-0.6599892186030745
1788799248249381000,0.330381103515625,-0.4028098162740469,-0.8436182315528392,-0.42672984023950994
1788799248259351000,0.34035107421875,-0.46554771973788733,-0.48836686978936195,-0.19021737836413086
1788799248269322000,0.350322021484375,-0.37808746294975276,-0.17521686617434024,0.06699841045252979
1788799248279292200,0.360292236328125,-0.014250643670558928,0.07253682842254638,0.35739845679476856
1788799248289262000,0.370261962890625,0.36112229962348935,0.38779637153744695,0.8148390771184116
1788799248299232000,0.38023193359375,0.34508944871127606,0.5954407585859298,1.2694831985913215
1788799248309202000,0.390201904296875,0.35016017610430716,0.4038824139416218,1.59006189090237
1788799248319172000,0.400172119140625,0.4684516244858503,0.6082260058790445,1.3702408899784086
1788799248329143000,0.41014306640625,0.05910217730998993,0.7564350381404161,0.6982381391070783
1788799248339113000,0.420113037109375,-0.04563187036216259,0.548953148177266,0.03604903583955019
1788799248349083000,0.430082763671875,-0.046291795575618744,0.2313976030796766,-0.5622438242418691
1788799248359053000,0.440052978515625,-0.08006605488359927,-0.02276245142817497,-1.0208182343684136
1788799248369023000,0.45002294921875,0.1255003568470478,0.30904198377430436,-1.4582396375574171
1788799248378994000,0.459993896484375,0.43566403812766075,0.7417664613187313,-1.9079625961758195
1788799248388963800,0.4699638671875,0.3596557342022657,0.7329185534745455,-1.9021900041237472
1788799248398934000,0.47993408203125,0.3372667922616005,0.8508744862914085,-1.84688239679113
1788799248408904200,0.489904296875,0.36306583490669725,1.0607342113018035,-1.7437389793112874
1788799248419497000,0.5004970703125,0.25693536444008347,0.9783125332027673,-1.2409610145926475
1788799248429467000,0.510466796875,0.21297814929187298,0.5773527287095784,-1.153759701001644
1788799248439436800,0.520436767578125,0.10218728579878807,0.16987024444937704,-0.9804268950082361
1788799248449408000,0.530407958984375,-0.1621469567209482,-0.2343313184440136,-0.5178367099016905
1788799248459378000,0.5403779296875,0.17484627929627894,-0.6704039373725652,-0.5770275153432041
1788799248469347800,0.550347900390625,1.3539730612665415,-1.5063269382476805,-0.4760620994895696
1788799248479318000,0.560318115234375,2.781272640028596,-1.439245452621579,-0.23697003291714935
1788799248489288200,0.5702880859375,3.2759207820445297,0.34458734440803523,0.1174877673158422
1788799248499258000,0.580258056640625,2.764134458222985,1.2480226235419511,0.9389658075246959
1788799248509229000,0.59022900390625,1.5609990241557359,0.7440490192979574,2.53889742359966
1788799248519199200,0.60019921875,0.24214053089022636,-0.7149035888344049,4.0113998336568475
1788799248529169200,0.610169189453125,-0.4329799136102199,-1.574469915625453,3.920091669268906
1788799248539139000,0.62013916015625,-0.6539572449624538,-0.8919903405338525,2.3494129626199602
1788799248549109000,0.63010888671875,-0.49987669031918047,0.5103057298749685,0.10150825402606278
1788799248559079000,0.640078857421875,-0.5811199722886086,0.7261281626820564,-0.6962807214289903
1788799248569050000,0.650050048828125,-0.4687567449122667,0.17410627458393574,-0.1645189282829873
1788799248579020000,0.66002001953125,-0.15607961950600147,-0.07554010189175606,0.3079479414599016
1788799248588990000,0.669989990234375,0.1660287665903568,0.15027297905385492,0.6472491256259382
1788799248598959900,0.6799599609375,0.4677548743933439,0.26538170574605463,0.9791676156621426
1788799248608930000,0.689929931640625,0.4189326835572719,0.21022037501633167,1.113849569287151
1788799248618900000,0.69989990234375,-0.07202011107206344,0.31741350627839565,1.0449038241591304
1788799248628871000,0.709870849609375,-0.5563514417350292,0.49907063463330265,0.7992150262027978
1788799248638840800,0.7198408203125,-0.6803513308912515,0.3883089972347021,0.413239586482197
1788799248648811000,0.72981103515625,-0.49633565671145913,0.08997954613268375,0.09973970998357981
1788799248658781000,0.739781005859375,-0.4709451948672533,-0.059870239073038095,-0.09696577002452686
1788799248668751000,0.749751220703125,-0.6448211678266524,-0.248830968439579,-0.3956514689520001
1788799248678722000,0.75972216796875,-1.0129787729144095,-0.46960313260853287,-0.6748935038767755
1788799248688692000,0.76969189453125,-1.0910627140700817,-0.3458931663095951,-0.6093435021342709
1788799248698662100,0.779662109375,-1.108725796532631,-0.09800620072185992,-0.335572920890525
1788799248708632000,0.789632080078125,-1.222076865902543,0.19140812251865863,0.029259613161440937
1788799248718602000,0.79960205078125,-1.4515718502312898,0.49930736599862574,0.13329791538808494
1788799248728572200,0.809572265625,-1.3790326837211846,0.5209136331290006,-0.22103647766094653
1788799248738543000,0.819543212890625,-0.988113796249032,0.20398528001904487,-0.7016239821530879
1788799248748513000,0.829512939453125,-0.702040600129962,-0.11497896283268928,-1.1450751670256256
1788799248758483000,0.83948291015625,-0.4486006765902042,-0.282052270039916,-1.4724477572605013
1788799248768453000,0.849453125,0.03715045774281025,-0.41410453274846076,-1.608782957985252
1788799248778423000,0.859423095703125,0.4438362386673689,-0.5548217479497194,-1.4936509965479372
1788799248788394000,0.86939404296875,0.5795856023281812,-0.5375368511497974,-1.5177647164545953
1788799248798364000,0.879364013671875,0.4039852897942066,-0.5136591319561005,-1.503424202543497
1788799248808334000,0.889333984375,0.2244476378113031,-0.405543625152111,-1.4540392632581294
1788799248818304000,0.899303955078125,0.052878188228607174,-0.30500001490712164,-1.4854161060355602
1788799248828274000,0.90927392578125,0.09694178636074066,-0.21818448576331137,-1.1767167251538484
1788799248838243800,0.919243896484375,0.43003509232997894,-0.11327508152425289,-0.753181735432893
1788799248848215000,0.929215087890625,0.6934095499068498,-0.1597118385285139,-0.377571147458069
1788799248858185000,0.93918505859375,0.8432049745768309,-0.22658114270865917,-0.12038703242130577
1788799248868155000,0.94915478515625,0.7418705062150954,-0.2092635126829147,0.15124699345147236
1788799248878125000,0.959125,0.4503437208652496,-0.1520738909959793,0.25215613080691546
1788799248888095200,0.96909521484375,0.16473288156092167,-0.07906009271144866,0.1373447430934757
1788799248898065200,0.979065185546875,0.0551864651709795,-0.0492740262567997,0.005901479128748178
1788799248908036000,0.9890361328125,0.01056406411230564,-0.09184300191700458,-0.0477263766896911
1788799248918006000,0.999006103515625,0.03279635418653488,-0.14452654435634613,-0.11482253016196191
1788799248927976200,1.00897607421875,0.19086743977069853,-0.209399121761322,-0.19384477508105336
1788799248937946000,1.018946044921875,0.2843628850698471,-0.24550913054049014,-0.1974824739962816
1788799248947916000,1.028916015625,0.31117081249654294,-0.2932598927527666,-0.10797061844058334
1788799248957887000,1.038886962890625,0.31507717228531834,-0.33575989482998847,-0.10176112367543391
1788799248967857200,1.048857177734375,-0.042722704917192454,-0.47628480232954024,-0.2704940255247988
1788799248977827000,1.0588271484375,-0.3498474568933248,-0.47663259285390375,-0.36505452450588344
1788799248987797000,1.068796875,-0.42854689959883685,-0.4088075953841209,-0.3243162348715588
1788799248997767000,1.078766845703125,-0.4416039495706558,-0.3111877636313438,-0.13049266697531564
1788799249007736800,1.08873681640625,-0.32848493539094925,-0.1992816323727369,0.06058381243618205
1788799249017708000,1.0987080078125,-0.09588087913095951,-0.14618658652305602,-0.01380584077881649
1788799249027678000,1.108677978515625,0.2210375371068716,-0.16502981868088246,0.06549983332469128
1788799249037648000,1.11864794921875,0.606951163637638,-0.25337211900055406,0.167760303090699
1788799249047617800,1.12861767578125,0.7229653147369622,-0.3575046936482191,-0.07335896759354509
1788799249057588200,1.138588134765625,0.7807114012628793,-0.3613999475210905,-0.2140343072813004
1788799249067559000,1.148558837890625,0.817053465232253,-0.2780897961497307,-0.23249749061297623
1788799249077528800,1.15852880859375,0.7260685414493083,-0.2720002471029758,-0.2397254325725138
1788799249087499300,1.168499267578125,0.7510586057990789,-0.23576456611752508,-0.15542705561509354
1788799249097469200,1.17846923828125,0.6296978329747915,-0.13003390862345696,-0.12911440089205278
1788799249107439000,1.188439208984375,0.33632337393164635,0.033169863674044606,-0.09865103796403854
1788799249117409000,1.198408935546875,0.015418518406152725,0.1891442692399025,0.00877648657578975
1788799249127380200,1.208380126953125,-0.38643677362203593,0.34195758042633534,0.05293627509139478
1788799249137350100,1.21835009765625,-0.7271995913058519,0.45451603811383245,0.04099569846149534
1788799249147320000,1.228320068359375,-0.6149637897014617,0.5526157623380422,0.19533179876841603
1788799249157290000,1.2382900390625,-0.1900976244419813,0.5355746111661196,0.34929599702302366
1788799249167259000,1.2482587890625,0.14597148246765135,0.41847441839575766,0.3229628475012257
1788799249177228800,1.258228759765625,0.42415830925107,0.3589057926177978,0.24693101656977084
1788799249187199700,1.26819970703125,0.5414928952991962,0.41169396447539325,0.17984752164967358
1788799249197170000,1.278169921875,0.21347207028865814,0.5026841489553451,0.32977603464741256
1788799249207140000,1.28814013671875,0.1370680450439453,0.5355173280209302,0.46051922405138607
1788799249217110000,1.298110107421875,-0.005921791264414787,0.7729752540528774,0.20750728013273328
1788799249227080000,1.308079833984375,-0.2922983542442322,0.784145467364788,0.37573501807209103
1788799249237051100,1.318051025390625,-0.17451602442860603,0.7115490177094936,0.7519206294558942
1788799249247021000,1.32802099609375,0.045510289809107776,0.7449567817926407,0.9040793491911142
1788799249256991000,1.337990966796875,0.20325988835394382,0.5777659856855869,0.7936264854807407
1788799249266961000,1.3479609375,0.47921325699687,0.5682698430657387,0.4379205118175596
1788799249276930800,1.357930908203125,0.8320318386554717,0.44293841304481024,-0.10604123954689129
1788799249286901000,1.36790087890625,1.124331946465373,0.05625555570721626,-0.5327838114038109
1788799249296872000,1.377871826171875,1.1630758108794688,-0.17993804947733877,-0.6444487543176859
1788799249306841900,1.387841796875,1.036473045748472,0.011466565909981727,-0.3219085892079398
1788799249316811800,1.397811767578125,0.7526403220325708,0.34898470258414743,0.15710348266102372
1788799249326782000,1.407781982421875,0.3381844916284084,0.5528635996192693,0.3016374066062271
1788799249336751900,1.417751953125,-0.26874153756797314,0.5443547144711017,0.18309492433937266
1788799249346721800,1.4277216796875,-0.6797679780453443,0.5307219104379415,-0.0599546659534797
1788799249356692700,1.437692626953125,-0.6926748058915138,0.3989730145901441,-0.4322309218738228
1788799249366663000,1.447662841796875,-0.31529578347206116,0.07645429412722587,-0.876948619550839
1788799249376632800,1.4576328125,0.21833704597651957,-0.17247312042415142,-0.988096114461869
1788799249386602800,1.467602783203125,0.4058399777501821,-0.21742869895994663,-0.7893747463203966
1788799249396573000,1.477572998046875,0.2891279075145721,-0.02214987248778343,-0.6927009632460772
1788799249406544000,1.4875439453125,0.16398761615157126,-0.008497779232263565,-0.6866686242792754
1788799249416513800,1.497513671875,0.17128946359753608,-0.06459960568249225,-0.7209757483549416
1788799249426484000,1.50748388671875,0.05492693745195865,-0.052523967963457104,-0.7052895919885486
1788799249436454000,1.517453857421875,-0.011803835040330887,0.04949029935598373,-0.5807393389405683
1788799249446424000,1.527424072265625,0.11698679552376269,0.03694470603764057,-0.43932986715883016
1788799249456394000,1.53739404296875,0.46575171787738795,-0.131620885553956,-0.3185111653219908
1788799249466365000,1.547364990234375,0.8135819897294044,-0.451441452974081,-0.31995047741010785
1788799249476334800,1.5573349609375,0.8127940542221069,-0.8432897302508354,-0.3556811680154875
1788799249486305000,1.567304931640625,0.6126549282371997,-0.9297545462608336,-0.3938712710043415
1788799249496275000,1.57727490234375,0.2843132007092237,-0.7660708814918994,-0.37224030782412737
1788799249506244900,1.587244873046875,0.022349778974056243,-0.5535252783983946,-0.07042738482079003
1788799249516214800,1.59721484375,-0.31954759569764135,-0.33626959791779515,0.23712410923400892
1788799249526186000,1.60718603515625,-0.5881050088703632,-0.17476678431928155,0.15449571131542325
1788799249536156000,1.617156005859375,-0.7543447878628968,-0.24962708725333213,0.07794108035257086
1788799249546125800,1.627125732421875,-0.7115478486657142,-0.6583633709669113,0.08816586604053155
1788799249556095700,1.637095703125,-0.26915011836886404,-0.9138935447841883,0.10309152289582416
1788799249566065700,1.647065673828125,-0.13899229110479355,-0.8743722662568092,0.3206127041785046
1788799249576036900,1.657036865234375,-0.32540801216363907,-0.8852449579268693,0.6819041132912039
1788799249586006800,1.6670068359375,-0.6193173087358474,-0.7911158908993006,0.6352594856899231
1788799249595976700,1.676976806640625,-0.8933996228098868,-0.546769374397397,0.41507896727118637
1788799249605947100,1.686947021484375,-1.2484721208751202,-0.43648646042644973,0.4164008269920945
1788799249615917000,1.6969169921875,-1.6499831295102834,-0.3844657658100128,0.26213180057201535
1788799249625887000,1.706886962890625,-1.9837924747943878,-0.3502659745663404,-0.06227740067946724
1788799249635858000,1.71685791015625,-2.0475719962656496,-0.34968612885177136,-0.3798714602896944
1788799249645828000,1.726828125,-1.7131249375998974,-0.4119751195043325,-0.5304213200561702
1788799249655798000,1.736798095703125,-1.3006845386713743,-0.45802784562706944,-0.3997720560133457
1788799249665768000,1.746767822265625,-0.9659685999363661,-0.37964872091710566,-0.3310310396771878
1788799249675737900,1.75673779296875,-0.8466676822513342,-0.2644669289886951,-0.3897832345057279
1788799249685707800,1.766707763671875,-0.7943143946796655,-0.20366730011105535,-0.37799485276285555
1788799249695679000,1.776678955078125,-0.6479658955931663,-0.14912030188739298,-0.3394065077040344
1788799249705649000,1.78664892578125,-0.4029635455310345,-0.0564583848029375,-0.23511930875023826
1788799249715618800,1.796618896484375,-0.07172843464910984,-0.03261865953207016,-0.24051682041222228
1788799249725588700,1.806588623046875,0.4636369176805019,-0.040303368815779686,-0.20981460722703485
1788799249735559000,1.816558837890625,1.308255266186595,-0.0693862554371357,-0.12009917365694418
1788799249745528800,1.82652880859375,2.123822292253375,-0.2599380533874035,-0.05880144079774618
1788799249755499800,1.836499755859375,2.838037314301729,-0.45144320653975006,-0.05236147087812423
1788799249765469700,1.8464697265625,3.461874146288633,-0.18112112178206444,-0.42310763115435834
1788799249775440000,1.85643994140625,3.9268905356287953,-0.1522708748728037,-0.11661390709076076
1788799249785410000,1.86641015625,2.296864736998081,-0.2577075178563595,0.12534286473039538
1788799249795380000,1.8763798828125,2.2859446990549563,-0.2497977676451206,0.19680245584286749
1788799249805351000,1.886350830078125,3.7721155689805745,3.6415064908176658,1.5309904009915887
1788799249815321000,1.896321044921875,1.4110323345720768,-0.06053367141783237,0.5426817397575825
1788799249825291000,1.906291015625,0.4991062904685735,-0.5990887596994638,0.7263649671126157
1788799249835261000,1.916260986328125,1.3857435795366764,0.610284107452631,-0.11786043655313551
1788799249845230800,1.92623095703125,-0.003779518538713455,0.49387014338076113,-1.1971367781743407
1788799249855201000,1.936200927734375,-0.5902326685488224,1.829300416740775,-0.8606241652809083
1788799249865172000,1.946171875,-0.6542302166849374,1.8918226316273212,-0.7630161700963973
1788799249875142000,1.956141845703125,-0.5592582690924406,3.082081048464775,-1.5820076176539062
1788799249885111800,1.96611181640625,-0.0618090981811285,2.8174948770105837,-2.5867121909588575
1788799249895082000,1.97608203125,1.4576847801536321,1.764654049307108,-1.1810457673341035
1788799249905052000,1.986052001953125,3.692183954131603,1.5848007555037735,-0.21771628372967242
1788799249915021800,1.996021728515625,4.437720581638812,2.473212653028965,-1.2749011319868266
1788799249924992800,2.00599267578125,4.440974030476808,4.583450072044134,-2.4956249758452174
1788799249934963000,2.015962890625,3.648133215481043,6.10838000395298,-2.942779545280337
1788799249944932900,2.025932861328125,2.7597417762219902,3.835678232830763,-2.1728505270555614
1788799249954902800,2.03590283203125,2.217312476855516,0.4052431809008121,-0.21965514283776283
1788799249964873000,2.045873046875,1.0208610505968332,-1.4287912786245345,0.47879561610668897
1788799249974843100,2.055843017578125,-0.23007716813087462,-2.2343489518523216,0.31809359749704597
1788799249984813800,2.065813720703125,-1.1048878258049488,-1.8725000915199517,1.3045070195689796
1788799249994784000,2.075783935546875,-0.6890560308724641,-0.5055436300396919,2.824751131749153
1788799250004754000,2.08575390625,-0.3110527390748262,1.2624427785605192,2.953259145979583
1788799250014724000,2.09572412109375,-0.3650175534963608,2.160633727300167,2.2087442627355456
1788799250024694000,2.105694091796875,-0.3886526961058378,2.2987667712271214,1.3891922586858272
1788799250034665000,2.1156650390625,-0.4036807538896799,3.1378841842293737,0.9264975902915
1788799250044635000,2.125634765625,-0.17815116606056688,4.568441888004541,1.3650281237661839
1788799250054605000,2.13560498046875,-0.16835457918941973,4.701281501698493,1.114971120662987
1788799250064575000,2.145574951171875,-0.8676239610403775,3.315538506683707,-0.37629005813896654
1788799250074545000,2.155544921875,-0.7976666277170181,1.7735393665522337,-1.311115916314721
1788799250084514800,2.165514892578125,-0.21343232280015945,-0.22147826661169528,-0.8756313264071941
1788799250094486000,2.175486083984375,-0.12036007134914398,-1.4570523274689913,0.7449263866543769
1788799250104456000,2.1854560546875,1.0271534287393091,2.002541014406085,1.7833792080432176
1788799250114425900,2.19542578125,3.264194688415527,6.074205931672454,2.440029929873347
1788799250124395800,2.205395751953125,2.48948457339406,5.080943082097172,3.6691093680143356
1788799250134365700,2.21536572265625,1.7480407681584358,5.440701692152023,4.999014740473032
1788799250144336000,2.2253359375,1.1240917079687118,7.198561259013414,5.261129553377628
1788799250154306800,2.235306884765625,0.05976210252344608,7.819478404161334,3.468208025485277
1788799250164276700,2.24527685546875,-1.258628773230314,6.633793871110678,1.3958546391844748
1788799250174247700,2.25524755859375,-0.961602805942297,6.828536691009998,-0.22302724961936474
1788799250184217600,2.265217529296875,-0.9762731363296508,6.683892073231935,-1.821866467347741
1788799250194187500,2.2751875,-1.1454349402487278,5.491550420379638,-1.9985773714721202
1788799250204157700,2.28515771484375,-0.35357173811346293,4.473311242718994,-1.919934042868018
1788799250214128600,2.295128662109375,0.8335241230398416,3.661646192526817,-2.1887007148772475
1788799250224098600,2.3050986328125,1.7974661855846643,3.982459570376575,-1.8864152196258306
1788799250234068700,2.31506884765625,1.965282566244155,4.689084867948293,-1.5965782870590686
1788799250244038700,2.32503857421875,2.6593261762708424,8.215171666428446,0.3099514998346567
1788799250254008800,2.3350087890625,-0.9895042276941239,6.70374535921514,-2.3028449804514644
1788799250263978800,2.344978759765625,-2.1533517535984514,2.0892695959188043,-6.7698506932854645
1788799250273949700,2.35494970703125,-0.5452466948747634,-0.04972470176690258,-9.317748877203464
1788799250283919600,2.364919677734375,-0.4049830686599016,-1.529514775481075,-10.229621729815007
1788799250293889800,2.374889892578125,-0.9911568172067403,-3.1736110389098524,-9.69495371209979
1788799250303859700,2.384859619140625,-0.20525310799777507,-3.8682770186185835,-7.892100572779774
1788799250313829600,2.39482958984375,0.36020869190990923,-2.7006618107438087,-5.84434971281588
1788799250323799600,2.404799560546875,-0.4471417830187827,-1.939020436131954,-4.615683531650901
1788799250333770800,2.414770751953125,-2.9993221012353897,-2.0906424917072055,-4.500795169711113
1788799250343740700,2.42474072265625,-1.0810925241976976,-2.3732839598119257,-5.415106647646427
1788799250353710600,2.434710693359375,1.1325053160488605,-3.028741672465205,-5.996869009491801
1788799250363680500,2.444680419921875,3.5367169135659933,-5.17764872161448,-8.464988138774038
1788799250373650400,2.454650390625,6.132928754276037,-8.079777107554674,-10.580014545631409
1788799250383621600,2.46462158203125,5.562514884918928,-9.697407534992694,-11.673547449207305
1788799250393591600,2.474591552734375,8.914406561487912,-10.012540821379423,-10.613196684265136
1788799250403561500,2.4845615234375,8.926187015652657,-6.355941975370049,-6.2448570973664514
1788799250413531600,2.49453173828125,3.148482735133171,-1.0486584274522959,-2.2059061167001723
1788799250423501800,2.504501708984375,2.5618062977612017,-0.16089564148560165,0.2351233456045389
1788799250433471700,2.5144716796875,1.04984924467206,-0.5023451262593269,1.6772358780950307
1788799250443442700,2.524442626953125,0.37920273071527477,-0.8310486728370189,2.214547103795409
1788799250453412900,2.534412841796875,0.3924878172893077,-1.1405654345162213,2.8437814109116792
1788799250463382800,2.5443828125,0.29648586906194685,-1.548350262723863,3.3840006330132484
1788799250473352700,2.554352783203125,0.02546177351474762,-1.5093718589015304,3.2420582599312064
1788799250483322600,2.564322509765625,-0.28091771305203433,-1.5626606737576425,2.5626030010968446
1788799250493292500,2.57429248046875,-0.04567673241719603,-1.2337180577270686,1.4400895022302864
1788799250503263700,2.584263671875,-1.253899698881805,0.0934086437985301,1.1355296323060988
1788799250513233700,2.594233642578125,-1.397120713597536,1.741275804068148,1.5876789412885903
1788799250523203600,2.60420361328125,-1.0067691046193241,1.9448510419815777,0.6005389585077763
1788799250533173500,2.614173583984375,-0.38009354207515716,1.6779719372846185,-0.548155275797844
1788799250543143700,2.624143798828125,0.03482143027335405,1.2663457773484288,-1.5264578721284865
1788799250553113600,2.634113525390625,-0.16344254948943854,0.7194844868838787,-2.8289205263882873
1788799250563084500,2.64408447265625,-1.0875915308281778,0.4718514960572123,-4.238455900400877
1788799250573054500,2.654054443359375,-2.837713489174843,0.8787395215556025,-4.748422607579827
1788799250583024600,2.664024658203125,-3.5508760795608163,0.7621428943932056,-4.141732140704989
1788799250592994800,2.673994873046875,-5.3205146392822265,0.2778726462677121,-3.1585692448616025
1788799250602964700,2.68396484375,2.3002723534844813,-0.027362054178118704,0.23459844494760035
1788799250612935400,2.693935302734375,3.847552210497856,0.0568289716809988,0.7082049679785967
1788799250622905900,2.70390576171875,3.5140859795629975,-0.021723463769257066,0.8570330089211463
1788799250632875800,2.713875732421875,2.686180865448713,-0.19712299303412437,1.9575690692573784
1788799250642845700,2.723845703125,1.9039198966562747,-0.535063592904061,1.579150766918063
1788799250652815600,2.733815673828125,1.3463329217769204,-0.8766282284900545,0.8214034771353006
1788799250662785800,2.743785888671875,0.9791453307650982,-1.0213713382065295,0.9843009599626064
1788799250672756700,2.7537568359375,0.33036461165770886,-1.1236984708674251,1.5533470480978488
1788799250682726700,2.7637265625,0.0031904666043817997,-0.9223767109692096,2.0927742430388925
1788799250692696600,2.773696533203125,-0.13911021839603782,-0.5921168748602271,1.742911588576436
1788799250702666800,2.783666748046875,-0.07604045262932776,-1.0969377435833214,1.3762491904824972
1788799250712636700,2.79363671875,0.08198489411696791,-2.0286457619994875,1.5788427238821983
1788799250722606600,2.803606689453125,-0.45640886612311005,-2.1226181771606205,1.0077788661837577
1788799250732577500,2.81357763671875,0.6003763152919709,-1.2409028546646237,1.4064298092126846
1788799250742547700,2.823547607421875,-0.4181844955384731,-0.763238580675423,1.8126877201139926
1788799250752517600,2.833517578125,-0.8411911505363882,-0.7657087701812386,2.17373929258883
1788799250762487600,2.843487548828125,-0.5607179663814604,-0.6114192489624023,1.8756150086700916
1788799250772457500,2.85345751953125,-0.30540932636037466,-0.8351286356270313,1.2748720520228147
1788799250782428700,2.8634287109375,0.7078922487676144,-1.6233526044771074,-0.2130114670395851
1788799250792398600,2.873398681640625,1.2706151252306996,-1.9971178203135727,-2.2005489735811947
1788799250802368800,2.88336865234375,0.9281834975518286,-2.5917358643397685,-3.822952606770396
1788799250812338700,2.893338623046875,1.12117158273831,-3.3127290022209284,-3.477948498255014
1788799250822308600,2.90330859375,0.8478760351277888,-2.8546710537165403,-2.1857278365463015
1788799250832278800,2.91327880859375,1.0475791077829897,-2.4224343596890567,-1.1189572676897048
1788799250842249700,2.923249755859375,1.1021559166230261,-3.123208300884068,-0.40150808602571486
1788799250852219600,2.9332197265625,-0.48639454680308697,-1.9397320915326475,-0.31405776610970493
1788799250862189800,2.94318994140625,-0.09096578069105744,0.0072486559540033335,0.08972761719822883
1788799250872159700,2.95315966796875,0.5041409236349165,-1.0114578469574451,1.5944599797308443
1788799250882129700,2.963129638671875,-0.6463432628273964,-1.8450705250635742,2.862470329290628
1788799250892099600,2.973099609375,0.53472500859946,-0.3369657634884119,1.9464310046494007
1788799250902070800,2.98307080078125,0.4203451807036996,1.0698340480804442,0.47692836093008517
1788799250912040700,2.993040771484375,-0.3962092489652335,2.714760186462104,0.30624153940081594
1788799250922010600,3.0030107421875,-1.3062579548895359,1.8409180815592407,0.6999602867245673
1788799250931980500,3.01298046875,-1.1430337243258952,1.8246981836423277,0.4784340893179178
1788799250941950500,3.022950439453125,-0.5417872020706535,2.6023934519544243,0.07508183673024177
1788799250951920600,3.032920654296875,-0.4311351625263691,4.336251380981505,-1.6313871501117945
1788799250961891600,3.0428916015625,-1.3905536101669072,5.4392029780268665,-2.5451667131274935
1788799250971861500,3.052861572265625,0.6181698922663926,5.90941927409768,-1.9554706356734037
1788799250981831400,3.06283154296875,0.046260231393575664,2.7533982524141667,0.4523714273005724
1788799250991801900,3.0728017578125,2.1008014821499583,1.3797411242514848,0.20720248849987982
1788799251001771800,3.082771728515625,2.1979773695275187,1.150675178989768,-0.20314006136655807
1788799251011742500,3.092742431640625,0.7761652822658419,-0.3527022618025541,0.0111801501840353
1788799251021712600,3.102712646484375,1.0086351907521485,-0.4587251802414655,-1.3846376641213893
1788799251031682800,3.112682861328125,1.582142349949479,1.2023521747350692,-3.147054163634777
1788799251041652700,3.12265283203125,-0.3987789533227682,2.1475743392407893,-3.1184044077336788
1788799251051622700,3.13262255859375,-1.6142650426581502,1.8563801468461751,-2.062698253726959
1788799251061592600,3.142592529296875,-1.115581069254875,0.621319296208024,-3.9774773980498312
1788799251071563800,3.152563720703125,1.714945723286271,-3.7773914635568855,-7.678656559541821
1788799251081533700,3.16253369140625,-0.9114905752956867,-6.889971110659837,-8.505629361242056
1788799251091503600,3.172503662109375,-0.7075947271257639,-5.0336704587906596,-2.8301714032322165
1788799251101473500,3.1824736328125,-1.1181634869635104,-2.0009534529536963,-2.378627074405551
1788799251111443700,3.192443603515625,-2.71929052336812,-1.8803209944039583,-3.973632120798528
1788799251121413600,3.20241357421875,-2.889698527956009,-2.2866262515783307,-5.4150294907569885
1788799251131384600,3.212384521484375,-2.5214690266758204,-0.5425789369702338,-4.147908783513308
1788799251141354500,3.2223544921875,-2.4818162307232616,1.7153402755618095,-1.0079249966561794
1788799251151324700,3.23232470703125,-0.03530161500573158,1.1447744305133818,0.09666472298502922
1788799251161294600,3.242294677734375,3.37122181546092,0.9745815299808979,1.4972902298331259
1788799251171264500,3.252264404296875,4.462528275159001,4.127401417535543,5.4589703392922875
1788799251181234400,3.262234375,2.4685996062755584,3.50384340249002,4.245190761613846
1788799251191205400,3.272205322265625,1.8700702340245245,2.0045541077941653,1.5225199481576681
1788799251201175300,3.28217529296875,1.5078466951608658,0.8745938000530004,-0.6024152737736702
1788799251211145500,3.2921455078125,1.4276537990272045,-0.03094634240567684,-1.4590624982476235
1788799251221115400,3.302115478515625,1.5290972807213663,0.6315870077222585,-0.802545631930232
1788799251231085300,3.312085205078125,1.284537998251617,2.198799207304418,0.18669804513156413
1788799251241055200,3.32205517578125,-0.6245549171283841,3.3186151376500725,0.3126350398302078
1788799251251026400,3.3320263671875,-1.9088474161863327,1.5298282253444193,-0.036247371423244475
1788799251260996400,3.341996337890625,-1.236232524766028,0.37660628448128697,0.144640526124835
1788799251270966300,3.35196630859375,0.44595454599559303,0.00324555779248476,0.747257459950447
1788799251280936200,3.361936279296875,1.0984881878957151,-0.4467217309758067,1.4413859717816113
1788799251290906400,3.37190625,1.1220821217119694,-0.6830965379461645,1.8437398609817026
1788799251300876300,3.381876220703125,0.5397504355460405,-1.9841803050681948,1.1057336289793251
1788799251310847200,3.39184716796875,0.8658847161576151,-2.8439748876571653,0.8174959483027457
1788799251320817200,3.401817138671875,0.8277923013895749,-3.5435789082899687,0.6918026992321014
1788799251330787300,3.411787353515625,-0.07173661795556545,-3.2399981125310062,1.5128022717416285
1788799251340757200,3.42175732421875,-1.0757757130891084,-0.7454267373919486,1.5529554184317589
1788799251350727400,3.4317275390625,-0.038031916752457616,1.2397601143702863,-0.42619945968985556
1788799251360697300,3.441697265625,-1.8335054672151803,0.9348512848779559,-1.834313860988617
1788799251370668300,3.451668212890625,-2.7094275932624936,-2.18371649672389,-1.3909890789747237
1788799251380638500,3.461638427734375,0.49038639291822905,-2.2881766958907246,0.8268032903522252
1788799251390608400,3.4716083984375,2.0829621663376687,-1.531003991125524,2.4680337890863417
1788799251400578300,3.481578369140625,1.268524728822708,0.8689578399926423,1.0943266843020916
1788799251410548200,3.49154833984375,0.5728662309452891,5.146943786749244,-1.1678092691421509
1788799251420518400,3.501518310546875,-1.077268581995368,6.223781576111913,-5.745215384846925
1788799251430489300,3.5114892578125,-1.3738602495193482,5.13921056214869,-7.125045940947532
1788799251440459300,3.521459228515625,-0.5366501314431429,5.66312805326879,-4.64513291349709
1788799251450429400,3.531429443359375,0.23967910921275615,6.073637191873789,-3.465682890921831
1788799251460399400,3.5413994140625,-0.4083341326534748,5.322229626506567,-2.0566659878253937
1788799251470369300,3.551369384765625,0.2676005508393049,3.7769524876177307,-1.2498311342686415
1788799251480339200,3.561339111328125,1.1853364502653478,3.0311329515159127,-0.11348024870753287
1788799251490310400,3.571310302734375,0.7408797416120767,2.4561387686312197,0.7620254054933786
1788799251500280300,3.5812802734375,-0.5948527295649051,1.9333876909419894,-0.03023264117836952
1788799251510250200,3.591250244140625,-0.32272739477753637,1.0960147835195064,0.14889643000364303
1788799251520220200,3.60122021484375,-0.4935755443483591,0.341686800660938,0.8211942182987928
1788799251530190300,3.6111904296875,-0.7489575418666005,0.02725684023797512,1.4687801746636628
1788799251540161300,3.621161376953125,-0.4525783480495214,0.3871021056629717,1.429436006268859
1788799251550131200,3.631131103515625,-0.5283259552121162,0.5628507406264543,1.9174960020661354
1788799251560101400,3.641101318359375,-1.1415788493424652,-0.9918617506057024,3.777268129438162
1788799251570071300,3.6510712890625,-0.5953773379608989,-0.2803004579365253,4.20467345778644
1788799251580041500,3.66104150390625,0.021585516603291034,-2.056792975205928,2.727314255347848
1788799251590011400,3.671011474609375,-0.40829117029458284,-1.373731946964562,3.6003035428136587
1788799251599981300,3.680981201171875,-0.35681174294799567,-0.45612888013795017,3.5398347533255814
1788799251609952300,3.6909521484375,-1.1492922001987695,0.4072339163266122,1.7371680764883755
1788799251619922400,3.70092236328125,-1.6142907616212963,0.3719558283269405,1.1834165881186722
1788799251629892400,3.710892333984375,-1.033074927742779,0.7975758806936443,1.8296780178815126
1788799251639862300,3.7208623046875,-0.8939479043424129,1.0047754465840757,1.366467216658592
1788799251649832200,3.730832275390625,-1.5128373430550097,-0.19846023298725485,0.6302654037296772
1788799251659802400,3.74080224609375,-1.1837521036833525,-0.7857699998266995,0.6915127763748169
1788799251669773300,3.750773193359375,-0.17907529516816137,-0.9167182468160986,2.5981688199967143
1788799251679743200,3.7607431640625,-0.46629795358330006,-0.9560223754614591,4.185801584056019
1788799251689713200,3.770713134765625,-1.263103288295865,-0.7858147157512605,4.260069181793928
1788799251699683300,3.780683349609375,-0.9652978610679507,-0.0416685196891427,3.0190649125814435
1788799251709653500,3.790653564453125,-0.9344438731208443,-0.16319558899104594,1.8625117814689873
1788799251719624200,3.800624267578125,-0.8830334193572401,0.20301994211822746,0.5622101046353578
1788799251729594000,3.810593994140625,-0.5253948701962828,-0.18169453775584696,-0.8516974931120872
1788799251739564500,3.820564453125,-0.3528682660192251,-0.8652703836515545,-1.538780762606859
1788799251749534500,3.830534423828125,-0.1435892635062337,-0.8985477993533014,-1.9046452883213758
1788799251759504400,3.84050439453125,-0.02779313907176256,-0.9675935707896948,-2.4537293694019318
1788799251769474300,3.850474365234375,-0.5545063983902335,-1.042027172744274,-2.3046622590065002
1788799251779445500,3.860445556640625,-0.985155823226273,-1.8266013869151472,-1.1885919449299573
1788799251789415400,3.87041552734375,0.05238134462237358,-1.6225611618384719,-0.48853988826870914
1788799251799385300,3.88038525390625,-0.1816495295703411,-1.9308081958428025,0.17916472701728342
1788799251809355300,3.890355224609375,-1.574762468831241,-1.7465598819509147,0.24624036742448804
1788799251819325200,3.9003251953125,-1.7564777571141719,-1.0120350623235106,1.3013058854401112
1788799251829295400,3.91029541015625,-0.9229510037258267,-0.3755155666351318,2.7580799804896117
1788799251839266300,3.920266357421875,-1.4994690351769326,-0.31454554962664844,3.162208478146791
1788799251849236200,3.930236328125,-1.645411729941517,-0.8364332884848117,3.4333956553012133
1788799251859206400,3.940206298828125,-0.08857932394593954,-0.2785325714811683,4.521961876380443
1788799251869176300,3.95017626953125,0.5810178270883858,0.5002770878136158,3.895253288349509
1788799251879146200,3.960146240234375,-1.2382291054107248,-0.610030424952507,2.583358204355836
1788799251889116200,3.9701162109375,2.9686349942877888,0.9220993553325534,2.3626544292479754
1788799251899087400,3.98008740234375,-0.5918716679275036,0.7577206940367818,-0.43000878884494304
1788799251909057300,3.990057373046875,-1.674640893165767,-3.0531928076326844,-1.567020768663287
1788799251919027500,4.00002734375,0.6850549785375595,1.2156845345169305,1.5651397772222757
1788799251928997400,4.009997314453125,3.8815152703762053,0.385455653630197,2.3610370571792125
1788799251938967300,4.01996728515625,2.0257403959468006,-2.621864752882719,0.9894307240664958
1788799251948937500,4.0299375,1.837783436795324,-0.35547844851762056,0.3199731276333332
1788799251958908400,4.039908447265625,2.511961778140068,0.4538502676814794,0.06877367649674415
1788799251968878300,4.04987841796875,2.19025831958279,-0.8133119406163692,0.5008914203196764
1788799251978848300,4.05984814453125,1.3727297841846942,-0.6201140120714903,-0.05591477944552898
1788799251988818400,4.069818359375,0.36926571246013046,0.47843233575224875,-1.2537918545931577
1788799251998788400,4.079788330078125,-0.09189633953943849,0.9968132355332374,-0.9590180501461029
1788799252008758300,4.08975830078125,1.4948095189332962,1.8302210387170315,0.39614042151272294
1788799252018729200,4.099729248046875,-4.273374069046974,4.369221630430221,-0.12620704381167888
1788799252028699400,4.109699462890625,-6.036279228860139,4.105667724633217,3.866221255132556
1788799252038669300,4.11966943359375,-2.996400660830736,4.067318412494659,0.11663199073672294
1788799252048639200,4.12963916015625,3.753416129207611,4.88972785180211,-9.753834940135478
1788799252058609200,4.139609130859375,3.013558716380596,5.264326303592324,-9.676155488127469
1788799252068579300,4.149579345703125,-2.4406875169992444,3.631975861406326,0.9824240601748228
1788799252078550300,4.15955029296875,-0.6392120227079838,1.1104250016659498,-1.3150111701875924
1788799252088520200,4.169520263671875,0.16302556618638336,0.8212509169220924,-2.390053892827034
1788799252098490000,4.179489990234375,0.3230618143636733,0.8349111934840678,-0.5180804555296897
1788799252108460500,4.18946044921875,1.1864637007296084,1.190390518784523,0.295170694810152
1788799252118430500,4.199430419921875,3.197844439673424,1.720161996629834,0.6405459747254848
1788799252128400400,4.209400390625,5.287417840844393,2.919485763454437,-0.5643745891928672
1788799252138371300,4.219371337890625,4.368155462503433,1.5038228464722632,-2.8393513195097446
1788799252148341500,4.229341552734375,1.4053016819655895,-0.6797405055165291,-2.2349083393007514
1788799252158311400,4.2393115234375,0.339668008184433,-0.8949076892852783,-0.06337152519226073
1788799252168281300,4.24928125,0.22908110629823059,-0.02504734749495983,0.7559399480998515
1788799252178252000,4.259251953125,1.6105132889091966,1.999562290856242,-2.2502882792621848
1788799252188223200,4.26922314453125,1.7507646401643753,2.705729615527391,-3.627708851611614
1788799252198193200,4.279193115234375,-0.2024280406396836,1.1152911463975905,-1.3999234960585831
1788799252208163000,4.2891630859375,-1.140372980684042,2.0982745940208436,-1.8865590120106934
1788799252218133000,4.299133056640625,-1.3243617668569088,2.532183897435665,-4.515069194257259
1788799252228103000,4.30910302734375,-1.511093129736185,1.3277005558907984,-7.176295066669583
1788799252238073000,4.319072998046875,-1.2908686625778674,0.5836398461550474,-8.060097424572707
1788799252248044000,4.3290439453125,-1.8085095576465129,0.7481500248759985,-6.544281357967853
1788799252258014000,4.339013916015625,-1.225596272200346,-0.18069149819314478,-3.5591152078568933
1788799252267984000,4.34898388671875,-0.22787584042800588,-1.577002648973465,-1.8562100509762762
1788799252277954000,4.3589541015625,0.8623661866426467,-2.42340671185255,0.16169570582211015
1788799252287924000,4.368924072265625,-4.335644939520955,-0.9141396284997463,1.0666647703945635
1788799252297894000,4.378893798828125,-0.6392185255140066,-3.5026422100067136,1.9389386030673978
1788799252307865000,4.388864990234375,0.666183689329028,-4.070369616758823,2.174831764000654
1788799252317835000,4.3988349609375,2.362600068712234,-3.7998458719491954,1.6808564066797493
1788799252327805000,4.408804931640625,4.668869178393483,-3.074094725885987,0.9228782307505607
1788799252337775000,4.418775146484375,6.174677645725011,-1.4469418523430824,-0.030196400821208953
1788799252347745000,4.4287451171875,6.587131488656997,0.7334820325762033,-1.4388660979151724
1788799252357715200,4.438715087890625,5.69878739567101,2.8998148483008146,-2.5566169124245643
1788799252367686100,4.44868603515625,2.4235312150150534,4.600152785041928,-2.2742525076955555
1788799252377656000,4.458656005859375,-5.435242257702351,3.854413328438997,-1.2086252636551855
1788799252387626000,4.4686259765625,-8.358796878030896,3.3587831896483897,-1.5547557458519934
1788799252397596200,4.47859619140625,-4.986823951941728,0.3765536775112152,-0.7889695265203714
1788799252407566000,4.488566162109375,-4.7389580291420215,-2.83889305434823,0.009469839134812355
1788799252417536000,4.498535888671875,-4.062632300505042,-2.6127579018414018,-0.6743079590737819
1788799252427507000,4.5085068359375,-1.5625244801573455,-1.4454302787363529,-1.9791098699361085
1788799252437477000,4.51847705078125,1.9150715513981877,1.0375614255070686,-2.4483435847103596
1788799252447447000,4.528447021484375,4.5535254739016295,2.871032990452647,-2.637027250701189
1788799252457417000,4.5384169921875,4.8567356827825305,2.8982442379832265,-3.100158556947112
1788799252467387000,4.548386962890625,5.222484473162889,1.5866402458906173,-2.6553964356064794
1788799252477358000,4.558358154296875,3.278954450652003,0.6697714846879244,-2.4545126287341117
1788799252487328000,4.568327880859375,1.9789199003219604,1.786504062065482,-2.2440344795644283
1788799252497298000,4.5782978515625,0.9458855968505143,2.3875217440009115,-1.6724930674821137
1788799252507267800,4.588267822265625,-0.1123117894500494,2.6347511224627493,-1.280966277244687
1788799252517238000,4.598238037109375,-1.8456569466494022,2.042589531677961,-0.8659288475602864
1788799252527208200,4.608208251953125,-1.1849345914661884,2.244713694000244,-1.4706681803673505
1788799252537179000,4.618178955078125,-0.8338169685065746,2.3232184909164904,-0.9017115240812301
1788799252547149000,4.628149169921875,-0.9019377340525389,2.4607804569572207,-0.6897019275605678
1788799252557119200,4.638119140625,-0.6201023216336965,1.6181699411422013,-0.15087269851267338
1788799252567089200,4.648089111328125,0.05160349211767316,1.5395429791510105,0.20373218204081056
1788799252577059000,4.65805908203125,0.163102723075822,1.3658873709440231,0.6640811640918255
1788799252587029000,4.668029052734375,-0.6445762531548738,1.1718623439252376,1.101804472836852
1788799252597000200,4.678000244140625,-1.7531880679190157,0.974196914577484,1.6141390781909226
1788799252606970000,4.68797021484375,-1.4768658659636973,1.2019213821023702,2.2843331722050904
1788799252616940000,4.69793994140625,-0.15456863042116165,1.3632979389727116,3.0397207471191883
1788799252626910000,4.707909912109375,-0.32935521541945634,1.3489496801465748,3.254834739395976
1788799252636880000,4.7178798828125,0.615793226262927,1.8466367514669895,2.848832264560461
1788799252646850000,4.72785009765625,0.21232585939560084,1.268369830521941,3.849394623494148
1788799252656821000,4.737821044921875,-0.4123158957660198,0.708928021556139,3.9218461117208
1788799252666791000,4.747791015625,-0.08581245304848999,-0.4063678010165691,4.32811863566935
1788799252676761000,4.757760986328125,0.0344909196773544,-1.5411471994772552,4.493976137346029
1788799252686731000,4.76773095703125,-0.2952291104665026,-1.4968784341618417,4.625387764063477
1788799252696701000,4.777700927734375,-0.9008569530785083,-1.3494243119210003,5.286121371293068
1788799252706671900,4.787671875,-1.6887544664531946,-1.320860772998631,5.513489280465245
1788799252716642000,4.79764208984375,-0.28046470858752726,-0.8392968612223863,2.7852620019257066
1788799252726612000,4.807612060546875,-0.6489589982837438,-0.7745987636014818,2.6415117026388644
1788799252736582100,4.81758203125,-1.3007272087693214,-0.4826379707485437,2.154723041951656
1788799252746552000,4.827552001953125,-0.5154921926021576,-0.4112175791352987,1.8670161071509122
1788799252756522000,4.83752197265625,-0.05516834499239921,-0.6673992025986314,1.8559809183955192
1788799252766493200,4.8474931640625,0.0639308761080727,-0.835224204955995,2.128956732532382
1788799252776463000,4.857463134765625,0.03377948347236961,-0.9354764310389757,2.631582429298758
1788799252786433000,4.86743310546875,0.13759700082149356,-1.0655395657569169,2.9188433738976713
1788799252796403000,4.87740283203125,0.1417734462559223,-1.0970143159508705,2.955654224422574
1788799252806373000,4.887373046875,0.06597966186404228,-0.9529559736281633,3.013154227232933
1788799252816343000,4.897343017578125,0.030148396961018443,-0.7786053688943385,3.0086276897192
1788799252826314000,4.90731396484375,-0.013137129470705985,-0.6990829193681478,2.8103350683838126
1788799252836284000,4.917283935546875,-0.14446056644804775,-0.6016571488827467,2.557135383340716
1788799252846254000,4.927254150390625,-0.48044827868454154,-0.48049803611040115,2.43323603194952
1788799252856224000,4.93722412109375,-0.6723474726557731,-0.5727817675322294,2.3792706330060955
1788799252866194000,4.94719384765625,-0.783829752479121,-0.5261217231661081,2.2805600834071633
1788799252876164900,4.957164794921875,-0.8103829014271497,-0.44222354277372355,2.0899691224902868
1788799252886135000,4.967135009765625,-0.4081552689552307,-0.6025783553808928,1.9374422270298004
1788799252896105000,4.97710498046875,-0.4431019330434501,-0.5033177706837654,1.73385909807086
1788799252906075000,4.987074951171875,-0.47083756977431473,-0.3224959241092205,1.3560919531166553
1788799252916045000,4.997045166015625,0.004440028274059296,-0.30710078657865525,1.204213876953721
1788799252926015200,5.00701513671875,-0.06075345164835453,0.20299743802547454,0.9458680611938237
1788799252935986000,5.01698583984375,0.26120062066912647,0.6372217987388372,0.8075210822552442
1788799252945956000,5.0269560546875,0.3017911358632147,1.2996955276340245,0.6681786625385284
1788799252955926000,5.036926025390625,0.5461236238397658,2.0123387703210116,0.6412865639597177
1788799252965896200,5.046896240234375,0.8382600655205548,2.6112667865008112,0.6914718598425388
1788799252975866000,5.0568662109375,0.86845865829885,2.5000153197586537,0.7398790401369333
1788799252985837000,5.066837158203125,1.0478455036342142,2.4020389296531675,0.8206874378204345
1788799252995807000,5.076806884765625,1.2526520369082688,2.6863778493255377,0.5302028549998998
1788799253005777200,5.086777099609375,1.2227879367813468,2.9218519080638883,0.038569092369079586
1788799253015747000,5.0967470703125,1.2109143975056706,3.121475485742092,-0.43232057291865345
1788799253025717000,5.106717041015625,1.1177240726329385,3.080237466424703,-0.6964578315615654
1788799253035687000,5.11668701171875,0.8782355175562202,2.7873791402101515,-0.6592541823267937
1788799253045658000,5.126658203125,0.7067699667394161,2.0267589253395792,-0.7505430574923754
1788799253055628000,5.1366279296875,1.033176050029695,1.6634592816770075,-1.1270879671752452
1788799253065598000,5.146597900390625,1.0626105265676975,1.6493752267450092,-1.6471756708741188
1788799253075567900,5.15656787109375,1.2715507986456156,1.8853262553453445,-2.1167875713109967
1788799253085538000,5.1665380859375,1.3663403754085302,2.408335983970761,-2.6183815869420766
1788799253095508200,5.17650830078125,1.29291507371366,2.8769647185891865,-3.167475604894757
1788799253105479000,5.18647900390625,1.1817641447365284,2.69452316185832,-3.720905606225133
1788799253115448800,5.19644873046875,0.8913269081890582,1.7970400691270827,-3.924444896042347
1788799253125419300,5.206419189453125,0.44550475640147924,0.7719657847493886,-3.888824716606736
1788799253135389200,5.21638916015625,0.5203267731517554,0.1354214468806982,-3.8778649311751123
1788799253145359000,5.226359130859375,0.8064999225139617,-0.2798743414789438,-3.624191491140425
1788799253155329000,5.2363291015625,0.7988011847048997,-0.6170511173695326,-3.441245199757814
1788799253165300200,5.24630029296875,0.6744992438621819,-0.47255496815145015,-3.7534891944438216
1788799253175270000,5.256269775390625,0.7888523298814892,-0.3963812445312738,-4.124267503423988
1788799253185239800,5.26623974609375,0.7402053494818508,-0.057986909544467925,-4.619603043182194
1788799253195210000,5.2762099609375,0.5895023084476589,0.23190905973315237,-4.461685686855018
1788799253205180000,5.286179931640625,0.6633633712112903,-0.020660510712862012,-3.69057622667402
1788799253215150800,5.29615087890625,0.8875997043594718,0.15345102456808088,-2.9304566548019646
1788799253225121000,5.30612109375,0.8645856162577867,0.38569559986591334,-1.9220511811524628
1788799253235091000,5.316091064453125,0.6397207759477198,0.7706248915344476,-0.9833180864050984
1788799253245060900,5.326060791015625,0.31059856556653975,1.0706062014967201,-0.5698538973867893
1788799253255030800,5.33603076171875,0.030582185268402097,0.9692723176568746,-0.21743746678829193
1788799253265000700,5.346000732421875,-0.04644289448410272,0.575811344486475,0.37446459627747536
1788799253274972000,5.355971923828125,0.21605799512863158,0.48334699580073354,0.7555208459049463
1788799253284941800,5.36594189453125,-0.014341829085350036,-0.2192243502050638,0.7650158194810152
1788799253294911700,5.375911865234375,-0.14757950218617916,-0.32483634975552556,0.7360875388994813
1788799253304882000,5.3858818359375,0.0389931630000472,-0.38116906235218045,0.45630029118210075
1788799253314852000,5.39585205078125,-0.04148907146900892,-0.7046072357475757,-0.077289575907588
1788799253324822800,5.40582275390625,-0.5042505214892328,-1.072982867500186,-0.7112018117070198
1788799253334793000,5.41579296875,-0.8305803246729075,-1.2176017663151024,-1.2967317093923687
1788799253344763000,5.425762939453125,-0.4657102168232202,-1.2357763054311275,-1.7059475933164356
1788799253354733000,5.435733154296875,-0.6656196257054805,-1.2292056948691605,-2.093948547515273
1788799253364703000,5.445702880859375,-0.9399521151483058,-1.2144120303630828,-2.3194766740396617
1788799253374673000,5.4556728515625,-0.6990260746143758,-1.188434124019742,-2.316833173793554
1788799253384643800,5.465643798828125,-0.4561737421929836,-1.0218716889441013,-2.315510985279083
1788799253394614000,5.475614013671875,-0.4230342736572027,-0.8443354399114846,-2.0554300162896513
1788799253404584000,5.485583984375,-0.34847441497445103,-0.6542120965063571,-1.8003718438982963
1788799253414553900,5.495553955078125,-0.3366523136250675,-0.31483868735432624,-1.4947078121244906
1788799253424523800,5.505523681640625,-0.36120807821080086,0.23060732948482035,-1.237608781555295
1788799253434494000,5.515493896484375,-0.04309957540556788,0.6555296088457108,-1.194286357179284
1788799253444465000,5.52546484375,0.20841580981239674,1.1433405983179807,-1.3103873097792267
1788799253454434800,5.535434814453125,0.09127733085826038,1.897503599873185,-1.5016434566065668
1788799253464404700,5.54540478515625,0.12873743907213211,2.2709230710119006,-1.8539871142297981
1788799253474375000,5.555375,0.08710895913243294,1.933352911889553,-2.328553129942715
1788799253484344800,5.5653447265625,-0.07826032063588499,1.2299842780262231,-2.7598887834772468
1788799253494315800,5.575315673828125,-0.37929099352061746,0.5668500393956899,-2.9206536381900308
1788799253504285700,5.58528564453125,-0.31333924257680773,0.3357283306479454,-2.580323366704583
1788799253514256100,5.595256103515625,0.21970029715374112,0.1662257504671812,-2.270201186478138
1788799253524226000,5.60522607421875,0.8862766390621661,0.7742845830857753,-2.571705760484934
1788799253534196000,5.615196044921875,0.8014188198573887,1.0324427673190832,-1.7965829730093479
1788799253544166000,5.625165771484375,0.6752789960630238,1.2052946579277515,-1.511171455669403
1788799253554137000,5.63513720703125,0.5950742633610964,1.2638701810151338,-1.2522311811476945
1788799253564107000,5.64510693359375,0.8686854527920485,0.9871791457474232,-0.87325173779428
1788799253574077000,5.655076904296875,1.3054742571659386,0.7062807219177484,-0.2306961768120527
1788799253584046800,5.665046875,1.402314775109291,0.3512134845495224,0.2622147661477327
1788799253594016800,5.675016845703125,0.6008804654218256,-0.3254144419044256,0.8193184875547885
1788799253603987000,5.684987060546875,-0.14939341974034906,-0.6178098267823458,-0.025035657057166098
1788799253613958000,5.6949580078125,-0.06821136643886566,-0.02935819643139839,-0.36717093213796614
1788799253623927800,5.704927734375,-0.7894790834777057,-0.41072833431363104,-0.012975801429152488
1788799253633898000,5.71489794921875,-1.5833821208775043,-0.5614326905220747,-0.8269780623972416
1788799253643868000,5.724867919921875,-2.4315619612574575,-0.5025760124057531,-1.766910303801298
1788799253653837800,5.734837890625,-3.6765392257541416,-0.09302899683117866,-2.477608257639408
1788799253663808800,5.744808837890625,-3.804038062942028,0.2405091302961111,-3.065413406780362
1788799253673779000,5.754779052734375,-2.8879373635023833,0.2646738497376442,-2.9909441489905118
1788799253683748900,5.764748779296875,-1.905800449705869,0.5687082344830036,-2.1946225061416627
1788799253693718800,5.77471875,-0.9421627769351005,0.6435615231543779,-0.5996978315085172
1788799253703689000,5.78468896484375,-0.11691541078798472,0.4236445145100355,-0.203500126850605
1788799253713659000,5.794658935546875,1.0793343554187564,1.5541419978678226,-0.9123843092650175
1788799253723629800,5.8046298828125,0.6450012736339121,1.7537895409435034,0.3036848406553268
1788799253733600000,5.81460009765625,-0.37408290348351,1.3065648288816212,0.847171540120244
1788799253743570000,5.82456982421875,-1.4064040902495383,1.3751754237711429,0.44372342594265934
1788799253753539800,5.834539794921875,-2.2905881409466264,1.3922177439868448,0.5168406846016645
1788799253763510000,5.844510009765625,-2.6537106744766232,1.3714777382969856,0.8056991275250911
1788799253773480000,5.85447998046875,-2.7229543065726753,0.8732038069993256,1.0598971759557723
1788799253783451000,5.864450927734375,-2.221761272957921,0.1777764875292778,1.8525509439468382
1788799253793420800,5.8744208984375,-0.621369565090537,-0.3626204292267561,3.4561855792582032
1788799253803391000,5.884390869140625,0.9806032744884491,-0.9822826058775186,5.133077758482099
1788799253813361000,5.89436083984375,1.245766369047761,-1.463748025715351,6.343363648825884
1788799253823330800,5.904330810546875,-0.17160923360381275,-1.484240778645873,6.9837389431595795
1788799253833302000,5.914302001953125,-1.597107279369235,-1.4291490060210228,6.847153128674626
1788799253843272000,5.92427197265625,-2.135791546988487,-1.6655214749038219,5.666766702032089
1788799253853241900,5.934241943359375,-1.9475275677144526,-1.6467863792955875,4.134902586945891
1788799253863211800,5.944211669921875,-0.9355506653189658,-0.9671014033585786,3.444157287812233
1788799253873181700,5.954181640625,-0.1983534116119146,-0.4235597588360309,2.990795095908642
1788799253883152100,5.964152099609375,0.288631575364992,-0.04722703059911727,2.4233599501013754
1788799253893122800,5.974122802734375,0.8830517587315291,-0.0018494272589683531,2.0711019249349834
1788799253903092700,5.9840927734375,0.8695639161270111,0.10896014093458652,2.0108301193237303
1788799253913063000,5.99406298828125,0.6235819804430007,-0.017463760498166083,1.918507224935293
1788799253923033000,6.004033203125,0.29840828849188983,-0.1267985799640417,2.1696301037043333
1788799253933003000,6.0140029296875,0.19550328287780283,-0.3651864803224802,2.8870044665664434
1788799253942973000,6.023972900390625,0.2433931612998247,-0.665426733481884,3.513282846486568
1788799253952943900,6.03394384765625,0.17120953022912144,-0.8680302037537098,3.9511113691717386
1788799253962914000,6.0439140625,0.2798971378326416,-0.5354185438215733,2.800931280222535
1788799253972884000,6.053884033203125,-0.19511238386407492,-0.6619178485780954,2.6580682851642368
1788799253982854000,6.06385400390625,-0.14473748369328676,-0.13380407481193543,2.337037172910571
1788799253992823800,6.07382373046875,0.3045211453489959,0.24891046341657638,2.1982056253254414
1788799254002795000,6.083794921875,0.8133189548790455,0.27213351809382436,2.2049586067169904
1788799254012765000,6.093764892578125,0.8397070494584739,0.403410120254755,2.2906927703648803
1788799254022734800,6.10373486328125,0.6203628722660243,0.7779302461117505,2.25385912348628
1788799254032704800,6.113704833984375,0.6145606157280504,0.842602332508564,1.9677929416298865
1788799254042675000,6.123675048828125,0.43111295069456096,0.6853864024490117,1.8506530013710258
1788799254052644900,6.133644775390625,0.3034060237139463,0.61127428753376,1.8206793033897877
1788799254062615800,6.14361572265625,0.24985928857401013,0.6535884116500615,1.6626462117284535
1788799254072585700,6.153585693359375,0.5622920838303863,0.36711306447088715,1.441765326488018
1788799254082556000,6.163555908203125,0.7299393915332854,0.41297640550136566,1.283920450875163
1788799254092526000,6.173526123046875,0.7929349230200052,0.614912936297059,1.1085106924772261
1788799254102496000,6.18349609375,0.7745875115551054,0.7370709969788789,0.9328209480941295
1788799254112466000,6.1934658203125,0.8095552184313535,0.6599848346889019,0.8041711873054503
1788799254122437000,6.20343701171875,0.8646458220124245,0.7688181343734264,0.725410954323411
1788799254132407000,6.213406982421875,0.9636750821717083,0.9593079730033874,0.5403104075163603
1788799254142377000,6.223376953125,0.9165192171126604,1.0827829615026712,0.30617607294917104
1788799254152347000,6.233346923828125,0.7402620481051504,1.3912345781683921,-0.16647651035785674
1788799254162316800,6.24331689453125,0.5795037692636251,1.8701549896985292,-0.8531389240920543
1788799254172287500,6.25328759765625,0.3722689859293401,2.3048709333211184,-1.6514882733762264
1788799254182257400,6.26325732421875,0.04566708780601621,2.718268779104948,-2.5112948386639355
1788799254192227600,6.2732275390625,-0.26052126010283827,2.912864884009957,-3.425617422515154
1788799254202197500,6.283197509765625,-0.5936116434626281,2.7517963701754806,-3.9741052912682293
1788799254212167400,6.29316748046875,-0.8055662949256599,2.515937696033716,-4.111477287694812
1788799254222137300,6.303137451171875,-1.2815898159705101,2.1800112124651667,-4.179363075441122
1788799254232108500,6.313108642578125,-1.269590458358079,1.7687912952423095,-4.088053449748457
1788799254242078500,6.323078369140625,-1.1288849335946143,1.121387125185132,-3.9679055598452684
1788799254252048400,6.33304833984375,-1.5536919160127638,0.6926847427636385,-3.832050105461478
1788799254262018600,6.3430185546875,-1.8190449801862238,0.13372341079115868,-3.642963996149599
1788799254271988700,6.35298876953125,-1.5375544356822968,-0.18145546830296516,-3.4932521581098435
1788799254281958700,6.362958740234375,-1.0821867491751909,-0.1982014359205961,-2.9975168053790924
1788799254291929600,6.3729296875,-0.6717886697292328,-0.8374234685659409,-2.458617141443491
1788799254301899500,6.3828994140625,-0.09518529808223247,-0.9319190308183432,-1.8889032370492815
1788799254311869700,6.39286962890625,0.5182153339557349,-0.49479134987890716,-1.4833917606011031
1788799254321839600,6.402839599609375,0.7601315545707941,-0.38184009348154063,-1.0932593473315237
1788799254331809500,6.4128095703125,0.6078406598232686,-0.24957272671759126,-0.5622381616860628
1788799254341780500,6.422780517578125,0.48034021520018577,-0.15993980206549166,-0.18303104705661535
1788799254351750700,6.432750732421875,0.013618775507807731,-0.24743279207944868,0.0842085615158081
1788799254361720600,6.442720458984375,-0.1448760884463787,-0.2540104169040918,0.22035130840837955
1788799254371690500,6.4526904296875,0.15988310344219206,-0.27788170635700227,0.05775777696371078
1788799254381660400,6.462660400390625,0.05033566413894296,-0.4413935216903686,-0.5837438910514116
1788799254391630600,6.472630615234375,-0.5211415966659784,-0.6054886898696422,-1.174377541616559
1788799254401601500,6.4826015625,-0.2756106926850974,-0.6367904215842485,-1.4986916210636496
1788799254411571500,6.492571533203125,-0.7475828925125301,-0.36719255944788454,-1.8157129131540655
1788799254421541400,6.502541259765625,-1.0193325258553028,0.09655541739165782,-2.043333920304477
1788799254431511600,6.512511474609375,-1.388687231773138,0.5429284810602665,-2.080305222088098
1788799254441481500,6.5224814453125,-1.3081424534618853,0.9143740217775106,-1.7501316029578446
1788799254451451600,6.53245166015625,-0.5712893370173872,0.8205278633445501,-1.0400883136361836
1788799254461422300,6.54242236328125,-0.06425926781222224,0.6383382355481386,-0.9976379959195851
1788799254471392500,6.552392578125,0.5956988250002264,0.5786819314867258,-1.0706263675019145
1788799254481362700,6.56236279296875,0.23498612909093497,0.31859891667068,-0.8320955515414475
1788799254491332600,6.57233251953125,0.31415012056827546,0.43564124177396296,-1.4496025959849357
1788799254501302500,6.582302490234375,0.2389619008541107,0.7473182502269744,-1.8436513059154152
1788799254511272400,6.5922724609375,0.17145327585712075,0.941971638277173,-2.1701830614119766
1788799254521243600,6.60224365234375,-0.007015431720018387,0.9054957187950611,-2.3463591280072924
1788799254531213600,6.612213623046875,-0.22275603146255016,0.6262269419938326,-2.3059984760463235
1788799254541183500,6.62218359375,-0.42071722888648505,0.29313538959026336,-2.2049767268955707
1788799254551153400,6.6321533203125,-0.5158035966388881,-0.04876724577844142,-2.0682941740378737
1788799254561123600,6.64212353515625,-0.7828156800657511,-0.4384896169424057,-1.8739517516329884
1788799254571094500,6.652094482421875,-1.0056880313843488,-0.6278910758137702,-1.721368742071092
1788799254581064400,6.662064453125,-1.2302590033143759,-0.6489969922065735,-1.6948811326399444
1788799254591034400,6.672034423828125,-1.6109242077976464,-0.7798369565159082,-1.8427818296045064
1788799254601004500,6.682004638671875,-1.5251288154818117,-0.9359516473352909,-2.1529019640043376
1788799254610974500,6.691974365234375,-1.5208797797352074,-0.5864408750504255,-2.2233862438112495
1788799254620944400,6.7019443359375,-1.1970195815354585,-0.05234335069954395,-2.1176924111962316
1788799254630915600,6.71191552734375,-0.5736637379985302,0.5596382083207369,-2.0353958207815883
1788799254640885500,6.721885498046875,-0.05387187544107437,1.2738842100292445,-1.8385206650286912
1788799254650855400,6.73185546875,-0.06255363293811679,1.971326376453042,-1.5776918002814053
1788799254660825600,6.74182568359375,-0.03666647361814976,2.194804292449355,-1.2635364190161227
1788799254670795500,6.75179541015625,0.20298055995590983,2.0654332316488024,-0.7197177111178636
1788799254680765700,6.761765625,0.40821489018797874,1.8690303695827721,-0.31816753951609134
1788799254690736600,6.771736572265625,0.4660357955157757,1.3617156382173299,-0.025431378376483914
1788799254700706600,6.78170654296875,0.6047301265873014,0.9221686211764812,0.21906185311973095
1788799254710676500,6.791676513671875,0.3154023125864565,0.5362316137701273,0.024912907460331916
1788799254720646700,6.801646728515625,0.020582330910116433,0.35411154407858847,0.047944238957762716
1788799254730616600,6.811616455078125,-0.18120763102173804,0.39190146876871584,0.32402561789453027
1788799254740587500,6.82158740234375,-0.6237925544537604,0.5624795692265033,0.19641747511327265
1788799254750557400,6.831557373046875,-0.7277676004521548,0.6129717391014099,-0.2842038951158523
1788799254760527600,6.841527587890625,-0.9698439069997519,0.7795318360894918,-0.7857675156086683
1788799254770497500,6.85149755859375,-0.9932238327391445,0.8883955309122801,-0.8821522526085376
1788799254780467500,6.861467529296875,-0.5666982098348439,0.7472673968225717,-0.7793290069937705
1788799254790437400,6.871437255859375,-0.32014848420023917,0.5927648173749447,-0.7207663433879613
1788799254800408600,6.88140869140625,-0.510408167336136,0.23715105203986167,0.037380759367346764
1788799254810378500,6.89137841796875,-0.5435129298847169,0.10704407818019389,-0.013893500795960426
1788799254820348400,6.901348388671875,0.3170699535377323,1.3128420094549655,-0.9962503409534692
1788799254830318300,6.911318359375,0.08342888238020241,1.8932488650381565,0.4332563924640417
1788799254840288500,6.92128857421875,-0.3605756985913962,1.8378975646942852,1.1597680015057326
1788799254850258700,6.9312587890625,-0.7841020666144788,1.7360159838438034,1.1778028398901224
1788799254860229400,6.9412294921875,-1.1716308732569216,1.2416332147657871,1.5575795711010694
1788799254870199600,6.951199462890625,-0.7458212166022509,0.5749193640828132,2.1326871512323615
1788799254880169700,6.961169677734375,-0.3258388047963381,-0.02233165879547596,2.6857313681155444
1788799254890139600,6.9711396484375,-0.3820388309240341,-0.4599427393376827,3.153177030429244
1788799254900109600,6.981109619140625,-0.3966296663343906,-1.0269698888659478,3.603641747325659
1788799254910079500,6.99107958984375,0.13917816906571387,-1.0304290894091128,3.7674955079644916
1788799254920050700,7.00105078125,-0.24722002611160276,-1.0897381874680518,4.85904863590002
1788799254930020600,7.0110205078125,-0.856371987729147,-1.1209615932494401,4.903900754061341
1788799254939990500,7.020990478515625,-0.990070191013813,-0.9237345553189515,4.668026297828555
1788799254949960400,7.03096044921875,-0.44282560032010077,-0.8146814754039049,4.378832339340448
1788799254959930400,7.040930419921875,0.13276128776073454,-1.0257862320393323,3.7365415667742488
1788799254969901600,7.050901611328125,0.1592372067540884,-0.7518167306900024,3.3082313985407352
1788799254979871500,7.06087158203125,0.15731887897737323,-0.5859516302287578,3.3862235697597263
1788799254989841400,7.07084130859375,0.5584341662932187,-0.9762994398146867,3.5598137115150688
1788799254999811600,7.0808115234375,0.5379870791353285,-1.195553016114235,3.451383731934428
1788799255009781500,7.090781494140625,-0.12719649324044585,-1.1974959668755532,3.2078654829502105
1788799255019751400,7.10075146484375,-0.11676175459623336,-0.9940233125537633,2.9334032296478747
1788799255029722400,7.110722412109375,0.15692819915935396,-0.47111938239037987,2.5279040281593796
1788799255039692500,7.120692626953125,0.3945804787196219,0.07817278848290443,2.5097972935825585
1788799255049662500,7.130662353515625,0.9660847736619412,0.3191220637619495,1.7818910153120755
1788799255059632600,7.140632568359375,1.1712464039839803,0.4098614883512258,1.4800906732290982
1788799255069602600,7.1506025390625,1.5051323216356336,0.6042635319888592,1.5192589005351065
1788799255079572500,7.160572509765625,1.7568740629553794,0.6784411133557557,1.5281582463055847
1788799255089543700,7.170543701171875,1.6669500464022158,0.5874795704483986,1.737016100797057
1788799255099513600,7.180513671875,1.4028903830401598,0.26006489463746546,1.9578578230708836
1788799255109483500,7.1904833984375,0.9740431853204965,0.04382160606980324,2.097100874066353
1788799255119453400,7.200453369140625,0.7685514462612569,-0.171091895198822,2.1690742233872413
1788799255129423600,7.210423583984375,0.6094079091399908,-0.35021979733705516,2.1776000596702096
1788799255139393500,7.2203935546875,0.47085751658380026,-0.3257470348596573,2.0485212598145006
1788799255149364500,7.230364501953125,0.4131340802811086,-0.2530564771801233,1.8391390891879795
1788799255159334400,7.24033447265625,0.3321102862812578,-0.15277823987305164,1.662458580201864
1788799255169304600,7.2503046875,0.2111684695214033,-0.04554536112248897,1.398931562411785
1788799255179274200,7.260274169921875,0.2154505307547748,0.25587387268841266,1.271868778553605
1788799255189244400,7.270244384765625,0.5566197372823953,0.5913946980655193,1.0614449899196625
1788799255199214300,7.28021435546875,0.8853991255752742,0.9039771309256553,0.7677350153118372
1788799255209185300,7.290185302734375,1.0613000284910201,1.249261225426197,0.4501870689988136
1788799255219155200,7.3001552734375,1.1965326748013496,1.5876935543358326,0.12765139740109444
1788799255229125400,7.31012548828125,1.1585383135803042,1.925163760215044,-0.23743512967824934
1788799255239095600,7.320095458984375,0.9953373177617788,2.338230766609311,-0.742867116037011
1788799255249065500,7.3300654296875,0.7047936982303857,2.6884318592458962,-1.2076800917595625
1788799255259035400,7.340035400390625,0.37495135688111186,2.834337290740013,-1.5220172593325376
1788799255269006600,7.350006591796875,-0.10328267982006073,2.6901380786418914,-1.738116755515337
1788799255278976500,7.3599765625,-0.34227497581243516,2.5341250946313143,-1.9973317553251981
1788799255288946400,7.369946533203125,-0.61746612791121,2.2901591018795964,-2.235444930395484
1788799255298916400,7.379916259765625,-0.7323543437205254,1.924714262881875,-2.6133424237310883
1788799255308886300,7.38988623046875,-0.9529330311439931,1.726316427606344,-3.0414842496603725
1788799255318857500,7.399857421875,-2.0347161679543553,1.1768284419000148,-3.6200191738918424
1788799255328827400,7.409827392578125,-2.615311677977443,1.0216764586329459,-3.596347206403315
1788799255338797300,7.41979736328125,-2.4065070149779317,0.8894646214485168,-3.3853029477834697
1788799255348767500,7.429767578125,-1.7492052818931638,0.42790743265151976,-3.1580358686372634
1788799255358737400,7.4397373046875,-0.8180031671725213,0.17577216196954248,-2.83866012237519
1788799255368707300,7.449707275390625,0.17722002269029616,-0.3551233514696359,-2.3313760784089563
1788799255378678300,7.45967822265625,1.411235163667798,-0.5146072264611721,-1.641658661018312
1788799255388648400,7.4696484375,1.629878060723096,-0.3207078716486692,-1.3104673892781138
1788799255398618400,7.479618408203125,1.5732698921859263,0.02977028436362743,-1.1494546972841024
1788799255408588300,7.48958837890625,0.8346512273736297,0.4569049790769815,-1.197438099208474
1788799255418558500,7.499558349609375,0.0924487127251923,0.5836673186838627,-1.162463524200022
1788799255428528400,7.5095283203125,-0.36230712549388405,0.19266952075660226,-1.2314748088449239
1788799255438499300,7.519499267578125,-0.5323389902457595,-0.14098784883618354,-1.451638777987659
1788799255448469500,7.529469482421875,-0.23395956252217293,-0.15016893415749072,-1.594721845537424
1788799255458439400,7.539439453125,-0.4378573103882372,-0.11215572210550308,-1.976810945343971
1788799255468409300,7.549409423828125,-0.05311565024629235,0.12201602186262607,-2.0982424453169104
1788799255478379500,7.559379638671875,0.24967852517962455,0.19877835902571678,-2.2136454787805677
1788799255488349400,7.569349365234375,0.24925533133149144,0.18187515501976012,-2.3517267925202847
1788799255498320400,7.5793203125,0.10419555688127875,0.15822481484115122,-2.4150714297056197
1788799255508290300,7.589290283203125,-0.025855595137923956,0.21100538791418075,-2.2979399650141596
1788799255518260500,7.599260498046875,-0.05661605958268046,0.21491057865917682,-1.9611554033115506
1788799255528230400,7.60923046875,-0.21869652693867683,0.15536533375680445,-1.5886618148460983
1788799255538200300,7.619200439453125,-0.1712530771099031,0.32097441363036633,-1.1632438609227538
1788799255548170200,7.629170166015625,-0.0461618855856359,0.21314590707421302,-0.812607299478352
1788799255558141400,7.639141357421875,0.018825842631608247,-0.13292086223661898,-0.6559115939006209
1788799255568111400,7.649111328125,-0.10816387599036097,-0.3188356480360031,-0.6915142376795411
1788799255578081300,7.659081298828125,-0.0592079757720232,-0.3019254297673702,-1.0067875170588492
1788799255588051200,7.66905126953125,0.018668460112810134,-0.06839315274655819,-1.0720955632716416
1788799255598021600,7.679021728515625,-0.08979366817176342,-0.02306757185459137,-1.1029098037302494
1788799255607991600,7.688991455078125,-0.16830211834982037,-0.20316168867647647,-1.2912661374628542
1788799255617962200,7.698962158203125,-0.3902770824372768,-0.47009588456153867,-1.4478966688498853
1788799255627932400,7.708932373046875,-0.43422772171422835,-0.6798398742377758,-1.6019529658347367
1788799255637902600,7.718902587890625,-0.3493406764149666,-0.7587772173523902,-1.7141759079575538
1788799255647872500,7.72887255859375,-0.25026933067962526,-0.8126374023556708,-1.7572244838282465
1788799255657842400,7.738842529296875,-0.24435806080922484,-0.735616121995449,-2.0281150161236523
1788799255667812400,7.748812255859375,-0.3830516612283885,-0.47822249239385123,-2.4447078585565087
1788799255677783600,7.758783447265625,-0.8244142032586038,-0.12317162163853644,-2.866206593209505
1788799255687753500,7.76875341796875,-0.8207843223236501,0.12991291259229182,-3.0275995166927574
1788799255697723400,7.778723388671875,-0.4901975923478603,0.337409415602684,-3.167139797069132
1788799255707693300,7.788693359375,-0.46743645609393714,0.6894587664544582,-3.2280911093771456
1788799255717663200,7.798663330078125,-0.6361451094180345,1.231931904962659,-2.934008502064645
1788799255727633400,7.80863330078125,-0.7902790016837418,1.7786790675282478,-2.4041151514053345
1788799255737604400,7.818604248046875,-1.0329209062248468,2.461880527153611,-1.7686100934565065
1788799255747574300,7.82857421875,-1.0240361735016108,2.728322555607557,-1.4750748908936977
1788799255757544400,7.83854443359375,-0.678429422917962,2.2627345038592814,-0.7149585338920355
1788799255767514400,7.848514404296875,0.06817410316839814,1.624334308990836,0.29136136565506454
1788799255777484500,7.858484619140625,0.4985673612862825,1.4051619812339544,0.912663126206398
1788799255787454500,7.868454345703125,0.4274532591432333,1.6394851163715123,1.0194891777217387
1788799255797425400,7.87842529296875,0.5317087295182049,1.464083541280031,0.6668436145424842
1788799255807395600,7.8883955078125,-0.26685820803940297,1.238130759602785,-0.05929156240224838
1788799255817365500,7.898365478515625,-0.9721171856939792,0.8755804730027914,-0.5046826292961836
1788799255827335400,7.90833544921875,-1.0942986272513866,0.798487296450138,-1.0720400336921214
1788799255837305300,7.918305419921875,-1.2643997578471897,0.9065683164626359,-1.3205197044759989
1788799255847275500,7.928275634765625,-1.0771494856603443,1.0992115337342023,-1.266186056742072
1788799255857246500,7.93824658203125,-0.4333421710513532,1.4733663334101437,-0.8865642238318919
1788799255867216400,7.94821630859375,0.07998612151518464,1.2848147693663834,0.4524140973985195
1788799255877186300,7.958186279296875,0.6144895963184536,1.2619324909508227,-0.18052140232324598
1788799255887156500,7.968156494140625,1.2949497944116592,2.28038005066514,-0.9073784638017416
1788799255897126400,7.97812646484375,0.885743555098772,2.0584493641108272,0.8427274201929569
1788799255907096300,7.988096435546875,0.7710919245243072,1.965938253673911,1.3206103053689002
1788799255917067300,7.9980673828125,0.1732920355916023,1.867570233902335,1.525610315388441
1788799255927037400,8.008037353515626,-0.5703204919852316,1.2551163811951875,1.7323942862153052
1788799255937007400,8.01800732421875,-0.5864480354435742,0.36209435952603813,1.8481962558686733
1788799255946977300,8.027977294921875,-0.4925036773331463,-0.33628713357448575,2.1963398314535616
1788799255956947200,8.037947265625,0.22172493484914302,-0.5597580353081226,2.728443551638722
1788799255966917600,8.047917724609375,0.7251439739502966,-0.2739677477836609,3.3836101723909375
1788799255976888300,8.057888427734374,0.643866205189377,-0.2532984692424536,3.7751854779452083
1788799255986858200,8.067858154296875,0.4850783496379852,-0.3753402100682258,3.7715222792625425
1788799255996828400,8.077828369140626,0.4382347653985023,-0.3814139770239591,4.179099456068873
1788799256006798600,8.087798583984375,0.47671442591845986,-0.42370413574278354,4.718184121182561
1788799256016768500,8.0977685546875,0.523839165186882,-0.6589134060651064,4.9918818198531865
1788799256026738400,8.107738525390625,-0.08047120161838829,-1.0329939714610576,4.890989834561943
1788799256036709400,8.11770947265625,0.043125367433950304,-1.4763894806236029,4.4639849037081
1788799256046679600,8.127679443359375,0.7226275341499596,-1.621242188194394,4.037241838660836
1788799256056649500,8.1376494140625,0.5218517907619477,-1.3389894271463154,3.752107969218492
1788799256066619400,8.147619384765624,0.40364860518574713,-1.167667230322957,3.450203582239151
1788799256076589300,8.15758935546875,0.04266016107499599,-0.9207073164522648,3.177682526132464
1788799256086559200,8.167559326171874,-0.07269581837654113,-0.7584948932796717,2.886292518904805
1788799256096529400,8.177529296875,0.2690684314347803,-0.6818886234611272,2.736720966118574
1788799256106500400,8.187500244140624,0.766050642421469,-0.6072364103198051,2.831085010945797
1788799256116470300,8.19747021484375,0.4530132323354482,-0.6007564006507397,3.5299428893864153
1788799256126440400,8.2074404296875,0.47748190315961836,-0.4343973791927099,2.190506887516379
1788799256136410400,8.217410400390625,-0.09901581615582108,-0.5513841747164726,2.1600550506293774
1788799256146380500,8.227380615234376,-0.13715674624070526,-0.5245616342425347,2.125520912864804
1788799256156350500,8.2373505859375,0.4616806690461933,-0.6715723966300488,2.0867875698447227
1788799256166321400,8.2473212890625,1.1228770714819432,-0.726977472987771,2.2231559421867133
1788799256176291000,8.257291015625,1.3856062168926,-0.6695499508917331,2.3481834208250043
1788799256186261000,8.267260986328125,1.0869983872406184,-0.6099351478844881,2.42281108404696
1788799256196231000,8.27723095703125,0.6970096202254294,-0.5834446158438921,2.1569342882603406
1788799256206200800,8.287200927734375,0.4860943948127329,-0.4930249247282743,1.971469584316015
1788799256216170800,8.297170654296876,0.46691082478463647,-0.3808195182621479,1.8829495893418788
1788799256226142000,8.307141845703125,0.574852728587389,-0.2424304537475109,1.8290479032844305
1788799256236112000,8.31711181640625,0.43367856339886784,-0.026340309914946555,1.7558312759041785
1788799256246081800,8.327081787109375,0.5082688172198832,0.25956980459690093,1.5317863736748694
1788799256256052000,8.337052001953126,0.6745366532631218,0.6832149036288261,1.3180588673204183
1788799256266022000,8.34702197265625,0.6968699194937944,1.1740233213514089,1.0764023205548525
1788799256275991800,8.35699169921875,0.6901921952955424,1.7027350610107181,0.6433376512706279
1788799256285962000,8.3669619140625,0.8709652342922986,1.9917700295448302,0.17561609462499617
1788799256295933000,8.376932861328125,0.8198897115714847,2.2703677752166986,-0.3597375672668218
1788799256305902800,8.38690283203125,0.5950188799120485,2.6116046401530504,-0.792401839056611
1788799256315873000,8.396873046875,0.14836524573639034,2.8627514843195674,-1.1755746424466371
1788799256325843000,8.406843017578124,-0.06635843204855918,3.1742934682160615,-1.6155805091708897
1788799256335812900,8.416812744140625,-0.17826514782905578,3.474365963593125,-2.010959298661351
1788799256345783000,8.426782958984376,-0.4650625665694475,3.5360768620967864,-2.3944921675354243
1788799256355754000,8.43675390625,-0.46313642081245776,3.5068519366562363,-2.7429923014730213
1788799256365724000,8.446723876953126,-0.23807795762643216,3.3542128129929303,-2.7655738433763384
1788799256375693800,8.45669384765625,0.08210954340994357,2.8650030626386402,-2.5883231332868335
1788799256385664000,8.4666640625,-0.7587174499891698,1.8137579796940086,-2.792477047871053
1788799256395634000,8.476634033203124,-1.7132698990285395,0.9308575390666722,-2.7413322593063114
1788799256405603800,8.486603759765625,-1.5964374172836542,0.4707067099362611,-2.5323417183458803
1788799256415574800,8.49657470703125,-1.0826919222183524,0.17003683318793772,-2.428547874133289
1788799256425545000,8.506544921875,-0.4607470414578914,-0.25205402213931083,-2.4140575764879584
1788799256435515000,8.516514892578124,-0.018382482778280973,-0.44418461371362206,-2.3453464438334106
1788799256445484800,8.52648486328125,0.9501036529369652,-0.6673211689263582,-2.1811013457894326
1788799256455454700,8.536454833984376,1.1194922513492405,-0.5412596710652112,-2.3921841828539967
1788799256465425000,8.5464248046875,0.24242343948483466,0.0032446810096502304,-2.8645962354034182
1788799256475395000,8.55639501953125,-0.093205522441864,0.2593617148041725,-3.0598253775149584
1788799256485365800,8.56636572265625,-0.9064164869017899,0.4987596689879894,-2.9417513712763785
1788799256495336000,8.5763359375,-1.0598819783866404,0.08510404905080794,-2.5899831754535434
1788799256505306000,8.58630615234375,-0.8756685896776616,-0.38771453847289084,-2.2100085835829377
1788799256515276000,8.596276123046875,-0.4404657393209636,-0.45598377257883543,-1.8741025582805275
1788799256525246000,8.606245849609374,-0.17940248129591344,-0.3608896599113941,-1.7974129940927028
1788799256535215900,8.6162158203125,-0.43784006699249145,-0.23311375934779643,-1.9507821855962275
1788799256545187000,8.62618701171875,-0.35771395248472687,-0.20501988376379013,-2.148884545056522
1788799256555157000,8.636156982421875,-0.3684047117166221,-0.0922515827178955,-2.4381609211310744
1788799256565127000,8.646126953125,-0.4645603161357343,-0.02463350599706173,-2.5706986292690037
1788799256575096800,8.656096923828125,-0.09289104966521262,0.09027122255563735,-2.2628911557257174
1788799256585066800,8.666066650390626,-0.08525412504598498,0.11870996605455875,-1.9928940651386975
1788799256595037000,8.676036865234375,-0.24434695489332078,0.1360311032116413,-1.7376356940001247
1788799256605006800,8.6860068359375,-0.11461246760785579,0.18992285239696502,-1.3702072799697518
1788799256614977800,8.695977783203125,-0.0814811823785305,-0.01690437304973602,-0.956996188929677
1788799256624948000,8.705947998046875,-0.20367080724239348,-0.4330933108568191,-0.563987051180005
1788799256634918000,8.71591796875,-0.38530265502557154,-0.4026046490907669,-0.2862435842499137
1788799256644887800,8.7258876953125,-0.36828342342451215,-0.22407705093324184,-0.1292316523298621
1788799256654858000,8.73585791015625,-0.23290786151215434,-0.11031038649976253,-0.1495794438317418
1788799256664828000,8.745827880859375,-0.48025370596051215,-0.09225625889301299,-0.48522418784946203
1788799256674798800,8.755798828125,-0.9938719213843346,-0.22397066794931889,-1.008283600835502
1788799256684769000,8.76576904296875,-1.2886148923017084,-0.31373452550470826,-1.5458186984196305
1788799256694739000,8.775739013671876,-1.0698347787328064,-0.38172611171305176,-1.8116136611416935
1788799256704708900,8.785708984375,-0.9074358930774032,-0.44737844131886956,-2.2009774281263352
1788799256714679000,8.795678955078126,-0.9932166723459959,-0.18626023823618887,-2.7428946863174435
1788799256724649000,8.80564892578125,-0.9961234997034072,-0.08234159860014915,-3.1122385785803197
1788799256734619000,8.815618896484375,-1.0151175385087727,0.025996026521921158,-3.1386697816491127
1788799256744589800,8.82558984375,-0.9796889361225068,0.32041561070382596,-2.795512177783251
1788799256754560000,8.83556005859375,-0.5618797036372125,0.7621674443125724,-2.1397326858296988
1788799256764530000,8.845530029296874,-0.2562543964385986,1.2537141131818295,-1.7783081883892415
1788799256774499800,8.855499755859375,-0.5240086765348911,1.5856997501701116,-1.7125746102407573
1788799256784469800,8.8654697265625,-0.8029536282092332,2.2854835112839935,-1.6584668802171945
1788799256794439700,8.875439697265625,-1.1806517995804549,2.7012492552429435,-1.740941749808192
1788799256804409900,8.885409912109376,-1.2049240710496902,2.664780350023508,-1.7621873669326305
1788799256814380800,8.895380859375,-0.35516251443624497,2.3460610218435525,-1.6917372816562652
1788799256824350700,8.905350830078126,0.2740760304637253,2.4119682029932736,-1.0474193871766329
1788799256834321000,8.91532080078125,0.4050742540746927,2.4501807370096444,-0.4307365185976028
1788799256844291000,8.925291015625,0.2928729392617941,2.649635972383618,-0.17315818007886408
1788799256854261000,8.935260986328124,0.24978198555409906,2.165314578592777,-0.17038871536552905
1788799256864231000,8.94523095703125,-0.07467924727872013,1.7388333793520927,-0.16430208892822265
1788799256874200800,8.955200927734374,-0.23365984892323613,1.56641812659502,-0.38709962144494053
1788799256884172000,8.965172119140625,-0.6780636583454906,1.1827782902151345,-0.4782809445828199
1788799256894142000,8.975141845703124,-1.2551859393000602,1.2119880180865525,-1.261145139965415
1788799256904111900,8.98511181640625,-0.9009142362236976,2.051661895927787,-1.776705721628666
1788799256914081800,8.995081787109376,-0.6242096108220517,2.1488222934752703,0.13423369840085506
1788799256924052000,9.005052001953125,0.024199644624441862,2.032033650872111,1.1466752956986426
1788799256934022000,9.01502197265625,0.3846363000713289,1.3860826022326946,1.7925825051963329
1788799256943992800,9.024992919921875,0.7528818757034837,0.8410638708949089,1.504102832457423
1788799256953962800,9.034962646484376,1.032351581904292,1.2515712559342385,0.9848054023534059
1788799256963933000,9.044932861328125,0.5750223130006343,1.1907979305416345,2.0257687452584503
1788799256973902800,9.05490283203125,-0.13563903515413403,1.0690554649233817,2.4535510902255773
1788799256983872800,9.064872802734374,-0.4743897823631763,0.7604676546573639,2.375710310176015
1788799256993843000,9.074843017578125,-0.8046822055675089,0.16033786147236823,2.4678046565055847
1788799257003812900,9.084812744140624,-0.8369191723056137,-0.5149456646353006,2.8742361704081296
1788799257013783800,9.09478369140625,-0.2967395515620708,-0.6638666445583105,2.929704375129938
1788799257023754000,9.10475390625,0.9022931964267045,0.08603519242107868,3.359462988606095
1788799257033724000,9.114723876953125,0.4800462006896734,-0.25911855369806286,4.636071655163168
1788799257043694000,9.124694091796876,-0.1780418604671955,-0.4958750534623861,4.51723134072721
1788799257053664000,9.1346640625,-0.02090250277519226,-0.7950900552272796,4.721812833073735
1788799257063634000,9.144634033203126,0.6070563045125454,-1.0856325057148932,5.201003878238797
1788799257073603800,9.154603759765624,0.8088304112881421,-1.4603046072632073,4.940971132305264
1788799257083575000,9.164574951171875,0.45590946523360903,-1.4953741670787333,4.264012950983643
1788799257093545000,9.174544921875,-0.06322590617649257,-1.3194324937611817,3.936156376624107
1788799257103515000,9.184514892578125,0.10801321547329425,-1.4372230068832634,3.730740771540999
1788799257113484800,9.19448486328125,0.3466483685910702,-1.3822721040338277,3.509591006231308
1788799257123454700,9.204454833984375,0.210537258945778,-1.212882336577773,3.5110821215718984
1788799257133425000,9.2144248046875,0.32361762161552904,-1.3215905485779047,3.5575410904079674
1788799257143395000,9.22439501953125,0.5747013374179601,-1.4392518823623657,3.541006135192513
1788799257153365800,9.23436572265625,0.5063759892106056,-1.5337562124431132,3.5376486414581536
1788799257163335700,9.244335693359375,0.17259294741153716,-1.4523860892236231,3.7489386915326115
1788799257173306000,9.25430615234375,0.03859641876742244,-1.446207692849636,2.8944191267371178
1788799257183276300,9.2642763671875,-0.25105171322897074,-1.310504506418109,2.72744109659791
1788799257193246500,9.27424658203125,-0.0371994114510715,-0.9199825093090533,2.3503858993053437
1788799257203216400,9.28421630859375,0.26376024202406406,-0.5658621974021196,2.105819018051028
1788799257213186300,9.294186279296875,0.47272462562993167,-0.32630583778619765,2.042849643918872
1788799257223157500,9.304157470703124,0.7180689209975302,-0.2573439452409744,1.7619962282747028
1788799257233127400,9.31412744140625,0.8452527008868753,-0.10224632250964641,1.828494945576787
1788799257243097300,9.324097412109374,0.9543753389067947,0.11198854884505272,1.991893363663554
1788799257253067300,9.3340673828125,0.9325017991423606,0.3321335210263729,1.9302853410124778
1788799257263037200,9.344037109375,0.5844330423593521,0.5523199942618608,1.7073837635993956
1788799257273007400,9.35400732421875,0.3982591672323644,0.6150105514526367,1.476594063284993
1788799257282977300,9.363977294921876,0.10487009514197707,0.788214908760786,1.1720523135393857
1788799257292948200,9.3739482421875,-0.007943652480840682,0.8835644574940205,0.9561363572299479
1788799257302918400,9.38391845703125,0.04721884729266167,1.1321680469185114,0.7453934196442366
1788799257312888300,9.393888427734375,0.40444998469650745,1.4718015683114527,0.4529273076176643
1788799257322858200,9.403858154296875,0.67673606300354,1.7582628869652748,0.3203209181576967
1788799257332828200,9.413828125,0.9939595996677875,2.0608020647168157,0.11334990032613276
1788799257342798300,9.42379833984375,1.1022720903486012,2.5111954699426886,-0.15468670384287833
1788799257352768500,9.4337685546875,1.1345422287039457,3.1267075411766765,-0.5196849681168795
1788799257362739200,9.4437392578125,0.6962742916882038,3.6863890041172502,-0.9743190796524286
1788799257372709400,9.45370947265625,-0.02299026883468032,3.9289100587576624,-1.1552344497293232
1788799257382679300,9.46367919921875,-0.4758715453535318,3.776242293521762,-1.3657768963068724
1788799257392649500,9.4736494140625,-0.756149791458249,3.330896819335222,-1.4208505487531422
1788799257402619400,9.483619384765625,-0.865690947151184,2.5862398972719904,-1.5809353122472762
1788799257412589300,9.49358935546875,-0.8551208916895091,1.4544652335852384,-1.7985002048075198
1788799257422559200,9.503559326171874,-0.8976735007368027,0.6541004528254271,-2.1605045479625464
1788799257432530400,9.513530517578126,-1.981940855578333,0.0034597850650548933,-2.8646500114172695
1788799257442500400,9.523500244140624,-2.329248418730497,-0.5509118810296059,-2.99063932082504
1788799257452470300,9.53347021484375,-1.8074509885042904,-0.7230173371851444,-2.731314138638973
1788799257462440200,9.543440185546874,-1.2321231897510587,-0.995478772059083,-2.6543857972592115
1788799257472410400,9.553410400390625,-0.2551775609873235,-1.0028022468149662,-2.8091294919863343
1788799257482380300,9.56338037109375,0.5121932971872389,-0.1287502985537052,-2.5531717404067513
1788799257492350500,9.5733505859375,1.2902677740752697,0.6231342366755008,-2.3049136034190654
1788799257502320400,9.5833203125,1.5899918944060802,1.2375403924942017,-2.461289283262193
1788799257512291300,9.593291259765625,1.3280597445920108,1.4181085565686224,-2.657937352260947
1788799257522261500,9.603261474609376,0.9371294589430094,1.1539905871480702,-2.6094506769895554
1788799257532231400,9.6132314453125,0.32733459631204603,1.0906120476931334,-2.496267949923873
1788799257542201300,9.623201416015625,-0.6376388551071286,1.0478092632770537,-2.4928017351180314
1788799257552171300,9.633171142578124,-1.2322415554337203,0.8640747441262007,-2.423715339410305
1788799257562141400,9.643141357421875,-0.9536971473842859,0.6105383744746447,-2.172622563518584
1788799257572111400,9.653111328125,-0.3320604557901621,0.32297289397120477,-2.06169901355654
1788799257582082300,9.663082275390625,-0.5203589218556881,0.10499883608818053,-2.1852675255581735
1788799257592052200,9.67305224609375,-0.8224614617556333,-0.13282266255915165,-2.266434819681942
1788799257602022400,9.6830224609375,-0.15461714573800564,-0.04254501026272774,-1.9183724926397203
1788799257611992300,9.692992431640626,0.2470056527085602,-0.060655836492776866,-1.5924921867892146
1788799257621962200,9.702962158203125,0.12204480956569314,-0.09760638774931431,-1.4576538004934787
1788799257631932200,9.71293212890625,0.16727847439050675,-0.2616092014700174,-1.4594190566003322
1788799257641902300,9.72290234375,0.5079629661411047,-0.2989811930090189,-1.3976774706974624
1788799257651872500,9.73287255859375,0.18663725485503674,-0.30770576673448086,-1.4627233588427304
1788799257661843200,9.74284326171875,0.20608079099357127,-0.23907822071015833,-1.2069862642765044
1788799257671813400,9.7528134765625,0.25705928308069703,-0.16120996813178062,-0.7139230533644556
1788799257681783600,9.762783447265624,0.23871187161579727,-0.11109832200706005,-0.23746961646974085
1788799257691753500,9.77275341796875,0.45846623704433437,-0.09055471567213534,-0.06367869144529104
1788799257701723400,9.782723388671876,0.07025485496520996,-0.11044541105628013,-0.43126258829832076
1788799257711693300,9.792693359375,-0.48069253576919435,-0.0898158800035715,-1.02750647996068
1788799257721663200,9.802663330078126,-0.5529401719868183,-0.1298059450864792,-1.5057394937485455
1788799257731634400,9.812634521484375,-0.9935988035313784,-0.36815935865342614,-1.9734899842277167
1788799257741604400,9.822604248046876,-1.5819481425516306,-0.3754150288701057,-2.6146546753734348
1788799257751574300,9.83257421875,-1.4326326103530824,-0.15934417425990105,-3.0396076421335336
1788799257761544200,9.842544189453125,-1.0256120445162058,0.015036825612187384,-3.3260546400010584
1788799257771514400,9.852514404296874,-0.7101010108582675,0.4285539138615131,-3.555229306334257
1788799257781484300,9.862484375,-0.5341906094618142,1.149490937641263,-3.4547573000207543
1788799257791454200,9.8724541015625,-0.07372866855561733,1.709043221244216,-2.8934923672810196
1788799257801424400,9.88242431640625,0.6228332079023122,1.7192098104715345,-2.3040777371168137
1788799257811395300,9.892395263671874,0.7616103949517011,1.9753046324342487,-1.7293962734431028
1788799257821365200,9.902365234375,0.585682750159502,2.368340658190846,-1.1362424567505716
1788799257831335400,9.91233544921875,0.4973077166140079,2.5654829404473305,-0.4882078798353672
1788799257841305300,9.922305419921875,0.22458500045537946,2.117333514755964,0.012959434816241264
1788799257851275300,9.932275146484375,0.414696215031296,1.4567828628778456,0.062115972173213956
1788799257861245400,9.942245361328125,0.40759602763727304,0.881370162320137,0.26178163542747496
1788799257871215400,9.95221533203125,-0.19266469845101236,0.7171843932479619,0.2838233713656664
1788799257881185300,9.962185302734374,-0.529961009068042,0.8159048797190189,0.0662660775899887
1788799257891156500,9.972156494140625,-0.7317635382205248,1.1085662220567465,-0.09647358432710171
1788799257901126400,9.98212646484375,-1.1158018723987042,1.4504408003747462,-0.3073854487389326
1788799257911096300,9.992096435546875,-1.336568775870651,1.5881582492381334,-0.5561240627199411
1788799257921066200,10.002066162109376,-0.9178649326331912,1.3194365854144097,-0.8326414949864148
1788799257931036200,10.0120361328125,-0.6089164723612368,1.0449603035867214,-1.0867354985207318
1788799257941006300,10.02200634765625,0.006557751080393791,0.7849357409596442,-1.041672952479124
1788799257950976300,10.031976318359375,0.811619895876199,0.6379641415387391,-0.29969723232388495
1788799257960946400,10.041946533203125,1.4127702642805873,1.4107880044221877,-0.542220625051856
1788799257970917000,10.051917236328125,1.6174411884762345,2.5601170295000073,-0.7668921347469091
1788799257980887300,10.06188720703125,1.025078376030922,2.5099182896137235,-0.010753449204564093
1788799257990857500,10.071857421875,0.36109950326979157,2.286438035529852,-0.4849918403983116
1788799258000827400,10.081827392578125,-0.935240868717432,2.0545628780663012,-0.578403699067235
1788799258010797300,10.09179736328125,-1.7539198893249033,1.5860218217313289,0.016794482934474945
1788799258020767200,10.101767333984375,-1.6996125450760124,1.0771931786715985,1.1320149021834134
1788799258030737400,10.1117373046875,-1.2616489978343248,0.04703355385363102,2.407673720669746
1788799258040707300,10.121707275390625,-0.7068564029138534,-0.6694955903559923,3.07052738879323
1788799258050678300,10.13167822265625,0.3813193575430661,-0.5663064340382814,3.39063612550497
1788799258060648400,10.1416484375,0.7172060205578804,-0.9817278946042061,4.885732644686103
1788799258070618400,10.151618408203126,0.3702268125772476,-1.023186863195896,4.992772631213069
1788799258080588300,10.16158837890625,-0.1076489852707833,-0.9825777894318103,4.794857026496529
1788799258090558200,10.17155810546875,-0.28904841253757474,-0.779402656751871,4.812307342991232
1788799258100528000,10.181528076171874,0.20267288224622607,-0.8059919729918241,5.077835179209709
1788799258110498300,10.191498291015625,0.8659634074170142,-1.2012433367103337,5.361695959976315
1788799258120468500,10.201468505859374,1.0844295596659184,-1.7298533695608376,5.1603047881037
1788799258130439200,10.211439208984375,0.6844223797224461,-2.004462337857485,5.031049462637305
1788799258140409300,10.221409423828124,0.26122926224172116,-2.002734491151571,4.996759070500731
1788799258150379500,10.231379638671875,0.16631386714205146,-2.162830360561609,4.683474626851082
1788799258160349400,10.241349365234376,0.15374372390434146,-1.9730045387983322,4.096335248142481
1788799258170319400,10.2513193359375,0.20053952347934245,-1.480680455815792,3.471023667427897
1788799258180289300,10.261289306640625,0.32162966266870496,-1.01583123973608,3.081965897652507
1788799258190259200,10.27125927734375,0.6060289342261851,-0.7348287710100412,3.1508757677495476
1788799258200229000,10.28122900390625,1.0785258885800837,-0.6970458605825901,3.1986165930896995
1788799258210200000,10.291199951171874,1.2442257154770195,-0.9349462696850299,2.82828164396286
1788799258220170200,10.301170166015625,0.5546802936524152,-0.609883125436306,2.773168828549981
1788799258230140200,10.31114013671875,-0.16542963165342806,-0.28095746054053305,2.421309447312355
1788799258240110000,10.321110107421875,-0.41099020012021065,-0.000713116705417633,2.3023767784178255
1788799258250080000,10.331080078125,-0.2001787273429334,0.17733751159012318,2.1371242568969726
1788799258260050200,10.34105029296875,0.2894534862071276,0.27839550109803674,1.9757552988111973
1788799258270020400,10.351020263671876,0.6547001722842455,0.6073761110514402,1.8236100961446762
1788799258279990300,10.360990234375,0.8825941511571407,0.8560375681430101,1.5868711320370434
1788799258289961200,10.370961181640626,1.0880226157218218,0.8822457761108875,1.371045776620507
1788799258299931100,10.38093115234375,0.905508870537579,0.865944629651308,1.31863403685987
1788799258309901300,10.3909013671875,1.0103010781377553,0.7833645461201667,1.0211527270197869
1788799258319871200,10.400871337890624,1.2786132843777536,0.6500140602946282,0.8161118004679679
1788799258329841200,10.410841064453125,1.279271163764596,0.7379583012074231,0.6342647024989128
1788799258339811000,10.42081103515625,1.115367864895612,0.9590916999042034,0.5755734440773725
1788799258349781200,10.43078125,1.0390519563257694,1.3499433673590422,0.4601823933124542
1788799258359751200,10.440751220703126,0.8262664069965481,1.771125291147828,0.20404373220801353
1788799258369722000,10.45072216796875,0.5728267757177352,2.0947095950156447,-0.006930676046013832
1788799258379692000,10.460692138671876,0.3737356974810362,2.4646879857897757,-0.13851298315525054
1788799258389662200,10.470662109375,0.13464870894253253,2.5834207481980322,-0.269853298202157
1788799258399632100,10.480632080078125,-0.037893969586491584,2.700170812356472,-0.5180588282197713
1788799258409602000,10.49060205078125,-0.11804887179732322,2.6465093647956848,-0.7271563366860151
1788799258419572200,10.500572265625,-0.3814800279974937,2.4249504341632124,-1.0071230326235294
1788799258429542100,10.510542236328124,-0.4102629087589681,2.2668799331009386,-1.2584750439733265
1788799258439512300,10.52051220703125,-0.2678453193806112,2.314989591753483,-1.488019128140807
1788799258449482200,10.530482177734376,-0.5622632961273193,2.4788567963957786,-2.2216642423242328
1788799258459453200,10.540453125,-2.1106495069473983,2.1405559849113223,-3.177994660821557
1788799258469423000,10.550423095703126,-2.641456173059344,1.768894755616784,-3.3117057966530323
1788799258479393300,10.560393310546875,-1.8413292927086353,1.5084008219122886,-2.933721501816809
1788799258489363200,10.57036328125,-1.0084729859277606,0.96060853420794,-2.6572651520878074
1788799258499333000,10.5803330078125,-0.06700695908516645,0.4809223990023136,-2.530979490081966
1788799258509303000,10.590302978515625,0.6923796223372221,0.9180261145442724,-2.2430115662574766
1788799258519273000,10.60027294921875,1.5224061125196515,0.9468214163959026,-2.1985925788164136
1788799258529243100,10.6102431640625,1.4242480822369457,0.9439262794762849,-2.7300995021522043
1788799258539213000,10.620213134765624,0.8601333130240439,1.071011275166273,-3.1386642286911606
1788799258549184000,10.63018408203125,0.38648894220069047,0.6055547408431768,-3.2116350646167993
1788799258559154200,10.640154296875,-0.11143676018118857,-0.151341485068202,-3.21283654936105
1788799258569124000,10.6501240234375,-0.6502893701046705,-0.6455459749698639,-3.0819495310395952
1788799258579094300,10.66009423828125,-1.0986784497708082,-1.001966965034604,-2.716546777617931
1788799258589064200,10.670064208984375,-1.0566478187710047,-1.1952297755092383,-2.378369007991254
1788799258599034000,10.6800341796875,-0.7440821909151971,-1.1348246989071369,-2.0009455619081855
1788799258609004300,10.69000439453125,-0.7868124946169555,-1.0035744002312421,-1.9620845008552072
1788799258618974200,10.69997412109375,-0.06977087084054946,-0.7025386127799749,-2.042388456147909
1788799258628945200,10.709945068359374,0.06564882247447967,-0.22533844917118548,-2.3902990997597575
1788799258638915000,10.7199150390625,0.19094810379147528,0.3136252199113369,-2.537017893463373
1788799258648885200,10.72988525390625,0.40882396199703214,0.7974795807123184,-2.5534450043901797
1788799258658855200,10.739855224609375,0.09528057515025139,1.0070411995589732,-2.4609976068392396
1788799258668825000,10.7498251953125,0.40908348971605296,0.7910141840904951,-1.9429428702726959
1788799258678795000,10.759794921875,0.5267360556721687,0.5375006107926369,-1.4304302780032156
1788799258688765000,10.769764892578126,0.3182937962442636,0.3311059315443039,-1.0220049599349499
1788799258698735400,10.7797353515625,0.4635200133025646,0.0063625207692384715,-0.6457967348605393
1788799258708705300,10.789705322265625,-0.2348404370099306,-0.31691549362838267,-0.8062067847862839
1788799258718675200,10.79967529296875,-0.8148685224086045,-0.33444530510008336,-1.0944275143280624
1788799258728646100,10.809646240234375,-0.8695815248489379,-0.19956746357679367,-1.3435516204953193
1788799258738616300,10.8196162109375,-1.1654472161859273,-0.028237083446979522,-1.611249494229257
1788799258748586200,10.829586181640625,-1.5360335097253321,0.28793372929394245,-1.8929563118323682
1788799258758556200,10.83955615234375,-1.6777917584121227,0.5844523315817117,-2.1244106135353444
1788799258768526000,10.849526123046875,-1.6038995698578655,0.5828536642134189,-2.0444936117336154
1788799258778496300,10.859496337890626,-1.4016793998152017,0.12708733377754688,-2.1240914645835756
1788799258788466200,10.869466064453125,-0.9514880930326879,-0.06983283016085624,-2.43448573974967
1788799258798436000,10.87943603515625,-0.5165326415657997,-0.04771452185511589,-2.5112290799513457
1788799258808406000,10.889406005859374,-0.15664908995702861,0.2172679554402828,-2.407155542014539
1788799258818377200,10.899377197265625,0.234918909073621,0.7217126843273639,-2.2328788792997596
1788799258828347100,10.90934716796875,0.5462346829988062,1.1849404366850853,-2.1025304978996515
1788799258838317000,10.919317138671875,0.09273848945200443,1.795191226390004,-1.9121657469540834
1788799258848287200,10.929287353515624,-0.8083009805865585,2.0929519376933574,-1.5448995377480983
1788799258858257200,10.939257080078125,-1.167937863957882,2.3330723609328268,-1.2073492523699998
1788799258868227300,10.949227294921876,-1.3546240725211798,2.538028531810641,-1.0566858126938343
1788799258878197200,10.959197265625,-1.1775051721177994,1.926015993130207,-0.5896463930934667
1788799258888167200,10.969167236328126,-0.5767584160782396,1.1476970399618147,-0.36130116332173345
1788799258898137000,10.97913720703125,-0.5532172353625298,0.7838590516388416,-0.15796762520968913
1788799258908108300,10.9891083984375,-0.024280893167108297,0.6762906573235988,-0.4011357455819845
1788799258918078200,10.999078125,0.14352072831466794,0.9853887551993131,-0.45191608474850653
1788799258928048000,11.009048095703125,-0.35990108726546166,1.2904442996859549,-0.1785480564236641
1788799258938018000,11.01901806640625,-0.4036252243101597,1.3621826712071894,-0.11897416994869708
1788799258947988200,11.02898828125,-0.21808087925836442,1.427932615968585,-0.117113052251935
1788799258957958100,11.038958251953124,-0.2063968712054193,1.485415667644143,-0.11203881772756576
1788799258967928000,11.048927978515625,-0.042664691119641066,1.6204501610338686,0.054718263137340545
1788799258977898200,11.058898193359376,-0.39502500761672854,2.0816677426129577,0.421418655154109
1788799258987868200,11.0688681640625,-0.9590009528808295,1.9068945285528898,1.0609697736233472
1788799258997838300,11.07883837890625,-0.4102085482232272,2.3499919315516946,-0.27106092042624946
1788799259007809300,11.088809326171875,-0.17604849469289183,2.8121330577164887,-0.09375731110572814
1788799259017779200,11.098779296875,-0.3342312239579856,2.218156526464224,1.0795277590990067
1788799259027749000,11.1087490234375,0.29323534283339975,1.8529273760437965,1.3444056069761514
1788799259037719300,11.11871923828125,0.6455985819399357,1.0889689566612244,1.8369950628966092
1788799259047689200,11.128689208984374,0.6304026202432811,0.21486966212689876,2.3424065909892318
1788799259057659100,11.1386591796875,1.0174322451919318,-0.32758652524650095,3.323073578363657
1788799259067629000,11.148629150390626,0.9112496061466634,-0.5876677864968777,4.319284756350517
1788799259077599000,11.158598876953125,0.3048385407350957,-0.7093208202660083,4.790518705031276
1788799259087569200,11.168569091796876,0.008107318609952925,-0.9465081126630306,4.8146910232573745
1788799259097540000,11.1785400390625,-0.23016908419802784,-1.263105041861534,4.8287803388863795
1788799259107510000,11.188510009765626,-0.3205044580310583,-1.246137540447712,4.810785247990489
1788799259117480000,11.19847998046875,0.04973682146295905,-1.0610112746775149,4.860968205785751
1788799259127450000,11.2084501953125,0.6333680459201335,-1.0181541297256946,4.644884491693973
1788799259137420300,11.218420166015624,1.2005442485302686,-0.8296405596047639,4.366657332900166
1788799259147390200,11.22839013671875,1.9914980807356535,-0.7443336814582348,4.26599564923346
1788799259157360000,11.238360107421874,1.9515917484134435,-0.7628525039672851,3.9699908416867253
1788799259167330300,11.248330322265625,1.0316076316691933,-0.682418784815073,3.4128111324340105
1788799259177300700,11.25830078125,0.49690425037965175,-0.6008721359848975,3.16584829595387
1788799259187271000,11.26827099609375,0.4159517680503428,-0.5679015942752361,3.2674376158595084
1788799259197241900,11.278241943359374,0.42071313723325726,-0.6384352661818266,3.4172324560075995
1788799259207211800,11.288211669921875,0.8001455850511788,-0.7800766104906797,3.359915993070602
1788799259217181700,11.298181640625,1.0713438681215046,-0.8344201950967312,3.1884394824683664
1788799259227152000,11.30815185546875,0.8402104689359664,-0.8404179742068052,3.0175656139343974
1788799259237121800,11.318121826171875,0.8356297170169651,-0.8676777370542287,2.6622429405003785
1788799259247091700,11.328091796875,0.840999427356571,-0.7093623213201761,2.3350252485662697
1788799259257061600,11.3380615234375,0.9022732496172189,-0.31395898191034793,2.407960720917582
1788799259267031600,11.348031494140624,1.0762976911365985,-0.21498715102672575,1.8588409840017557
1788799259277002000,11.358001953125,1.1175739966377616,0.006193009421229362,1.8678081343114374
1788799259286972000,11.367971923828126,0.8797663803853094,0.24404373416304587,1.9686860910773276
1788799259296942600,11.377942626953125,0.8547270700663328,0.4392395585268736,2.0638076762735844
1788799259306913000,11.3879130859375,0.8591928173035382,0.5568962161362171,2.16159760389626
1788799259316883000,11.397883056640625,0.7443056244075298,0.48582069243788717,2.1957266679912806
1788799259326852900,11.407852783203126,0.8899573734015226,0.46087622079551216,2.1246792013436555
1788799259336822800,11.41782275390625,1.1285179999783634,0.4851058221668005,1.84156310146451
1788799259346792700,11.427792724609375,1.3503046018868683,0.5896662668377161,1.5222873084455728
1788799259356763000,11.437762939453124,1.1963409516215324,0.7232049687117338,1.4175059145003557
1788799259366732800,11.44773291015625,1.3989064279705286,1.047924414089322,1.165828324458003
1788799259376702700,11.45770263671875,1.4682622882694005,1.5491209548354148,0.7937082454800606
1788799259386672600,11.467672607421875,1.2281170228496192,1.967016112038493,0.37334699042439456
1788799259396642600,11.477642578125,0.7216970483668148,2.316538574761152,-0.2304267122209072
1788799259406613800,11.48761376953125,0.36609964964464303,2.784112831890583,-0.7253092475146055
1788799259416583700,11.497583740234376,0.15740940680503845,3.1838240976274013,-1.1699234848171471
1788799259426553600,11.5075537109375,-0.2566423728428781,3.512020279204845,-1.5537462765485048
1788799259436523800,11.517523681640625,-0.4814806174069643,3.8557670811355114,-1.8593536096990106
1788799259446494000,11.527493896484375,-0.6589537380754947,3.87667601365149,-2.1661843471646307
1788799259456464000,11.5374638671875,-0.9238869694016874,3.55399245801568,-2.3995377604871986
1788799259466433800,11.547433837890624,-1.6894366034984587,2.915485295641422,-2.9454344437032938
1788799259476403700,11.55740380859375,-1.8883815512627362,1.9713795679450035,-3.3949648023590444
1788799259486373600,11.56737353515625,-2.4111101248592135,1.4286813885092735,-3.577061198914051
1788799259496343800,11.57734375,-2.395482347616553,1.4714718979656696,-3.531576920329034
1788799259506314800,11.587314697265626,-1.5539555353850125,1.02705873619318,-3.3680323717698455
1788799259516284700,11.59728466796875,-1.0116887331038713,0.3956850789606571,-3.27834479432106
1788799259526254800,11.6072548828125,0.3344955739825964,0.11336451337337493,-2.7077842099696396
1788799259536224800,11.617224853515625,1.5955577118396758,-0.6192033269673586,-2.4617080931961537
1788799259546194700,11.627194580078125,1.3496319633223115,-0.40461540439128874,-2.8276258104026315
1788799259556164900,11.637164794921874,0.4957628252595663,-0.2628928115397692,-3.2976965605229136
1788799259566134800,11.647134765625,-0.3239939075820148,-0.4138017504096031,-3.520492047213018
1788799259576105000,11.65710498046875,-0.4377203861355781,-0.925880335175991,-3.4701986147806045
1788799259586075000,11.667074951171875,-0.4630239003486931,-1.1926485268443823,-3.244457430027425
1788799259596044800,11.677044921875,-0.4491555339939892,-1.154502043801546,-2.8555791084721682
1788799259606014700,11.6870146484375,-0.5852374906100333,-0.9769733935534953,-2.5514278193488718
1788799259615986000,11.69698583984375,-0.29817221471369265,-0.47678398402333255,-2.1973019544839856
1788799259625955800,11.706955810546875,-0.18507716593146323,0.06202770936787128,-1.8551593728795646
1788799259635925800,11.71692578125,-0.18753581112995743,0.374170581766963,-1.5802172271057962
1788799259645895700,11.726895751953125,-0.4278185853242874,0.3873755157768726,-1.4058958484664559
1788799259655865600,11.736865478515625,-0.43177506786510345,0.18843232157826423,-1.1647396524384617
1788799259665835800,11.746835693359374,-0.35426541946604845,-0.08581248958110808,-1.0665589719325304
1788799259675805700,11.7568056640625,-0.6238290870718658,-0.1767120731681585,-0.9023612201616168
1788799259685776000,11.76677587890625,-0.3911363296151161,-0.16756430559456348,-0.5195175025954842
1788799259695745800,11.776745849609375,-0.1299579207777977,-0.13893559248149395,-0.4031616984516382
1788799259705716000,11.786716064453126,-0.47955301034525033,-0.100874449634552,-0.5850421141684055
1788799259715686000,11.796685791015625,-0.5575754305720328,-0.0926046339392662,-0.7342109313726425
1788799259725656800,11.80665673828125,-1.0771335574388503,0.04959726686179638,-1.0099819291859864
1788799259735626800,11.816626708984375,-1.2432616927504538,0.23844518350362776,-1.2240654093712569
1788799259745597000,11.826596923828125,-0.9480516888432204,0.3634533729195595,-1.344993928258121
1788799259755566800,11.83656689453125,-0.7501378376923501,0.34665655189752576,-1.5721841427758334
1788799259765536800,11.846536865234375,-0.7615238857120276,0.2991536269664764,-1.8599045215800403
1788799259775506700,11.856506591796874,-0.8211411729373037,0.3698071258604526,-2.028565097978711
1788799259785476600,11.8664765625,-0.8934497455619275,0.27959260192811486,-2.303267589777708
1788799259795446800,11.87644677734375,-1.05331355978176,0.17801847959160805,-2.6886232901647684
1788799259805416700,11.886416748046875,-1.1126539297617972,-0.08027180658876895,-2.8866926241382953
1788799259815387000,11.896386962890626,-0.8101065687038004,-0.3272095086276531,-2.8427488529935476
1788799259825356800,11.906356689453125,-0.6289506678692997,-0.10461422068476676,-2.469250763660669
1788799259835326700,11.91632666015625,0.08956687367856501,0.06101531745493412,-1.977152598388493
1788799259845298000,11.9262978515625,0.3019640082120895,0.23432021252810953,-1.6934987383708358
1788799259855267800,11.936267822265625,-0.41623394599258895,0.8336831129938364,-1.5032131901413202
1788799259865237800,11.94623779296875,-1.276477149131894,1.7534738991230725,-1.3765598638668655
1788799259875207700,11.956207763671875,-1.6000572152160106,2.743856809347868,-1.450782745680213
1788799259885177900,11.966177734375,-1.7709816448934375,2.9970652622193095,-1.639662811025977
1788799259895147800,11.976147705078125,-1.9881366414785384,2.810011827778816,-1.6981594236582516
1788799259905117700,11.98611767578125,-1.6113187600731849,2.436072716680169,-1.315885030412674
1788799259915087600,11.996087646484375,-1.229166970293969,1.9069792842268942,-0.6674807434022426
1788799259925057800,12.006057861328125,-0.7309772101484239,1.3314508483350276,-0.2097486658513546
1788799259935027700,12.01602783203125,-0.4349240334153175,0.6720329998791218,0.29496961928009985
1788799259944998000,12.025997802734375,0.027521044132113454,0.6186679049164057,0.34864801797568795
1788799259954968600,12.035968505859374,0.5378818651951849,1.1937333994716406,0.16352642838060855
1788799259964938800,12.045938720703125,0.4587701884269714,1.5188585030406712,0.5519143360704183
1788799259974909000,12.055908935546874,-0.10826748249530792,1.9396125568062066,0.03181318836808204
1788799259984878800,12.06587890625,-1.2144962015151977,2.463118544515967,-0.5023246679931879
1788799259994848800,12.075848876953126,-2.1393780271731315,2.62298177421391,-0.8344120117902756
1788799260004818700,12.085818603515625,-1.7869412844389676,2.4324147786945103,-0.6827782657772302
1788799260014788900,12.095788818359376,-1.0764840074889361,2.040817845830321,-0.005220949518680572
1788799260024758800,12.1057587890625,-0.11023103765323758,1.239324353301525,1.3413912275910376
1788799260034728700,12.115728759765625,0.6780066674612462,1.0466250219285487,1.7536100927233695
1788799260044698600,12.12569873046875,2.0397019935429097,1.6856740360945461,1.4256021271944046
1788799260054668500,12.13566845703125,1.3616858276009558,0.6641051294893026,3.204666979169845
1788799260064639000,12.145638916015624,0.2593675600230694,0.018272738793492317,3.176815680170059
1788799260074609700,12.155609619140625,-0.5228900477685035,-0.5742191068589687,3.5805011102348563
1788799260084579600,12.16557958984375,-0.5620679927509278,-1.0326339059770107,4.424907861816883
1788799260094550000,12.175550048828125,-0.1046434467792511,-1.3488175781995058,5.019422737729549
1788799260104520000,12.18552001953125,-0.42831652490906413,-1.3615128091216087,4.963810156100988
1788799260114489900,12.19548974609375,-0.6948667629778384,-1.345896722316742,4.2120705823004245
1788799260124459800,12.205459716796875,-0.6597171236634254,-1.0991548351109026,3.715006611314416
1788799260134429700,12.2154296875,0.2370365588147193,-0.5984072071760893,4.097601907077431
1788799260144400000,12.22539990234375,0.910310279469937,-0.15050211163461208,4.664986199480295
1788799260154369800,12.235369873046874,1.027087816157192,-0.08920037845373154,4.702182249930501
1788799260164339700,12.245339599609375,1.1092204481817782,-0.2582406018197536,4.47554850025177
1788799260174309600,12.2553095703125,1.2718429134599865,-0.5561380912452936,4.001896384513378
1788799260184279300,12.265279296875,1.121081493302062,-0.7442956875354051,3.668239014920592
1788799260194250200,12.275250244140626,0.6372226024564355,-0.7763906154543161,3.616811610022187
1788799260204220400,12.285220458984375,0.23422420480772851,-0.8513748370289802,3.3225890097171065
1788799260214190300,12.2951904296875,-0.052742579150199885,-0.6883651259988546,3.1627152586251497
1788799260224160300,12.30516015625,0.34779585812576114,-0.6636831046849488,3.1245681910604235
1788799260234130400,12.31513037109375,0.7475399301536381,-0.797407684519887,3.0192542976737022
1788799260244100400,12.325100341796874,0.6132914725750684,-0.774139621657133,3.3355414302706716
1788799260254070300,12.3350703125,0.6468021125108003,-0.9222849410325288,3.0418437306225297
1788799260264040200,12.345040283203126,0.6040004971385001,-0.8302005315750837,3.0181682560026646
1788799260274010000,12.355010009765625,0.30969197211563587,-0.610537789952755,2.7913924675047395
1788799260283980300,12.364980224609376,-0.06634966422021389,-0.39758360605835913,2.6516478967279196
1788799260293950200,12.3749501953125,-0.11906184823215007,-0.339190453800559,2.1911668127298354
1788799260303920400,12.38492041015625,0.019377923556417227,-0.25047464399337765,2.011086724433303
1788799260313891000,12.39489111328125,0.4154045094311237,-0.18362404451370237,2.15796129322052
1788799260323861200,12.404861328125,0.639848055589199,-0.10202595775723457,2.271830248984694
1788799260333831400,12.41483154296875,0.561333321800828,-0.06936755073666573,2.526642629921436
1788799260343801300,12.42480126953125,0.2268980997033417,0.000827098473906517,2.46844704606235
1788799260353771300,12.434771240234374,0.3585656008780002,0.08303951773643493,2.1480811197191474
1788799260363741400,12.444741455078125,0.34030002247765656,0.29384675273001193,1.8078128075540065
1788799260373711400,12.45471142578125,0.18577698476389048,0.6985270390510558,1.3332622816711663
1788799260383681300,12.464681396484375,0.27568565761744973,1.2520406270116566,0.8711988969177007
1788799260393651200,12.474651123046876,0.4232990620732307,1.8814280788630247,0.4584042777240276
1788799260403621000,12.48462109375,0.3126913000620901,2.3880197566509245,0.12483867806792258
1788799260413591300,12.49459130859375,0.2531092302806675,2.853724128255248,-0.29821137768030165
1788799260423561200,12.504561279296874,0.10968903973102569,3.425744263765216,-0.7867460052520037
1788799260433531400,12.514531494140625,-0.24819953866824507,3.9489614976614713,-1.373258191972971
1788799260443502000,12.524502197265624,-0.7566752766370772,4.3652433744490144,-1.8686048376470803
1788799260453472300,12.53447216796875,-1.154587237866968,4.617677920338511,-2.3712778806865216
1788799260463442400,12.5444423828125,-2.7782687820374963,4.26793509286344,-3.1554511128410696
