time,seconds_elapsed,z,y,x
1788799247990157000,0.071156982421875,-0.23018892109394073,0.16043563187122345,0.22725534439086914
1788799248000127000,0.081126953125,-0.1891554594039917,0.42151781916618347,0.39991500973701477
1788799248010098200,0.09109814453125,-0.2093372493982315,0.5562282800674438,0.4981832802295685
1788799248020068000,0.101068115234375,-0.21371042728424072,0.5714271664619446,0.5485724210739136
1788799248030038000,0.1110380859375,-0.23945632576942444,0.4455396831035614,0.5586463212966919
1788799248040008200,0.12100830078125,-0.3097480535507202,0.29429128766059875,0.49385589361190796
1788799248049978400,0.130978271484375,-0.40034106373786926,0.11951521784067154,0.34019735455513
1788799248059948300,0.1409482421875,-0.4826846718788147,-0.21772272884845734,0.12167005985975266
1788799248069918200,0.150918212890625,-0.5220949053764343,-0.8714969754219055,-0.125219464302063
1788799248079889200,0.16088916015625,-0.31841927766799927,-1.2291829586029053,-0.1241171807050705
1788799248089859300,0.170859375,-0.16978947818279266,-0.9642085433006287,0.07626230269670486
1788799248099829200,0.180829345703125,-0.245731383562088,-0.8154712915420532,0.21760958433151245
1788799248109799200,0.190799072265625,-0.2150721251964569,-0.6046842932701111,0.3206959068775177
1788799248119769000,0.20076904296875,-0.04743386059999466,-0.19808754324913025,0.4113443195819855
1788799248129739000,0.210739013671875,0.14004501700401306,0.18687427043914795,0.4762849509716034
1788799248139710200,0.220710205078125,0.32161614298820496,0.4179772734642029,0.5367647409439087
1788799248149680000,0.23068017578125,0.6607885956764221,0.4622979462146759,0.648526668548584
1788799248159650000,0.240650146484375,1.0048348903656006,0.5848973393440247,0.7933129072189331
1788799248169620000,0.250619873046875,1.128248691558838,0.690809428691864,0.8722937107086182
1788799248179590000,0.26058984375,1.0496224164962769,0.6227707862854004,0.8397800922393799
1788799248189560000,0.27056005859375,0.7978370785713196,0.372968465089798,0.70550537109375
1788799248199531000,0.280531005859375,0.4522853195667267,0.10083257406949997,0.5490036606788635
1788799248209501000,0.2905009765625,0.13646551966667175,-0.1636236608028412,0.44719198346138
1788799248219471000,0.30047119140625,-0.12136629968881607,-0.49583330750465393,0.4352261424064636
1788799248229441000,0.31044091796875,-0.34483006596565247,-0.7790518403053284,0.504443347454071
1788799248239411200,0.3204111328125,-0.5263513922691345,-0.9673961400985718,0.6318948268890381
1788799248249381000,0.330381103515625,-0.6709893941879272,-1.087939977645874,0.7487236261367798
1788799248259351000,0.34035107421875,-0.7614447474479675,-1.1765384674072266,0.8287574648857117
1788799248269322000,0.350322021484375,-0.7947797775268555,-1.2371716499328613,0.8316627740859985
1788799248279292200,0.360292236328125,-0.7459131479263306,-1.206949234008789,0.7318213582038879
1788799248289262000,0.370261962890625,-0.5947313904762268,-1.1576510667800903,0.5284855365753174
1788799248299232000,0.38023193359375,-0.35624265670776367,-1.019451379776001,0.3496382534503937
1788799248309202000,0.390201904296875,-0.010598180815577507,-1.2219408750534058,0.23522301018238068
1788799248319172000,0.400172119140625,0.19807060062885284,-1.3746428489685059,0.2997934818267822
1788799248329143000,0.41014306640625,0.22812366485595703,-1.479824185371399,0.38091138005256653
1788799248339113000,0.420113037109375,0.15036095678806305,-1.5280840396881104,0.4134829044342041
1788799248349083000,0.430082763671875,0.0332760252058506,-1.502945899963379,0.3825300633907318
1788799248359053000,0.440052978515625,-0.05951356887817383,-1.4541213512420654,0.29731956124305725
1788799248369023000,0.45002294921875,-0.10588986426591873,-1.45761239528656,0.1762620359659195
1788799248378994000,0.459993896484375,-0.1569884568452835,-1.5155495405197144,0.03719629347324371
1788799248388963800,0.4699638671875,-0.17711126804351807,-1.5702985525131226,-0.05217680335044861
1788799248398934000,0.47993408203125,-0.14455465972423553,-1.5536370277404785,-0.044332195073366165
1788799248408904200,0.489904296875,-0.07977200299501419,-1.4326359033584595,0.07334946095943451
1788799248419497000,0.5004970703125,-0.036592841148376465,-1.2798911333084106,0.32116350531578064
1788799248429467000,0.510466796875,-0.10858164727687836,-1.1631789207458496,0.5882649421691895
1788799248439436800,0.520436767578125,-0.2722030580043793,-0.9785991311073303,0.7760167717933655
1788799248449408000,0.530407958984375,-0.4741017520427704,-0.6128261089324951,0.8855464458465576
1788799248459378000,0.5403779296875,-0.7654241919517517,-0.3118721544742584,0.8338643312454224
1788799248469347800,0.550347900390625,-1.1513986587524414,-0.3379422128200531,0.4179929196834564
1788799248479318000,0.560318115234375,-1.3278594017028809,-0.5547243356704712,-0.0624176524579525
1788799248489288200,0.5702880859375,-1.219566822052002,-0.6619588732719421,-0.4708102345466614
1788799248499258000,0.580258056640625,-0.9564490914344788,-0.5050041675567627,-0.8301457762718201
1788799248509229000,0.59022900390625,-0.5878764390945435,-0.16326680779457092,-0.9882767796516418
1788799248519199200,0.60019921875,-0.15278545022010803,0.09497886151075363,-0.9478537440299988
1788799248529169200,0.610169189453125,0.2077750414609909,0.16883701086044312,-0.794796884059906
1788799248539139000,0.62013916015625,0.33986490964889526,0.23693378269672394,-0.6615599989891052
1788799248549109000,0.63010888671875,0.25668343901634216,0.35497429966926575,-0.6059591770172119
1788799248559079000,0.640078857421875,0.1762937754392624,0.5102019906044006,-0.5484471321105957
1788799248569050000,0.650050048828125,0.13253258168697357,0.5622637867927551,-0.4989236891269684
1788799248579020000,0.66002001953125,0.0984387919306755,0.5641112327575684,-0.48626837134361267
1788799248588990000,0.669989990234375,0.110759437084198,0.5072857141494751,-0.4808042645454407
1788799248598959900,0.6799599609375,0.16984806954860687,0.39392295479774475,-0.4763354957103729
1788799248608930000,0.689929931640625,0.23450025916099548,0.2575051486492157,-0.4582067131996155
1788799248618900000,0.69989990234375,0.3091702461242676,0.1866120845079422,-0.38558605313301086
1788799248628871000,0.709870849609375,0.3790951669216156,0.15901373326778412,-0.2868499159812927
1788799248638840800,0.7198408203125,0.40686288475990295,0.14545664191246033,-0.22130075097084045
1788799248648811000,0.72981103515625,0.41130298376083374,0.10905563086271286,-0.19517245888710022
1788799248658781000,0.739781005859375,0.3963029980659485,0.06166841462254524,-0.1717049479484558
1788799248668751000,0.749751220703125,0.33817991614341736,-0.019270755350589752,-0.10922853648662567
1788799248678722000,0.75972216796875,0.27104589343070984,-0.04065380617976189,-0.03380807861685753
1788799248688692000,0.76969189453125,0.2377006560564041,-0.05245030298829079,0.005209652706980705
1788799248698662100,0.779662109375,0.26282280683517456,-0.03958244249224663,0.03347671031951904
1788799248708632000,0.789632080078125,0.33859747648239136,-0.01857343316078186,0.07538639008998871
1788799248718602000,0.79960205078125,0.45151814818382263,0.035628288984298706,0.15213949978351593
1788799248728572200,0.809572265625,0.514999508857727,0.05869751796126366,0.2297149896621704
1788799248738543000,0.819543212890625,0.4991304874420166,0.007582404650747776,0.29513898491859436
1788799248748513000,0.829512939453125,0.43038463592529297,-0.050539035350084305,0.3473437428474426
1788799248758483000,0.83948291015625,0.3323174715042114,-0.09153386950492859,0.3587295711040497
1788799248768453000,0.849453125,0.218258336186409,-0.12689991295337677,0.30946701765060425
1788799248778423000,0.859423095703125,0.12208732962608337,-0.1587366759777069,0.2165975421667099
1788799248788394000,0.86939404296875,0.03166714310646057,-0.1520300656557083,0.11855631321668625
1788799248798364000,0.879364013671875,-0.042143166065216064,-0.09704086184501648,0.051568761467933655
1788799248808334000,0.889333984375,-0.10926946997642517,-0.009162940084934235,0.013024828396737576
1788799248818304000,0.899303955078125,-0.18342652916908264,0.13603954017162323,-0.005004239268600941
1788799248828274000,0.90927392578125,-0.2282210737466812,0.2677004039287567,-0.032804325222969055
1788799248838243800,0.919243896484375,-0.2474088817834854,0.3547365069389343,-0.0757501944899559
1788799248848215000,0.929215087890625,-0.2657301425933838,0.3917119801044464,-0.13501408696174622
1788799248858185000,0.93918505859375,-0.2857531011104584,0.349893182516098,-0.17759457230567932
1788799248868155000,0.94915478515625,-0.2940031588077545,0.2477802187204361,-0.18154340982437134
1788799248878125000,0.959125,-0.29094398021698,0.1399293839931488,-0.14708715677261353
1788799248888095200,0.96909521484375,-0.2910868525505066,0.06516988575458527,-0.09798534959554672
1788799248898065200,0.979065185546875,-0.29389461874961853,0.02016938477754593,-0.06123984977602959
1788799248908036000,0.9890361328125,-0.27837204933166504,0.024367883801460266,-0.054425109177827835
1788799248918006000,0.999006103515625,-0.26206260919570923,0.08424932509660721,-0.08703365176916122
1788799248927976200,1.00897607421875,-0.2509470283985138,0.14871381223201752,-0.14517848193645477
1788799248937946000,1.018946044921875,-0.22726912796497345,0.2216479331254959,-0.20894095301628113
1788799248947916000,1.028916015625,-0.19935166835784912,0.2546296715736389,-0.2600993514060974
1788799248957887000,1.038886962890625,-0.1903965175151825,0.2102169245481491,-0.27794891595840454
1788799248967857200,1.048857177734375,-0.21005474030971527,0.1711527556180954,-0.24375368654727936
1788799248977827000,1.0588271484375,-0.22983430325984955,0.13598518073558807,-0.1666482388973236
1788799248987797000,1.068796875,-0.2277248352766037,0.10987117141485214,-0.07686193287372589
1788799248997767000,1.078766845703125,-0.19475224614143372,0.09963424503803253,0.017645129933953285
1788799249007736800,1.08873681640625,-0.15885895490646362,0.0756458193063736,0.08862689137458801
1788799249017708000,1.0987080078125,-0.13742077350616455,0.09621128439903259,0.1269361972808838
1788799249027678000,1.108677978515625,-0.11341472715139389,0.13262192904949188,0.12070566415786743
1788799249037648000,1.11864794921875,-0.11262323707342148,0.12816591560840607,0.08863721042871475
1788799249047617800,1.12861767578125,-0.15058518946170807,0.13528995215892792,0.04429410770535469
1788799249057588200,1.138588134765625,-0.1875581294298172,0.1260506510734558,-0.014570540748536587
1788799249067559000,1.148558837890625,-0.22075499594211578,0.10856922715902328,-0.06958392262458801
1788799249077528800,1.15852880859375,-0.25583016872406006,0.07409780472517014,-0.12546822428703308
1788799249087499300,1.168499267578125,-0.28703492879867554,0.02326035499572754,-0.18937164545059204
1788799249097469200,1.17846923828125,-0.30658385157585144,-0.0067396219819784164,-0.24270065128803253
1788799249107439000,1.188439208984375,-0.3130926787853241,0.01223481260240078,-0.26998457312583923
1788799249117409000,1.198408935546875,-0.30009886622428894,0.03348630666732788,-0.2667379379272461
1788799249127380200,1.208380126953125,-0.28779226541519165,0.08423851430416107,-0.21714283525943756
1788799249137350100,1.21835009765625,-0.2708926200866699,0.16511684656143188,-0.1283314824104309
1788799249147320000,1.228320068359375,-0.23846250772476196,0.20412202179431915,-0.036989595741033554
1788799249157290000,1.2382900390625,-0.20467524230480194,0.20406316220760345,0.03168214112520218
1788799249167259000,1.2482587890625,-0.1835036426782608,0.18937323987483978,0.07252267748117447
1788799249177228800,1.258228759765625,-0.16883176565170288,0.13586394488811493,0.09555423259735107
1788799249187199700,1.26819970703125,-0.13638989627361298,0.06384491175413132,0.1433011144399643
1788799249197170000,1.278169921875,-0.07284341752529144,0.021835140883922577,0.26206159591674805
1788799249207140000,1.28814013671875,-0.04094273969531059,-0.13116419315338135,0.4080791473388672
1788799249217110000,1.298110107421875,-0.04045804589986801,-0.29066622257232666,0.5929808020591736
1788799249227080000,1.308079833984375,0.03900477662682533,-0.4031951427459717,0.7509584426879883
1788799249237051100,1.318051025390625,0.13199463486671448,-0.4304608404636383,0.7884466648101807
1788799249247021000,1.32802099609375,0.216181680560112,-0.3739178776741028,0.7133808135986328
1788799249256991000,1.337990966796875,0.2830653786659241,-0.2817938029766083,0.6043001413345337
1788799249266961000,1.3479609375,0.31052640080451965,-0.17385803163051605,0.4649224877357483
1788799249276930800,1.357930908203125,0.29451173543930054,-0.047262538224458694,0.2824011445045471
1788799249286901000,1.36790087890625,0.2303532510995865,0.030343856662511826,0.08706095069646835
1788799249296872000,1.377871826171875,0.16485732793807983,0.10146277397871017,-0.10503152012825012
1788799249306841900,1.387841796875,0.15834996104240417,0.15604208409786224,-0.26821956038475037
1788799249316811800,1.397811767578125,0.21320362389087677,0.18888817727565765,-0.3799964189529419
1788799249326782000,1.407781982421875,0.2814862132072449,0.17612208425998688,-0.42128804326057434
1788799249336751900,1.417751953125,0.3400443494319916,0.15278692543506622,-0.3841012418270111
1788799249346721800,1.4277216796875,0.3754110038280487,0.1191369816660881,-0.3114696443080902
1788799249356692700,1.437692626953125,0.35976359248161316,0.05424719303846359,-0.2273438572883606
1788799249366663000,1.447662841796875,0.2966289222240448,-0.04677494987845421,-0.1849275678396225
1788799249376632800,1.4576328125,0.21242935955524445,-0.19430822134017944,-0.17558173835277557
1788799249386602800,1.467602783203125,0.15384523570537567,-0.31602180004119873,-0.17461302876472473
1788799249396573000,1.477572998046875,0.1146986335515976,-0.36138609051704407,-0.18084055185317993
1788799249406544000,1.4875439453125,0.11118270456790924,-0.33270788192749023,-0.20071029663085938
1788799249416513800,1.497513671875,0.10457540303468704,-0.25705572962760925,-0.23109057545661926
1788799249426484000,1.50748388671875,0.11709442734718323,-0.12905080616474152,-0.2530357539653778
1788799249436454000,1.517453857421875,0.1506877988576889,0.031202251091599464,-0.2831137776374817
1788799249446424000,1.527424072265625,0.1810743808746338,0.15645697712898254,-0.3136264383792877
1788799249456394000,1.53739404296875,0.19021327793598175,0.17646344006061554,-0.3453878164291382
1788799249466365000,1.547364990234375,0.15403133630752563,0.10467119514942169,-0.36426517367362976
1788799249476334800,1.5573349609375,0.08488395810127258,-0.0005819930229336023,-0.367576539516449
1788799249486305000,1.567304931640625,0.0014695264399051666,-0.09378586709499359,-0.3530274033546448
1788799249496275000,1.57727490234375,-0.07363267987966537,-0.13198783993721008,-0.33480605483055115
1788799249506244900,1.587244873046875,-0.10028619319200516,-0.15039484202861786,-0.3258354365825653
1788799249516214800,1.59721484375,-0.08239054679870605,-0.10940533131361008,-0.32152482867240906
1788799249526186000,1.60718603515625,-0.05270189046859741,-0.03955274447798729,-0.3376968801021576
1788799249536156000,1.617156005859375,-0.0356677807867527,0.12219753861427307,-0.3677048683166504
1788799249546125800,1.627125732421875,-0.035198457539081573,0.19901302456855774,-0.42141324281692505
1788799249556095700,1.637095703125,-0.05944440886378288,0.17760227620601654,-0.48483774065971375
1788799249566065700,1.647065673828125,-0.06443915516138077,0.10111702978610992,-0.5246987342834473
1788799249576036900,1.657036865234375,-0.030489444732666016,-0.020189428701996803,-0.5021532773971558
1788799249586006800,1.6670068359375,-0.01831386238336563,-0.17379361391067505,-0.43798524141311646
1788799249595976700,1.676976806640625,-0.012707642279565334,-0.3044741153717041,-0.3491474986076355
1788799249605947100,1.686947021484375,0.008387967944145203,-0.40231361985206604,-0.24512866139411926
1788799249615917000,1.6969169921875,0.01764298602938652,-0.4437907636165619,-0.12741374969482422
1788799249625887000,1.706886962890625,0.021543309092521667,-0.3762974739074707,-0.016326315701007843
1788799249635858000,1.71685791015625,0.02011558972299099,-0.2367078959941864,0.04711497202515602
1788799249645828000,1.726828125,0.01750536821782589,-0.10186008363962173,0.06226145848631859
1788799249655798000,1.736798095703125,0.028902100399136543,-0.014111055992543697,0.04482201486825943
1788799249665768000,1.746767822265625,0.041756950318813324,0.0315888337790966,0.03541864827275276
1788799249675737900,1.75673779296875,0.05684961751103401,0.0660855621099472,0.07578471302986145
1788799249685707800,1.766707763671875,0.0628989189863205,0.06222115829586983,0.17213545739650726
1788799249695679000,1.776678955078125,0.05628228932619095,0.0012150611728429794,0.3180482089519501
1788799249705649000,1.78664892578125,0.03867526724934578,-0.1109287440776825,0.5021092891693115
1788799249715618800,1.796618896484375,0.004511171951889992,-0.23054169118404388,0.6923967003822327
1788799249725588700,1.806588623046875,-0.04301862046122551,-0.3495126962661743,0.8219338655471802
1788799249735559000,1.816558837890625,-0.10091787576675415,-0.52632737159729,0.8720260858535767
1788799249745528800,1.82652880859375,-0.19418655335903168,-0.7235162854194641,0.8542179465293884
1788799249755499800,1.836499755859375,-0.3141302466392517,-0.9674818515777588,0.7661173343658447
1788799249765469700,1.8464697265625,-0.5262126922607422,-1.0307890176773071,0.5723742246627808
1788799249775440000,1.85643994140625,-0.5698285698890686,-1.2410684823989868,0.30971860885620117
1788799249785410000,1.86641015625,-0.544054388999939,-1.2643200159072876,0.12749600410461426
1788799249795380000,1.8763798828125,-0.42372792959213257,-1.3258033990859985,0.0015045213513076305
1788799249805351000,1.886350830078125,-0.04947497695684433,-1.6853700876235962,-0.06550194323062897
1788799249815321000,1.896321044921875,-0.12774954736232758,-1.6704001426696777,-0.1601134091615677
1788799249825291000,1.906291015625,-0.019078277051448822,-1.5744941234588623,0.026615502312779427
1788799249835261000,1.916260986328125,-0.03731001168489456,-1.8184114694595337,0.09644891321659088
1788799249845230800,1.92623095703125,-0.2241123765707016,-1.6937865018844604,0.29794180393218994
1788799249855201000,1.936200927734375,-0.2805247902870178,-1.538191318511963,0.6054700613021851
1788799249865172000,1.946171875,-0.23559033870697021,-1.3609282970428467,0.9015669822692871
1788799249875142000,1.956141845703125,-0.22847016155719757,-0.9892470240592957,0.9298876523971558
1788799249885111800,1.96611181640625,-0.4004003703594208,-0.49956852197647095,0.9113138914108276
1788799249895082000,1.97608203125,-0.42368704080581665,-0.8803816437721252,1.0581672191619873
1788799249905052000,1.986052001953125,-0.22290290892124176,-2.031730890274048,1.121058464050293
1788799249915021800,1.996021728515625,-0.08781619369983673,-3.0155189037323,0.901260256767273
1788799249924992800,2.00599267578125,0.07951109856367111,-3.736875534057617,0.5316451787948608
1788799249934963000,2.015962890625,0.24812540411949158,-3.941507339477539,0.136971116065979
1788799249944932900,2.025932861328125,0.2619277238845825,-3.5653796195983887,-0.3019423186779022
1788799249954902800,2.03590283203125,0.26042890548706055,-2.671442747116089,-0.7956295609474182
1788799249964873000,2.045873046875,0.27101972699165344,-1.6629375219345093,-1.1374887228012085
1788799249974843100,2.055843017578125,0.3284124433994293,-0.7900253534317017,-1.2617435455322266
1788799249984813800,2.065813720703125,0.5727538466453552,-0.30201712250709534,-1.2894350290298462
1788799249994784000,2.075783935546875,0.9779463410377502,-0.3120705485343933,-1.201343059539795
1788799250004754000,2.08575390625,1.4353936910629272,-0.4763413071632385,-1.004055142402649
1788799250014724000,2.09572412109375,1.7411993741989136,-0.7512836456298828,-0.7594006061553955
1788799250024694000,2.105694091796875,1.9245662689208984,-1.090912103652954,-0.4558541178703308
1788799250034665000,2.1156650390625,2.17349910736084,-1.4790520668029785,-0.09353239834308624
1788799250044635000,2.125634765625,2.5607736110687256,-2.0370874404907227,0.3273031711578369
1788799250054605000,2.13560498046875,2.829357624053955,-2.8535995483398438,0.9136534333229065
1788799250064575000,2.145574951171875,2.7549705505371094,-3.505099296569824,1.6238611936569214
1788799250074545000,2.155544921875,2.341371774673462,-3.925539016723633,2.299340009689331
1788799250084514800,2.165514892578125,1.649527668952942,-3.9137392044067383,2.7266030311584473
1788799250094486000,2.175486083984375,1.083314061164856,-3.0942468643188477,2.597223997116089
1788799250104456000,2.1854560546875,1.2617628574371338,-2.450937271118164,2.183401584625244
1788799250114425900,2.19542578125,1.7034534215927124,-2.417071580886841,1.9748799800872803
1788799250124395800,2.205395751953125,2.151671886444092,-2.5413401126861572,1.9016163349151611
1788799250134365700,2.21536572265625,2.7151498794555664,-2.84303617477417,1.9986120462417603
1788799250144336000,2.2253359375,3.384040594100952,-3.1637585163116455,2.2104969024658203
1788799250154306800,2.235306884765625,3.960576057434082,-3.3258731365203857,2.448361396789551
1788799250164276700,2.24527685546875,4.182799339294434,-3.1255252361297607,2.654218912124634
1788799250174247700,2.25524755859375,4.308087348937988,-2.624321937561035,2.7081148624420166
1788799250184217600,2.265217529296875,4.518467426300049,-1.9508051872253418,2.613312244415283
1788799250194187500,2.2751875,4.897284984588623,-1.1637049913406372,2.4227895736694336
1788799250204157700,2.28515771484375,5.202830791473389,-0.6756882071495056,2.2166314125061035
1788799250214128600,2.295128662109375,5.3682169914245605,-0.6787716150283813,2.0377891063690186
1788799250224098600,2.3050986328125,5.451816082000732,-0.967743992805481,1.9812812805175781
1788799250234068700,2.31506884765625,5.666631698608398,-1.5129125118255615,2.051570177078247
1788799250244038700,2.32503857421875,6.5019683837890625,-2.274479389190674,2.2109718322753906
1788799250254008800,2.3350087890625,6.742282390594482,-1.9818522930145264,2.1898863315582275
1788799250263978800,2.344978759765625,6.154201984405518,-1.5319938659667969,2.1330490112304688
1788799250273949700,2.35494970703125,5.28717565536499,-1.4269604682922363,2.0875020027160645
1788799250283919600,2.364919677734375,4.40880823135376,-1.3944618701934814,2.0837934017181396
1788799250293889800,2.374889892578125,3.5398881435394287,-1.2616362571716309,2.0263869762420654
1788799250303859700,2.384859619140625,2.8854315280914307,-1.3743213415145874,1.9630235433578491
1788799250313829600,2.39482958984375,2.5720441341400146,-1.6979219913482666,1.9430618286132812
1788799250323799600,2.404799560546875,2.495307207107544,-1.9120687246322632,2.1563267707824707
1788799250333770800,2.414770751953125,2.415435791015625,-1.8366611003875732,2.5318026542663574
1788799250343740700,2.42474072265625,2.148813486099243,-1.7364723682403564,2.5505211353302
1788799250353710600,2.434710693359375,1.712069034576416,-1.7934569120407104,2.228947877883911
1788799250363680500,2.444680419921875,1.045772671699524,-1.8497878313064575,1.7361284494400024
1788799250373650400,2.454650390625,0.3038753271102905,-2.0448148250579834,1.2824400663375854
1788799250383621600,2.46462158203125,-0.3717678487300873,-1.9335224628448486,1.1251055002212524
1788799250393591600,2.474591552734375,-0.915772557258606,-2.460907459259033,0.13283731043338776
1788799250403561500,2.4845615234375,-0.8723182678222656,-1.729430913925171,-0.36947372555732727
1788799250413531600,2.49453173828125,-0.45009809732437134,-0.9102008938789368,-0.4956413507461548
1788799250423501800,2.504501708984375,-0.1109674721956253,-0.5301153063774109,-0.5125179290771484
1788799250433471700,2.5144716796875,-0.01964474841952324,-0.3546481132507324,-0.384678453207016
1788799250443442700,2.524442626953125,0.0382675863802433,-0.3615962266921997,-0.13699696958065033
1788799250453412900,2.534412841796875,0.15380829572677612,-0.5586346983909607,0.14030547440052032
1788799250463382800,2.5443828125,0.3123597502708435,-0.8114292621612549,0.3723514676094055
1788799250473352700,2.554352783203125,0.44189590215682983,-1.0176141262054443,0.4891795516014099
1788799250483322600,2.564322509765625,0.44004887342453003,-1.2648924589157104,0.5070467591285706
1788799250493292500,2.57429248046875,0.3197469711303711,-1.5231913328170776,0.5210264921188354
1788799250503263700,2.584263671875,0.33657920360565186,-1.658182144165039,0.5757321715354919
1788799250513233700,2.594233642578125,0.4561801850795746,-1.7720924615859985,0.5683512091636658
1788799250523203600,2.60420361328125,0.5101090669631958,-1.6869759559631348,0.5124883055686951
1788799250533173500,2.614173583984375,0.5214259028434753,-1.5380014181137085,0.4282264709472656
1788799250543143700,2.624143798828125,0.4868376851081848,-1.3822712898254395,0.3792484402656555
1788799250553113600,2.634113525390625,0.30142414569854736,-1.1354258060455322,0.3673369288444519
1788799250563084500,2.64408447265625,0.03358466923236847,-0.6826025247573853,0.4341755509376526
1788799250573054500,2.654054443359375,-0.21473459899425507,-0.09912949055433273,0.5744866132736206
1788799250583024600,2.664024658203125,-0.49142640829086304,0.5740551352500916,0.7709003686904907
1788799250592994800,2.673994873046875,-0.6191555857658386,0.7430798411369324,0.9317420125007629
1788799250602964700,2.68396484375,-0.5314003825187683,0.47824910283088684,0.4502808451652527
1788799250612935400,2.693935302734375,-0.46828049421310425,0.6985596418380737,0.13102826476097107
1788799250622905900,2.70390576171875,-0.2483350783586502,0.7457261681556702,-0.09111329913139343
1788799250632875800,2.713875732421875,0.028640329837799072,0.6223735809326172,-0.1895940601825714
1788799250642845700,2.723845703125,0.1592639982700348,0.46481433510780334,-0.17810684442520142
1788799250652815600,2.733815673828125,0.18617816269397736,0.3352789878845215,-0.0893426164984703
1788799250662785800,2.743785888671875,0.23069418966770172,0.21851758658885956,-0.020147759467363358
1788799250672756700,2.7537568359375,0.3396565914154053,0.26767072081565857,0.051165301352739334
1788799250682726700,2.7637265625,0.47072213888168335,0.37740445137023926,0.05884259194135666
1788799250692696600,2.773696533203125,0.5542250275611877,0.48264750838279724,0.004321825224906206
1788799250702666800,2.783666748046875,0.5885521769523621,0.48930326104164124,-0.08492648601531982
1788799250712636700,2.79363671875,0.5819353461265564,0.4407684803009033,-0.1384001076221466
1788799250722606600,2.803606689453125,0.5692699551582336,0.3085843622684479,-0.10896970331668854
1788799250732577500,2.81357763671875,0.5577733516693115,0.08687592297792435,-0.1705894023180008
1788799250742547700,2.823547607421875,0.5520254969596863,0.2997853457927704,-0.23940162360668182
1788799250752517600,2.833517578125,0.6051766276359558,0.5712082982063293,-0.34450459480285645
1788799250762487600,2.843487548828125,0.6692914962768555,0.94278484582901,-0.49638882279396057
1788799250772457500,2.85345751953125,0.6836824417114258,1.3643008470535278,-0.6464598178863525
1788799250782428700,2.8634287109375,0.6443812251091003,1.3547556400299072,-0.7717547416687012
1788799250792398600,2.873398681640625,0.5099320411682129,1.0545763969421387,-0.7374796271324158
1788799250802368800,2.88336865234375,0.21674226224422455,0.5851612687110901,-0.5602036118507385
1788799250812338700,2.893338623046875,0.041960325092077255,-0.04219238832592964,-0.28310757875442505
1788799250822308600,2.90330859375,-0.006374748889356852,-0.39256754517555237,-0.06824910640716553
1788799250832278800,2.91327880859375,0.005617998074740171,-0.7453935146331787,-0.02574772574007511
1788799250842249700,2.923249755859375,0.02437620609998703,-1.0389344692230225,0.08403625339269638
1788799250852219600,2.9332197265625,0.13044218719005585,-1.2499064207077026,0.119014210999012
1788799250862189800,2.94318994140625,0.38829073309898376,-1.787959098815918,0.017474070191383362
1788799250872159700,2.95315966796875,0.6663538217544556,-2.0463898181915283,-0.02671016938984394
1788799250882129700,2.963129638671875,0.9882155060768127,-1.924895167350769,-0.06646256148815155
1788799250892099600,2.973099609375,1.2744197845458984,-1.9888858795166016,-0.249594047665596
1788799250902070800,2.98307080078125,1.5840598344802856,-2.262969732284546,-0.3328021168708801
1788799250912040700,2.993040771484375,2.0000054836273193,-2.4948489665985107,-0.27186551690101624
1788799250922010600,3.0030107421875,2.419015645980835,-2.8559393882751465,-0.012486513704061508
1788799250931980500,3.01298046875,2.684328079223633,-3.219191551208496,0.16393086314201355
1788799250941950500,3.022950439453125,2.829315662384033,-3.6268064975738525,0.17595838010311127
1788799250951920600,3.032920654296875,2.5783815383911133,-3.7346675395965576,0.18410205841064453
1788799250961891600,3.0428916015625,1.9259644746780396,-3.4856112003326416,0.13070523738861084
1788799250971861500,3.052861572265625,1.6512658596038818,-2.3713603019714355,-0.06286396086215973
1788799250981831400,3.06283154296875,2.083728313446045,-1.2889811992645264,-0.10660235583782196
1788799250991801900,3.0728017578125,2.825225830078125,-1.0100255012512207,-0.21536213159561157
1788799251001771800,3.082771728515625,3.5909929275512695,-0.7867080569267273,-0.3861181139945984
1788799251011742500,3.092742431640625,4.1859025955200195,-0.34307289123535156,-0.5702871680259705
1788799251021712600,3.102712646484375,4.5742645263671875,-0.22229431569576263,-0.7128937244415283
1788799251031682800,3.112682861328125,4.850949764251709,-0.45323458313941956,-0.6721020936965942
1788799251041652700,3.12265283203125,5.121667861938477,-0.6702156662940979,-0.469575434923172
1788799251051622700,3.13262255859375,5.25146484375,-0.5829614996910095,-0.3393918573856354
1788799251061592600,3.142592529296875,3.922605276107788,-0.5788583159446716,-0.5499568581581116
1788799251071563800,3.152563720703125,1.0125089883804321,-1.2194085121154785,-0.7726791501045227
1788799251081533700,3.16253369140625,-0.3626399338245392,-1.1155903339385986,-0.7317241430282593
1788799251091503600,3.172503662109375,-0.023467998951673508,-1.0855714082717896,-0.4010961949825287
1788799251101473500,3.1824736328125,0.39078977704048157,-0.5495101809501648,-0.39360642433166504
1788799251111443700,3.192443603515625,0.026639249175786972,0.5036944150924683,-0.6343734860420227
1788799251121413600,3.20241357421875,-0.7334917783737183,1.2743288278579712,-0.9662321209907532
1788799251131384600,3.212384521484375,-1.391974925994873,1.6326625347137451,-0.9820188283920288
1788799251141354500,3.2223544921875,-1.6526249647140503,2.133399724960327,-0.886710524559021
1788799251151324700,3.23232470703125,-2.047529458999634,3.055020332336426,-1.047441005706787
1788799251161294600,3.242294677734375,-2.307393789291382,2.8565800189971924,-1.1161956787109375
1788799251171264500,3.252264404296875,-2.1129040718078613,2.49587345123291,-0.8939074873924255
1788799251181234400,3.262234375,-2.0019423961639404,2.537017583847046,-0.3400422930717468
1788799251191205400,3.272205322265625,-2.3777854442596436,2.4251668453216553,0.057544462382793427
1788799251201175300,3.28217529296875,-3.1090035438537598,2.536351442337036,0.04479218274354935
1788799251211145500,3.2921455078125,-3.816347360610962,2.3795807361602783,-0.1931585967540741
1788799251221115400,3.302115478515625,-4.1871466636657715,1.673972725868225,-0.4835731089115143
1788799251231085300,3.312085205078125,-3.873631238937378,0.7591076493263245,-0.9900922775268555
1788799251241055200,3.32205517578125,-3.2066538333892822,0.442978173494339,-1.288565754890442
1788799251251026400,3.3320263671875,-2.7309067249298096,1.0171817541122437,-1.142115831375122
1788799251260996400,3.341996337890625,-2.4108190536499023,1.5813177824020386,-0.8151061534881592
1788799251270966300,3.35196630859375,-2.1744019985198975,1.1520583629608154,-0.4334466755390167
1788799251280936200,3.361936279296875,-1.753393530845642,0.2538365125656128,-0.11836417764425278
1788799251290906400,3.37190625,-1.3068556785583496,-0.1913396418094635,-0.10809582471847534
1788799251300876300,3.381876220703125,-0.9565688371658325,-0.22578008472919464,-0.2992875874042511
1788799251310847200,3.39184716796875,-0.6773632764816284,-0.1864156424999237,-0.586840808391571
1788799251320817200,3.401817138671875,-0.5626676082611084,-0.20127002894878387,-0.9606766104698181
1788799251330787300,3.411787353515625,-0.450724333524704,-0.1402045339345932,-1.0929369926452637
1788799251340757200,3.42175732421875,-0.0936964601278305,-0.36973264813423157,-0.994217574596405
1788799251350727400,3.4317275390625,0.19005349278450012,-0.34990862011909485,-0.9509243965148926
1788799251360697300,3.441697265625,0.05253390967845917,0.261875718832016,-0.9087038040161133
1788799251370668300,3.451668212890625,-0.5821889638900757,0.7226958274841309,-0.9513234496116638
1788799251380638500,3.461638427734375,-1.0793575048446655,0.5021122097969055,-1.0914552211761475
1788799251390608400,3.4716083984375,-1.161278247833252,0.04529216140508652,-1.0592267513275146
1788799251400578300,3.481578369140625,-0.9176879525184631,0.035530850291252136,-0.8685970306396484
1788799251410548200,3.49154833984375,-0.5122509598731995,0.5256587862968445,-0.671518087387085
1788799251420518400,3.501518310546875,-0.4562565088272095,0.9731775522232056,-0.5021146535873413
1788799251430489300,3.5114892578125,-0.7064753770828247,0.9602963924407959,-0.42767956852912903
1788799251440459300,3.521459228515625,-0.7995831966400146,0.8626489043235779,-0.42252928018569946
1788799251450429400,3.531429443359375,-0.8984530568122864,0.5267918109893799,-0.3549710214138031
1788799251460399400,3.5413994140625,-0.8994882106781006,0.3308465778827667,-0.2930038869380951
1788799251470369300,3.551369384765625,-0.9168909192085266,0.08220399916172028,-0.3226930797100067
1788799251480339200,3.561339111328125,-0.8564395904541016,-0.2252221405506134,-0.44743871688842773
1788799251490310400,3.571310302734375,-0.8125306963920593,-0.4652120769023895,-0.5054319500923157
1788799251500280300,3.5812802734375,-0.7365612387657166,-0.6215274333953857,-0.5021572709083557
1788799251510250200,3.591250244140625,-0.664129912853241,-0.6978024840354919,-0.48623186349868774
1788799251520220200,3.60122021484375,-0.5032562017440796,-0.6318219304084778,-0.44998955726623535
1788799251530190300,3.6111904296875,-0.3601541221141815,-0.6115014553070068,-0.35938161611557007
1788799251540161300,3.621161376953125,-0.35108786821365356,-0.7626194357872009,-0.3434610366821289
1788799251550131200,3.631131103515625,-0.12137451767921448,-0.6541534662246704,-0.2511950135231018
1788799251560101400,3.641101318359375,0.17573602497577667,-0.3633136451244354,-0.23521465063095093
1788799251570071300,3.6510712890625,0.36149951815605164,-0.28107950091362,-0.2810940146446228
1788799251580041500,3.66104150390625,0.39019906520843506,-0.25399988889694214,-0.2322503924369812
1788799251590011400,3.671011474609375,0.6085553765296936,-0.16142097115516663,-0.16442741453647614
1788799251599981300,3.680981201171875,0.8509310483932495,-0.04174149036407471,-0.049224838614463806
1788799251609952300,3.6909521484375,1.0462582111358643,0.20316919684410095,0.04161452502012253
1788799251619922400,3.70092236328125,1.1453267335891724,0.496126264333725,0.10043919831514359
1788799251629892400,3.710892333984375,1.2393068075180054,0.576933741569519,0.19182637333869934
1788799251639862300,3.7208623046875,1.2445247173309326,0.6666492223739624,0.29601043462753296
1788799251649832200,3.730832275390625,1.0001485347747803,0.8275840282440186,0.3378202021121979
1788799251659802400,3.74080224609375,0.6328744292259216,0.9397085905075073,0.3402462303638458
1788799251669773300,3.750773193359375,0.4293769896030426,0.7654460072517395,0.34017860889434814
1788799251679743200,3.7607431640625,0.4043423533439636,0.7780678272247314,0.4073450565338135
1788799251689713200,3.770713134765625,0.46964120864868164,0.9288780689239502,0.45130613446235657
1788799251699683300,3.780683349609375,0.5109063982963562,0.9816150069236755,0.48311886191368103
1788799251709653500,3.790653564453125,0.5640822649002075,0.9915807843208313,0.5284881591796875
1788799251719624200,3.800624267578125,0.6186444759368896,0.9726254343986511,0.5551645755767822
1788799251729594000,3.810593994140625,0.618030846118927,0.8953442573547363,0.5608029961585999
1788799251739564500,3.820564453125,0.5439639091491699,0.7388311624526978,0.5736547112464905
1788799251749534500,3.830534423828125,0.40911373496055603,0.5879366993904114,0.5360066890716553
1788799251759504400,3.84050439453125,0.25670766830444336,0.508104145526886,0.4889644980430603
1788799251769474300,3.850474365234375,0.16980819404125214,0.5205956697463989,0.5336976051330566
1788799251779445500,3.860445556640625,0.09631013870239258,0.6014554500579834,0.5972033143043518
1788799251789415400,3.87041552734375,0.10496807843446732,0.6509956121444702,0.5884063839912415
1788799251799385300,3.88038525390625,0.07186952978372574,0.7833608984947205,0.6035632491111755
1788799251809355300,3.890355224609375,0.11315358430147171,0.904594361782074,0.662264883518219
1788799251819325200,3.9003251953125,0.2542104423046112,0.8150087594985962,0.7652140259742737
1788799251829295400,3.91029541015625,0.47234517335891724,0.6065530180931091,0.8157272934913635
1788799251839266300,3.920266357421875,0.6461319327354431,0.5581796765327454,0.8763508200645447
1788799251849236200,3.930236328125,0.8779968619346619,0.5075109004974365,0.8866096138954163
1788799251859206400,3.940206298828125,1.2129424810409546,0.4637084901332855,0.7806047797203064
1788799251869176300,3.95017626953125,1.4011362791061401,0.5602734088897705,0.7317700982093811
1788799251879146200,3.960146240234375,1.566389799118042,0.5606409311294556,0.9043095707893372
1788799251889116200,3.9701162109375,1.9301466941833496,-0.19919808208942413,0.7459955215454102
1788799251899087400,3.98008740234375,1.8618847131729126,0.5152857899665833,0.7801735997200012
1788799251909057300,3.990057373046875,1.9075238704681396,0.09079045057296753,0.9910738468170166
1788799251919027500,4.00002734375,2.2866616249084473,-0.06523209065198898,0.9422664642333984
1788799251928997400,4.009997314453125,2.461918592453003,-0.05192640423774719,0.8140384554862976
1788799251938967300,4.01996728515625,2.466864585876465,0.41630759835243225,0.6523132920265198
1788799251948937500,4.0299375,2.423646926879883,0.4025302827358246,0.53580242395401
1788799251958908400,4.039908447265625,2.344123363494873,0.26462507247924805,0.3058486580848694
1788799251968878300,4.04987841796875,2.2462925910949707,0.24895554780960083,0.05497036501765251
1788799251978848300,4.05984814453125,2.191149950027466,0.17626312375068665,-0.11465950310230255
1788799251988818400,4.069818359375,2.1630842685699463,0.3749197721481323,-0.19385898113250732
1788799251998788400,4.079788330078125,2.2942311763763428,0.4473625123500824,-0.21137474477291107
1788799252008758300,4.08975830078125,2.5298445224761963,0.8590579032897949,-0.17533019185066223
1788799252018729200,4.099729248046875,3.0713677406311035,1.2585468292236328,0.23266014456748962
1788799252028699400,4.109699462890625,3.6225037574768066,2.2444934844970703,0.6181628704071045
1788799252038669300,4.11966943359375,3.704575300216675,2.4930851459503174,0.6129118204116821
1788799252048639200,4.12963916015625,2.968813896179199,1.3737434148788452,0.5325202941894531
1788799252058609200,4.139609130859375,2.765277862548828,0.3866620659828186,0.8519353866577148
1788799252068579300,4.149579345703125,2.677689790725708,0.17401689291000366,1.1349611282348633
1788799252078550300,4.15955029296875,2.296099901199341,0.37386518716812134,1.079656958580017
1788799252088520200,4.169520263671875,1.8913404941558838,0.6474743485450745,0.8800442218780518
1788799252098490000,4.179489990234375,1.5754387378692627,1.1101782321929932,0.6706571578979492
1788799252108460500,4.18946044921875,1.3148164749145508,1.1962769031524658,0.49388957023620605
1788799252118430500,4.199430419921875,1.2193803787231445,0.6435289978981018,0.37936171889305115
1788799252128400400,4.209400390625,1.0872143507003784,-0.3426816463470459,0.1776115596294403
1788799252138371300,4.219371337890625,0.6546107530593872,-0.7131237983703613,-0.0486491434276104
1788799252148341500,4.229341552734375,0.24193957448005676,-0.49752122163772583,-0.12496494501829147
1788799252158311400,4.2393115234375,0.12303163856267929,-0.47559303045272827,0.004405786748975515
1788799252168281300,4.24928125,0.1021183654665947,-0.680654764175415,0.17025014758110046
1788799252178252000,4.259251953125,-0.21199601888656616,-0.8991574645042419,0.08044473081827164
1788799252188223200,4.26922314453125,-0.23384912312030792,-0.942120373249054,0.009440068155527115
1788799252198193200,4.279193115234375,-0.049454573541879654,-0.8554177284240723,0.056423842906951904
1788799252208163000,4.2891630859375,0.15117760002613068,-0.43121960759162903,0.07341428101062775
1788799252218133000,4.299133056640625,0.1740611046552658,0.14387015998363495,-0.009489087387919426
1788799252228103000,4.30910302734375,-0.08035945892333984,0.6294286251068115,-0.004265029914677143
1788799252238073000,4.319072998046875,-0.40603044629096985,0.9296942353248596,0.0670795887708664
1788799252248044000,4.3290439453125,-0.5900726914405823,1.4156163930892944,0.0016379975713789463
1788799252258014000,4.339013916015625,-0.5111189484596252,1.85781729221344,-0.02508792281150818
1788799252267984000,4.34898388671875,-0.28412097692489624,2.2509615421295166,-0.07138244807720184
1788799252277954000,4.3589541015625,0.06502705812454224,2.4127590656280518,-0.10456985980272293
1788799252287924000,4.368924072265625,0.0865403339266777,1.8857656717300415,1.0679153203964233
1788799252297894000,4.378893798828125,0.42374131083488464,2.7205989360809326,1.2027816772460938
1788799252307865000,4.388864990234375,0.5288069844245911,2.7909693717956543,1.3671735525131226
1788799252317835000,4.3988349609375,0.4463372528553009,2.094748020172119,1.3326917886734009
1788799252327805000,4.408804931640625,0.18218977749347687,0.6941524147987366,1.144312858581543
1788799252337775000,4.418775146484375,-0.14129798114299774,-0.9895521998405457,0.7764429450035095
1788799252347745000,4.4287451171875,-0.5788156390190125,-2.317110300064087,0.23881305754184723
1788799252357715200,4.438715087890625,-0.979305624961853,-2.983426809310913,-0.5329306721687317
1788799252367686100,4.44868603515625,-1.092870831489563,-2.664445161819458,-1.096060037612915
1788799252377656000,4.458656005859375,-1.0511562824249268,-0.2915072739124298,-0.7173522710800171
1788799252387626000,4.4686259765625,-1.024160385131836,1.0659042596817017,-0.10362918674945831
1788799252397596200,4.47859619140625,-1.040012240409851,1.6603187322616577,0.5363472700119019
1788799252407566000,4.488566162109375,-1.0822830200195312,2.3158652782440186,1.1608614921569824
1788799252417536000,4.498535888671875,-1.1225217580795288,3.0452427864074707,1.489514708518982
1788799252427507000,4.5085068359375,-1.2551780939102173,3.413337469100952,1.569381594657898
1788799252437477000,4.51847705078125,-1.3147709369659424,2.7282919883728027,1.0806702375411987
1788799252447447000,4.528447021484375,-1.2668527364730835,1.960171103477478,0.306154727935791
1788799252457417000,4.5384169921875,-1.233449101448059,1.1737014055252075,-0.24955937266349792
1788799252467387000,4.548386962890625,-1.4415264129638672,0.40052372217178345,-0.6072801947593689
1788799252477358000,4.558358154296875,-1.6701074838638306,-0.0479256734251976,-0.6347818970680237
1788799252487328000,4.568327880859375,-1.8326101303100586,-0.33258137106895447,-0.5952491164207458
1788799252497298000,4.5782978515625,-1.9535505771636963,-0.5908908843994141,-0.5623427629470825
1788799252507267800,4.588267822265625,-1.9478509426116943,-0.6748638153076172,-0.4949578642845154
1788799252517238000,4.598238037109375,-2.0176331996917725,-0.3976551592350006,-0.30920839309692383
1788799252527208200,4.608208251953125,-2.0169012546539307,-0.44672656059265137,-0.2629159986972809
1788799252537179000,4.618178955078125,-1.8514063358306885,-0.4848383367061615,-0.3963660001754761
1788799252547149000,4.628149169921875,-1.5761654376983643,-0.45664480328559875,-0.6342459321022034
1788799252557119200,4.638119140625,-1.4614979028701782,-0.42355412244796753,-0.8138705492019653
1788799252567089200,4.648089111328125,-1.3795287609100342,-0.640579342842102,-0.9895065426826477
1788799252577059000,4.65805908203125,-1.4084014892578125,-0.8599019646644592,-1.1167070865631104
1788799252587029000,4.668029052734375,-1.4811513423919678,-0.8334352374076843,-1.0929609537124634
1788799252597000200,4.678000244140625,-1.5568313598632812,-0.5884747505187988,-0.8976641893386841
1788799252606970000,4.68797021484375,-1.531383752822876,-0.4016449451446533,-0.679577648639679
1788799252616940000,4.69793994140625,-1.4373239278793335,-0.38345927000045776,-0.5112167000770569
1788799252626910000,4.707909912109375,-1.396272897720337,-0.3694545030593872,-0.33092546463012695
1788799252636880000,4.7178798828125,-1.3342103958129883,-0.637336015701294,-0.28380295634269714
1788799252646850000,4.72785009765625,-1.2709778547286987,-0.643537163734436,-0.35201743245124817
1788799252656821000,4.737821044921875,-0.8873590230941772,-0.5631449818611145,-0.33464276790618896
1788799252666791000,4.747791015625,-0.5785812139511108,-0.4907945990562439,-0.27452564239501953
1788799252676761000,4.757760986328125,-0.45601192116737366,-0.5078948140144348,-0.20455603301525116
1788799252686731000,4.76773095703125,-0.374431848526001,-0.49111875891685486,-0.05959964543581009
1788799252696701000,4.777700927734375,-0.05832105502486229,-0.2937488853931427,0.10373741388320923
1788799252706671900,4.787671875,0.09454306215047836,-0.10855746269226074,0.24655793607234955
1788799252716642000,4.79764208984375,0.038447052240371704,-0.31208494305610657,0.215468630194664
1788799252726612000,4.807612060546875,0.09445466101169586,-0.21835660934448242,0.27639588713645935
1788799252736582100,4.81758203125,0.1619880199432373,-0.00346536748111248,0.31610608100891113
1788799252746552000,4.827552001953125,0.23613335192203522,0.07633332163095474,0.31925472617149353
1788799252756522000,4.83752197265625,0.3207643926143646,0.040146078914403915,0.3222472071647644
1788799252766493200,4.8474931640625,0.45280176401138306,0.06894337385892868,0.358365535736084
1788799252776463000,4.857463134765625,0.5764291882514954,0.11649662256240845,0.41142532229423523
1788799252786433000,4.86743310546875,0.6874347925186157,0.1431460827589035,0.47078290581703186
1788799252796403000,4.87740283203125,0.7876839637756348,0.1948789358139038,0.5406721830368042
1788799252806373000,4.887373046875,0.8989753127098083,0.232430562376976,0.603387713432312
1788799252816343000,4.897343017578125,1.012826681137085,0.2392752319574356,0.6401462554931641
1788799252826314000,4.90731396484375,1.1126819849014282,0.21458852291107178,0.6421366930007935
1788799252836284000,4.917283935546875,1.1934536695480347,0.20178349316120148,0.6153926849365234
1788799252846254000,4.927254150390625,1.2623929977416992,0.27750301361083984,0.589340329170227
1788799252856224000,4.93722412109375,1.301814317703247,0.3380066454410553,0.5866442918777466
1788799252866194000,4.94719384765625,1.3608454465866089,0.4382360577583313,0.5997371673583984
1788799252876164900,4.957164794921875,1.434220552444458,0.5323660969734192,0.6212090253829956
1788799252886135000,4.967135009765625,1.477885127067566,0.5300930738449097,0.6332230567932129
1788799252896105000,4.97710498046875,1.5445446968078613,0.6608960628509521,0.6422982215881348
1788799252906075000,4.987074951171875,1.6030397415161133,0.751547634601593,0.6336437463760376
1788799252916045000,4.997045166015625,1.6320875883102417,0.7702631950378418,0.5968810319900513
1788799252926015200,5.00701513671875,1.669198989868164,0.8006629347801208,0.5462927222251892
1788799252935986000,5.01698583984375,1.7005178928375244,0.7894178032875061,0.47745412588119507
1788799252945956000,5.0269560546875,1.7415125370025635,0.8176734447479248,0.4096425771713257
1788799252955926000,5.036926025390625,1.822098731994629,0.741604745388031,0.32191404700279236
1788799252965896200,5.046896240234375,1.9800398349761963,0.6042352914810181,0.25855565071105957
1788799252975866000,5.0568662109375,2.18039608001709,0.4648292064666748,0.271432489156723
1788799252985837000,5.066837158203125,2.3216278553009033,0.2808857262134552,0.31892144680023193
1788799252995807000,5.076806884765625,2.366708755493164,0.11867191642522812,0.39884957671165466
1788799253005777200,5.086777099609375,2.313525676727295,-0.007688685320317745,0.48880821466445923
1788799253015747000,5.0967470703125,2.190838098526001,-0.009801643900573254,0.5268291234970093
1788799253025717000,5.106717041015625,2.035489320755005,0.019285934045910835,0.5002918243408203
1788799253035687000,5.11668701171875,1.87782883644104,0.09250637888908386,0.45140039920806885
1788799253045658000,5.126658203125,1.7408770322799683,0.14005924761295319,0.36329185962677
1788799253055628000,5.1366279296875,1.6171259880065918,0.25288110971450806,0.23588411509990692
1788799253065598000,5.146597900390625,1.5198346376419067,0.4289032816886902,0.08319629728794098
1788799253075567900,5.15656787109375,1.448503017425537,0.5365189909934998,-0.07063138484954834
1788799253085538000,5.1665380859375,1.4249204397201538,0.5555123686790466,-0.19807882606983185
1788799253095508200,5.17650830078125,1.436449646949768,0.5130037665367126,-0.28571489453315735
1788799253105479000,5.18647900390625,1.42336106300354,0.435485303401947,-0.3143848776817322
1788799253115448800,5.19644873046875,1.3608139753341675,0.3667009174823761,-0.28817862272262573
1788799253125419300,5.206419189453125,1.2353345155715942,0.40398597717285156,-0.22467316687107086
1788799253135389200,5.21638916015625,1.0699025392532349,0.4069318175315857,-0.20544400811195374
1788799253145359000,5.226359130859375,0.9002526998519897,0.43279802799224854,-0.24745112657546997
1788799253155329000,5.2363291015625,0.8122992515563965,0.5965527296066284,-0.28268471360206604
1788799253165300200,5.24630029296875,0.7314589619636536,0.8315545916557312,-0.340853214263916
1788799253175270000,5.256269775390625,0.6645063757896423,0.8557055592536926,-0.3906590938568115
1788799253185239800,5.26623974609375,0.5499470233917236,0.7297002077102661,-0.4401957392692566
1788799253195210000,5.2762099609375,0.43228086829185486,0.5420402884483337,-0.44087767601013184
1788799253205180000,5.286179931640625,0.3010387122631073,0.3417756259441376,-0.444746732711792
1788799253215150800,5.29615087890625,0.20431838929653168,0.2831026613712311,-0.4438546895980835
1788799253225121000,5.30612109375,0.13677556812763214,0.3300720155239105,-0.420055091381073
1788799253235091000,5.316091064453125,0.11233643442392349,0.45096370577812195,-0.38298946619033813
1788799253245060900,5.326060791015625,0.08480680733919144,0.5518700480461121,-0.34864482283592224
1788799253255030800,5.33603076171875,0.0702962800860405,0.5716133117675781,-0.3335457742214203
1788799253265000700,5.346000732421875,0.046081483364105225,0.43995675444602966,-0.3525053560733795
1788799253274972000,5.355971923828125,-0.040125489234924316,0.2132290005683899,-0.4244295656681061
1788799253284941800,5.36594189453125,-0.13825125992298126,0.20863184332847595,-0.40983569622039795
1788799253294911700,5.375911865234375,-0.14110703766345978,0.1678008735179901,-0.358294814825058
1788799253304882000,5.3858818359375,-0.10299348086118698,0.11554910987615585,-0.2791461944580078
1788799253314852000,5.39585205078125,-0.09596409648656845,0.08144840598106384,-0.21427009999752045
1788799253324822800,5.40582275390625,-0.1290448158979416,0.13478194177150726,-0.16453316807746887
1788799253334793000,5.41579296875,-0.1705402135848999,0.13468340039253235,-0.1500375121831894
1788799253344763000,5.425762939453125,-0.23200970888137817,0.08731214702129364,-0.1632438749074936
1788799253354733000,5.435733154296875,-0.31898412108421326,0.15195807814598083,-0.14759716391563416
1788799253364703000,5.445702880859375,-0.42981797456741333,0.24333378672599792,-0.11549994349479675
1788799253374673000,5.4556728515625,-0.5860708951950073,0.3088375926017761,-0.13366490602493286
1788799253384643800,5.465643798828125,-0.7044792771339417,0.342620849609375,-0.1818859726190567
1788799253394614000,5.475614013671875,-0.786820113658905,0.34531933069229126,-0.22399722039699554
1788799253404584000,5.485583984375,-0.8559930324554443,0.30158063769340515,-0.24929538369178772
1788799253414553900,5.495553955078125,-0.8995983004570007,0.3350219130516052,-0.26291656494140625
1788799253424523800,5.505523681640625,-0.931266725063324,0.3650530278682709,-0.2544136345386505
1788799253434494000,5.515493896484375,-0.984226405620575,0.34148019552230835,-0.2572523057460785
1788799253444465000,5.52546484375,-0.9746334552764893,0.30220842361450195,-0.28964513540267944
1788799253454434800,5.535434814453125,-0.8914800882339478,0.2676965594291687,-0.2658591568470001
1788799253464404700,5.54540478515625,-0.7660992741584778,0.2501298189163208,-0.1910507082939148
1788799253474375000,5.555375,-0.7244318127632141,0.24495834112167358,-0.0847485139966011
1788799253484344800,5.5653447265625,-0.7853303551673889,0.29855582118034363,0.027996674180030823
1788799253494315800,5.575315673828125,-0.9416440725326538,0.421804279088974,0.12800681591033936
1788799253504285700,5.58528564453125,-1.0773429870605469,0.4601053297519684,0.14373889565467834
1788799253514256100,5.595256103515625,-1.206587314605713,0.3942914307117462,0.08516800403594971
1788799253524226000,5.60522607421875,-1.32059907913208,0.1884879320859909,-0.09026560187339783
1788799253534196000,5.615196044921875,-1.3768174648284912,0.041911568492650986,-0.2601791024208069
1788799253544166000,5.625165771484375,-1.3964675664901733,-0.07036250829696655,-0.3774647116661072
1788799253554137000,5.63513720703125,-1.4288266897201538,-0.07911552488803864,-0.41092172265052795
1788799253564107000,5.64510693359375,-1.4331181049346924,-0.08878812193870544,-0.3787318170070648
1788799253574077000,5.655076904296875,-1.3846601247787476,-0.1539851725101471,-0.31156328320503235
1788799253584046800,5.665046875,-1.2915741205215454,-0.2959958612918854,-0.21675530076026917
1788799253594016800,5.675016845703125,-1.155509114265442,-0.3694932162761688,-0.02956273965537548
1788799253603987000,5.684987060546875,-1.2054260969161987,-0.5969793796539307,0.08977989852428436
1788799253613958000,5.6949580078125,-1.195886254310608,-0.9541166424751282,0.07234802097082138
1788799253623927800,5.704927734375,-1.1864322423934937,-1.2131832838058472,0.00493888184428215
1788799253633898000,5.71489794921875,-1.247458577156067,-1.4194761514663696,-0.14866548776626587
1788799253643868000,5.724867919921875,-1.325356364250183,-1.3723219633102417,-0.2847559452056885
1788799253653837800,5.734837890625,-1.4185985326766968,-1.0262492895126343,-0.36192071437835693
1788799253663808800,5.744808837890625,-1.5445269346237183,-0.5960068106651306,-0.37638193368911743
1788799253673779000,5.754779052734375,-1.6927839517593384,-0.3213755488395691,-0.33649304509162903
1788799253683748900,5.764748779296875,-1.7801790237426758,-0.2303588092327118,-0.2702453136444092
1788799253693718800,5.77471875,-1.658789873123169,-0.19943688809871674,-0.1483832448720932
1788799253703689000,5.78468896484375,-1.7385574579238892,-0.42101427912712097,-0.14470168948173523
1788799253713659000,5.794658935546875,-1.8061223030090332,-0.6890180110931396,-0.2082977443933487
1788799253723629800,5.8046298828125,-1.683444619178772,-0.9624825716018677,-0.1753520369529724
1788799253733600000,5.81460009765625,-1.5641964673995972,-1.0972986221313477,-0.04140406847000122
1788799253743570000,5.82456982421875,-1.4871515035629272,-1.0048632621765137,0.07811753451824188
1788799253753539800,5.834539794921875,-1.4117616415023804,-0.8444781303405762,0.15364064276218414
1788799253763510000,5.844510009765625,-1.3137403726577759,-0.7620562314987183,0.16815246641635895
1788799253773480000,5.85447998046875,-1.2595940828323364,-0.5631232261657715,0.13330675661563873
1788799253783451000,5.864450927734375,-1.2159969806671143,-0.33848318457603455,0.055669743567705154
1788799253793420800,5.8744208984375,-1.1484004259109497,-0.33677366375923157,-0.0413789339363575
1788799253803391000,5.884390869140625,-1.0556385517120361,-0.5596943497657776,-0.04945337027311325
1788799253813361000,5.89436083984375,-0.9147485494613647,-0.7458925843238831,0.11014411598443985
1788799253823330800,5.904330810546875,-0.7441903948783875,-0.6148024797439575,0.37348973751068115
1788799253833302000,5.914302001953125,-0.5589625835418701,-0.4348176419734955,0.600900411605835
1788799253843272000,5.92427197265625,-0.45905062556266785,-0.14687028527259827,0.720432698726654
1788799253853241900,5.934241943359375,-0.3954985737800598,0.18816211819648743,0.7098923325538635
1788799253863211800,5.944211669921875,-0.30355533957481384,0.3418472707271576,0.6802340149879456
1788799253873181700,5.954181640625,-0.19858644902706146,0.39434847235679626,0.7044029235839844
1788799253883152100,5.964152099609375,-0.09822974354028702,0.40957748889923096,0.6993032097816467
1788799253893122800,5.974122802734375,0.007904663681983948,0.32386600971221924,0.6183059811592102
1788799253903092700,5.9840927734375,0.13134589791297913,0.23917615413665771,0.5093470215797424
1788799253913063000,5.99406298828125,0.24273651838302612,0.2335335612297058,0.43377336859703064
1788799253923033000,6.004033203125,0.3509644567966461,0.3356575667858124,0.3919100761413574
1788799253933003000,6.0140029296875,0.47284790873527527,0.40127500891685486,0.38203001022338867
1788799253942973000,6.023972900390625,0.7057101726531982,0.4386466145515442,0.3967871069908142
1788799253952943900,6.03394384765625,0.9395608305931091,0.47238752245903015,0.39932891726493835
1788799253962914000,6.0439140625,0.9247956871986389,0.5088302493095398,0.3252994418144226
1788799253972884000,6.053884033203125,0.9559212923049927,0.6365338563919067,0.2744150161743164
1788799253982854000,6.06385400390625,1.0616488456726074,0.7275899648666382,0.23817896842956543
1788799253992823800,6.07382373046875,1.1720082759857178,0.7596138119697571,0.18991564214229584
1788799254002795000,6.083794921875,1.2238997220993042,0.7111554145812988,0.1216990277171135
1788799254012765000,6.093764892578125,1.2934831380844116,0.6890721917152405,0.055675894021987915
1788799254022734800,6.10373486328125,1.4079455137252808,0.6382404565811157,0.0008019912056624889
1788799254032704800,6.113704833984375,1.5226919651031494,0.6045783162117004,-0.04364548996090889
1788799254042675000,6.123675048828125,1.5681171417236328,0.6256321668624878,-0.07118523865938187
1788799254052644900,6.133644775390625,1.602484107017517,0.6677567362785339,-0.09435613453388214
1788799254062615800,6.14361572265625,1.6341367959976196,0.6678017377853394,-0.12248657643795013
1788799254072585700,6.153585693359375,1.6791588068008423,0.6356796026229858,-0.1562497913837433
1788799254082556000,6.163555908203125,1.7372791767120361,0.6051352620124817,-0.1955929398536682
1788799254092526000,6.173526123046875,1.8042787313461304,0.5299094319343567,-0.219465970993042
1788799254102496000,6.18349609375,1.8522663116455078,0.4564112424850464,-0.22857078909873962
1788799254112466000,6.1934658203125,1.8934880495071411,0.4068068265914917,-0.24142806231975555
1788799254122437000,6.20343701171875,1.9377397298812866,0.3450912833213806,-0.2519978880882263
1788799254132407000,6.213406982421875,1.9874438047409058,0.17409121990203857,-0.26394301652908325
1788799254142377000,6.223376953125,2.0561506748199463,-0.05076318979263306,-0.2697705328464508
1788799254152347000,6.233346923828125,2.136958122253418,-0.25735536217689514,-0.2634897828102112
1788799254162316800,6.24331689453125,2.22348952293396,-0.4690447151660919,-0.2452457845211029
1788799254172287500,6.25328759765625,2.278057336807251,-0.617112934589386,-0.19248156249523163
1788799254182257400,6.26325732421875,2.251361846923828,-0.6642351746559143,-0.14254623651504517
1788799254192227600,6.2732275390625,2.1228508949279785,-0.6393164992332458,-0.08880705386400223
1788799254202197500,6.283197509765625,1.9463127851486206,-0.5477527976036072,-0.02865689806640148
1788799254212167400,6.29316748046875,1.7299516201019287,-0.4070202708244324,0.019758276641368866
1788799254222137300,6.303137451171875,1.5160223245620728,-0.2237926423549652,0.09340985864400864
1788799254232108500,6.313108642578125,1.3767896890640259,-0.1899808645248413,0.11598937958478928
1788799254242078500,6.323078369140625,1.2864140272140503,-0.14350257813930511,0.10590185970067978
1788799254252048400,6.33304833984375,1.2369248867034912,0.047320231795310974,0.10722363740205765
1788799254262018600,6.3430185546875,1.1432068347930908,0.28815945982933044,0.1099347323179245
1788799254271988700,6.35298876953125,1.0147662162780762,0.41324976086616516,0.07952164113521576
1788799254281958700,6.362958740234375,0.8976848721504211,0.4917674958705902,-0.007864660583436489
1788799254291929600,6.3729296875,0.7306329607963562,0.5570909380912781,-0.10883113741874695
1788799254301899500,6.3828994140625,0.5564424991607666,0.5285900235176086,-0.16675221920013428
1788799254311869700,6.39286962890625,0.42606624960899353,0.3949147164821625,-0.18760089576244354
1788799254321839600,6.402839599609375,0.3608826994895935,0.3114224970340729,-0.166515052318573
1788799254331809500,6.4128095703125,0.3462885022163391,0.20888420939445496,-0.14354173839092255
1788799254341780500,6.422780517578125,0.35245025157928467,0.14486047625541687,-0.13394929468631744
1788799254351750700,6.432750732421875,0.34134674072265625,0.16583305597305298,-0.11538153886795044
1788799254361720600,6.442720458984375,0.34065645933151245,0.10263251513242722,-0.09151215851306915
1788799254371690500,6.4526904296875,0.3335396349430084,-0.04335059970617294,-0.08257977664470673
1788799254381660400,6.462660400390625,0.29402416944503784,-0.05303598567843437,-0.0696200355887413
1788799254391630600,6.472630615234375,0.20642517507076263,0.024405546486377716,-0.08312762528657913
1788799254401601500,6.4826015625,0.09359609335660934,-0.02293400466442108,-0.13753706216812134
1788799254411571500,6.492571533203125,-0.04027309641242027,-0.014826759696006775,-0.1635301262140274
1788799254421541400,6.502541259765625,-0.1750817745923996,-0.07054328173398972,-0.15853138267993927
1788799254431511600,6.512511474609375,-0.2972978353500366,-0.009244268760085106,-0.10169253498315811
1788799254441481500,6.5224814453125,-0.3668998181819916,0.011898301541805267,-0.06571829319000244
1788799254451451600,6.53245166015625,-0.39844900369644165,0.09506839513778687,-0.048222582787275314
1788799254461422300,6.54242236328125,-0.4492381513118744,0.02926647663116455,-0.07463368773460388
1788799254471392500,6.552392578125,-0.4128705859184265,-0.07706786692142487,-0.05560986325144768
1788799254481362700,6.56236279296875,-0.4442157447338104,-0.11213317513465881,-0.0016366424970328808
1788799254491332600,6.57233251953125,-0.507506251335144,-0.14006829261779785,0.03714914247393608
1788799254501302500,6.582302490234375,-0.5487434267997742,-0.17687025666236877,0.058889057487249374
1788799254511272400,6.5922724609375,-0.5798918008804321,-0.24898840487003326,0.044528260827064514
1788799254521243600,6.60224365234375,-0.6139068007469177,-0.3059816360473633,0.041046444326639175
1788799254531213600,6.612213623046875,-0.667267382144928,-0.40937280654907227,0.04926992580294609
1788799254541183500,6.62218359375,-0.7468042969703674,-0.5242615938186646,0.05557655543088913
1788799254551153400,6.6321533203125,-0.846281886100769,-0.6531752347946167,0.018171999603509903
1788799254561123600,6.64212353515625,-0.9160979986190796,-0.6932377219200134,-0.054741621017456055
1788799254571094500,6.652094482421875,-0.9769651293754578,-0.6719970703125,-0.15175625681877136
1788799254581064400,6.662064453125,-1.069663405418396,-0.5700520277023315,-0.21048028767108917
1788799254591034400,6.672034423828125,-1.20681631565094,-0.39262157678604126,-0.2330775409936905
1788799254601004500,6.682004638671875,-1.3695863485336304,-0.11523605138063431,-0.21419811248779297
1788799254610974500,6.691974365234375,-1.502535104751587,0.21184347569942474,-0.21604382991790771
1788799254620944400,6.7019443359375,-1.6065046787261963,0.49757084250450134,-0.19996872544288635
1788799254630915600,6.71191552734375,-1.668421983718872,0.6104780435562134,-0.17982105910778046
1788799254640885500,6.721885498046875,-1.6802510023117065,0.5850419402122498,-0.1411607414484024
1788799254650855400,6.73185546875,-1.648589849472046,0.5061389803886414,-0.0433921180665493
1788799254660825600,6.74182568359375,-1.6055004596710205,0.3925144374370575,0.07595531642436981
1788799254670795500,6.75179541015625,-1.5382275581359863,0.29504162073135376,0.16738064587116241
1788799254680765700,6.761765625,-1.4708988666534424,0.22169098258018494,0.23182354867458344
1788799254690736600,6.771736572265625,-1.4701759815216064,0.04969710484147072,0.2762182354927063
1788799254700706600,6.78170654296875,-1.4633092880249023,-0.09818609803915024,0.2653370797634125
1788799254710676500,6.791676513671875,-1.4758917093276978,-0.18870994448661804,0.20168419182300568
1788799254720646700,6.801646728515625,-1.4345303773880005,-0.2952579855918884,0.10521385073661804
1788799254730616600,6.811616455078125,-1.3804373741149902,-0.3642308712005615,-0.0069420053623616695
1788799254740587500,6.82158740234375,-1.3651460409164429,-0.42396023869514465,-0.044120531529188156
1788799254750557400,6.831557373046875,-1.3668925762176514,-0.46478015184402466,0.004655319266021252
1788799254760527600,6.841527587890625,-1.381868600845337,-0.4322490990161896,0.09342993050813675
1788799254770497500,6.85149755859375,-1.3676848411560059,-0.3893759250640869,0.134479358792305
1788799254780467500,6.861467529296875,-1.3547405004501343,-0.40256789326667786,0.10944671183824539
1788799254790437400,6.871437255859375,-1.370467185974121,-0.4032250940799713,0.039254847913980484
1788799254800408600,6.88140869140625,-1.2983232736587524,-0.2597392797470093,0.03547848388552666
1788799254810378500,6.89137841796875,-1.4583615064620972,-0.32186028361320496,0.0028840505983680487
1788799254820348400,6.901348388671875,-1.5760058164596558,-0.4986305236816406,-0.10472337156534195
1788799254830318300,6.911318359375,-1.4599595069885254,-0.6498864889144897,-0.15564729273319244
1788799254840288500,6.92128857421875,-1.3377563953399658,-0.7350549101829529,-0.14175677299499512
1788799254850258700,6.9312587890625,-1.2505391836166382,-0.6377674341201782,-0.041628915816545486
1788799254860229400,6.9412294921875,-1.2034318447113037,-0.545722246170044,0.04880297929048538
1788799254870199600,6.951199462890625,-1.1712135076522827,-0.5241119861602783,0.08675546944141388
1788799254880169700,6.961169677734375,-1.1182821989059448,-0.5400674939155579,0.08231784403324127
1788799254890139600,6.9711396484375,-0.9925342798233032,-0.418917179107666,0.08696898818016052
1788799254900109600,6.981109619140625,-0.9099538922309875,-0.32872867584228516,0.08887501806020737
1788799254910079500,6.99107958984375,-0.8506389856338501,-0.3772222697734833,0.08600319921970367
1788799254920050700,7.00105078125,-0.7409338355064392,-0.33018603920936584,0.15183627605438232
1788799254930020600,7.0110205078125,-0.6474424004554749,-0.15226474404335022,0.2720787823200226
1788799254939990500,7.020990478515625,-0.5196956396102905,0.025562239810824394,0.38413581252098083
1788799254949960400,7.03096044921875,-0.3733956813812256,0.0434841625392437,0.41652536392211914
1788799254959930400,7.040930419921875,-0.26178979873657227,0.15358509123325348,0.3963545858860016
1788799254969901600,7.050901611328125,-0.14712919294834137,0.2503160834312439,0.41929659247398376
1788799254979871500,7.06087158203125,-0.030926963314414024,0.30962494015693665,0.4561230540275574
1788799254989841400,7.07084130859375,0.11924581229686737,0.3031724989414215,0.46973225474357605
1788799254999811600,7.0808115234375,0.25834324955940247,0.3708761930465698,0.46885183453559875
1788799255009781500,7.090781494140625,0.36183857917785645,0.5397584438323975,0.4839734435081482
1788799255019751400,7.10075146484375,0.45029333233833313,0.639022707939148,0.5003636479377747
1788799255029722400,7.110722412109375,0.5577694177627563,0.7323238849639893,0.49330902099609375
1788799255039692500,7.120692626953125,0.7585041522979736,0.8048800826072693,0.47727012634277344
1788799255049662500,7.130662353515625,0.7605991363525391,0.7895871996879578,0.4102632701396942
1788799255059632600,7.140632568359375,0.8198419809341431,0.7969759106636047,0.30574509501457214
1788799255069602600,7.1506025390625,0.939480721950531,0.7105575203895569,0.18440699577331543
1788799255079572500,7.160572509765625,1.072564721107483,0.6211367845535278,0.07257687300443649
1788799255089543700,7.170543701171875,1.2215536832809448,0.5063170790672302,-0.002800801768898964
1788799255099513600,7.180513671875,1.3175822496414185,0.46545135974884033,-0.040279731154441833
1788799255109483500,7.1904833984375,1.3975682258605957,0.46225041151046753,-0.06802809983491898
1788799255119453400,7.200453369140625,1.4894651174545288,0.4284746050834656,-0.09384585171937943
1788799255129423600,7.210423583984375,1.5806562900543213,0.42375341057777405,-0.12618286907672882
1788799255139393500,7.2203935546875,1.663001537322998,0.43575629591941833,-0.16734814643859863
1788799255149364500,7.230364501953125,1.7452988624572754,0.4470252990722656,-0.2119709998369217
1788799255159334400,7.24033447265625,1.8040099143981934,0.464812308549881,-0.24195419251918793
1788799255169304600,7.2503046875,1.8481673002243042,0.509473443031311,-0.2639102041721344
1788799255179274200,7.260274169921875,1.8946058750152588,0.5310514569282532,-0.27206292748451233
1788799255189244400,7.270244384765625,1.9244263172149658,0.4849681556224823,-0.2805787920951843
1788799255199214300,7.28021435546875,1.9502288103103638,0.3797019422054291,-0.29275718331336975
1788799255209185300,7.290185302734375,1.9727905988693237,0.23620855808258057,-0.31615468859672546
1788799255219155200,7.3001552734375,1.9925824403762817,0.07586441189050674,-0.35397928953170776
1788799255229125400,7.31012548828125,2.0056447982788086,-0.052030447870492935,-0.38334429264068604
1788799255239095600,7.320095458984375,2.0108776092529297,-0.16704332828521729,-0.3915551006793976
1788799255249065500,7.3300654296875,2.0026960372924805,-0.27041998505592346,-0.3782343566417694
1788799255259035400,7.340035400390625,1.969379186630249,-0.3686901032924652,-0.33631858229637146
1788799255269006600,7.350006591796875,1.911893367767334,-0.4353733956813812,-0.27135738730430603
1788799255278976500,7.3599765625,1.8550878763198853,-0.4607943296432495,-0.1825636327266693
1788799255288946400,7.369946533203125,1.7738667726516724,-0.42062193155288696,-0.08530303835868835
1788799255298916400,7.379916259765625,1.6762943267822266,-0.34189489483833313,-0.01739029958844185
1788799255308886300,7.38988623046875,1.568599820137024,-0.20888134837150574,0.0557364821434021
1788799255318857500,7.399857421875,1.4493889808654785,0.07976403087377548,0.16939353942871094
1788799255328827400,7.409827392578125,1.3944085836410522,0.4139840602874756,0.28350067138671875
1788799255338797300,7.41979736328125,1.3349958658218384,0.6565136313438416,0.3736899495124817
1788799255348767500,7.429767578125,1.2204310894012451,0.7037729024887085,0.4006092846393585
1788799255358737400,7.4397373046875,1.131142258644104,0.7808107137680054,0.34432098269462585
1788799255368707300,7.449707275390625,1.0291900634765625,0.7462403774261475,0.2200249284505844
1788799255378678300,7.45967822265625,0.9389477372169495,0.5955368876457214,0.012403564527630806
1788799255388648400,7.4696484375,0.8368752002716064,0.4588223993778229,-0.1634044498205185
1788799255398618400,7.479618408203125,0.7379786968231201,0.2781386375427246,-0.24992603063583374
1788799255408588300,7.48958837890625,0.6710736751556396,0.19891855120658875,-0.22550222277641296
1788799255418558500,7.499558349609375,0.6290423274040222,0.1542821079492569,-0.17974965274333954
1788799255428528400,7.5095283203125,0.5770215392112732,0.12082201987504959,-0.13284844160079956
1788799255438499300,7.519499267578125,0.5066735744476318,0.08980977535247803,-0.11368592828512192
1788799255448469500,7.529469482421875,0.44481170177459717,0.05439396947622299,-0.12325194478034973
1788799255458439400,7.539439453125,0.38019701838493347,0.07240119576454163,-0.11324910819530487
1788799255468409300,7.549409423828125,0.31026649475097656,-0.01619230955839157,-0.11113060265779495
1788799255478379500,7.559379638671875,0.2215488702058792,-0.08167358487844467,-0.11641564965248108
1788799255488349400,7.569349365234375,0.1307615041732788,-0.129243865609169,-0.12704944610595703
1788799255498320400,7.5793203125,0.02942422591149807,-0.13983845710754395,-0.13619261980056763
1788799255508290300,7.589290283203125,-0.04135513678193092,-0.16813480854034424,-0.1566544771194458
1788799255518260500,7.599260498046875,-0.13626952469348907,-0.2007804960012436,-0.14312323927879333
1788799255528230400,7.60923046875,-0.21819671988487244,-0.2002124935388565,-0.10739118605852127
1788799255538200300,7.619200439453125,-0.2310968041419983,-0.15505726635456085,-0.07718108594417572
1788799255548170200,7.629170166015625,-0.26583385467529297,-0.15295493602752686,-0.04381759464740753
1788799255558141400,7.639141357421875,-0.3311612010002136,-0.17715907096862793,-0.00635117944329977
1788799255568111400,7.649111328125,-0.4277738928794861,-0.1666298359632492,0.030518578365445137
1788799255578081300,7.659081298828125,-0.49493563175201416,-0.20993363857269287,0.006621235050261021
1788799255588051200,7.66905126953125,-0.5065690875053406,-0.25235629081726074,-0.03679129481315613
1788799255598021600,7.679021728515625,-0.5184853672981262,-0.3324838876724243,-0.061444979161024094
1788799255607991600,7.688991455078125,-0.5508211255073547,-0.40882599353790283,-0.06336657702922821
1788799255617962200,7.698962158203125,-0.6165404915809631,-0.45320889353752136,-0.06167813390493393
1788799255627932400,7.708932373046875,-0.7148627638816833,-0.46680447459220886,-0.07064870744943619
1788799255637902600,7.718902587890625,-0.8386712074279785,-0.4528639018535614,-0.11828813701868057
1788799255647872500,7.72887255859375,-0.9209920763969421,-0.49012500047683716,-0.15349958837032318
1788799255657842400,7.738842529296875,-0.9956804513931274,-0.5064474940299988,-0.18285295367240906
1788799255667812400,7.748812255859375,-1.0995033979415894,-0.40358078479766846,-0.19140543043613434
1788799255677783600,7.758783447265625,-1.2303754091262817,-0.2433285266160965,-0.1580227017402649
1788799255687753500,7.76875341796875,-1.34418523311615,-0.16135965287685394,-0.1103595569729805
1788799255697723400,7.778723388671875,-1.4524028301239014,-0.14302724599838257,-0.08541931957006454
1788799255707693300,7.788693359375,-1.526120901107788,-0.07018314301967621,-0.13645370304584503
1788799255717663200,7.798663330078125,-1.619971513748169,0.013671545311808586,-0.2594592571258545
1788799255727633400,7.80863330078125,-1.7028262615203857,0.11716718226671219,-0.38405659794807434
1788799255737604400,7.818604248046875,-1.7383395433425903,0.25840285420417786,-0.4001029431819916
1788799255747574300,7.82857421875,-1.741376519203186,0.38643941283226013,-0.2958754003047943
1788799255757544400,7.83854443359375,-1.7184323072433472,0.4148457646369934,-0.12380164116621017
1788799255767514400,7.848514404296875,-1.7158724069595337,0.3020477890968323,0.08216091990470886
1788799255777484500,7.858484619140625,-1.692883014678955,0.11972112953662872,0.2513289153575897
1788799255787454500,7.868454345703125,-1.6362521648406982,-0.19242633879184723,0.3110397756099701
1788799255797425400,7.87842529296875,-1.5737773180007935,-0.45611417293548584,0.2669213116168976
1788799255807395600,7.8883955078125,-1.5111660957336426,-0.43622395396232605,0.17072533071041107
1788799255817365500,7.898365478515625,-1.5069044828414917,-0.27320921421051025,0.05948962643742561
1788799255827335400,7.90833544921875,-1.5608583688735962,-0.09645223617553711,0.0070564341731369495
1788799255837305300,7.918305419921875,-1.6366924047470093,0.07686362415552139,0.046899985522031784
1788799255847275500,7.928275634765625,-1.6991890668869019,0.2174161672592163,0.1413346529006958
1788799255857246500,7.93824658203125,-1.7324106693267822,0.1888337880373001,0.198122039437294
1788799255867216400,7.94821630859375,-1.6465059518814087,0.12608107924461365,0.30075863003730774
1788799255877186300,7.958186279296875,-1.7441105842590332,-0.17797760665416718,0.2935244143009186
1788799255887156500,7.968156494140625,-1.7149052619934082,-0.46798309683799744,0.12571954727172852
1788799255897126400,7.97812646484375,-1.5618036985397339,-0.5945168733596802,-0.06747174263000488
1788799255907096300,7.988096435546875,-1.4724018573760986,-0.7190005779266357,-0.19751273095607758
1788799255917067300,7.9980673828125,-1.4229519367218018,-0.7345491647720337,-0.15666089951992035
1788799255927037400,8.008037353515626,-1.3975566625595093,-0.6468270421028137,-0.032035671174526215
1788799255937007400,8.01800732421875,-1.3880667686462402,-0.521734893321991,0.08197265863418579
1788799255946977300,8.027977294921875,-1.3949273824691772,-0.38779884576797485,0.09408050775527954
1788799255956947200,8.037947265625,-1.3490469455718994,-0.35853177309036255,-0.007959036156535149
1788799255966917600,8.047917724609375,-1.1773297786712646,-0.4231685996055603,-0.0746987983584404
1788799255976888300,8.057888427734374,-1.0137512683868408,-0.4857507646083832,-0.08203687518835068
1788799255986858200,8.067858154296875,-0.8802596926689148,-0.393314391374588,-0.062228646129369736
1788799255996828400,8.077828369140626,-0.7486273646354675,-0.2510041296482086,-0.06262998282909393
1788799256006798600,8.087798583984375,-0.6266033053398132,-0.27352601289749146,-0.09438696503639221
1788799256016768500,8.0977685546875,-0.49463191628456116,-0.24502432346343994,-0.09135762602090836
1788799256026738400,8.107738525390625,-0.36574363708496094,-0.037404246628284454,-0.012739906087517738
1788799256036709400,8.11770947265625,-0.2310691922903061,0.14478285610675812,0.07238937169313431
1788799256046679600,8.127679443359375,-0.10193322598934174,0.21802286803722382,0.10091450810432434
1788799256056649500,8.1376494140625,0.005079510156065226,0.28828316926956177,0.07947845757007599
1788799256066619400,8.147619384765624,0.11304490268230438,0.3460187613964081,0.07676473259925842
1788799256076589300,8.15758935546875,0.2095663696527481,0.41768041253089905,0.10887525975704193
1788799256086559200,8.167559326171874,0.2977180480957031,0.522947371006012,0.1255430430173874
1788799256096529400,8.177529296875,0.3777763843536377,0.5938630700111389,0.09285646677017212
1788799256106500400,8.187500244140624,0.5220276117324829,0.6021161675453186,0.06340477615594864
1788799256116470300,8.19747021484375,0.7543056011199951,0.5926963090896606,0.09540212154388428
1788799256126440400,8.2074404296875,0.7456871867179871,0.5534657835960388,0.09171690046787262
1788799256136410400,8.217410400390625,0.8492801785469055,0.6817396283149719,0.1258154809474945
1788799256146380500,8.227380615234376,0.9625816941261292,0.7888600826263428,0.1252063363790512
1788799256156350500,8.2373505859375,1.074148416519165,0.8265608549118042,0.07778609544038773
1788799256166321400,8.2473212890625,1.1912055015563965,0.7370196580886841,-0.00192553224042058
1788799256176291000,8.257291015625,1.3647935390472412,0.6080371737480164,-0.07620854675769806
1788799256186261000,8.267260986328125,1.4879324436187744,0.5475519895553589,-0.11998136341571808
1788799256196231000,8.27723095703125,1.5672721862792969,0.5332388281822205,-0.12455295026302338
1788799256206200800,8.287200927734375,1.645855188369751,0.5639442205429077,-0.11923469603061676
1788799256216170800,8.297170654296876,1.715508222579956,0.5642721056938171,-0.13293613493442535
1788799256226142000,8.307141845703125,1.7817164659500122,0.5244619250297546,-0.14778973162174225
1788799256236112000,8.31711181640625,1.8286457061767578,0.4948209822177887,-0.15364868938922882
1788799256246081800,8.327081787109375,1.8711726665496826,0.3965722918510437,-0.17395713925361633
1788799256256052000,8.337052001953126,1.9323036670684814,0.2900083065032959,-0.21206244826316833
1788799256266022000,8.34702197265625,1.9971954822540283,0.24260851740837097,-0.25509002804756165
1788799256275991800,8.35699169921875,2.0520589351654053,0.20398256182670593,-0.29550349712371826
1788799256285962000,8.3669619140625,2.096306800842285,0.08485244959592819,-0.3472537696361542
1788799256295933000,8.376932861328125,2.1463422775268555,-0.03393172100186348,-0.3903959095478058
1788799256305902800,8.38690283203125,2.1957879066467285,-0.1102718785405159,-0.36807572841644287
1788799256315873000,8.396873046875,2.202995538711548,-0.07878931611776352,-0.2785000503063202
1788799256325843000,8.406843017578124,2.161546468734741,-0.07120556384325027,-0.1715371161699295
1788799256335812900,8.416812744140625,2.10270357131958,-0.05412884056568146,-0.03367805853486061
1788799256345783000,8.426782958984376,2.0068204402923584,-0.04121632128953934,0.13170628249645233
1788799256355754000,8.43675390625,1.8658171892166138,-0.03510516509413719,0.2661841809749603
1788799256365724000,8.446723876953126,1.7239830493927002,-0.04985148459672928,0.3058581054210663
1788799256375693800,8.45669384765625,1.6190401315689087,-0.14698202908039093,0.25556856393814087
1788799256385664000,8.4666640625,1.509222149848938,0.06502319872379303,0.24848847091197968
1788799256395634000,8.476634033203124,1.4468138217926025,0.32151252031326294,0.2598245143890381
1788799256405603800,8.486603759765625,1.3982980251312256,0.561712920665741,0.24748963117599487
1788799256415574800,8.49657470703125,1.3785781860351562,0.6623556017875671,0.18157027661800385
1788799256425545000,8.506544921875,1.31290864944458,0.7050204873085022,0.08652588725090027
1788799256435515000,8.516514892578124,1.234907865524292,0.6623931527137756,-0.10707979649305344
1788799256445484800,8.52648486328125,1.131050705909729,0.4068957269191742,-0.3413650691509247
1788799256455454700,8.536454833984376,0.9891087412834167,0.2710620164871216,-0.47485974431037903
1788799256465425000,8.5464248046875,0.8521081805229187,0.17969268560409546,-0.4895678162574768
1788799256475395000,8.55639501953125,0.7180164456367493,0.1155933290719986,-0.3845263421535492
1788799256485365800,8.56636572265625,0.6021499037742615,0.06729257106781006,-0.24555154144763947
1788799256495336000,8.5763359375,0.5173897743225098,0.027831977233290672,-0.13461384177207947
1788799256505306000,8.58630615234375,0.4496508240699768,-0.003191635711118579,-0.1082974523305893
1788799256515276000,8.596276123046875,0.37327057123184204,-0.04891997575759888,-0.1521674394607544
1788799256525246000,8.606245849609374,0.30934837460517883,-0.07783180475234985,-0.2002778947353363
1788799256535215900,8.6162158203125,0.2585078477859497,-0.12517136335372925,-0.19218933582305908
1788799256545187000,8.62618701171875,0.16378946602344513,-0.21975499391555786,-0.14151231944561005
1788799256555157000,8.636156982421875,0.03962330520153046,-0.24264779686927795,-0.09076232463121414
1788799256565127000,8.646126953125,-0.08951937407255173,-0.2508048117160797,-0.060970816761255264
1788799256575096800,8.656096923828125,-0.20292051136493683,-0.3348677456378937,-0.07652553915977478
1788799256585066800,8.666066650390626,-0.3085416853427887,-0.34633731842041016,-0.08249081671237946
1788799256595037000,8.676036865234375,-0.37309300899505615,-0.36336371302604675,-0.09679652005434036
1788799256605006800,8.6860068359375,-0.38367322087287903,-0.3086581826210022,-0.10270293802022934
1788799256614977800,8.695977783203125,-0.4376344680786133,-0.32140326499938965,-0.09841471165418625
1788799256624948000,8.705947998046875,-0.5256192088127136,-0.3660295903682709,-0.045797936618328094
1788799256634918000,8.71591796875,-0.5665522217750549,-0.4057711660861969,0.02433721162378788
1788799256644887800,8.7258876953125,-0.5697243809700012,-0.48642781376838684,0.033358290791511536
1788799256654858000,8.73585791015625,-0.5626124143600464,-0.6063763499259949,-0.006940396502614021
1788799256664828000,8.745827880859375,-0.5812478065490723,-0.6570150256156921,-0.034345656633377075
1788799256674798800,8.755798828125,-0.6445713639259338,-0.6132159233093262,-0.007981427013874054
1788799256684769000,8.76576904296875,-0.7590430974960327,-0.5321144461631775,0.04049362242221832
1788799256694739000,8.775739013671876,-0.821047306060791,-0.5861414670944214,0.10605425387620926
1788799256704708900,8.785708984375,-0.8884523510932922,-0.5640907287597656,0.1467251181602478
1788799256714679000,8.795678955078126,-1.0216323137283325,-0.44909778237342834,0.13710257411003113
1788799256724649000,8.80564892578125,-1.2189226150512695,-0.2972327470779419,0.08314072340726852
1788799256734619000,8.815618896484375,-1.4026050567626953,-0.10179346054792404,0.045172832906246185
1788799256744589800,8.82558984375,-1.5438311100006104,0.10895746946334839,-0.0350867360830307
1788799256754560000,8.83556005859375,-1.6014786958694458,0.15892423689365387,-0.20807795226573944
1788799256764530000,8.845530029296874,-1.6699875593185425,0.1457376629114151,-0.3649260401725769
1788799256774499800,8.855499755859375,-1.722035527229309,0.09311546385288239,-0.43319272994995117
1788799256784469800,8.8654697265625,-1.7084490060806274,0.086690753698349,-0.3822236657142639
1788799256794439700,8.875439697265625,-1.692731261253357,0.1602909415960312,-0.19278636574745178
1788799256804409900,8.885409912109376,-1.7817825078964233,0.24716293811798096,0.02722657099366188
1788799256814380800,8.895380859375,-1.8781766891479492,0.2716746926307678,0.17642457783222198
1788799256824350700,8.905350830078126,-1.8626015186309814,0.23859940469264984,0.2710680067539215
1788799256834321000,8.91532080078125,-1.7697309255599976,0.16039249300956726,0.3160035312175751
1788799256844291000,8.925291015625,-1.676511287689209,-0.02770603448152542,0.2864876687526703
1788799256854261000,8.935260986328124,-1.6544920206069946,-0.1832205206155777,0.23069925606250763
1788799256864231000,8.94523095703125,-1.6666326522827148,-0.2992405891418457,0.1705772578716278
1788799256874200800,8.955200927734374,-1.709510326385498,-0.4441748857498169,0.11150142550468445
1788799256884172000,8.965172119140625,-1.748476505279541,-0.40198415517807007,0.11110682040452957
1788799256894142000,8.975141845703124,-1.9112331867218018,-0.24534475803375244,0.11561528593301773
1788799256904111900,8.98511181640625,-1.9743647575378418,-0.10614310204982758,0.07017359882593155
1788799256914081800,8.995081787109376,-1.8826782703399658,-0.030848883092403412,0.015502098947763443
1788799256924052000,9.005052001953125,-1.7867107391357422,-0.12958897650241852,-0.012205560691654682
1788799256934022000,9.01502197265625,-1.705896258354187,-0.31552472710609436,0.023796383291482925
1788799256943992800,9.024992919921875,-1.72603440284729,-0.5135972499847412,0.007259197998791933
1788799256953962800,9.034962646484376,-1.730380892753601,-0.6896840929985046,-0.10705885291099548
1788799256963933000,9.044932861328125,-1.6049835681915283,-0.7606050968170166,-0.1354435533285141
1788799256973902800,9.05490283203125,-1.5067027807235718,-0.7748135924339294,-0.0963137298822403
1788799256983872800,9.064872802734374,-1.4302074909210205,-0.6891738176345825,-0.007344591431319714
1788799256993843000,9.074843017578125,-1.3734523057937622,-0.5741585493087769,0.05981846898794174
1788799257003812900,9.084812744140624,-1.277092695236206,-0.31206125020980835,0.09366589784622192
1788799257013783800,9.09478369140625,-1.2355353832244873,-0.2695161700248718,0.014821947552263737
1788799257023754000,9.10475390625,-1.0239142179489136,-0.45421987771987915,-0.1236419603228569
1788799257033724000,9.114723876953125,-0.8302515745162964,-0.39831000566482544,-0.17037750780582428
1788799257043694000,9.124694091796876,-0.6921589374542236,-0.22814519703388214,-0.14976169168949127
1788799257053664000,9.1346640625,-0.5716490149497986,-0.08532679826021194,-0.11562663316726685
1788799257063634000,9.144634033203126,-0.4409985840320587,-0.06726787984371185,-0.0812540277838707
1788799257073603800,9.154603759765624,-0.3239870071411133,-0.051693983376026154,0.012584583833813667
1788799257083575000,9.164574951171875,-0.19178570806980133,0.07491053640842438,0.12334418296813965
1788799257093545000,9.174544921875,-0.08937225490808487,0.20371246337890625,0.16356216371059418
1788799257103515000,9.184514892578125,0.020015068352222443,0.2523499131202698,0.14634616672992706
1788799257113484800,9.19448486328125,0.14296521246433258,0.2951040267944336,0.12229010462760925
1788799257123454700,9.204454833984375,0.24906066060066223,0.39445337653160095,0.13859529793262482
1788799257133425000,9.2144248046875,0.3527364432811737,0.457815557718277,0.17142701148986816
1788799257143395000,9.22439501953125,0.4749951958656311,0.47228825092315674,0.17279350757598877
1788799257153365800,9.23436572265625,0.6692269444465637,0.5034804940223694,0.15426349639892578
1788799257163335700,9.244335693359375,0.8183022141456604,0.5089308619499207,0.15481139719486237
1788799257173306000,9.25430615234375,0.8442081212997437,0.5716395378112793,0.14897587895393372
1788799257183276300,9.2642763671875,0.9540287256240845,0.678493320941925,0.1823308765888214
1788799257193246500,9.27424658203125,1.0854724645614624,0.72242271900177,0.20818457007408142
1788799257203216400,9.28421630859375,1.262220859527588,0.7242701649665833,0.19215811789035797
1788799257213186300,9.294186279296875,1.3814812898635864,0.7626465559005737,0.17223207652568817
1788799257223157500,9.304157470703124,1.4270697832107544,0.7530472278594971,0.141219824552536
1788799257233127400,9.31412744140625,1.4925731420516968,0.7659167051315308,0.10646770894527435
1788799257243097300,9.324097412109374,1.6125786304473877,0.6555302739143372,0.06356551498174667
1788799257253067300,9.3340673828125,1.7471604347229004,0.5086734294891357,0.0035980541724711657
1788799257263037200,9.344037109375,1.8619524240493774,0.4038451015949249,-0.0717669129371643
1788799257273007400,9.35400732421875,1.9541544914245605,0.3315599858760834,-0.1219850704073906
1788799257282977300,9.363977294921876,2.025106191635132,0.2995801568031311,-0.149276003241539
1788799257292948200,9.3739482421875,2.078655242919922,0.2672666907310486,-0.14565755426883698
1788799257302918400,9.38391845703125,2.1153454780578613,0.25519898533821106,-0.1473419964313507
1788799257312888300,9.393888427734375,2.1453168392181396,0.22725923359394073,-0.15511469542980194
1788799257322858200,9.403858154296875,2.186432361602783,0.17625625431537628,-0.16424694657325745
1788799257332828200,9.413828125,2.2384183406829834,0.025519197806715965,-0.1843237280845642
1788799257342798300,9.42379833984375,2.311724901199341,-0.1768437922000885,-0.20785348117351532
1788799257352768500,9.4337685546875,2.396501302719116,-0.4248214066028595,-0.23596367239952087
1788799257362739200,9.4437392578125,2.4523308277130127,-0.5851950645446777,-0.2121463268995285
1788799257372709400,9.45370947265625,2.4346683025360107,-0.5937461853027344,-0.13633598387241364
1788799257382679300,9.46367919921875,2.30537486076355,-0.5407759547233582,-0.0035921772941946983
1788799257392649500,9.4736494140625,2.142862319946289,-0.41989561915397644,0.15366774797439575
1788799257402619400,9.483619384765625,2.003845453262329,-0.32973986864089966,0.3033016324043274
1788799257412589300,9.49358935546875,1.902078628540039,-0.2894989848136902,0.4180694818496704
1788799257422559200,9.503559326171874,1.832266926765442,-0.17861689627170563,0.5188112258911133
1788799257432530400,9.513530517578126,1.731248378753662,0.1381796896457672,0.6759247183799744
1788799257442500400,9.523500244140624,1.6240906715393066,0.45944416522979736,0.7404290437698364
1788799257452470300,9.53347021484375,1.5389368534088135,0.7097344398498535,0.6709967255592346
1788799257462440200,9.543440185546874,1.4055607318878174,0.8639428019523621,0.5328899025917053
1788799257472410400,9.553410400390625,1.2531718015670776,0.8854169845581055,0.30087020993232727
1788799257482380300,9.56338037109375,1.1275159120559692,0.8520144820213318,0.0023839680943638086
1788799257492350500,9.5733505859375,1.0226843357086182,0.6357429027557373,-0.23782837390899658
1788799257502320400,9.5833203125,0.8846985101699829,0.42246994376182556,-0.3261958062648773
1788799257512291300,9.593291259765625,0.7407586574554443,0.3044695258140564,-0.29252493381500244
1788799257522261500,9.603261474609376,0.6217890977859497,0.1892147660255432,-0.1981220543384552
1788799257532231400,9.6132314453125,0.5375178456306458,0.0525493286550045,-0.1008564904332161
1788799257542201300,9.623201416015625,0.43759995698928833,-0.002167738974094391,-0.039327558130025864
1788799257552171300,9.633171142578124,0.33596494793891907,0.0139680877327919,-0.05012507736682892
1788799257562141400,9.643141357421875,0.2522454559803009,-0.029921505600214005,-0.10795048624277115
1788799257572111400,9.653111328125,0.17260150611400604,-0.13279248774051666,-0.15902617573738098
1788799257582082300,9.663082275390625,0.07858587056398392,-0.06174654886126518,-0.12634709477424622
1788799257592052200,9.67305224609375,-0.056759968400001526,0.00043826084583997726,-0.11510215699672699
1788799257602022400,9.6830224609375,-0.1416659951210022,-0.04261191934347153,-0.13512608408927917
1788799257611992300,9.692992431640626,-0.18425685167312622,-0.09807570278644562,-0.14668740332126617
1788799257621962200,9.702962158203125,-0.21259167790412903,-0.10863130539655685,-0.13194280862808228
1788799257631932200,9.71293212890625,-0.2666967511177063,-0.13841237127780914,-0.14718647301197052
1788799257641902300,9.72290234375,-0.33075016736984253,-0.12355910241603851,-0.161471426486969
1788799257651872500,9.73287255859375,-0.42119458317756653,-0.0210708137601614,-0.127359539270401
1788799257661843200,9.74284326171875,-0.5023927688598633,0.022788643836975098,-0.08048678934574127
1788799257671813400,9.7528134765625,-0.5695047378540039,0.04671448469161987,-0.03499307483434677
1788799257681783600,9.762783447265624,-0.5887102484703064,-0.07254698127508163,-0.018290705978870392
1788799257691753500,9.77275341796875,-0.5753499865531921,-0.27771106362342834,-0.030206486582756042
1788799257701723400,9.782723388671876,-0.5638109445571899,-0.3994511663913727,-0.00978812575340271
1788799257711693300,9.792693359375,-0.5917323231697083,-0.513637125492096,0.013051943853497505
1788799257721663200,9.802663330078126,-0.6378143429756165,-0.6464745402336121,0.010594896040856838
1788799257731634400,9.812634521484375,-0.6981322765350342,-0.641017735004425,0.0367969386279583
1788799257741604400,9.822604248046876,-0.854777991771698,-0.43253588676452637,0.06716493517160416
1788799257751574300,9.83257421875,-1.070778727531433,-0.19924987852573395,0.03293346241116524
1788799257761544200,9.842544189453125,-1.3069061040878296,-0.004435294307768345,-0.04715675115585327
1788799257771514400,9.852514404296874,-1.4989997148513794,0.14886504411697388,-0.13553109765052795
1788799257781484300,9.862484375,-1.5837434530258179,0.31463858485221863,-0.21330316364765167
1788799257791454200,9.8724541015625,-1.6116435527801514,0.3647366464138031,-0.3486519455909729
1788799257801424400,9.88242431640625,-1.6377416849136353,0.27520719170570374,-0.4718887209892273
1788799257811395300,9.892395263671874,-1.6488630771636963,0.20197801291942596,-0.5385255217552185
1788799257821365200,9.902365234375,-1.6119701862335205,0.14728979766368866,-0.518038809299469
1788799257831335400,9.91233544921875,-1.5401947498321533,0.04284434765577316,-0.39633074402809143
1788799257841305300,9.922305419921875,-1.571441650390625,-0.041557393968105316,-0.2351153939962387
1788799257851275300,9.932275146484375,-1.6168235540390015,-0.15370602905750275,-0.09366850554943085
1788799257861245400,9.942245361328125,-1.6396548748016357,-0.18149858713150024,0.00961832981556654
1788799257871215400,9.95221533203125,-1.6767204999923706,-0.15946385264396667,0.08506781607866287
1788799257881185300,9.962185302734374,-1.7269105911254883,-0.19831234216690063,0.0999075397849083
1788799257891156500,9.972156494140625,-1.7359693050384521,-0.2511928677558899,0.04393082484602928
1788799257901126400,9.98212646484375,-1.6994723081588745,-0.14824873208999634,-0.018340615555644035
1788799257911096300,9.992096435546875,-1.6355741024017334,-0.015394553542137146,-0.026274969801306725
1788799257921066200,10.002066162109376,-1.6150654554367065,0.10237924754619598,0.04394214227795601
1788799257931036200,10.0120361328125,-1.6798335313796997,0.21961826086044312,0.17983046174049377
1788799257941006300,10.02200634765625,-1.818703055381775,0.24688926339149475,0.2755058705806732
1788799257950976300,10.031976318359375,-1.8823456764221191,0.12551835179328918,0.2874629497528076
1788799257960946400,10.041946533203125,-1.953751802444458,-0.2622428238391876,0.1535336822271347
1788799257970917000,10.051917236328125,-1.796250343322754,-0.6989128589630127,-0.07845959812402725
1788799257980887300,10.06188720703125,-1.6228910684585571,-0.9965788722038269,-0.31981176137924194
1788799257990857500,10.071857421875,-1.570138931274414,-1.067634105682373,-0.42060813307762146
1788799258000827400,10.081827392578125,-1.5712566375732422,-0.9147770404815674,-0.3182597756385803
1788799258010797300,10.09179736328125,-1.5609471797943115,-0.7306580543518066,-0.1430400311946869
1788799258020767200,10.101767333984375,-1.5018068552017212,-0.5529738068580627,-0.02091362327337265
1788799258030737400,10.1117373046875,-1.443949580192566,-0.3605681359767914,0.03619519993662834
1788799258040707300,10.121707275390625,-1.452062964439392,-0.2676141560077667,0.03209913149476051
1788799258050678300,10.13167822265625,-1.3732496500015259,-0.3725229799747467,0.018616344779729843
1788799258060648400,10.1416484375,-1.2406662702560425,-0.453973650932312,0.010917146690189838
1788799258070618400,10.151618408203126,-1.1244226694107056,-0.3812793493270874,0.025219393894076347
1788799258080588300,10.16158837890625,-1.003075361251831,-0.22994685173034668,0.06557035446166992
1788799258090558200,10.17155810546875,-0.8578070998191833,-0.05062290281057358,0.11135035753250122
1788799258100528000,10.181528076171874,-0.6909410953521729,-0.009095798246562481,0.109053835272789
1788799258110498300,10.191498291015625,-0.5411603450775146,0.004560625180602074,0.11472050845623016
1788799258120468500,10.201468505859374,-0.4045909345149994,0.00560592208057642,0.1402631253004074
1788799258130439200,10.211439208984375,-0.22554928064346313,0.11197070777416229,0.20083752274513245
1788799258140409300,10.221409423828124,-0.04932170733809471,0.18809406459331512,0.2053072154521942
1788799258150379500,10.231379638671875,0.12396752834320068,0.2953358292579651,0.20289120078086853
1788799258160349400,10.241349365234376,0.2883169949054718,0.39402687549591064,0.22901518642902374
1788799258170319400,10.2513193359375,0.4206734299659729,0.5029983520507812,0.2401980608701706
1788799258180289300,10.261289306640625,0.5457891821861267,0.6093481183052063,0.23302534222602844
1788799258190259200,10.27125927734375,0.7626346945762634,0.692307710647583,0.22177241742610931
1788799258200229000,10.28122900390625,0.8505367636680603,0.6213870048522949,0.1895996630191803
1788799258210200000,10.291199951171874,0.9452246427536011,0.558326005935669,0.15344057977199554
1788799258220170200,10.301170166015625,1.072862982749939,0.5566439628601074,0.1439749300479889
1788799258230140200,10.31114013671875,1.1756309270858765,0.6658561825752258,0.1560017615556717
1788799258240110000,10.321110107421875,1.3195829391479492,0.7889624238014221,0.1860736906528473
1788799258250080000,10.331080078125,1.3714474439620972,0.9062525629997253,0.21415406465530396
1788799258260050200,10.34105029296875,1.405540943145752,0.9236695170402527,0.17375802993774414
1788799258270020400,10.351020263671876,1.5018466711044312,0.8750388622283936,0.10668551921844482
1788799258279990300,10.360990234375,1.6416064500808716,0.7718512415885925,0.039520345628261566
1788799258289961200,10.370961181640626,1.774867296218872,0.652937114238739,-0.011623267084360123
1788799258299931100,10.38093115234375,1.8828771114349365,0.6027647256851196,-0.04476700350642204
1788799258309901300,10.3909013671875,1.9640238285064697,0.46545401215553284,-0.09299525618553162
1788799258319871200,10.400871337890624,2.0253946781158447,0.27210572361946106,-0.16590756177902222
1788799258329841200,10.410841064453125,2.0770106315612793,0.13288363814353943,-0.2554478049278259
1788799258339811000,10.42081103515625,2.0979223251342773,0.07289203256368637,-0.3480011224746704
1788799258349781200,10.43078125,2.1056063175201416,0.015165349468588829,-0.4360060691833496
1788799258359751200,10.440751220703126,2.097456455230713,-0.021105952560901642,-0.4874538481235504
1788799258369722000,10.45072216796875,2.0926742553710938,-0.019204987213015556,-0.4793306589126587
1788799258379692000,10.460692138671876,2.1008005142211914,-0.06362687051296234,-0.429109126329422
1788799258389662200,10.470662109375,2.1260921955108643,-0.1090092658996582,-0.3495064377784729
1788799258399632100,10.480632080078125,2.136275291442871,-0.13335616886615753,-0.24740509688854218
1788799258409602000,10.49060205078125,2.1250908374786377,-0.1513223797082901,-0.11862289160490036
1788799258419572200,10.500572265625,2.06949520111084,-0.15605895221233368,0.04926813766360283
1788799258429542100,10.510542236328124,1.994255781173706,-0.1592579483985901,0.17147819697856903
1788799258439512300,10.52051220703125,1.8930467367172241,-0.16363753378391266,0.24667127430438995
1788799258449482200,10.530482177734376,1.7444279193878174,-0.021433254703879356,0.3232738971710205
1788799258459453200,10.540453125,1.5650891065597534,0.3862810730934143,0.44821038842201233
1788799258469423000,10.550423095703126,1.4366788864135742,0.7098556756973267,0.5480826497077942
1788799258479393300,10.560393310546875,1.3817464113235474,0.7956287264823914,0.5473297834396362
1788799258489363200,10.57036328125,1.328743815422058,0.7946231365203857,0.4623722732067108
1788799258499333000,10.5803330078125,1.2839747667312622,0.796983540058136,0.30353423953056335
1788799258509303000,10.590302978515625,1.2792420387268066,0.7736425399780273,0.04446139931678772
1788799258519273000,10.60027294921875,1.2064327001571655,0.5511726140975952,-0.2513311505317688
1788799258529243100,10.6102431640625,1.0260088443756104,0.3334949314594269,-0.45502355694770813
1788799258539213000,10.620213134765624,0.8348718881607056,0.20017214119434357,-0.5279489159584045
1788799258549184000,10.63018408203125,0.687784731388092,0.11865704506635666,-0.4777272939682007
1788799258559154200,10.640154296875,0.5631765723228455,0.03419061005115509,-0.37933114171028137
1788799258569124000,10.6501240234375,0.44067278504371643,0.0409662239253521,-0.2931635081768036
1788799258579094300,10.66009423828125,0.32655590772628784,0.06481720507144928,-0.2570815980434418
1788799258589064200,10.670064208984375,0.22986266016960144,0.05855610966682434,-0.275076299905777
1788799258599034000,10.6800341796875,0.17326289415359497,0.03360363095998764,-0.25331592559814453
1788799258609004300,10.69000439453125,0.09814364463090897,0.020794624462723732,-0.167221799492836
1788799258618974200,10.69997412109375,0.0006189196137711406,-0.08431430906057358,-0.10831539332866669
1788799258628945200,10.709945068359374,-0.10504226386547089,-0.11703576892614365,-0.05353816971182823
1788799258638915000,10.7199150390625,-0.208608940243721,-0.17764519155025482,-0.054961372166872025
1788799258648885200,10.72988525390625,-0.2966293394565582,-0.2038927674293518,-0.06997440755367279
1788799258658855200,10.739855224609375,-0.3626284599304199,-0.18234509229660034,-0.0838298425078392
1788799258668825000,10.7498251953125,-0.3995971083641052,-0.17640997469425201,-0.09373041242361069
1788799258678795000,10.759794921875,-0.43834394216537476,-0.18584997951984406,-0.06606757640838623
1788799258688765000,10.769764892578126,-0.4556787312030792,-0.2808561325073242,-0.02755027823150158
1788799258698735400,10.7797353515625,-0.4757055938243866,-0.44107702374458313,0.009628411382436752
1788799258708705300,10.789705322265625,-0.5260475873947144,-0.509110152721405,0.07143052667379379
1788799258718675200,10.79967529296875,-0.5682382583618164,-0.575127363204956,0.09807439148426056
1788799258728646100,10.809646240234375,-0.601587176322937,-0.6418421864509583,0.07364468276500702
1788799258738616300,10.8196162109375,-0.6393660306930542,-0.6595417857170105,0.050887491554021835
1788799258748586200,10.829586181640625,-0.7251842617988586,-0.6272147297859192,0.012074848636984825
1788799258758556200,10.83955615234375,-0.8881770968437195,-0.5256604552268982,-0.10834896564483643
1788799258768526000,10.849526123046875,-0.9828380942344666,-0.5136985778808594,-0.16165132820606232
1788799258778496300,10.859496337890626,-1.1055783033370972,-0.47412964701652527,-0.15031862258911133
1788799258788466200,10.869466064453125,-1.3011610507965088,-0.2873704135417938,-0.14038529992103577
1788799258798436000,10.87943603515625,-1.4585464000701904,-0.10272960364818573,-0.09285537153482437
1788799258808406000,10.889406005859374,-1.5563054084777832,0.01557067595422268,-0.03824086859822273
1788799258818377200,10.899377197265625,-1.6063367128372192,0.013947437517344952,-0.024662114679813385
1788799258828347100,10.90934716796875,-1.6402562856674194,-0.09430819749832153,-0.07138994336128235
1788799258838317000,10.919317138671875,-1.704992413520813,-0.16067375242710114,-0.11128707230091095
1788799258848287200,10.929287353515624,-1.746962547302246,-0.15876266360282898,-0.12678000330924988
1788799258858257200,10.939257080078125,-1.7166004180908203,-0.14797714352607727,-0.1162000447511673
1788799258868227300,10.949227294921876,-1.6530603170394897,-0.11123910546302795,-0.034463368356227875
1788799258878197200,10.959197265625,-1.6418555974960327,-0.038456253707408905,0.09432392567396164
1788799258888167200,10.969167236328126,-1.663207769393921,0.014198968186974525,0.2545838952064514
1788799258898137000,10.97913720703125,-1.7612184286117554,0.07338133454322815,0.4382786154747009
1788799258908108300,10.9891083984375,-1.8538908958435059,-0.06888579577207565,0.5067399740219116
1788799258918078200,10.999078125,-1.8370953798294067,-0.20024411380290985,0.4594878554344177
1788799258928048000,11.009048095703125,-1.7621263265609741,-0.2169240266084671,0.32612472772598267
1788799258938018000,11.01901806640625,-1.721596360206604,-0.22876286506652832,0.184152752161026
1788799258947988200,11.02898828125,-1.7542462348937988,-0.25596174597740173,0.1369927078485489
1788799258957958100,11.038958251953124,-1.8202348947525024,-0.2966207265853882,0.17655470967292786
1788799258967928000,11.048927978515625,-1.8803571462631226,-0.37840694189071655,0.24425093829631805
1788799258977898200,11.058898193359376,-1.8334288597106934,-0.41613027453422546,0.31460481882095337
1788799258987868200,11.0688681640625,-1.7257306575775146,-0.37765344977378845,0.36793676018714905
1788799258997838300,11.07883837890625,-1.7693731784820557,-0.47618353366851807,0.23684701323509216
1788799259007809300,11.088809326171875,-1.6037288904190063,-0.47174590826034546,0.05275040864944458
1788799259017779200,11.098779296875,-1.472137212753296,-0.4710785448551178,-0.0422743521630764
1788799259027749000,11.1087490234375,-1.4042458534240723,-0.5275524258613586,-0.04289380460977554
1788799259037719300,11.11871923828125,-1.3662291765213013,-0.570117175579071,0.01834120973944664
1788799259047689200,11.128689208984374,-1.3504481315612793,-0.49946829676628113,0.09235232323408127
1788799259057659100,11.1386591796875,-1.3028781414031982,-0.5685175657272339,0.09896402060985565
1788799259067629000,11.148629150390626,-1.211811900138855,-0.6441870331764221,0.0645756870508194
1788799259077599000,11.158598876953125,-1.0904847383499146,-0.5466521978378296,0.03868065029382706
1788799259087569200,11.168569091796876,-0.9575344324111938,-0.4279210567474365,0.044318296015262604
1788799259097540000,11.1785400390625,-0.8575249910354614,-0.20775273442268372,0.07990051060914993
1788799259107510000,11.188510009765626,-0.7600312232971191,0.032654814422130585,0.13142229616641998
1788799259117480000,11.19847998046875,-0.6548550128936768,0.13218052685260773,0.16332097351551056
1788799259127450000,11.2084501953125,-0.5275053381919861,0.27556857466697693,0.224165141582489
1788799259137420300,11.218420166015624,-0.3860952854156494,0.3346002995967865,0.27084219455718994
1788799259147390200,11.22839013671875,-0.22936773300170898,0.21752560138702393,0.22521452605724335
1788799259157360000,11.238360107421874,-0.08947152644395828,0.14786440134048462,0.10518844425678253
1788799259167330300,11.248330322265625,0.016720691695809364,0.202975332736969,0.03460002318024635
1788799259177300700,11.25830078125,0.11892471462488174,0.3013426661491394,0.0192340686917305
1788799259187271000,11.26827099609375,0.2190648913383484,0.40976208448410034,0.011485602706670761
1788799259197241900,11.278241943359374,0.32170796394348145,0.5390925407409668,-0.003409719094634056
1788799259207211800,11.288211669921875,0.4546937048435211,0.6175263524055481,-0.012306541204452515
1788799259217181700,11.298181640625,0.5920736789703369,0.6820114254951477,-0.0139535553753376
1788799259227152000,11.30815185546875,0.7367970943450928,0.7392709851264954,-0.006708159577101469
1788799259237121800,11.318121826171875,0.8846637010574341,0.7869728803634644,-0.00483119860291481
1788799259247091700,11.328091796875,1.0312105417251587,0.8116976618766785,-0.05211668834090233
1788799259257061600,11.3380615234375,1.2391109466552734,0.8142314553260803,-0.11052876710891724
1788799259267031600,11.348031494140624,1.2942527532577515,0.8111701607704163,-0.13756810128688812
1788799259277002000,11.358001953125,1.3645522594451904,0.7946600317955017,-0.16407249867916107
1788799259286972000,11.367971923828126,1.4527760744094849,0.8320257663726807,-0.17340047657489777
1788799259296942600,11.377942626953125,1.5604807138442993,0.8281168937683105,-0.19577166438102722
1788799259306913000,11.3879130859375,1.672533392906189,0.774885892868042,-0.24090451002120972
1788799259316883000,11.397883056640625,1.7164710760116577,0.8172096610069275,-0.29330042004585266
1788799259326852900,11.407852783203126,1.7617602348327637,0.77339106798172,-0.3353232443332672
1788799259336822800,11.41782275390625,1.8457272052764893,0.5872979760169983,-0.373654842376709
1788799259346792700,11.427792724609375,1.9572367668151855,0.4440164566040039,-0.44128474593162537
1788799259356763000,11.437762939453124,2.0424156188964844,0.3982386887073517,-0.5215001106262207
1788799259366732800,11.44773291015625,2.110464096069336,0.2693270444869995,-0.6168705821037292
1788799259376702700,11.45770263671875,2.21608304977417,0.08236002922058105,-0.7023231387138367
1788799259386672600,11.467672607421875,2.316389799118042,-0.10776357352733612,-0.7293989658355713
1788799259396642600,11.477642578125,2.379152536392212,-0.2348991185426712,-0.6826552152633667
1788799259406613800,11.48761376953125,2.3865952491760254,-0.2962404787540436,-0.6197859644889832
1788799259416583700,11.497583740234376,2.359706401824951,-0.3795446455478668,-0.5507660508155823
1788799259426553600,11.5075537109375,2.3149642944335938,-0.3963196277618408,-0.4716225266456604
1788799259436523800,11.517523681640625,2.2396655082702637,-0.40856727957725525,-0.3911573588848114
1788799259446494000,11.527493896484375,2.148319721221924,-0.3824794888496399,-0.2678242325782776
1788799259456464000,11.5374638671875,2.0243029594421387,-0.2833557724952698,-0.09232286363840103
1788799259466433800,11.547433837890624,1.843997597694397,-0.06087823584675789,0.11751691997051239
1788799259476403700,11.55740380859375,1.6615188121795654,0.18435877561569214,0.27743369340896606
1788799259486373600,11.56737353515625,1.5266022682189941,0.4681132733821869,0.40964633226394653
1788799259496343800,11.57734375,1.437063455581665,0.6124400496482849,0.465027391910553
1788799259506314800,11.587314697265626,1.3224303722381592,0.7011949419975281,0.43638932704925537
1788799259516284700,11.59728466796875,1.239442229270935,0.8133124113082886,0.30093151330947876
1788799259526254800,11.6072548828125,1.155485987663269,0.7199842929840088,-0.051488880068063736
1788799259536224800,11.617224853515625,0.980714738368988,0.5634729266166687,-0.4428791403770447
1788799259546194700,11.627194580078125,0.8009907603263855,0.3997971713542938,-0.6437864303588867
1788799259556164900,11.637164794921874,0.6394095420837402,0.30878278613090515,-0.5854353904724121
1788799259566134800,11.647134765625,0.5001049637794495,0.21241655945777893,-0.38958224654197693
1788799259576105000,11.65710498046875,0.3604089915752411,0.11634965986013412,-0.22570565342903137
1788799259586075000,11.667074951171875,0.26674240827560425,0.0903707891702652,-0.19052930176258087
1788799259596044800,11.677044921875,0.2023158222436905,0.10007020086050034,-0.23258575797080994
1788799259606014700,11.6870146484375,0.14640168845653534,0.1029948890209198,-0.2590138912200928
1788799259615986000,11.69698583984375,0.0914248451590538,0.04220074042677879,-0.266487181186676
1788799259625955800,11.706955810546875,0.02190489135682583,-0.020800596103072166,-0.2658347189426422
1788799259635925800,11.71692578125,-0.03537455573678017,-0.08295486867427826,-0.23493628203868866
1788799259645895700,11.726895751953125,-0.09532950818538666,-0.16231679916381836,-0.19771701097488403
1788799259655865600,11.736865478515625,-0.17585580050945282,-0.2632431983947754,-0.20004317164421082
1788799259665835800,11.746835693359374,-0.2804202735424042,-0.3063211739063263,-0.18967096507549286
1788799259675805700,11.7568056640625,-0.3449643552303314,-0.2964748740196228,-0.15713229775428772
1788799259685776000,11.76677587890625,-0.3473612070083618,-0.34352895617485046,-0.11823735386133194
1788799259695745800,11.776745849609375,-0.3572061061859131,-0.37588658928871155,-0.055624835193157196
1788799259705716000,11.786716064453126,-0.3797321617603302,-0.3922152519226074,0.027616262435913086
1788799259715686000,11.796685791015625,-0.4092830419540405,-0.4331185221672058,0.11819201707839966
1788799259725656800,11.80665673828125,-0.46001625061035156,-0.4398443102836609,0.21548686921596527
1788799259735626800,11.816626708984375,-0.5174563527107239,-0.46466171741485596,0.25908270478248596
1788799259745597000,11.826596923828125,-0.5599859952926636,-0.5356144309043884,0.24427978694438934
1788799259755566800,11.83656689453125,-0.6090465188026428,-0.5656196475028992,0.19846968352794647
1788799259765536800,11.846536865234375,-0.6661580204963684,-0.573331356048584,0.12551584839820862
1788799259775506700,11.856506591796874,-0.7520151138305664,-0.5654616355895996,0.010781936347484589
1788799259785476600,11.8664765625,-0.8694536089897156,-0.5343441963195801,-0.07255050539970398
1788799259795446800,11.87644677734375,-1.0364019870758057,-0.4275698959827423,-0.08955275267362595
1788799259805416700,11.886416748046875,-1.1872413158416748,-0.36850470304489136,-0.028836669400334358
1788799259815387000,11.896386962890626,-1.3298885822296143,-0.246614009141922,0.061313312500715256
1788799259825356800,11.906356689453125,-1.4526879787445068,-0.0775163397192955,0.02115524187684059
1788799259835326700,11.91632666015625,-1.5552995204925537,-0.12589973211288452,-0.11463958024978638
1788799259845298000,11.9262978515625,-1.6522119045257568,-0.2133355736732483,-0.27582526206970215
1788799259855267800,11.936267822265625,-1.6866028308868408,-0.19996286928653717,-0.36152854561805725
1788799259865237800,11.94623779296875,-1.6307313442230225,-0.18409840762615204,-0.3364519476890564
1788799259875207700,11.956207763671875,-1.5804156064987183,-0.3059539496898651,-0.17817161977291107
1788799259885177900,11.966177734375,-1.6134297847747803,-0.3232823312282562,0.08582913130521774
1788799259895147800,11.976147705078125,-1.669963002204895,-0.22597752511501312,0.3308982849121094
1788799259905117700,11.98611767578125,-1.6920456886291504,-0.0720987319946289,0.5041958093643188
1788799259915087600,11.996087646484375,-1.6889325380325317,0.1097649559378624,0.600290834903717
1788799259925057800,12.006057861328125,-1.7150120735168457,0.16555152833461761,0.6300458312034607
1788799259935027700,12.01602783203125,-1.8049111366271973,0.1648246794939041,0.624077558517456
1788799259944998000,12.025997802734375,-1.8556346893310547,-0.04359776899218559,0.5573770403862
1788799259954968600,12.035968505859374,-1.771081805229187,-0.36406078934669495,0.399223268032074
1788799259964938800,12.045938720703125,-1.6376806497573853,-0.6303843855857849,0.21307414770126343
1788799259974909000,12.055908935546874,-1.5665531158447266,-0.7660433650016785,0.07864086329936981
1788799259984878800,12.06587890625,-1.5474069118499756,-0.7269353866577148,0.11490538716316223
1788799259994848800,12.075848876953126,-1.5708389282226562,-0.5399442315101624,0.25676196813583374
1788799260004818700,12.085818603515625,-1.586898922920227,-0.3509007692337036,0.3873830735683441
1788799260014788900,12.095788818359376,-1.621291160583496,-0.2463400512933731,0.4199216365814209
1788799260024758800,12.1057587890625,-1.5552282333374023,-0.1708681881427765,0.39945366978645325
1788799260034728700,12.115728759765625,-1.5971083641052246,-0.367066353559494,0.2844848334789276
1788799260044698600,12.12569873046875,-1.5057369470596313,-0.7674047350883484,0.10159330070018768
1788799260054668500,12.13566845703125,-1.3734973669052124,-0.9337195754051208,0.02745039574801922
1788799260064639000,12.145638916015624,-1.3381800651550293,-0.8718386292457581,0.021419934928417206
1788799260074609700,12.155609619140625,-1.332250714302063,-0.5997596383094788,0.07772491127252579
1788799260084579600,12.16557958984375,-1.2911309003829956,-0.5379855036735535,0.12589244544506073
1788799260094550000,12.175550048828125,-1.1930878162384033,-0.592438280582428,0.14670279622077942
1788799260104520000,12.18552001953125,-1.0472840070724487,-0.5282590389251709,0.1710483580827713
1788799260114489900,12.19548974609375,-0.916740894317627,-0.27814456820487976,0.18318822979927063
1788799260124459800,12.205459716796875,-0.7845886945724487,-0.004193460568785667,0.18387718498706818
1788799260134429700,12.2154296875,-0.639533281326294,0.046112533658742905,0.17155298590660095
1788799260144400000,12.22539990234375,-0.5038425326347351,-0.0023253082763403654,0.17181050777435303
1788799260154369800,12.235369873046874,-0.36652153730392456,0.002739854622632265,0.20368249714374542
1788799260164339700,12.245339599609375,-0.21491739153862,0.03892582282423973,0.2068585902452469
1788799260174309600,12.2553095703125,-0.06056646630167961,0.04902200400829315,0.13581901788711548
1788799260184279300,12.265279296875,0.07775971293449402,0.10926243662834167,-0.00047463830560445786
1788799260194250200,12.275250244140626,0.20710217952728271,0.13484911620616913,-0.06995481997728348
1788799260204220400,12.285220458984375,0.32411107420921326,0.2404240071773529,-0.05812133103609085
1788799260214190300,12.2951904296875,0.45387932658195496,0.38389191031455994,-0.01685957983136177
1788799260224160300,12.30516015625,0.5802586078643799,0.4530920386314392,0.0007218099199235439
1788799260234130400,12.31513037109375,0.7026011943817139,0.5128604173660278,-0.020475393161177635
1788799260244100400,12.325100341796874,0.8582988977432251,0.584130585193634,-0.04463665559887886
1788799260254070300,12.3350703125,0.9330629706382751,0.5976652503013611,-0.07777658849954605
1788799260264040200,12.345040283203126,1.061536431312561,0.5621064305305481,-0.12903472781181335
1788799260274010000,12.355010009765625,1.1915301084518433,0.5932473540306091,-0.17481598258018494
1788799260283980300,12.364980224609376,1.3445053100585938,0.6550379991531372,-0.18334607779979706
1788799260293950200,12.3749501953125,1.388303518295288,0.7570992112159729,-0.14738667011260986
1788799260303920400,12.38492041015625,1.4451133012771606,0.8053061366081238,-0.11733289808034897
1788799260313891000,12.39489111328125,1.5371177196502686,0.8423078060150146,-0.10368660092353821
1788799260323861200,12.404861328125,1.661781907081604,0.690913736820221,-0.14375625550746918
1788799260333831400,12.41483154296875,1.7773710489273071,0.6949573755264282,-0.18446403741836548
1788799260343801300,12.42480126953125,1.836410403251648,0.6840075254440308,-0.2304147481918335
