time,seconds_elapsed,z,y,x
1788957739268153900,0.05115380859375,-0.87042236328125,-0.5242919921875,-0.0401611328125
1788957739278203600,0.06120361328125,-0.8455047607421875,-0.5232696533203125,-0.037109375
1788957739288254700,0.071254638671875,-0.832672119140625,-0.5308380126953125,-0.0328216552734375
1788957739298304800,0.0813046875,-0.8164825439453125,-0.534393310546875,-0.027587890625
1788957739308354800,0.091354736328125,-0.7973785400390625,-0.53277587890625,-0.021697998046875
1788957739318404600,0.101404541015625,-0.8008880615234375,-0.533599853515625,-0.020660400390625
1788957739328454700,0.11145458984375,-0.812744140625,-0.5427093505859375,-0.0200653076171875
1788957739338504700,0.121504638671875,-0.8186798095703125,-0.539825439453125,-0.0251617431640625
1788957739348554800,0.1315546875,-0.8416595458984375,-0.527374267578125,-0.033599853515625
1788957739358604800,0.141604736328125,-0.86724853515625,-0.51885986328125,-0.0476226806640625
1788957739368654800,0.15165478515625,-0.89837646484375,-0.509185791015625,-0.0626068115234375
1788957739378705000,0.161704833984375,-0.9016876220703125,-0.4972076416015625,-0.07171630859375
1788957739388755000,0.1717548828125,-0.8788909912109375,-0.4773101806640625,-0.065155029296875
1788957739398805000,0.181804931640625,-0.8627166748046875,-0.47454833984375,-0.0456695556640625
1788957739408854800,0.191854736328125,-0.8350830078125,-0.495574951171875,-0.024627685546875
1788957739418904800,0.20190478515625,-0.80706787109375,-0.516448974609375,-0.0112762451171875
1788957739428955000,0.211954833984375,-0.788299560546875,-0.5412750244140625,-0.012115478515625
1788957739439005000,0.2220048828125,-0.775909423828125,-0.568450927734375,-0.02398681640625
1788957739449054700,0.2320546875,-0.759429931640625,-0.590118408203125,-0.04327392578125
1788957739459104800,0.242104736328125,-0.773193359375,-0.6011505126953125,-0.065826416015625
1788957739469155800,0.25215576171875,-0.8109283447265625,-0.5978240966796875,-0.0757904052734375
1788957739479206000,0.262205810546875,-0.8328094482421875,-0.5865936279296875,-0.0723724365234375
1788957739489256000,0.272255859375,-0.8551025390625,-0.5887908935546875,-0.0628509521484375
1788957739499305700,0.2823056640625,-0.8764495849609375,-0.5977020263671875,-0.0410614013671875
1788957739509355800,0.292355712890625,-0.8907928466796875,-0.5814666748046875,-0.01690673828125
1788957739519405800,0.30240576171875,-0.9007720947265625,-0.5672607421875,0.004852294921875
1788957739529455900,0.312455810546875,-0.9188690185546875,-0.5703582763671875,0.0108489990234375
1788957739539505700,0.322505615234375,-0.922332763671875,-0.564544677734375,0.000701904296875
1788957739549555700,0.3325556640625,-0.9218292236328125,-0.544189453125,-0.0166168212890625
1788957739559605800,0.342605712890625,-0.9301910400390625,-0.5395355224609375,-0.0408782958984375
1788957739569655800,0.35265576171875,-0.922332763671875,-0.4862823486328125,-0.041748046875
1788957739579705900,0.362705810546875,-0.962371826171875,-0.4045562744140625,0.0090484619140625
1788957739589755600,0.372755615234375,-0.9205780029296875,-0.5384674072265625,-0.049102783203125
1788957739599806000,0.382805908203125,-0.8653411865234375,-0.6622161865234375,-0.010406494140625
1788957739609856000,0.39285595703125,-0.91485595703125,-0.7215728759765625,-0.03076171875
1788957739619906000,0.402906005859375,-0.9125213623046875,-0.7145538330078125,-0.0136871337890625
1788957739629955800,0.412955810546875,-0.88165283203125,-0.6437530517578125,0.0441741943359375
1788957739640006000,0.423005859375,-0.881256103515625,-0.547332763671875,0.109100341796875
1788957739650057000,0.433056884765625,-0.9125213623046875,-0.4815673828125,0.1517791748046875
1788957739660107000,0.44310693359375,-0.9555206298828125,-0.404296875,0.17388916015625
1788957739670157000,0.453156982421875,-0.9973907470703125,-0.404296875,0.1679840087890625
1788957739680206800,0.463206787109375,-1.0517730712890625,-0.4318389892578125,0.1201019287109375
1788957739690257000,0.4732568359375,-1.15960693359375,-0.446258544921875,0.1151275634765625
1788957739700307000,0.483306884765625,-1.19976806640625,-0.3663177490234375,0.0372467041015625
1788957739710357000,0.49335693359375,-1.0745086669921875,-0.3204803466796875,0.0498809814453125
1788957739720406800,0.50340673828125,-0.992034912109375,-0.33856201171875,0.1082000732421875
1788957739730456800,0.513456787109375,-0.8882598876953125,-0.4099884033203125,0.1311187744140625
1788957739740507000,0.5235068359375,-0.79046630859375,-0.49224853515625,0.1658935546875
1788957739750557000,0.533556884765625,-0.693145751953125,-0.583099365234375,0.1524658203125
1788957739760606700,0.543606689453125,-0.601715087890625,-0.7118682861328125,0.1029205322265625
1788957739770656800,0.55365673828125,-0.4315338134765625,-0.8086090087890625,0.111297607421875
1788957739780706800,0.563706787109375,-0.2383270263671875,-0.9355926513671875,0.1570892333984375
1788957739790756900,0.5737568359375,-0.142791748046875,-0.91131591796875,0.233856201171875
1788957739800806700,0.583806640625,-0.1146697998046875,-0.7066802978515625,0.243194580078125
1788957739810856700,0.593856689453125,-0.6837310791015625,-0.5615081787109375,0.109375
1788957739820907800,0.60390771484375,-2.1334381103515625,-0.6083526611328125,-0.13201904296875
1788957739830957800,0.613957763671875,-1.379302978515625,-0.4455718994140625,-0.0459747314453125
1788957739841007900,0.6240078125,-1.050018310546875,-0.2387542724609375,0.2096405029296875
1788957739851057700,0.6340576171875,-1.4091949462890625,-0.3731842041015625,0.286834716796875
1788957739861107700,0.644107666015625,-1.2702484130859375,-0.460540771484375,0.05035400390625
1788957739871157800,0.65415771484375,-1.371490478515625,-0.48797607421875,0.0841522216796875
1788957739881208000,0.6642080078125,-0.9275970458984375,-0.3669891357421875,0.2642059326171875
1788957739891257900,0.6742578125,-0.321319580078125,-0.4770660400390625,-0.9461669921875
1788957739901308000,0.684307861328125,-1.7312164306640625,-0.732757568359375,-0.6565093994140625
1788957739911358000,0.69435791015625,-1.196746826171875,-0.05267333984375,0.8800506591796875
1788957739921408000,0.704407958984375,-1.087921142578125,0.2831878662109375,0.72515869140625
1788957739931457800,0.714457763671875,-1.3289642333984375,0.1996307373046875,0.434967041015625
1788957739941507800,0.7245078125,-1.4328155517578125,0.2202911376953125,0.6334075927734375
1788957739951558000,0.734557861328125,-1.1724853515625,0.280426025390625,0.48150634765625
1788957739961608000,0.74460791015625,-0.96978759765625,0.2116241455078125,0.3169403076171875
1788957739971657700,0.75465771484375,-0.80218505859375,0.0177764892578125,0.392822265625
1788957739981707800,0.764707763671875,-0.9736480712890625,-0.216033935546875,0.05853271484375
1788957739991758800,0.7747587890625,-0.8392486572265625,-0.239654541015625,0.154541015625
1788957740001809000,0.784808837890625,-0.7400054931640625,0.0918426513671875,0.1428985595703125
1788957740011859000,0.79485888671875,-0.6236572265625,0.210784912109375,0.2491455078125
1788957740021908700,0.80490869140625,-0.542266845703125,0.1281890869140625,0.2814178466796875
1788957740031958800,0.814958740234375,-0.518463134765625,-0.062103271484375,0.173675537109375
1788957740042008800,0.8250087890625,-0.3481903076171875,-0.017242431640625,0.155853271484375
1788957740052059000,0.835058837890625,-0.2657012939453125,0.0272064208984375,0.2682037353515625
1788957740062108700,0.845108642578125,-0.280792236328125,-0.0151214599609375,0.3128662109375
1788957740072158700,0.85515869140625,-0.364898681640625,-0.1309814453125,0.294189453125
1788957740082208800,0.865208740234375,-0.404052734375,-0.226165771484375,0.3671112060546875
1788957740092258800,0.8752587890625,-0.4250335693359375,-0.2839202880859375,0.47308349609375
1788957740102308900,0.885308837890625,-0.50384521484375,-0.4313812255859375,0.4710235595703125
1788957740112359000,0.89535888671875,-0.6830596923828125,-0.7874908447265625,0.46484375
1788957740122409000,0.905408935546875,-0.896759033203125,-0.9586334228515625,0.7512054443359375
1788957740132459000,0.915458984375,-0.9214630126953125,-0.8022308349609375,0.932464599609375
1788957740142509000,0.925509033203125,-0.6391448974609375,-0.8363800048828125,1.197113037109375
1788957740152559900,0.935559814453125,-0.5720367431640625,-0.9838409423828125,1.39251708984375
1788957740162610000,0.94560986328125,-0.5477294921875,-1.345123291015625,1.6118621826171875
1788957740172660000,0.955659912109375,-0.360137939453125,-1.60614013671875,1.715057373046875
1788957740182710000,0.9657099609375,-0.2569732666015625,-1.6042327880859375,1.870208740234375
1788957740192760000,0.975760009765625,0.0598297119140625,-1.5903778076171875,2.08184814453125
1788957740202809900,0.985809814453125,0.6246337890625,-1.5482177734375,2.2981414794921875
1788957740212860000,0.99585986328125,1.1675872802734375,-1.7071685791015625,2.273956298828125
1788957740222910000,1.005909912109375,1.5561676025390625,-1.4246673583984375,1.9336090087890625
1788957740232960000,1.0159599609375,1.5220794677734375,-0.9092559814453125,1.6671142578125
1788957740243009800,1.026009765625,0.643218994140625,-0.798370361328125,1.4236602783203125
1788957740253059800,1.036059814453125,-0.00732421875,-0.3000030517578125,1.2403106689453125
1788957740263110000,1.04610986328125,-0.16668701171875,-0.2373809814453125,1.1723480224609375
1788957740273160000,1.056159912109375,-0.2958984375,0.099212646484375,1.1302947998046875
1788957740283209700,1.066209716796875,-0.444427490234375,-0.234375,0.6686859130859375
1788957740293259800,1.076259765625,-0.68084716796875,-0.3638916015625,0.450897216796875
1788957740303309800,1.086309814453125,-0.620635986328125,-0.1942291259765625,0.352508544921875
1788957740313361000,1.09636083984375,-0.701385498046875,-0.1896514892578125,0.4480133056640625
1788957740323411000,1.106410888671875,-0.7297821044921875,-0.103363037109375,0.593231201171875
1788957740333460700,1.116460693359375,-0.6556396484375,-0.01983642578125,0.7121429443359375
1788957740343510800,1.1265107421875,-0.4965057373046875,0.1156768798828125,0.8632354736328125
1788957740353560800,1.136560791015625,0.02459716796875,0.033172607421875,0.82855224609375
1788957740363611000,1.14661083984375,0.3461456298828125,0.001068115234375,0.794403076171875
1788957740373661000,1.156660888671875,0.1208953857421875,-0.10723876953125,0.7967987060546875
1788957740383711000,1.1667109375,-0.218017578125,-0.0343475341796875,0.8693695068359375
1788957740393761000,1.176760986328125,-0.036041259765625,0.124237060546875,1.017181396484375
1788957740403811000,1.18681103515625,0.203125,-0.1702423095703125,1.0926513671875
1788957740413860900,1.19686083984375,0.3359832763671875,-0.4321441650390625,1.246795654296875
1788957740423911000,1.206910888671875,0.5264129638671875,-0.75225830078125,1.3096160888671875
1788957740433961000,1.2169609375,0.0852508544921875,-0.64752197265625,1.0928802490234375
1788957740444011000,1.227010986328125,-0.4568328857421875,-0.224884033203125,0.9182281494140625
1788957740454060800,1.237060791015625,-1.106719970703125,0.1783447265625,0.9457244873046875
1788957740464110800,1.24711083984375,-1.2652740478515625,0.150177001953125,1.0584716796875
1788957740474162000,1.257161865234375,-0.8715972900390625,0.0502471923828125,0.926544189453125
1788957740484212000,1.2672119140625,-0.92431640625,0.044647216796875,0.66900634765625
1788957740494262000,1.277261962890625,-0.9741668701171875,-0.017303466796875,0.649993896484375
1788957740504311800,1.287311767578125,-0.7635040283203125,0.109283447265625,0.68975830078125
1788957740514361900,1.29736181640625,-0.8202056884765625,-0.4600372314453125,0.636932373046875
1788957740524412000,1.307411865234375,-0.5384674072265625,-0.5159454345703125,0.1848907470703125
1788957740534462000,1.3174619140625,-0.7922210693359375,-0.447662353515625,-0.077392578125
1788957740544512500,1.327512451171875,-0.5386199951171875,-0.296661376953125,-0.397186279296875
1788957740554562600,1.3375625,-0.2776641845703125,-0.2376556396484375,-0.2452239990234375
1788957740564612600,1.347612548828125,0.0107421875,-0.1670989990234375,0.15533447265625
1788957740574662700,1.35766259765625,0.3100738525390625,0.0848388671875,0.341796875
1788957740584712400,1.36771240234375,0.4576263427734375,0.3597869873046875,0.4491424560546875
1788957740594762500,1.377762451171875,0.3727874755859375,0.5113677978515625,0.5149993896484375
1788957740604812500,1.3878125,0.3701934814453125,0.241455078125,0.8328094482421875
1788957740614862600,1.397862548828125,0.2202911376953125,-0.0841827392578125,0.885284423828125
1788957740624913700,1.40791357421875,-0.783111572265625,-0.7685699462890625,0.845855712890625
1788957740634963500,1.41796337890625,-2.3015289306640625,-1.4769134521484375,0.90185546875
1788957740645013500,1.428013427734375,-2.2457427978515625,-1.832122802734375,1.0516357421875
1788957740655063600,1.4380634765625,-1.302947998046875,-2.076141357421875,0.9382171630859375
1788957740665113600,1.448113525390625,-0.271575927734375,-1.8789520263671875,0.554473876953125
1788957740675163400,1.458163330078125,-0.0357513427734375,-0.8908233642578125,0.06719970703125
1788957740685213400,1.46821337890625,0.1601409912109375,-0.447845458984375,0.0094757080078125
1788957740695263700,1.478263671875,1.1491546630859375,-0.955902099609375,0.279449462890625
1788957740705313800,1.488313720703125,1.58831787109375,-1.1843414306640625,0.32415771484375
1788957740715363800,1.49836376953125,0.9064483642578125,-1.181060791015625,0.2999725341796875
1788957740725413600,1.50841357421875,0.0123291015625,-1.3368988037109375,0.3993988037109375
1788957740735463700,1.518463623046875,-0.21905517578125,-1.424285888671875,0.3857574462890625
1788957740745513700,1.528513671875,-0.289703369140625,-1.5766448974609375,0.268585205078125
1788957740755563800,1.538563720703125,-0.1858062744140625,-1.577728271484375,0.159912109375
1788957740765613600,1.548613525390625,-0.0313262939453125,-1.5299224853515625,0.22900390625
1788957740775664600,1.55866455078125,-0.0594635009765625,-1.3711700439453125,0.3374786376953125
1788957740785714700,1.568714599609375,0.0415496826171875,-1.00982666015625,0.33123779296875
1788957740795764700,1.5787646484375,0.1148681640625,-0.6542510986328125,0.1979827880859375
1788957740805814500,1.588814453125,-0.055908203125,-0.516693115234375,-0.03594970703125
1788957740815864600,1.598864501953125,-0.424346923828125,-0.558380126953125,-0.1627960205078125
1788957740825914600,1.60891455078125,-0.652008056640625,-0.766845703125,-0.1486968994140625
1788957740835964700,1.618964599609375,-0.60101318359375,-1.02716064453125,-0.1231231689453125
1788957740846014700,1.6290146484375,-0.6009063720703125,-1.2300262451171875,-0.1145477294921875
1788957740856064500,1.639064453125,-0.616058349609375,-1.30792236328125,-0.123321533203125
1788957740866114600,1.649114501953125,-0.4873046875,-1.3049468994140625,-0.210601806640625
1788957740876164600,1.65916455078125,-0.390838623046875,-1.49169921875,-0.26141357421875
1788957740886214700,1.669214599609375,-0.3967437744140625,-1.513275146484375,-0.2081146240234375
1788957740896264400,1.679264404296875,-0.4436187744140625,-1.2782135009765625,-0.0290679931640625
1788957740906314500,1.689314453125,-0.2038421630859375,-1.093658447265625,0.1130828857421875
1788957740916364500,1.699364501953125,-0.147857666015625,-0.9698486328125,0.158905029296875
1788957740926414800,1.709414794921875,-0.1556396484375,-0.94000244140625,0.1467437744140625
1788957740936465700,1.719465576171875,-0.21124267578125,-0.9157867431640625,0.13641357421875
1788957740946515500,1.729515380859375,-0.132965087890625,-0.958770751953125,0.07958984375
1788957740956565500,1.7395654296875,-0.1368255615234375,-1.065643310546875,0.0332794189453125
1788957740966615600,1.749615478515625,-0.266937255859375,-1.0231170654296875,0.0183563232421875
1788957740976665900,1.759665771484375,-0.3012847900390625,-1.015380859375,0.018646240234375
1788957740986715600,1.769715576171875,-0.305999755859375,-1.091522216796875,0.01751708984375
1788957740996765700,1.779765625,-0.297088623046875,-1.091766357421875,-0.0057220458984375
1788957741006815700,1.789815673828125,-0.2648773193359375,-1.0683441162109375,-0.0477142333984375
1788957741016865800,1.79986572265625,-0.250579833984375,-1.0406951904296875,-0.077911376953125
1788957741026915600,1.80991552734375,-0.2482147216796875,-0.9850616455078125,-0.0936737060546875
1788957741036965600,1.819965576171875,-0.212127685546875,-0.9172515869140625,-0.1237335205078125
1788957741047015700,1.830015625,-0.1573028564453125,-0.92138671875,-0.1653594970703125
1788957741057065700,1.840065673828125,-0.1126251220703125,-0.97222900390625,-0.16217041015625
1788957741067115500,1.850115478515625,-0.0931396484375,-0.976348876953125,-0.15240478515625
1788957741077165600,1.86016552734375,-0.135986328125,-0.9364471435546875,-0.1104736328125
1788957741087216600,1.870216552734375,-0.124114990234375,-0.88043212890625,-0.0541229248046875
1788957741097266700,1.8802666015625,-0.0499267578125,-0.8382720947265625,-0.0042877197265625
1788957741107316700,1.890316650390625,0.01953125,-0.8358306884765625,0.041229248046875
1788957741117366500,1.900366455078125,0.044342041015625,-0.8436431884765625,0.056396484375
1788957741127416600,1.91041650390625,0.017242431640625,-0.86187744140625,0.037322998046875
1788957741137466600,1.920466552734375,-0.0191650390625,-0.88397216796875,0.015380859375
1788957741147516700,1.9305166015625,0.0030364990234375,-0.922607421875,-0.0032806396484375
1788957741157566500,1.94056640625,0.053070068359375,-0.93316650390625,-0.0342254638671875
1788957741167616500,1.950616455078125,0.0204620361328125,-0.961669921875,-0.01776123046875
1788957741177666600,1.96066650390625,-0.18829345703125,-1.078582763671875,0.0656890869140625
1788957741187716600,1.970716552734375,-0.2700653076171875,-1.07586669921875,0.08026123046875
1788957741197766700,1.9807666015625,-0.266357421875,-0.9955291748046875,0.0928802490234375
1788957741207816700,1.990816650390625,-0.163238525390625,-0.9769134521484375,0.1014556884765625
1788957741217866800,2.00086669921875,0.2743988037109375,-1.159149169921875,-0.0016937255859375
1788957741227917600,2.01091748046875,0.4580841064453125,-0.941070556640625,0.059722900390625
1788957741237967600,2.020967529296875,-0.65478515625,-0.5425872802734375,0.31292724609375
1788957741248017700,2.031017578125,-1.236663818359375,-0.5703277587890625,0.1534423828125
1788957741258067700,2.041067626953125,-1.1002044677734375,-0.87640380859375,0.08697509765625
1788957741268117800,2.05111767578125,-0.573486328125,-0.969329833984375,-0.0684814453125
1788957741278167800,2.061167724609375,-0.2231292724609375,-1.0427398681640625,-0.09735107421875
1788957741288217600,2.071217529296875,-0.1680755615234375,-1.0163421630859375,-0.0371551513671875
1788957741298267600,2.081267578125,-0.243621826171875,-0.937164306640625,0.01043701171875
1788957741308317700,2.091317626953125,-0.3175811767578125,-0.9139862060546875,0.039093017578125
1788957741318367700,2.10136767578125,-0.3531036376953125,-0.9233856201171875,0.048583984375
1788957741328417500,2.11141748046875,-0.3531341552734375,-0.90118408203125,0.0387420654296875
1788957741338467600,2.121467529296875,-0.3854217529296875,-0.8557891845703125,0.024932861328125
1788957741348517600,2.131517578125,-0.4544677734375,-0.800384521484375,0.0193634033203125
1788957741358567700,2.141567626953125,-0.4237213134765625,-0.7222137451171875,0.0052490234375
1788957741368617500,2.151617431640625,-0.327301025390625,-0.7590484619140625,-0.0408477783203125
1788957741378668500,2.16166845703125,-0.2379913330078125,-0.9254150390625,-0.09442138671875
1788957741388718600,2.171718505859375,-0.19464111328125,-1.0516204833984375,-0.1141815185546875
1788957741398768600,2.1817685546875,-0.2260284423828125,-1.0617828369140625,-0.107757568359375
1788957741408818700,2.191818603515625,-0.325653076171875,-1.014892578125,-0.0938873291015625
1788957741418868500,2.201868408203125,-0.37860107421875,-0.988006591796875,-0.0632171630859375
1788957741428918500,2.21191845703125,-0.3025054931640625,-1.011810302734375,-0.0205535888671875
1788957741438968600,2.221968505859375,-0.1877593994140625,-1.008270263671875,0.014801025390625
1788957741449018600,2.2320185546875,-0.19647216796875,-0.939849853515625,0.0338134765625
1788957741459068400,2.242068359375,-0.350006103515625,-0.813751220703125,0.007293701171875
1788957741469118700,2.25211865234375,-0.5234832763671875,-0.7331390380859375,-0.036773681640625
1788957741479168800,2.262168701171875,-0.58978271484375,-0.7887115478515625,-0.0406341552734375
1788957741489218800,2.27221875,-0.49237060546875,-0.9199371337890625,-0.0069122314453125
1788957741499268600,2.2822685546875,-0.3721466064453125,-0.9940948486328125,0.0087890625
1788957741509318700,2.292318603515625,-0.3602142333984375,-0.9762420654296875,-0.0031585693359375
1788957741519369700,2.30236962890625,-0.4791412353515625,-0.928863525390625,-0.0101318359375
1788957741529419800,2.312419677734375,-0.610107421875,-0.911895751953125,0.0077667236328125
1788957741539469800,2.3224697265625,-0.6245269775390625,-0.9263763427734375,0.045562744140625
1788957741549519000,2.33251904296875,-0.512908935546875,-0.9562530517578125,0.0779876708984375
1788957741559569000,2.34256884765625,-0.3970947265625,-0.9825286865234375,0.0778656005859375
1788957741569619000,2.352618896484375,-0.3866119384765625,-1.0048980712890625,0.0374755859375
1788957741579669000,2.3626689453125,-0.463592529296875,-1.0083465576171875,0.000152587890625
1788957741589719000,2.372718994140625,-0.5351715087890625,-0.9757080078125,-0.0108642578125
1788957741599769000,2.38276904296875,-0.5231170654296875,-0.96331787109375,-0.00823974609375
1788957741609819000,2.39281884765625,-0.436767578125,-0.9980621337890625,-0.00115966796875
1788957741619869000,2.402868896484375,-0.3597869873046875,-1.00982666015625,0.012237548828125
1788957741629919000,2.4129189453125,-0.348419189453125,-0.996734619140625,0.023712158203125
1788957741639969000,2.422968994140625,-0.405059814453125,-0.9708251953125,0.0456695556640625
1788957741650018800,2.433018798828125,-0.4631805419921875,-0.936187744140625,0.0759735107421875
1788957741660070000,2.44306982421875,-0.4727325439453125,-0.925262451171875,0.08319091796875
1788957741670120000,2.453119873046875,-0.4319305419921875,-0.922454833984375,0.06109619140625
1788957741680170000,2.463169921875,-0.41058349609375,-0.9090728759765625,0.0524444580078125
1788957741690219800,2.4732197265625,-0.4203948974609375,-0.8972320556640625,0.053924560546875
1788957741700269800,2.483269775390625,-0.4449462890625,-0.9002227783203125,0.0428619384765625
1788957741710319900,2.49331982421875,-0.4673004150390625,-0.920379638671875,0.0410919189453125
1788957741720370200,2.5033701171875,-0.469268798828125,-0.9330902099609375,0.048370361328125
1788957741730420200,2.513420166015625,-0.44268798828125,-0.954864501953125,0.05316162109375
1788957741740470000,2.523469970703125,-0.407867431640625,-0.9730224609375,0.0619354248046875
1788957741750520000,2.53352001953125,-0.394439697265625,-0.9759674072265625,0.0559234619140625
1788957741760570000,2.543570068359375,-0.420989990234375,-0.967559814453125,0.037078857421875
1788957741770620200,2.5536201171875,-0.462982177734375,-0.9619140625,0.02789306640625
1788957741780670000,2.563669921875,-0.482330322265625,-0.9528656005859375,0.0343475341796875
1788957741790720000,2.573719970703125,-0.455963134765625,-0.954437255859375,0.0345611572265625
1788957741800771000,2.58377099609375,-0.40625,-0.9643096923828125,0.03302001953125
1788957741810821000,2.593821044921875,-0.3758697509765625,-0.9715728759765625,0.0338134765625
1788957741820871200,2.60387109375,-0.3592071533203125,-0.9735107421875,0.0361175537109375
1788957741830921000,2.6139208984375,-0.343170166015625,-0.963623046875,0.0374298095703125
1788957741840971000,2.623970947265625,-0.3305816650390625,-0.9571380615234375,0.0539703369140625
1788957741851021000,2.63402099609375,-0.3416900634765625,-0.9458160400390625,0.0724639892578125
1788957741861071000,2.644071044921875,-0.3414154052734375,-0.916229248046875,0.05401611328125
1788957741871121000,2.654120849609375,-0.3097991943359375,-0.9094390869140625,0.02801513671875
1788957741881171000,2.6641708984375,-0.22900390625,-0.8794708251953125,0.0250701904296875
1788957741891221000,2.674220947265625,-0.1996917724609375,-0.8440399169921875,0.0203704833984375
1788957741901271000,2.68427099609375,-0.211090087890625,-0.8239593505859375,0.0095672607421875
1788957741911320800,2.69432080078125,-0.233795166015625,-0.82733154296875,0.004150390625
1788957741921371000,2.704370849609375,-0.2566680908203125,-0.812652587890625,-0.0130157470703125
1788957741931421000,2.7144208984375,-0.2387237548828125,-0.84661865234375,-0.0230865478515625
1788957741941472000,2.724471923828125,-0.250213623046875,-0.926177978515625,-0.0227508544921875
1788957741951522000,2.73452197265625,-0.3000030517578125,-0.9927825927734375,-0.0413055419921875
1788957741961571800,2.74457177734375,-0.3352508544921875,-1.0150146484375,-0.06549072265625
1788957741971622000,2.754621826171875,-0.3699798583984375,-1.0046234130859375,-0.05621337890625
1788957741981672000,2.764671875,-0.3797607421875,-0.9781951904296875,-0.0301055908203125
1788957741991722000,2.774721923828125,-0.368896484375,-0.9559326171875,-0.0072021484375
1788957742001772000,2.78477197265625,-0.3735809326171875,-0.94403076171875,0.0008697509765625
1788957742011822000,2.794822021484375,-0.394012451171875,-0.9076690673828125,-0.0037384033203125
1788957742021872000,2.8048720703125,-0.3874664306640625,-0.841949462890625,-0.01788330078125
1788957742031922200,2.814922119140625,-0.3507537841796875,-0.7887725830078125,-0.033477783203125
1788957742041972000,2.824971923828125,-0.332489013671875,-0.7695159912109375,-0.0537872314453125
1788957742052022000,2.83502197265625,-0.3438720703125,-0.7808990478515625,-0.075775146484375
1788957742062072000,2.845072021484375,-0.33709716796875,-0.8114471435546875,-0.08538818359375
1788957742072122000,2.8551220703125,-0.281829833984375,-0.8661346435546875,-0.079437255859375
1788957742082173200,2.865173095703125,-0.2066802978515625,-0.942291259765625,-0.0869903564453125
1788957742092223000,2.875222900390625,-0.172760009765625,-1.013397216796875,-0.1108856201171875
1788957742102273000,2.88527294921875,-0.1764068603515625,-1.03668212890625,-0.1434326171875
1788957742112323000,2.895322998046875,-0.1920318603515625,-0.9989471435546875,-0.1608734130859375
1788957742122373000,2.905373046875,-0.1781463623046875,-0.9484405517578125,-0.1568450927734375
1788957742132423000,2.9154228515625,-0.133575439453125,-0.9391326904296875,-0.1502838134765625
1788957742142473000,2.925472900390625,-0.1160125732421875,-0.9572906494140625,-0.1302337646484375
1788957742152523000,2.93552294921875,-0.1386566162109375,-0.9785919189453125,-0.0826416015625
1788957742162573000,2.945572998046875,-0.1551513671875,-1.0021820068359375,-0.0381622314453125
1788957742172622800,2.955622802734375,-0.121612548828125,-1.0222015380859375,0.0002899169921875
1788957742182673000,2.9656728515625,-0.09381103515625,-1.024688720703125,0.014923095703125
1788957742192723000,2.975722900390625,-0.133880615234375,-0.9813995361328125,0.0023956298828125
1788957742202773000,2.98577294921875,-0.1877288818359375,-0.9235076904296875,-0.008544921875
1788957742212823000,2.995822998046875,-0.214630126953125,-0.890869140625,-0.01251220703125
1788957742222873900,3.005873779296875,-0.213653564453125,-0.89837646484375,-0.0182952880859375
1788957742232924000,3.015923828125,-0.209075927734375,-0.9172515869140625,-0.03375244140625
1788957742242974000,3.025973876953125,-0.218109130859375,-0.913909912109375,-0.06597900390625
1788957742253024000,3.03602392578125,-0.2359466552734375,-0.894439697265625,-0.0930633544921875
1788957742263074000,3.046073974609375,-0.2217254638671875,-0.879180908203125,-0.1006011962890625
1788957742273124000,3.0561240234375,-0.2048797607421875,-0.885986328125,-0.098907470703125
1788957742283174100,3.066174072265625,-0.219329833984375,-0.8993072509765625,-0.1010589599609375
1788957742293224200,3.07622412109375,-0.2252349853515625,-0.9031219482421875,-0.1099700927734375
1788957742303274000,3.08627392578125,-0.183563232421875,-0.906768798828125,-0.118316650390625
1788957742313324000,3.096323974609375,-0.127166748046875,-0.9533233642578125,-0.121063232421875
1788957742323374000,3.1063740234375,-0.082489013671875,-1.0135955810546875,-0.1254425048828125
1788957742333424000,3.116424072265625,-0.0810699462890625,-1.0614471435546875,-0.1334075927734375
1788957742343474000,3.126473876953125,-0.1093902587890625,-1.093170166015625,-0.156158447265625
1788957742353524000,3.13652392578125,-0.12579345703125,-1.1517486572265625,-0.181793212890625
1788957742363575000,3.146574951171875,-0.1305999755859375,-1.2705078125,-0.1920623779296875
1788957742373625000,3.156625,-0.14306640625,-1.4154510498046875,-0.200927734375
1788957742383675100,3.166675048828125,-0.157745361328125,-1.532989501953125,-0.211029052734375
1788957742393725000,3.176724853515625,-0.1457672119140625,-1.59222412109375,-0.202880859375
1788957742403775000,3.18677490234375,-0.1287384033203125,-1.581634521484375,-0.1715240478515625
1788957742413825000,3.196824951171875,-0.1398468017578125,-1.5077972412109375,-0.147125244140625
1788957742423875000,3.206875,-0.177947998046875,-1.3764495849609375,-0.1200103759765625
1788957742433924900,3.2169248046875,-0.1889495849609375,-1.2235870361328125,-0.0673065185546875
1788957742443975000,3.226974853515625,-0.1554718017578125,-1.0612030029296875,-0.001800537109375
1788957742454025000,3.23702490234375,-0.112518310546875,-0.92596435546875,0.047119140625
1788957742464075000,3.247074951171875,-0.116302490234375,-0.81915283203125,0.0457000732421875
1788957742474124800,3.257124755859375,-0.17767333984375,-0.740478515625,0.024322509765625
1788957742484174800,3.2671748046875,-0.2129669189453125,-0.6992645263671875,-0.0051727294921875
1788957742494225200,3.27722509765625,-0.1940460205078125,-0.6996917724609375,-0.044708251953125
1788957742504276000,3.28727587890625,-0.1566009521484375,-0.717864990234375,-0.083709716796875
1788957742514326000,3.297325927734375,-0.14434814453125,-0.7242431640625,-0.1229095458984375
1788957742524375800,3.307375732421875,-0.191986083984375,-0.716094970703125,-0.1500701904296875
1788957742534425900,3.31742578125,-0.25054931640625,-0.71807861328125,-0.1547698974609375
1788957742544476200,3.32747607421875,-0.249176025390625,-0.7153472900390625,-0.1482391357421875
1788957742554526200,3.337526123046875,-0.2001800537109375,-0.73858642578125,-0.125701904296875
1788957742564576300,3.347576171875,-0.1585540771484375,-0.78155517578125,-0.1027984619140625
1788957742574626300,3.357626220703125,-0.166961669921875,-0.814849853515625,-0.091064453125
1788957742584676400,3.36767626953125,-0.2230682373046875,-0.8262939453125,-0.0856475830078125
1788957742594726400,3.377726318359375,-0.256072998046875,-0.8713836669921875,-0.0669708251953125
1788957742604776200,3.387776123046875,-0.2309722900390625,-0.942779541015625,-0.05841064453125
1788957742614826200,3.397826171875,-0.18084716796875,-1.0280303955078125,-0.057769775390625
1788957742624876300,3.407876220703125,-0.150848388671875,-1.1210784912109375,-0.0381622314453125
1788957742634927400,3.41792724609375,-0.1478271484375,-1.2122650146484375,-0.002288818359375
1788957742644977400,3.427977294921875,-0.15814208984375,-1.2708587646484375,0.0363616943359375
1788957742655027200,3.438027099609375,-0.175750732421875,-1.3130645751953125,0.084014892578125
1788957742665077200,3.4480771484375,-0.1879425048828125,-1.340484619140625,0.1433258056640625
1788957742675127300,3.458127197265625,-0.1540679931640625,-1.28253173828125,0.15423583984375
1788957742685177300,3.46817724609375,-0.133758544921875,-1.171417236328125,0.1511077880859375
1788957742695227100,3.47822705078125,-0.18505859375,-1.0573577880859375,0.1477203369140625
1788957742705277200,3.488277099609375,-0.2585296630859375,-0.9654388427734375,0.1360626220703125
1788957742715327200,3.4983271484375,-0.2794647216796875,-0.8994293212890625,0.1531829833984375
1788957742725377300,3.508377197265625,-0.248260498046875,-0.886322021484375,0.1876068115234375
1788957742735427000,3.518427001953125,-0.16552734375,-0.9016876220703125,0.2171173095703125
1788957742745477000,3.52847705078125,-0.136962890625,-0.888671875,0.218536376953125
1788957742755527200,3.538527099609375,-0.194244384765625,-0.8475799560546875,0.1833343505859375
1788957742765577200,3.5485771484375,-0.252655029296875,-0.7985687255859375,0.1482391357421875
1788957742775628300,3.558628173828125,-0.2538299560546875,-0.7627105712890625,0.1218414306640625
1788957742785678000,3.568677978515625,-0.19354248046875,-0.7781982421875,0.128326416015625
1788957742795728100,3.57872802734375,-0.09332275390625,-0.828216552734375,0.1635589599609375
1788957742805778200,3.588778076171875,-0.03424072265625,-0.8786163330078125,0.176910400390625
1788957742815828200,3.598828125,-0.0552215576171875,-0.9195098876953125,0.1475982666015625
1788957742825878000,3.6088779296875,-0.1143951416015625,-0.9237060546875,0.123626708984375
1788957742835928300,3.61892822265625,-0.148468017578125,-0.9179229736328125,0.12969970703125
1788957742845978400,3.628978271484375,-0.121734619140625,-0.931243896484375,0.138427734375
1788957742856028400,3.6390283203125,-0.0784912109375,-0.976470947265625,0.1448974609375
1788957742866078200,3.649078125,-0.0486907958984375,-1.0488433837890625,0.1430816650390625
1788957742876128300,3.659128173828125,-0.053375244140625,-1.115081787109375,0.129852294921875
1788957742886178300,3.66917822265625,-0.0955963134765625,-1.1390380859375,0.114776611328125
1788957742896228400,3.679228271484375,-0.1894073486328125,-1.1253204345703125,0.08673095703125
1788957742906279400,3.689279541015625,-0.26690673828125,-1.126953125,0.0632171630859375
1788957742916329200,3.6993291015625,-0.2381134033203125,-1.152435302734375,0.0647735595703125
1788957742926379300,3.709379150390625,-0.151580810546875,-1.21173095703125,0.077484130859375
1788957742936429300,3.71942919921875,-0.0841522216796875,-1.2683868408203125,0.084136962890625
1788957742946479400,3.729479248046875,-0.0683135986328125,-1.2798309326171875,0.09527587890625
1788957742956529200,3.739529052734375,-0.1200408935546875,-1.2454986572265625,0.1025238037109375
1788957742966579200,3.7495791015625,-0.1725006103515625,-1.209136962890625,0.1091461181640625
1788957742976629200,3.759629150390625,-0.157562255859375,-1.1744537353515625,0.1290130615234375
1788957742986679300,3.76967919921875,-0.1047210693359375,-1.1348114013671875,0.1543121337890625
1788957742996729000,3.77972900390625,-0.0615997314453125,-1.0866851806640625,0.17047119140625
1788957743006779100,3.789779052734375,-0.0407257080078125,-1.026397705078125,0.17169189453125
1788957743016829200,3.7998291015625,-0.054351806640625,-0.9876556396484375,0.1536712646484375
1788957743026879200,3.809879150390625,-0.0865325927734375,-0.9640045166015625,0.135040283203125
1788957743036929000,3.819928955078125,-0.1150360107421875,-0.9442138671875,0.1276397705078125
1788957743046980000,3.82997998046875,-0.1278076171875,-0.9339447021484375,0.1227569580078125
1788957743057030100,3.840030029296875,-0.1016082763671875,-0.9181671142578125,0.124969482421875
1788957743067080200,3.850080078125,-0.0744476318359375,-0.90435791015625,0.1256866455078125
1788957743077130200,3.860130126953125,-0.0915374755859375,-0.8915863037109375,0.1191558837890625
1788957743087180000,3.870179931640625,-0.13983154296875,-0.8688507080078125,0.104705810546875
1788957743097230000,3.88022998046875,-0.1721649169921875,-0.828826904296875,0.0959014892578125
1788957743107280100,3.890280029296875,-0.1644439697265625,-0.790252685546875,0.100067138671875
1788957743117330400,3.900330322265625,-0.12811279296875,-0.7912139892578125,0.0952911376953125
1788957743127380200,3.910380126953125,-0.0890960693359375,-0.834381103515625,0.0867462158203125
1788957743137430300,3.92043017578125,-0.093170166015625,-0.8699188232421875,0.07659912109375
1788957743147480300,3.930480224609375,-0.145050048828125,-0.89691162109375,0.073272705078125
1788957743157530400,3.9405302734375,-0.19207763671875,-0.915008544921875,0.0643768310546875
1788957743167580400,3.950580322265625,-0.1896820068359375,-0.9337310791015625,0.050201416015625
1788957743177631200,3.96063134765625,-0.159423828125,-0.9782562255859375,0.031097412109375
1788957743187681300,3.970681396484375,-0.1252899169921875,-1.0352020263671875,0.0093536376953125
1788957743197731300,3.9807314453125,-0.0966949462890625,-1.0924530029296875,-0.0068511962890625
1788957743207781400,3.990781494140625,-0.097564697265625,-1.1280059814453125,-0.0206756591796875
1788957743217831200,4.0008310546875,-0.1205291748046875,-1.1511077880859375,-0.035919189453125
1788957743227881200,4.010881103515625,-0.1123504638671875,-1.158660888671875,-0.0499267578125
1788957743237931300,4.02093115234375,-0.0996551513671875,-1.1662750244140625,-0.0405731201171875
1788957743247981300,4.030981201171875,-0.1038665771484375,-1.1486053466796875,-0.0397796630859375
1788957743258031000,4.041031005859375,-0.1239471435546875,-1.10650634765625,-0.042633056640625
1788957743268081200,4.0510810546875,-0.142852783203125,-1.04962158203125,-0.04290771484375
1788957743278131200,4.061131103515625,-0.1397705078125,-0.98895263671875,-0.0453033447265625
1788957743288181200,4.07118115234375,-0.1316070556640625,-0.9240264892578125,-0.044097900390625
1788957743298231300,4.081231201171875,-0.13360595703125,-0.861602783203125,-0.039398193359375
1788957743308281000,4.091281005859375,-0.120941162109375,-0.851104736328125,-0.0272216796875
1788957743318332200,4.101332275390625,-0.097869873046875,-0.8646697998046875,-0.0212554931640625
1788957743328382200,4.11138232421875,-0.0958404541015625,-0.87847900390625,0.0028076171875
1788957743338432300,4.121432373046875,-0.092254638671875,-0.8711395263671875,0.0148468017578125
1788957743348482000,4.13148193359375,-0.090911865234375,-0.8732757568359375,-0.005096435546875
1788957743358532000,4.141531982421875,-0.105621337890625,-0.880218505859375,-0.0234527587890625
1788957743368582100,4.15158203125,-0.1249237060546875,-0.888397216796875,-0.033203125
1788957743378632200,4.161632080078125,-0.125274658203125,-0.8916168212890625,-0.0349273681640625
1788957743388682200,4.17168212890625,-0.1218109130859375,-0.9071197509765625,-0.0325164794921875
1788957743398732300,4.181732177734375,-0.1625213623046875,-0.944671630859375,-0.0518646240234375
1788957743408782300,4.1917822265625,-0.2204742431640625,-0.99053955078125,-0.0915679931640625
1788957743418832400,4.201832275390625,-0.2530517578125,-1.03070068359375,-0.1240081787109375
1788957743428882400,4.21188232421875,-0.2581939697265625,-1.0731353759765625,-0.140380859375
1788957743438932200,4.22193212890625,-0.2572021484375,-1.08697509765625,-0.1422271728515625
1788957743448982300,4.231982177734375,-0.2508697509765625,-1.0827484130859375,-0.13958740234375
1788957743459033300,4.242033447265625,-0.2620697021484375,-1.07794189453125,-0.1285858154296875
1788957743469083400,4.25208349609375,-0.28997802734375,-1.0783843994140625,-0.101104736328125
1788957743479133200,4.26213330078125,-0.30267333984375,-1.0833740234375,-0.076141357421875
1788957743489183200,4.272183349609375,-0.28082275390625,-1.0868377685546875,-0.064422607421875
1788957743499233300,4.2822333984375,-0.2603912353515625,-1.088836669921875,-0.0525360107421875
1788957743509283300,4.292283447265625,-0.251983642578125,-1.0745391845703125,-0.038421630859375
1788957743519333400,4.30233349609375,-0.234283447265625,-1.0478057861328125,-0.03436279296875
1788957743529383200,4.312383056640625,-0.2292022705078125,-1.001708984375,-0.03619384765625
1788957743539433200,4.32243310546875,-0.24688720703125,-0.9667510986328125,-0.0462646484375
1788957743549483000,4.33248291015625,-0.2538299560546875,-0.9217529296875,-0.06939697265625
1788957743559533000,4.342532958984375,-0.2498321533203125,-0.8783111572265625,-0.093017578125
1788957743569583000,4.3525830078125,-0.2358551025390625,-0.846893310546875,-0.1025238037109375
1788957743579633200,4.362633056640625,-0.222381591796875,-0.826690673828125,-0.1173095703125
1788957743589684200,4.372684326171875,-0.203094482421875,-0.8052978515625,-0.12786865234375
1788957743599734000,4.382734130859375,-0.1987457275390625,-0.799713134765625,-0.13970947265625
1788957743609784000,4.3927841796875,-0.1983489990234375,-0.7926788330078125,-0.1547088623046875
1788957743619834000,4.402834228515625,-0.1833038330078125,-0.773193359375,-0.156402587890625
1788957743629884200,4.41288427734375,-0.154754638671875,-0.7624969482421875,-0.150634765625
1788957743639934000,4.422933837890625,-0.1365203857421875,-0.7672882080078125,-0.1424713134765625
1788957743649984000,4.43298388671875,-0.16998291015625,-0.796905517578125,-0.1618194580078125
1788957743660034300,4.443034423828125,-0.2223663330078125,-0.8263092041015625,-0.173980712890625
1788957743670084400,4.45308447265625,-0.2403564453125,-0.8449859619140625,-0.1874542236328125
1788957743680134100,4.463134033203125,-0.244964599609375,-0.8671112060546875,-0.199462890625
1788957743690184200,4.47318408203125,-0.243804931640625,-0.892974853515625,-0.205718994140625
1788957743700234200,4.483234130859375,-0.241302490234375,-0.9145355224609375,-0.1990814208984375
1788957743710284300,4.4932841796875,-0.2401885986328125,-0.94818115234375,-0.182342529296875
1788957743720334000,4.503333984375,-0.2257232666015625,-1.0101318359375,-0.1743011474609375
1788957743730385200,4.51338525390625,-0.19830322265625,-1.085296630859375,-0.181610107421875
1788957743740435200,4.523435302734375,-0.19366455078125,-1.1420440673828125,-0.18572998046875
1788957743750485200,4.5334853515625,-0.2050933837890625,-1.1833953857421875,-0.1915130615234375
1788957743760535300,4.543535400390625,-0.2239532470703125,-1.2100830078125,-0.183197021484375
1788957743770585000,4.553585205078125,-0.249420166015625,-1.233001708984375,-0.1977386474609375
1788957743780635100,4.56363525390625,-0.2623748779296875,-1.247955322265625,-0.215057373046875
1788957743790685200,4.573685302734375,-0.295135498046875,-1.265380859375,-0.2371826171875
1788957743800735200,4.5837353515625,-0.325469970703125,-1.24896240234375,-0.2507476806640625
1788957743810785000,4.593784912109375,-0.3160858154296875,-1.2047119140625,-0.2532196044921875
1788957743820835000,4.6038349609375,-0.2806549072265625,-1.1551971435546875,-0.23089599609375
1788957743830885000,4.613885009765625,-0.27197265625,-1.0943603515625,-0.1901397705078125
1788957743840935200,4.62393505859375,-0.295684814453125,-1.0297088623046875,-0.1598968505859375
1788957743850985000,4.63398486328125,-0.3164520263671875,-0.9836883544921875,-0.142303466796875
1788957743861035000,4.644034912109375,-0.3342742919921875,-0.9592437744140625,-0.136505126953125
1788957743871086000,4.654086181640625,-0.3506622314453125,-0.9479522705078125,-0.137298583984375
1788957743881136000,4.66413623046875,-0.3554534912109375,-0.9273834228515625,-0.1250152587890625
1788957743891186200,4.674186279296875,-0.3540191650390625,-0.9104156494140625,-0.1343994140625
1788957743901236000,4.684236083984375,-0.3526763916015625,-0.91534423828125,-0.150421142578125
1788957743911286000,4.6942861328125,-0.3333740234375,-0.9234619140625,-0.1623077392578125
1788957743921336000,4.704336181640625,-0.287872314453125,-0.919189453125,-0.139068603515625
1788957743931386000,4.71438623046875,-0.261383056640625,-0.89404296875,-0.117950439453125
1788957743941436200,4.724436279296875,-0.2591400146484375,-0.848175048828125,-0.1165313720703125
1788957743951486200,4.734486328125,-0.264129638671875,-0.8011474609375,-0.11376953125
1788957743961536300,4.744536376953125,-0.2589874267578125,-0.7983245849609375,-0.106964111328125
1788957743971586300,4.75458642578125,-0.2586669921875,-0.8038482666015625,-0.10833740234375
1788957743981636000,4.764635986328125,-0.2473297119140625,-0.805908203125,-0.109771728515625
1788957743991686100,4.77468603515625,-0.249603271484375,-0.793365478515625,-0.1018218994140625
1788957744001737200,4.7847373046875,-0.2298126220703125,-0.7645111083984375,-0.1065216064453125
1788957744011787300,4.794787353515625,-0.1969146728515625,-0.7488555908203125,-0.1028594970703125
1788957744021837300,4.80483740234375,-0.18280029296875,-0.7628326416015625,-0.0969390869140625
1788957744031887000,4.81488720703125,-0.1875152587890625,-0.8104400634765625,-0.1076202392578125
1788957744041937200,4.824937255859375,-0.208740234375,-0.893310546875,-0.1163177490234375
1788957744051987200,4.8349873046875,-0.21563720703125,-0.938720703125,-0.1372222900390625
1788957744062037200,4.845037353515625,-0.2159271240234375,-0.9245452880859375,-0.1558380126953125
1788957744072087000,4.855087158203125,-0.2095489501953125,-0.907012939453125,-0.1562957763671875
1788957744082137000,4.86513720703125,-0.2166290283203125,-0.902191162109375,-0.160125732421875
1788957744092187100,4.875187255859375,-0.2368316650390625,-0.9173431396484375,-0.1724700927734375
1788957744102237200,4.8852373046875,-0.2392730712890625,-0.9488983154296875,-0.1773223876953125
1788957744112287000,4.895286865234375,-0.224456787109375,-0.98419189453125,-0.17828369140625
1788957744122337000,4.9053369140625,-0.179351806640625,-1.021331787109375,-0.1640777587890625
1788957744132387000,4.915386962890625,-0.1401519775390625,-1.0727691650390625,-0.137969970703125
1788957744142438100,4.925438232421875,-0.13580322265625,-1.1474761962890625,-0.116485595703125
1788957744152488200,4.93548828125,-0.135772705078125,-1.2545013427734375,-0.12005615234375
1788957744162538000,4.9455380859375,-0.1622314453125,-1.3846282958984375,-0.175048828125
1788957744172588000,4.955588134765625,-0.241943359375,-1.508056640625,-0.2464752197265625
1788957744182638000,4.96563818359375,-0.3397674560546875,-1.5936431884765625,-0.2996673583984375
1788957744192688000,4.975688232421875,-0.4451751708984375,-1.6710968017578125,-0.3625640869140625
1788957744202738000,4.985738037109375,-0.5203704833984375,-1.725677490234375,-0.4095306396484375
1788957744212788200,4.995788330078125,-0.5863037109375,-1.734832763671875,-0.4351043701171875
1788957744222838300,5.00583837890625,-0.608367919921875,-1.71014404296875,-0.4330596923828125
1788957744232888300,5.015888427734375,-0.5539093017578125,-1.6439666748046875,-0.414337158203125
1788957744242938400,5.0259384765625,-0.4666290283203125,-1.536468505859375,-0.3785552978515625
1788957744252988200,5.03598828125,-0.4208831787109375,-1.4067535400390625,-0.3144683837890625
1788957744263038200,5.0460380859375,-0.4229888916015625,-1.28094482421875,-0.2712249755859375
1788957744273089300,5.05608935546875,-0.46148681640625,-1.1774749755859375,-0.24981689453125
1788957744283139300,5.066139404296875,-0.4915771484375,-1.1004180908203125,-0.2298126220703125
1788957744293189000,5.076189208984375,-0.4989471435546875,-1.050079345703125,-0.2103271484375
1788957744303239200,5.0862392578125,-0.499755859375,-1.013580322265625,-0.195068359375
1788957744313289200,5.096289306640625,-0.49462890625,-0.9618377685546875,-0.192626953125
1788957744323339300,5.10633935546875,-0.4614715576171875,-0.94769287109375,-0.16949462890625
1788957744333389300,5.116389404296875,-0.4164581298828125,-0.9229736328125,-0.142913818359375
1788957744343439000,5.126439208984375,-0.38214111328125,-0.8582000732421875,-0.1456146240234375
1788957744353489200,5.1364892578125,-0.3531951904296875,-0.80767822265625,-0.1341552734375
1788957744363539200,5.146539306640625,-0.3331146240234375,-0.77301025390625,-0.100799560546875
1788957744373589200,5.15658935546875,-0.3256378173828125,-0.7431182861328125,-0.0711517333984375
1788957744383639000,5.16663916015625,-0.330474853515625,-0.7062530517578125,-0.054107666015625
1788957744393689000,5.176689208984375,-0.3810272216796875,-0.683197021484375,-0.056549072265625
1788957744403739100,5.1867392578125,-0.4447174072265625,-0.67840576171875,-0.056060791015625
1788957744413790200,5.196790283203125,-0.49267578125,-0.677032470703125,-0.034393310546875
1788957744423840000,5.206840087890625,-0.529693603515625,-0.671905517578125,-0.0108489990234375
1788957744433890000,5.21689013671875,-0.5725860595703125,-0.6735076904296875,0.0255126953125
1788957744443940000,5.226940185546875,-0.587921142578125,-0.68072509765625,0.0635986328125
1788957744453990100,5.236990234375,-0.559814453125,-0.6974029541015625,0.0905609130859375
1788957744464040200,5.247040283203125,-0.51934814453125,-0.6792144775390625,0.1490936279296875
1788957744474090000,5.257090087890625,-0.4785919189453125,-0.6661376953125,0.1946868896484375
1788957744484140000,5.26714013671875,-0.4407806396484375,-0.6681976318359375,0.2268829345703125
1788957744494190300,5.2771904296875,-0.3928375244140625,-0.664093017578125,0.2460174560546875
1788957744504240400,5.287240478515625,-0.345489501953125,-0.6462860107421875,0.2285003662109375
1788957744514290200,5.297290283203125,-0.339996337890625,-0.6397705078125,0.18865966796875
1788957744524340200,5.30734033203125,-0.3588104248046875,-0.6685028076171875,0.144378662109375
1788957744534390300,5.317390380859375,-0.38165283203125,-0.677886962890625,0.1197662353515625
1788957744544441300,5.32744140625,-0.3802642822265625,-0.6777801513671875,0.0923004150390625
1788957744554491400,5.337491455078125,-0.3585205078125,-0.690948486328125,0.0467681884765625
1788957744564541400,5.34754150390625,-0.334747314453125,-0.69586181640625,0.0021209716796875
1788957744574591500,5.357591552734375,-0.328460693359375,-0.700042724609375,-0.03485107421875
1788957744584641500,5.3676416015625,-0.30780029296875,-0.664581298828125,-0.07965087890625
1788957744594691300,5.37769140625,-0.2587738037109375,-0.6470489501953125,-0.0962677001953125
1788957744604741400,5.387741455078125,-0.253662109375,-0.6612091064453125,-0.085418701171875
1788957744614791400,5.39779150390625,-0.305633544921875,-0.717926025390625,-0.0581207275390625
1788957744624841500,5.407841552734375,-0.3831024169921875,-0.786224365234375,-0.041778564453125
1788957744634891300,5.417891357421875,-0.4467315673828125,-0.7994384765625,-0.09344482421875
1788957744644941300,5.42794140625,-0.4678497314453125,-0.8300933837890625,-0.1603546142578125
1788957744654991400,5.437991455078125,-0.4663848876953125,-0.9451751708984375,-0.1670074462890625
1788957744665041400,5.44804150390625,-0.4959716796875,-1.058624267578125,-0.131683349609375
1788957744675092500,5.458092529296875,-0.556396484375,-1.1406097412109375,-0.12548828125
1788957744685142300,5.468142333984375,-0.61578369140625,-1.2085723876953125,-0.1185455322265625
1788957744695192300,5.4781923828125,-0.6216278076171875,-1.223876953125,-0.1003570556640625
1788957744705242400,5.488242431640625,-0.590789794921875,-1.1932830810546875,-0.076202392578125
1788957744715292400,5.49829248046875,-0.5526123046875,-1.113555908203125,-0.0485076904296875
1788957744725342200,5.50834228515625,-0.52435302734375,-1.0391998291015625,-0.0139007568359375
1788957744735392300,5.518392333984375,-0.5133514404296875,-1.0158233642578125,0.0158233642578125
1788957744745442300,5.5284423828125,-0.525177001953125,-1.0368499755859375,0.0555877685546875
1788957744755492400,5.538492431640625,-0.56890869140625,-1.0752410888671875,0.0975494384765625
1788957744765542100,5.548542236328125,-0.606109619140625,-1.0850677490234375,0.1221923828125
1788957744775592400,5.558592529296875,-0.60858154296875,-1.0390777587890625,0.1427154541015625
1788957744785642500,5.568642578125,-0.5878753662109375,-0.9674224853515625,0.1534576416015625
1788957744795692500,5.578692626953125,-0.5475311279296875,-0.912994384765625,0.1381072998046875
1788957744805742300,5.588742431640625,-0.5005645751953125,-0.88531494140625,0.1336669921875
1788957744815793200,5.598793212890625,-0.4529876708984375,-0.8930816650390625,0.12921142578125
1788957744825843500,5.608843505859375,-0.4184417724609375,-0.927978515625,0.1234893798828125
1788957744835893500,5.6188935546875,-0.4145050048828125,-0.9749755859375,0.1245269775390625
1788957744845943600,5.628943603515625,-0.4221649169921875,-0.9912261962890625,0.1348419189453125
1788957744855993300,5.638993408203125,-0.39404296875,-0.95465087890625,0.14080810546875
1788957744866043400,5.64904345703125,-0.332427978515625,-0.896392822265625,0.1312255859375
1788957744876093400,5.659093505859375,-0.28350830078125,-0.8428802490234375,0.1092071533203125
1788957744886143500,5.6691435546875,-0.26043701171875,-0.7898712158203125,0.091278076171875
1788957744896193300,5.679193359375,-0.2598114013671875,-0.7407073974609375,0.0871734619140625
1788957744906243300,5.689243408203125,-0.27142333984375,-0.6972808837890625,0.0943756103515625
1788957744916293400,5.69929345703125,-0.290618896484375,-0.6656341552734375,0.101531982421875
1788957744926343400,5.709343505859375,-0.314727783203125,-0.6357574462890625,0.093597412109375
1788957744936393200,5.719393310546875,-0.330108642578125,-0.6076812744140625,0.0723114013671875
1788957744946443300,5.729443359375,-0.3267364501953125,-0.5994110107421875,0.043701171875
1788957744956494300,5.739494384765625,-0.296478271484375,-0.601318359375,0.0328826904296875
1788957744966544400,5.74954443359375,-0.2690887451171875,-0.6348876953125,0.05535888671875
1788957744976594400,5.759594482421875,-0.24395751953125,-0.6976776123046875,0.0950775146484375
1788957744986644200,5.769644287109375,-0.234954833984375,-0.733489990234375,0.1301422119140625
1788957744996694300,5.7796943359375,-0.2623748779296875,-0.7679901123046875,0.1533203125
1788957745006744300,5.789744384765625,-0.2876129150390625,-0.7587890625,0.150848388671875
1788957745016794400,5.79979443359375,-0.292633056640625,-0.67462158203125,0.100311279296875
1788957745026844200,5.80984423828125,-0.29827880859375,-0.629638671875,0.056427001953125
1788957745036894200,5.819894287109375,-0.3538665771484375,-0.624481201171875,0.025909423828125
1788957745046944300,5.8299443359375,-0.402801513671875,-0.6282806396484375,-0.0216064453125
1788957745056994600,5.83999462890625,-0.3984832763671875,-0.6594390869140625,-0.115631103515625
1788957745067044400,5.85004443359375,-0.3430633544921875,-0.79095458984375,-0.217193603515625
1788957745077094400,5.860094482421875,-0.25738525390625,-0.9895477294921875,-0.27215576171875
1788957745087145200,5.870145263671875,-0.1672210693359375,-1.1495208740234375,-0.296051025390625
1788957745097195300,5.8801953125,-0.1331024169921875,-1.25054931640625,-0.3087615966796875
1788957745107245600,5.89024560546875,-0.149688720703125,-1.315673828125,-0.284210205078125
1788957745117295400,5.90029541015625,-0.191253662109375,-1.33074951171875,-0.2088165283203125
1788957745127345400,5.910345458984375,-0.2144317626953125,-1.3111724853515625,-0.1019134521484375
1788957745137395500,5.9203955078125,-0.1783447265625,-1.2870025634765625,0.030242919921875
1788957745147445500,5.930445556640625,-0.1250152587890625,-1.268798828125,0.0980377197265625
1788957745157495300,5.940495361328125,-0.0852813720703125,-1.2539825439453125,0.1017913818359375
1788957745167545300,5.95054541015625,-0.0856781005859375,-1.2566680908203125,0.1275634765625
1788957745177595400,5.960595458984375,-0.134552001953125,-1.2909393310546875,0.1871795654296875
1788957745187645400,5.9706455078125,-0.1845855712890625,-1.24945068359375,0.2371826171875
1788957745197695200,5.9806953125,-0.244781494140625,-1.094482421875,0.2577056884765625
1788957745207745300,5.990745361328125,-0.3079071044921875,-1.033935546875,0.1964263916015625
1788957745217795300,6.00079541015625,-0.3203277587890625,-1.15106201171875,0.0757293701171875
1788957745227846400,6.010846435546875,-0.310699462890625,-1.3214874267578125,-0.02886962890625
1788957745237896400,6.020896484375,-0.33447265625,-1.467315673828125,-0.050750732421875
1788957745247946200,6.0309462890625,-0.3516387939453125,-1.5535430908203125,-0.0739898681640625
1788957745257996300,6.040996337890625,-0.3697357177734375,-1.5852813720703125,-0.1250457763671875
1788957745268046300,6.05104638671875,-0.3852691650390625,-1.6335906982421875,-0.1743927001953125
1788957745278096400,6.061096435546875,-0.42828369140625,-1.6090545654296875,-0.20849609375
1788957745288146200,6.071146240234375,-0.4756622314453125,-1.552337646484375,-0.1661834716796875
1788957745298196200,6.0811962890625,-0.5023345947265625,-1.50726318359375,-0.058837890625
1788957745308246300,6.091246337890625,-0.5101776123046875,-1.40850830078125,0.0436248779296875
1788957745318296300,6.10129638671875,-0.5040283203125,-1.22064208984375,0.09881591796875
1788957745328346400,6.111346435546875,-0.4995269775390625,-1.0203399658203125,0.1631622314453125
1788957745338396400,6.121396484375,-0.44671630859375,-0.86407470703125,0.23663330078125
1788957745348446500,6.131446533203125,-0.3243255615234375,-0.643157958984375,0.2515869140625
1788957745358496500,6.14149658203125,-0.1551666259765625,-0.475738525390625,0.3398284912109375
1788957745368547300,6.15154736328125,-0.031707763671875,-0.4392852783203125,0.413238525390625
1788957745378597400,6.161597412109375,-0.0166015625,-0.41302490234375,0.4022064208984375
1788957745388647400,6.1716474609375,0.01519775390625,-0.323760986328125,0.4553985595703125
1788957745398697500,6.181697509765625,0.0365142822265625,-0.27899169921875,0.4522705078125
1788957745408747500,6.19174755859375,0.01513671875,-0.2712860107421875,0.390380859375
1788957745418797300,6.20179736328125,-0.049530029296875,-0.28179931640625,0.30731201171875
1788957745428847400,6.211847412109375,-0.10174560546875,-0.2956390380859375,0.2327423095703125
1788957745438897400,6.2218974609375,-0.1587066650390625,-0.3110198974609375,0.1625823974609375
1788957745448947500,6.231947509765625,-0.19427490234375,-0.37506103515625,0.0906829833984375
1788957745458997500,6.24199755859375,-0.2132110595703125,-0.449310302734375,0.03948974609375
1788957745469047300,6.25204736328125,-0.1986541748046875,-0.53875732421875,-0.0180511474609375
1788957745479097300,6.262097412109375,-0.132110595703125,-0.634765625,-0.074798583984375
1788957745489147400,6.2721474609375,-0.0476837158203125,-0.75543212890625,-0.1444854736328125
1788957745499197400,6.282197509765625,0.000579833984375,-0.934234619140625,-0.223114013671875
1788957745509248300,6.292248291015625,-0.0289306640625,-1.1500396728515625,-0.27850341796875
1788957745519298300,6.30229833984375,-0.0551910400390625,-1.3318023681640625,-0.319854736328125
1788957745529348400,6.312348388671875,-0.0670318603515625,-1.4397735595703125,-0.3612823486328125
1788957745539398400,6.3223984375,-0.0444488525390625,-1.5716705322265625,-0.3985595703125
1788957745549448400,6.332448486328125,-0.016754150390625,-1.7078857421875,-0.411712646484375
1788957745559498200,6.342498291015625,-0.055633544921875,-1.8145599365234375,-0.4066314697265625
1788957745569548300,6.35254833984375,-0.1767578125,-1.90460205078125,-0.38897705078125
1788957745579598300,6.362598388671875,-0.26788330078125,-1.871185302734375,-0.1555328369140625
1788957745589648400,6.3726484375,-0.3161163330078125,-1.749725341796875,0.015533447265625
1788957745599698400,6.382698486328125,-0.4285888671875,-1.6256256103515625,-0.0315399169921875
1788957745609748500,6.39274853515625,-0.5106353759765625,-1.373504638671875,-0.0630340576171875
1788957745619798500,6.402798583984375,-0.5433197021484375,-1.0899810791015625,-0.063507080078125
1788957745629848600,6.4128486328125,-0.3544464111328125,-0.7682037353515625,-0.0030059814453125
1788957745639899100,6.422899169921875,-0.0747222900390625,-0.6424102783203125,0.157928466796875
1788957745649949400,6.432949462890625,0.102081298828125,-0.6140594482421875,0.2772369384765625
1788957745659999500,6.44299951171875,0.1607666015625,-0.549041748046875,0.292877197265625
1788957745670049500,6.453049560546875,0.2121429443359375,-0.507232666015625,0.252532958984375
1788957745680099600,6.463099609375,0.31494140625,-0.5692138671875,0.208740234375
1788957745690149400,6.4731494140625,0.2818603515625,-0.706329345703125,0.13751220703125
1788957745700199400,6.483199462890625,0.09149169921875,-0.9088897705078125,0.035797119140625
1788957745710249500,6.49324951171875,-0.0486297607421875,-1.1138763427734375,0.0295562744140625
1788957745720299500,6.503299560546875,-0.0648040771484375,-1.1296539306640625,-0.0192718505859375
1788957745730349300,6.513349365234375,-0.1256256103515625,-1.0664215087890625,-0.173126220703125
1788957745740399400,6.5233994140625,-0.237457275390625,-1.05963134765625,-0.351531982421875
1788957745750449400,6.533449462890625,-0.3268280029296875,-1.0736236572265625,-0.51019287109375
1788957745760499500,6.54349951171875,-0.412933349609375,-1.0993194580078125,-0.651275634765625
1788957745770549200,6.55354931640625,-0.489471435546875,-1.1636505126953125,-0.724151611328125
1788957745780600300,6.563600341796875,-0.5700836181640625,-1.177001953125,-0.6583099365234375
1788957745790650400,6.573650390625,-0.574066162109375,-1.092681884765625,-0.418060302734375
1788957745800700400,6.583700439453125,-0.54779052734375,-1.0524749755859375,-0.275604248046875
1788957745810750500,6.59375048828125,-0.48504638671875,-1.079498291015625,-0.2476654052734375
1788957745820800300,6.60380029296875,-0.3657989501953125,-1.0594329833984375,-0.1747589111328125
1788957745830850300,6.613850341796875,-0.266387939453125,-0.9599151611328125,-0.076812744140625
1788957745840900400,6.623900390625,-0.1836700439453125,-0.8497161865234375,0.07611083984375
1788957745850950400,6.633950439453125,-0.1606292724609375,-0.78363037109375,0.175537109375
1788957745861000200,6.644000244140625,-0.1948089599609375,-0.7819976806640625,0.204437255859375
1788957745871050200,6.65405029296875,-0.2443695068359375,-0.8366546630859375,0.209381103515625
1788957745881100500,6.6641005859375,-0.2713165283203125,-0.8600921630859375,0.2109222412109375
1788957745891150600,6.674150634765625,-0.2485198974609375,-0.8466949462890625,0.2025299072265625
1788957745901200400,6.684200439453125,-0.2256927490234375,-0.811737060546875,0.1354827880859375
1788957745911250400,6.69425048828125,-0.2413482666015625,-0.7901763916015625,0.0603179931640625
1788957745921301200,6.70430126953125,-0.2705841064453125,-0.80328369140625,0.0114593505859375
1788957745931351300,6.714351318359375,-0.292938232421875,-0.8123626708984375,-0.031219482421875
1788957745941401600,6.724401611328125,-0.3045654296875,-0.822509765625,-0.0597686767578125
1788957745951451400,6.734451416015625,-0.2944488525390625,-0.8454437255859375,-0.090728759765625
1788957745961501400,6.74450146484375,-0.2801666259765625,-0.8787689208984375,-0.11529541015625
1788957745971551500,6.754551513671875,-0.2953643798828125,-0.9196014404296875,-0.1212158203125
1788957745981601500,6.7646015625,-0.3199920654296875,-0.944976806640625,-0.1229705810546875
1788957745991651300,6.7746513671875,-0.34033203125,-0.960174560546875,-0.1273956298828125
1788957746001701400,6.784701416015625,-0.358184814453125,-0.993438720703125,-0.147247314453125
1788957746011751400,6.79475146484375,-0.3627777099609375,-1.0369720458984375,-0.1673126220703125
1788957746021801500,6.804801513671875,-0.3666839599609375,-1.078521728515625,-0.169097900390625
1788957746031851300,6.814851318359375,-0.3868865966796875,-1.0889129638671875,-0.156585693359375
1788957746041901300,6.8249013671875,-0.3924713134765625,-1.110504150390625,-0.1405792236328125
1788957746051951400,6.834951416015625,-0.3290252685546875,-1.136199951171875,-0.108184814453125
1788957746062002400,6.84500244140625,-0.25701904296875,-1.1500091552734375,-0.068145751953125
1788957746072052500,6.855052490234375,-0.234222412109375,-1.1349029541015625,-0.0416412353515625
1788957746082102300,6.865102294921875,-0.2496795654296875,-1.0896453857421875,-0.02520751953125
1788957746092152300,6.87515234375,-0.27484130859375,-1.0411834716796875,-0.0162200927734375
1788957746102202400,6.885202392578125,-0.270294189453125,-0.9899139404296875,0.0088043212890625
1788957746112252400,6.89525244140625,-0.224945068359375,-0.937347412109375,0.03948974609375
1788957746122302200,6.90530224609375,-0.2232818603515625,-0.894683837890625,0.0445098876953125
1788957746132352300,6.915352294921875,-0.275909423828125,-0.8543243408203125,0.027740478515625
1788957746142402300,6.92540234375,-0.3354034423828125,-0.8292236328125,0.017608642578125
1788957746152452400,6.935452392578125,-0.3537139892578125,-0.8352203369140625,0.0232391357421875
1788957746162502400,6.94550244140625,-0.321563720703125,-0.8750762939453125,0.0278167724609375
1788957746172552400,6.955552490234375,-0.2677154541015625,-0.9223480224609375,0.0111083984375
1788957746182602500,6.9656025390625,-0.2532958984375,-0.9390411376953125,0.0027923583984375
1788957746192653300,6.9756533203125,-0.265380859375,-0.9294281005859375,0.0045623779296875
1788957746202703400,6.985703369140625,-0.2648162841796875,-0.9550323486328125,0.0114898681640625
1788957746212753400,6.99575341796875,-0.2531585693359375,-0.9980926513671875,0.0158538818359375
1788957746222803500,7.005803466796875,-0.2960357666015625,-1.0375518798828125,-0.0110015869140625
1788957746232853500,7.015853515625,-0.346099853515625,-1.0629730224609375,-0.058929443359375
1788957746242903600,7.025903564453125,-0.346221923828125,-1.0625457763671875,-0.0825653076171875
1788957746252953300,7.035953369140625,-0.2943267822265625,-1.0579071044921875,-0.07366943359375
1788957746263003400,7.04600341796875,-0.2311248779296875,-1.0621490478515625,-0.0758056640625
1788957746273053400,7.056053466796875,-0.213592529296875,-1.0694122314453125,-0.0914154052734375
1788957746283103500,7.066103515625,-0.225372314453125,-1.063812255859375,-0.111663818359375
1788957746293153300,7.0761533203125,-0.2432403564453125,-1.0342864990234375,-0.1078643798828125
1788957746303203300,7.086203369140625,-0.23590087890625,-0.9851226806640625,-0.0757904052734375
1788957746313253400,7.09625341796875,-0.210723876953125,-0.9250335693359375,-0.027740478515625
1788957746323303400,7.106303466796875,-0.1949310302734375,-0.8741607666015625,0.004852294921875
1788957746333354500,7.1163544921875,-0.1947174072265625,-0.8527069091796875,0.0239715576171875
1788957746343404300,7.126404296875,-0.196258544921875,-0.846405029296875,0.0450897216796875
1788957746353454300,7.136454345703125,-0.215667724609375,-0.86187744140625,0.0571746826171875
1788957746363504400,7.14650439453125,-0.25140380859375,-0.8901519775390625,0.0568695068359375
1788957746373554400,7.156554443359375,-0.248321533203125,-0.9254913330078125,0.0422515869140625
1788957746383604200,7.166604248046875,-0.215667724609375,-0.963165283203125,0.0393829345703125
1788957746393654300,7.176654296875,-0.18994140625,-1.0139923095703125,0.03076171875
1788957746403704300,7.186704345703125,-0.1868896484375,-1.0496978759765625,0.0200958251953125
1788957746413754400,7.19675439453125,-0.2219390869140625,-1.055389404296875,0.020416259765625
1788957746423804200,7.20680419921875,-0.238067626953125,-1.0454559326171875,0.0269927978515625
1788957746433854500,7.2168544921875,-0.2161712646484375,-1.0662841796875,0.052886962890625
1788957746443904500,7.226904541015625,-0.205047607421875,-1.096527099609375,0.0737152099609375
1788957746453954600,7.23695458984375,-0.227325439453125,-1.0959625244140625,0.0762939453125
1788957746464005400,7.24700537109375,-0.2553253173828125,-1.08721923828125,0.0678863525390625
1788957746474055200,7.25705517578125,-0.2717437744140625,-1.092742919921875,0.0684967041015625
1788957746484105500,7.26710546875,-0.261199951171875,-1.11004638671875,0.074554443359375
1788957746494155500,7.277155517578125,-0.2586669921875,-1.1090240478515625,0.0704345703125
1788957746504205600,7.28720556640625,-0.270660400390625,-1.08087158203125,0.05511474609375
1788957746514255400,7.29725537109375,-0.302825927734375,-1.0319976806640625,0.0455322265625
1788957746524305400,7.307305419921875,-0.3147430419921875,-0.9827423095703125,0.05804443359375
1788957746534355500,7.31735546875,-0.271575927734375,-0.9283447265625,0.0826568603515625
1788957746544405500,7.327405517578125,-0.2081756591796875,-0.87445068359375,0.0964508056640625
1788957746554454800,7.337454833984375,-0.158538818359375,-0.8236541748046875,0.1009521484375
1788957746564504800,7.3475048828125,-0.15472412109375,-0.77459716796875,0.103424072265625
1788957746574554600,7.3575546875,-0.1605224609375,-0.7392730712890625,0.1071319580078125
1788957746584604700,7.367604736328125,-0.14324951171875,-0.724029541015625,0.11358642578125
1788957746594654700,7.37765478515625,-0.124542236328125,-0.735260009765625,0.1194305419921875
1788957746604705800,7.387705810546875,-0.097686767578125,-0.7571258544921875,0.1139373779296875
1788957746614755800,7.397755859375,-0.087554931640625,-0.7803955078125,0.1098480224609375
1788957746624805600,7.4078056640625,-0.10333251953125,-0.7926177978515625,0.08038330078125
1788957746634855700,7.417855712890625,-0.1290435791015625,-0.8106842041015625,0.0399627685546875
1788957746644905700,7.42790576171875,-0.147735595703125,-0.84716796875,0.0083770751953125
1788957746654955800,7.437955810546875,-0.17071533203125,-0.8788604736328125,-0.01708984375
1788957746665005600,7.448005615234375,-0.19293212890625,-0.9042816162109375,-0.031341552734375
1788957746675055600,7.4580556640625,-0.20172119140625,-0.9443359375,-0.0369415283203125
1788957746685106000,7.46810595703125,-0.208038330078125,-0.985260009765625,-0.030792236328125
1788957746695156000,7.478156005859375,-0.2129669189453125,-1.0262298583984375,-0.0268402099609375
1788957746705205800,7.488205810546875,-0.22869873046875,-1.05712890625,-0.034149169921875
1788957746715255800,7.498255859375,-0.230682373046875,-1.0739593505859375,-0.0494537353515625
1788957746725305900,7.508305908203125,-0.1868896484375,-1.095001220703125,-0.0557861328125
1788957746735356000,7.51835595703125,-0.1415557861328125,-1.106842041015625,-0.0486297607421875
1788957746745407000,7.528406982421875,-0.1394500732421875,-1.1164398193359375,-0.0414276123046875
1788957746755456800,7.538456787109375,-0.1444549560546875,-1.114013671875,-0.029693603515625
1788957746765506800,7.5485068359375,-0.127777099609375,-1.0929412841796875,0.0014801025390625
1788957746775556900,7.558556884765625,-0.1331634521484375,-1.064605712890625,0.04010009765625
1788957746785607000,7.56860693359375,-0.1457672119140625,-1.054168701171875,0.0597686767578125
1788957746795656700,7.57865673828125,-0.12542724609375,-1.04534912109375,0.0723724365234375
1788957746805706800,7.588706787109375,-0.0907135009765625,-1.0141143798828125,0.0800323486328125
1788957746815756800,7.5987568359375,-0.0820159912109375,-0.97015380859375,0.087066650390625
1788957746825806800,7.608806884765625,-0.095947265625,-0.9277496337890625,0.0886077880859375
1788957746835856600,7.618856689453125,-0.11956787109375,-0.912353515625,0.0943145751953125
1788957746845906700,7.62890673828125,-0.124664306640625,-0.908538818359375,0.104736328125
1788957746855956700,7.638956787109375,-0.1204986572265625,-0.904052734375,0.1072845458984375
1788957746866006800,7.6490068359375,-0.1180572509765625,-0.9036712646484375,0.106689453125
1788957746876056600,7.659056640625,-0.1096649169921875,-0.89630126953125,0.1002044677734375
1788957746886107600,7.669107666015625,-0.10394287109375,-0.8905029296875,0.0840301513671875
1788957746896157700,7.67915771484375,-0.1281280517578125,-0.895111083984375,0.0619964599609375
1788957746906207700,7.689207763671875,-0.1596221923828125,-0.9017791748046875,0.03509521484375
1788957746916257800,7.6992578125,-0.186676025390625,-0.905609130859375,0.0053558349609375
1788957746926307600,7.7093076171875,-0.1926422119140625,-0.9033355712890625,-0.0136566162109375
1788957746936357600,7.719357666015625,-0.1572723388671875,-0.908447265625,-0.024017333984375
1788957746946407700,7.72940771484375,-0.0904388427734375,-0.913360595703125,-0.0238189697265625
1788957746956457700,7.739457763671875,-0.0380859375,-0.9184417724609375,-0.021453857421875
1788957746966507800,7.7495078125,-0.0082550048828125,-0.9301910400390625,-0.0283966064453125
1788957746976557800,7.759557861328125,-0.0042724609375,-0.9387664794921875,-0.03973388671875
1788957746986607900,7.76960791015625,-0.056976318359375,-0.9453277587890625,-0.0537872314453125
1788957746996658000,7.779657958984375,-0.12298583984375,-0.9617156982421875,-0.077880859375
1788957747006708000,7.7897080078125,-0.13677978515625,-1.0370635986328125,-0.0772552490234375
1788957747016757800,7.7997578125,-0.1344757080078125,-1.0738525390625,-0.05047607421875
1788957747026808800,7.809808837890625,-0.13055419921875,-1.075042724609375,-0.0456085205078125
1788957747036859000,7.81985888671875,-0.142791748046875,-1.0656890869140625,-0.0452880859375
1788957747046909000,7.829908935546875,-0.159881591796875,-1.04119873046875,-0.039276123046875
1788957747056958700,7.839958740234375,-0.14569091796875,-1.01104736328125,-0.032470703125
1788957747067008800,7.8500087890625,-0.1065673828125,-0.994842529296875,-0.0201263427734375
1788957747077058800,7.860058837890625,-0.0876922607421875,-0.9864501953125,-0.014923095703125
1788957747087108900,7.87010888671875,-0.0970458984375,-1.0128173828125,-0.020233154296875
1788957747097158700,7.88015869140625,-0.15008544921875,-1.0732269287109375,-0.0357208251953125
1788957747107208700,7.890208740234375,-0.2358551025390625,-1.1670074462890625,-0.0500946044921875
1788957747117258800,7.9002587890625,-0.3222503662109375,-1.26800537109375,-0.0591888427734375
1788957747127308800,7.910308837890625,-0.3767852783203125,-1.3182373046875,-0.0507659912109375
1788957747137358800,7.92035888671875,-0.4225311279296875,-1.3071746826171875,-0.0269622802734375
1788957747147408600,7.93040869140625,-0.4675445556640625,-1.2299346923828125,-0.010101318359375
1788957747157458700,7.940458740234375,-0.4674072265625,-1.1125335693359375,0.0036163330078125
1788957747167509800,7.950509765625,-0.425872802734375,-1.0411834716796875,0.0386505126953125
1788957747177559800,7.960559814453125,-0.3358154296875,-0.9818115234375,0.0855712890625
1788957747187609600,7.970609619140625,-0.1918487548828125,-0.910675048828125,0.1212005615234375
1788957747197659600,7.98065966796875,-0.059722900390625,-0.833831787109375,0.1517181396484375
1788957747207709700,7.990709716796875,-0.0095367431640625,-0.775970458984375,0.1762237548828125
1788957747217759700,8.000759765625,-0.0416259765625,-0.752899169921875,0.1793670654296875
1788957747227809800,8.010809814453125,-0.0779876708984375,-0.7627410888671875,0.1711883544921875
1788957747237859800,8.02085986328125,-0.0645294189453125,-0.782012939453125,0.155059814453125
1788957747247910000,8.030909912109376,-0.0450592041015625,-0.80712890625,0.133941650390625
1788957747257960000,8.0409599609375,-0.1000823974609375,-0.8500213623046875,0.102935791015625
1788957747268010000,8.051010009765625,-0.165557861328125,-0.877532958984375,0.0631561279296875
1788957747278059800,8.061059814453126,-0.1907196044921875,-0.876495361328125,0.024627685546875
1788957747288109800,8.07110986328125,-0.1949005126953125,-0.8568572998046875,0.014007568359375
1788957747298159900,8.081159912109374,-0.18792724609375,-0.844757080078125,0.007659912109375
1788957747308211000,8.0912109375,-0.1980743408203125,-0.8405303955078125,-0.000244140625
1788957747318260700,8.1012607421875,-0.2129058837890625,-0.8386383056640625,0.0144500732421875
1788957747328310800,8.111310791015624,-0.22686767578125,-0.8273468017578125,0.0183868408203125
1788957747338360800,8.12136083984375,-0.2615203857421875,-0.83819580078125,0.0008697509765625
1788957747348411000,8.131410888671875,-0.2573089599609375,-0.860198974609375,-0.032928466796875
1788957747358461000,8.1414609375,-0.0012054443359375,-0.907470703125,-0.0453948974609375
1788957747368510700,8.1515107421875,0.3644256591796875,-0.924102783203125,0.0060882568359375
1788957747378560800,8.161560791015624,-0.0750579833984375,-0.8713836669921875,-0.0567779541015625
1788957747388610800,8.17161083984375,-0.6204376220703125,-0.9022674560546875,-0.089019775390625
1788957747398660900,8.181660888671875,-0.680877685546875,-0.9067230224609375,0.0117645263671875
1788957747408710700,8.191710693359376,-0.3735809326171875,-0.79437255859375,0.054931640625
1788957747418760700,8.2017607421875,-0.2767333984375,-0.7358551025390625,0.0240478515625
1788957747428810800,8.211810791015624,-0.201263427734375,-0.7222747802734375,0.0644378662109375
1788957747438860800,8.22186083984375,-0.1760101318359375,-0.68511962890625,0.0875396728515625
1788957747448912000,8.231911865234375,-0.17486572265625,-0.6736907958984375,0.068023681640625
1788957747458961700,8.241961669921874,-0.0978546142578125,-0.6970977783203125,0.075347900390625
1788957747469011700,8.25201171875,0.0055694580078125,-0.72491455078125,0.1142730712890625
1788957747479061800,8.262061767578125,-0.3229217529296875,-0.7679443359375,0.0493011474609375
1788957747489111800,8.27211181640625,-0.0795440673828125,-0.8624725341796875,0.1456756591796875
1788957747499161600,8.28216162109375,-0.016448974609375,-0.7575531005859375,0.1447601318359375
1788957747509212000,8.2922119140625,-0.170928955078125,-0.891693115234375,0.072357177734375
1788957747519262000,8.302261962890626,-0.1790618896484375,-1.2540435791015625,0.0455780029296875
1788957747529312000,8.31231201171875,-0.083648681640625,-1.653656005859375,0.036102294921875
1788957747539361800,8.32236181640625,0.020538330078125,-2.110443115234375,0.08148193359375
1788957747549411800,8.332411865234375,0.0981903076171875,-2.5950775146484375,0.2082366943359375
1788957747559462400,8.34246240234375,0.1102447509765625,-2.7406768798828125,0.292144775390625
1788957747569512400,8.352512451171876,0.0630950927734375,-2.2220458984375,0.22430419921875
1788957747579562200,8.362562255859375,0.016265869140625,-1.3519439697265625,-0.119171142578125
1788957747589612300,8.3726123046875,-0.2462615966796875,-1.0561676025390625,-0.2500152587890625
1788957747599663400,8.382663330078126,-0.619171142578125,-1.2599945068359375,-0.449737548828125
1788957747609713400,8.39271337890625,-0.9718170166015625,-1.23779296875,-0.4868927001953125
1788957747619763500,8.402763427734374,-1.135009765625,-1.110626220703125,-0.186248779296875
1788957747629813200,8.412813232421875,-1.21087646484375,-0.87896728515625,0.09844970703125
1788957747639863300,8.42286328125,-1.0688323974609375,-0.60614013671875,0.1228179931640625
1788957747649913300,8.432913330078126,-0.8000640869140625,-0.5280609130859375,0.13873291015625
1788957747659963400,8.44296337890625,-0.6011505126953125,-0.56182861328125,0.175750732421875
1788957747670013200,8.45301318359375,-0.463043212890625,-0.4716339111328125,0.1581878662109375
1788957747680063200,8.463063232421876,-0.2717132568359375,-0.5952301025390625,0.157989501953125
1788957747690113300,8.47311328125,0.4793548583984375,-0.831573486328125,0.1651611328125
1788957747700163300,8.483163330078124,1.1865234375,-1.0692596435546875,0.1329498291015625
1788957747710213000,8.493213134765625,0.9901580810546875,-0.9917755126953125,0.0640411376953125
1788957747720263200,8.50326318359375,0.162322998046875,-0.736114501953125,-0.0375518798828125
1788957747730313200,8.513313232421876,-0.3279571533203125,-0.7924957275390625,-0.1290283203125
1788957747740364300,8.5233642578125,-0.4227294921875,-0.908233642578125,-0.199462890625
1788957747750414300,8.533414306640625,-0.3684844970703125,-0.9726409912109375,-0.27490234375
1788957747760464100,8.543464111328126,-0.2700958251953125,-0.9690093994140625,-0.314910888671875
1788957747770514200,8.55351416015625,-0.1648406982421875,-0.9105224609375,-0.391448974609375
1788957747780564200,8.563564208984374,-0.0667724609375,-1.0298919677734375,-0.3814239501953125
1788957747790614300,8.5736142578125,0.0129852294921875,-1.1206512451171875,-0.27655029296875
1788957747800664000,8.5836640625,0.030059814453125,-1.0582427978515625,-0.203826904296875
1788957747810714400,8.59371435546875,0.0232696533203125,-1.0381622314453125,-0.1319580078125
1788957747820764400,8.603764404296875,-0.0368499755859375,-1.0279388427734375,-0.046875
1788957747830814500,8.613814453125,-0.114898681640625,-0.99261474609375,0.0299835205078125
1788957747840864300,8.6238642578125,-0.141632080078125,-0.9935302734375,0.0585174560546875
1788957747850914300,8.633914306640625,-0.19866943359375,-0.9559783935546875,0.08258056640625
1788957747860964400,8.64396435546875,-0.2019195556640625,-0.92266845703125,0.12933349609375
1788957747871014400,8.654014404296875,-0.1008758544921875,-0.9580841064453125,0.144012451171875
1788957747881065500,8.6640654296875,-0.1508636474609375,-0.9432373046875,0.099945068359375
1788957747891115300,8.674115234375,-0.0852813720703125,-0.9904937744140625,0.0968170166015625
1788957747901165300,8.684165283203125,-0.1213226318359375,-1.0159454345703125,0.117523193359375
1788957747911215400,8.69421533203125,-0.1293182373046875,-1.0244293212890625,0.13751220703125
1788957747921265400,8.704265380859376,-0.0985260009765625,-1.0518951416015625,0.146484375
1788957747931315200,8.714315185546875,-0.1159515380859375,-1.0139617919921875,0.1566314697265625
1788957747941365200,8.724365234375,-0.1274566650390625,-1.031890869140625,0.1670074462890625
1788957747951415300,8.734415283203125,-0.1490020751953125,-1.10162353515625,0.1789093017578125
1788957747961465300,8.74446533203125,-0.2183685302734375,-1.1196136474609375,0.1687774658203125
1788957747971515100,8.75451513671875,-0.251556396484375,-1.1275482177734375,0.177337646484375
1788957747981565200,8.764565185546875,-0.1935577392578125,-1.13458251953125,0.204681396484375
1788957747991615200,8.774615234375,-0.18475341796875,-1.0323944091796875,0.168365478515625
1788957748001665300,8.784665283203125,-0.1444091796875,-0.950042724609375,0.116302490234375
1788957748011715000,8.794715087890625,-0.070831298828125,-0.91094970703125,0.090667724609375
1788957748021766100,8.80476611328125,-0.015228271484375,-0.9180755615234375,0.0933380126953125
1788957748031816200,8.814816162109375,-0.0146484375,-0.9035186767578125,0.097503662109375
1788957748041866200,8.8248662109375,-0.0058441162109375,-0.8879547119140625,0.0665283203125
1788957748051916300,8.834916259765626,0.022369384765625,-0.897979736328125,0.0347747802734375
1788957748061966000,8.844966064453125,0.0365447998046875,-0.923736572265625,0.04510498046875
1788957748072016100,8.85501611328125,0.0778656005859375,-1.0064697265625,0.1000518798828125
1788957748082066200,8.865066162109375,-0.00146484375,-0.9991607666015625,0.0860137939453125
1788957748092116500,8.875116455078125,-0.063079833984375,-1.0620574951171875,0.1521759033203125
1788957748102166300,8.885166259765626,-0.1145172119140625,-1.012908935546875,0.108551025390625
1788957748112216300,8.89521630859375,-0.0915374755859375,-0.9931182861328125,-0.0016632080078125
1788957748122266400,8.905266357421874,-0.11083984375,-1.018707275390625,-0.03765869140625
1788957748132316400,8.91531640625,-0.16265869140625,-1.0166015625,-0.000274658203125
1788957748142366200,8.9253662109375,-0.1888580322265625,-1.01513671875,0.0125732421875
1788957748152416300,8.935416259765624,-0.2167816162109375,-0.9994354248046875,0.000244140625
1788957748162467300,8.94546728515625,-0.1701812744140625,-1.059814453125,0.0314178466796875
1788957748172517400,8.955517333984375,-0.1857452392578125,-1.1142120361328125,0.06500244140625
1788957748182567400,8.9655673828125,-0.1790008544921875,-1.0930023193359375,0.0579681396484375
1788957748192617200,8.9756171875,-0.0996246337890625,-1.0924530029296875,0.1010894775390625
1788957748202667300,8.985667236328124,-0.0041046142578125,-1.026214599609375,0.30670166015625
1788957748212717300,8.99571728515625,-0.241546630859375,-0.9672393798828125,0.418701171875
1788957748222767400,9.005767333984375,-0.1159515380859375,-1.027130126953125,0.3659210205078125
1788957748232817200,9.015817138671874,-0.0555877685546875,-0.9268951416015625,0.3377685546875
1788957748242867200,9.0258671875,-0.0737457275390625,-0.886474609375,0.2548675537109375
1788957748252917200,9.035917236328125,-0.0132904052734375,-0.899200439453125,0.1427764892578125
1788957748262967300,9.04596728515625,-0.0445709228515625,-0.9600372314453125,0.141357421875
1788957748273017300,9.056017333984375,-0.0907440185546875,-0.97442626953125,0.137481689453125
1788957748283067100,9.066067138671874,-0.0449371337890625,-1.0308380126953125,0.1473388671875
1788957748293117200,9.0761171875,0.018310546875,-1.1140289306640625,0.193878173828125
1788957748303167200,9.086167236328125,-0.0404052734375,-1.0855255126953125,0.2035675048828125
1788957748313218300,9.09621826171875,-0.042724609375,-1.070343017578125,0.181610107421875
1788957748323268000,9.10626806640625,0.0149688720703125,-1.0723419189453125,0.1372528076171875
1788957748333318100,9.116318115234375,0.0057525634765625,-1.0883331298828125,0.0937957763671875
1788957748343368200,9.1263681640625,-0.016632080078125,-1.104156494140625,0.0992889404296875
1788957748353418200,9.136418212890625,-0.0534820556640625,-1.1251068115234375,0.135406494140625
1788957748363468300,9.14646826171875,-0.100067138671875,-1.0826873779296875,0.16143798828125
1788957748373518300,9.156518310546875,-0.0863037109375,-1.0608367919921875,0.2020111083984375
1788957748383568400,9.166568359375,-0.0873565673828125,-1.0589141845703125,0.2330780029296875
1788957748393618400,9.176618408203124,-0.0915069580078125,-0.9288330078125,0.25469970703125
1788957748403668500,9.18666845703125,-0.053009033203125,-0.862884521484375,0.1864776611328125
1788957748413718300,9.19671826171875,-0.1270904541015625,-0.8466644287109375,-0.0305023193359375
1788957748423768300,9.206768310546876,-0.0338287353515625,-0.837005615234375,-0.161956787109375
1788957748433818400,9.216818359375,0.0506134033203125,-0.850830078125,-0.2728729248046875
1788957748443868400,9.226868408203124,0.24041748046875,-0.8975830078125,-0.206756591796875
1788957748453919200,9.236919189453126,0.3598175048828125,-0.9515533447265625,-0.03887939453125
1788957748463969300,9.24696923828125,0.347076416015625,-1.0582427978515625,0.0792083740234375
1788957748474019300,9.257019287109374,0.249359130859375,-1.117034912109375,0.13226318359375
1788957748484069400,9.2670693359375,0.08282470703125,-1.114837646484375,0.083160400390625
1788957748494119400,9.277119384765625,0.2228240966796875,-1.157928466796875,-0.032623291015625
1788957748504169200,9.287169189453126,0.20587158203125,-1.3072052001953125,0.0518646240234375
1788957748514219300,9.29721923828125,-0.2007293701171875,-1.2779693603515625,0.061065673828125
1788957748524269300,9.307269287109374,-0.241119384765625,-1.2200164794921875,0.1183319091796875
1788957748534319400,9.3173193359375,-0.2541351318359375,-1.104278564453125,0.319000244140625
1788957748544369200,9.327369140625,-0.140045166015625,-0.9430084228515625,0.4728240966796875
1788957748554419200,9.337419189453126,-0.2640228271484375,-0.7288818359375,0.400360107421875
1788957748564469200,9.34746923828125,-0.24908447265625,-0.6820526123046875,0.0434417724609375
1788957748574519300,9.357519287109374,0.0013885498046875,-0.3932342529296875,0.9762115478515625
1788957748584569300,9.3675693359375,-0.496612548828125,-0.382965087890625,0.1496734619140625
1788957748594620400,9.377620361328125,0.0596923828125,-0.687255859375,-0.5348968505859375
1788957748604670200,9.387670166015624,-0.614044189453125,-1.0169219970703125,-0.594024658203125
1788957748614720300,9.39772021484375,-0.7264251708984375,-1.15185546875,-0.7361907958984375
1788957748624770300,9.407770263671875,-0.2639617919921875,-1.3598480224609375,-0.451690673828125
1788957748634820400,9.4178203125,-0.348175048828125,-1.3829193115234375,0.192535400390625
1788957748644870400,9.427870361328125,-0.8870086669921875,-1.1749420166015625,0.41119384765625
1788957748654920400,9.43792041015625,0.141204833984375,-1.2130279541015625,0.150299072265625
1788957748664970500,9.447970458984376,0.1694488525390625,-0.977142333984375,0.1402587890625
1788957748675020500,9.4580205078125,0.2895050048828125,-0.8175048828125,0.118743896484375
1788957748685070300,9.4680703125,0.60992431640625,-0.7743072509765625,0.2198638916015625
1788957748695120400,9.478120361328125,0.698577880859375,-0.779998779296875,0.3531341552734375
1788957748705170400,9.48817041015625,0.783721923828125,-0.9333648681640625,0.4505157470703125
1788957748715220500,9.498220458984376,0.800811767578125,-1.032501220703125,0.4632415771484375
1788957748725270300,9.508270263671875,0.8161468505859375,-1.094879150390625,0.39520263671875
1788957748735320300,9.5183203125,0.6449127197265625,-1.190521240234375,0.314361572265625
1788957748745371400,9.528371337890626,0.4503326416015625,-1.296600341796875,0.2321624755859375
1788957748755421400,9.53842138671875,0.2744598388671875,-1.326812744140625,0.1012115478515625
1788957748765471500,9.548471435546874,0.1933746337890625,-1.30426025390625,0.0780181884765625
1788957748775521300,9.558521240234375,0.092437744140625,-1.30316162109375,0.095428466796875
1788957748785571300,9.5685712890625,0.1047210693359375,-1.1309967041015625,0.0736846923828125
1788957748795621400,9.578621337890626,0.095550537109375,-0.9488983154296875,0.123748779296875
1788957748805671400,9.58867138671875,0.31292724609375,-0.8258209228515625,0.2772216796875
1788957748815721200,9.59872119140625,0.3223114013671875,-0.7465972900390625,0.453338623046875
1788957748825771300,9.608771240234375,0.1474761962890625,-0.7772674560546875,0.5641021728515625
1788957748835821300,9.6188212890625,0.066253662109375,-0.8388214111328125,0.590576171875
1788957748845871400,9.628871337890626,-0.052825927734375,-0.854522705078125,0.497955322265625
1788957748855921200,9.638921142578125,-0.122314453125,-0.889373779296875,0.3428192138671875
1788957748865971200,9.64897119140625,-0.1180267333984375,-0.967803955078125,0.2026824951171875
1788957748876021500,9.659021484375,-0.3158111572265625,-1.0784454345703125,0.107696533203125
1788957748886072300,9.669072265625,-0.4827880859375,-1.19659423828125,0.0204010009765625
1788957748896122400,9.679122314453124,-0.32763671875,-1.285552978515625,-0.0616607666015625
1788957748906172200,9.689172119140625,-0.318878173828125,-1.30401611328125,-0.067657470703125
1788957748916222200,9.69922216796875,-0.3086090087890625,-1.215484619140625,0.028411865234375
1788957748926272500,9.7092724609375,-0.277374267578125,-1.06298828125,0.1478729248046875
1788957748936322600,9.719322509765625,-0.29150390625,-0.8798828125,0.213775634765625
1788957748946372400,9.729372314453125,-0.280853271484375,-0.766326904296875,0.285980224609375
1788957748956422400,9.73942236328125,-0.3567657470703125,-0.758697509765625,0.3730316162109375
1788957748966472400,9.749472412109375,-0.474517822265625,-0.7774658203125,0.4426422119140625
1788957748976522500,9.7595224609375,-0.6149749755859375,-0.78424072265625,0.506622314453125
1788957748986572300,9.769572265625,-0.755645751953125,-0.775146484375,0.5416412353515625
1788957748996622300,9.779622314453125,-0.8628692626953125,-0.680084228515625,0.534271240234375
1788957749006672400,9.78967236328125,-0.8547821044921875,-0.610931396484375,0.5172271728515625
1788957749016722400,9.799722412109375,-0.9091949462890625,-0.56768798828125,0.5684661865234375
1788957749026773500,9.8097734375,-0.6456298828125,-0.5617828369140625,0.6086883544921875
1788957749036823300,9.8198232421875,-0.4273223876953125,-0.597412109375,0.571746826171875
1788957749046873300,9.829873291015625,-0.4765167236328125,-0.63714599609375,0.4784698486328125
1788957749056923400,9.83992333984375,-0.3717803955078125,-0.625579833984375,0.3616485595703125
1788957749066973400,9.849973388671875,-0.3045196533203125,-0.5993499755859375,0.270233154296875
1788957749077023200,9.860023193359375,-0.2689361572265625,-0.578887939453125,0.256317138671875
1788957749087073300,9.8700732421875,-0.1153106689453125,-0.6221466064453125,0.243072509765625
1788957749097123300,9.880123291015625,-0.0892791748046875,-0.7599334716796875,0.3703460693359375
1788957749107173400,9.89017333984375,-0.504119873046875,-0.707305908203125,0.7052459716796875
1788957749117223200,9.90022314453125,-0.588043212890625,-0.4451141357421875,0.755859375
1788957749127273200,9.910273193359375,-0.5360260009765625,-0.2337493896484375,0.7183990478515625
1788957749137323300,9.9203232421875,-0.6898193359375,-0.143829345703125,0.62762451171875
1788957749147373300,9.930373291015625,-0.762420654296875,-0.251922607421875,0.590576171875
1788957749157423400,9.94042333984375,-0.8212738037109375,-0.4418487548828125,0.5298614501953125
1788957749167473400,9.950473388671876,-0.7103271484375,-0.6628570556640625,0.4665985107421875
1788957749177524200,9.960524169921875,-0.46356201171875,-0.8937530517578125,0.3925018310546875
1788957749187574300,9.97057421875,-0.3321380615234375,-0.9752349853515625,0.328277587890625
1788957749197624300,9.980624267578126,-0.3974151611328125,-0.8660430908203125,0.3297271728515625
1788957749207674400,9.99067431640625,-0.5441131591796875,-0.7300567626953125,0.368743896484375
1788957749217724400,10.000724365234374,-0.5816650390625,-0.590057373046875,0.3922882080078125
1788957749227774500,10.0107744140625,-0.5885467529296875,-0.5060577392578125,0.47210693359375
1788957749237824500,10.020824462890625,-0.6604461669921875,-0.5667572021484375,0.5692596435546875
1788957749247874300,10.030874267578126,-0.5770111083984375,-0.647369384765625,0.607940673828125
1788957749257924400,10.04092431640625,-0.45074462890625,-0.707550048828125,0.5698089599609375
1788957749267974400,10.050974365234374,-0.3484954833984375,-0.7391815185546875,0.469482421875
1788957749278024400,10.0610244140625,-0.3425445556640625,-0.7848358154296875,0.3445892333984375
1788957749288074200,10.07107421875,-0.446197509765625,-0.7891845703125,0.202117919921875
1788957749298124300,10.081124267578126,-0.5238494873046875,-0.6876220703125,0.1125640869140625
1788957749308174300,10.09117431640625,-0.5706787109375,-0.504638671875,0.140594482421875
1788957749318225400,10.101225341796875,-0.7772979736328125,-0.447479248046875,0.1646728515625
1788957749328275500,10.111275390625,-0.8297119140625,-0.4804840087890625,0.343536376953125
1788957749338325200,10.1213251953125,-1.0953521728515625,-0.6950531005859375,0.442535400390625
1788957749348375300,10.131375244140624,-1.366241455078125,-0.8948516845703125,0.345306396484375
1788957749358425300,10.14142529296875,-1.3159637451171875,-0.8767242431640625,0.2530975341796875
1788957749368475400,10.151475341796875,-1.136993408203125,-0.7410430908203125,0.23822021484375
1788957749378525200,10.161525146484376,-0.811126708984375,-0.5644683837890625,0.2462921142578125
1788957749388575200,10.1715751953125,-0.6019134521484375,-0.5081024169921875,0.22747802734375
1788957749398625300,10.181625244140625,-0.566375732421875,-0.5073394775390625,0.2066192626953125
1788957749408675300,10.19167529296875,-0.6448974609375,-0.5533905029296875,0.1558837890625
1788957749418725400,10.201725341796875,-0.6429290771484375,-0.6302337646484375,0.1101226806640625
1788957749428775400,10.211775390625,-0.566925048828125,-0.687896728515625,0.1001129150390625
1788957749438825500,10.221825439453125,-0.591156005859375,-0.7177734375,0.10540771484375
1788957749448875500,10.23187548828125,-0.7008209228515625,-0.7053985595703125,0.06622314453125
1788957749458926300,10.24192626953125,-0.828948974609375,-0.641876220703125,0.056549072265625
1788957749468976400,10.251976318359375,-0.8988189697265625,-0.5497589111328125,0.096435546875
1788957749479026400,10.2620263671875,-0.9228515625,-0.469879150390625,0.1385650634765625
1788957749489076500,10.272076416015626,-0.8447418212890625,-0.4376678466796875,0.1585540771484375
1788957749499126500,10.28212646484375,-0.7741546630859375,-0.4456024169921875,0.1583251953125
1788957749509176300,10.29217626953125,-0.7777252197265625,-0.458526611328125,0.1219024658203125
1788957749519226400,10.302226318359375,-0.77325439453125,-0.4980621337890625,0.0792999267578125
1788957749529276400,10.3122763671875,-0.8347625732421875,-0.555908203125,0.0101470947265625
1788957749539326500,10.322326416015626,-0.8809814453125,-0.6070404052734375,-0.0547027587890625
1788957749549376500,10.33237646484375,-0.901824951171875,-0.629302978515625,-0.0657501220703125
1788957749559425800,10.34242578125,-0.9024505615234375,-0.595794677734375,-0.044158935546875
1788957749569475800,10.352475830078125,-0.892425537109375,-0.55413818359375,-0.0205535888671875
1788957749579526000,10.36252587890625,-0.8987274169921875,-0.558563232421875,0.0023193359375
1788957749589575700,10.37257568359375,-0.895477294921875,-0.5821075439453125,0.0265350341796875
1788957749599625700,10.382625732421875,-0.8686981201171875,-0.58056640625,0.0376434326171875
1788957749609676800,10.3926767578125,-0.8753509521484375,-0.575531005859375,0.0207366943359375
1788957749619726800,10.402726806640626,-0.9022369384765625,-0.581512451171875,-0.0090484619140625
1788957749629777000,10.41277685546875,-0.9067230224609375,-0.584228515625,-0.02789306640625
1788957749639826700,10.42282666015625,-0.945281982421875,-0.5812530517578125,-0.040557861328125
1788957749649876700,10.432876708984375,-0.9669342041015625,-0.57159423828125,-0.04852294921875
1788957749659926800,10.4429267578125,-0.909637451171875,-0.5496368408203125,-0.03472900390625
1788957749669976800,10.452976806640624,-0.8590087890625,-0.5253753662109375,-0.021148681640625
1788957749680027000,10.46302685546875,-0.832489013671875,-0.530914306640625,-0.024932861328125
1788957749690077000,10.473076904296875,-0.8358306884765625,-0.5496978759765625,-0.0177154541015625
1788957749700127000,10.483126953125,-0.8113861083984375,-0.560760498046875,-0.030731201171875
1788957749710177000,10.493177001953125,-0.7861328125,-0.5541229248046875,-0.0538330078125
1788957749720226800,10.503226806640624,-0.7770538330078125,-0.55926513671875,-0.075836181640625
1788957749730276900,10.51327685546875,-0.770355224609375,-0.5730133056640625,-0.1036529541015625
1788957749740328000,10.523327880859375,-0.8454132080078125,-0.5753936767578125,-0.150787353515625
1788957749750378000,10.5333779296875,-0.8551788330078125,-0.6314239501953125,-0.1235504150390625
1788957749760428000,10.543427978515625,-0.7487335205078125,-0.6458892822265625,-0.043121337890625
1788957749770477800,10.553477783203125,-0.7948455810546875,-0.6112060546875,0.0134429931640625
1788957749780527900,10.56352783203125,-0.825775146484375,-0.5781402587890625,0.049468994140625
1788957749790578000,10.573577880859375,-0.8505096435546875,-0.5463104248046875,0.0719451904296875
