time,seconds_elapsed,z,y,x
1788957739268153900,0.05115380859375,0.025535186752676964,0.31186947226524353,0.27023041248321533
1788957739278203600,0.06120361328125,0.05764998123049736,0.37037938833236694,0.20764507353305817
1788957739288254700,0.071254638671875,0.06366126984357834,0.38413381576538086,0.1320808082818985
1788957739298304800,0.0813046875,0.0604202002286911,0.3343542814254761,0.04450834542512894
1788957739308354800,0.091354736328125,0.053519416600465775,0.23902243375778198,-0.0491797961294651
1788957739318404600,0.101404541015625,0.04705965518951416,0.14026708900928497,-0.1503562182188034
1788957739328454700,0.11145458984375,0.03718944638967514,0.04452778771519661,-0.23527856171131134
1788957739338504700,0.121504638671875,0.04453817382454872,-0.0384611040353775,-0.2943272292613983
1788957739348554800,0.1315546875,0.06381279975175858,-0.08523286879062653,-0.3193335235118866
1788957739358604800,0.141604736328125,0.08092547208070755,-0.09474728256464005,-0.2876166105270386
1788957739368654800,0.15165478515625,0.08012066781520844,-0.06043218448758125,-0.17085003852844238
1788957739378705000,0.161704833984375,0.05873655155301094,-0.04065981134772301,0.03117815963923931
1788957739388755000,0.1717548828125,0.033485520631074905,-0.023334616795182228,0.2531803250312805
1788957739398805000,0.181804931640625,0.012317919172346592,-0.011806592345237732,0.4487476944923401
1788957739408854800,0.191854736328125,0.006874151527881622,-0.024107201024889946,0.5847036838531494
1788957739418904800,0.20190478515625,0.01744157448410988,-0.039391081780195236,0.6301188468933105
1788957739428955000,0.211954833984375,0.023903202265501022,-0.02742975950241089,0.5860581398010254
1788957739439005000,0.2220048828125,0.028239095583558083,0.004830175079405308,0.4714255928993225
1788957739449054700,0.2320546875,0.028973860666155815,0.02225310727953911,0.31134963035583496
1788957739459104800,0.242104736328125,0.03795723617076874,0.030766168609261513,0.1439952552318573
1788957739469155800,0.25215576171875,0.04603300616145134,0.011935222893953323,0.021250693127512932
1788957739479206000,0.262205810546875,0.053053099662065506,-0.015109710395336151,-0.03942809998989105
1788957739489256000,0.272255859375,0.05065412074327469,-0.02221156284213066,-0.05980660766363144
1788957739499305700,0.2823056640625,0.050811782479286194,-0.04334054887294769,-0.05037795379757881
1788957739509355800,0.292355712890625,0.06781819462776184,-0.10352745652198792,-0.003910319413989782
1788957739519405800,0.30240576171875,0.09193524718284607,-0.1726178377866745,0.07925727218389511
1788957739529455900,0.312455810546875,0.1226513534784317,-0.22547999024391174,0.19794370234012604
1788957739539505700,0.322505615234375,0.15876221656799316,-0.2703430652618408,0.3532973527908325
1788957739549555700,0.3325556640625,0.20945176482200623,-0.23774811625480652,0.5139751434326172
1788957739559605800,0.342605712890625,0.2597053349018097,-0.07999177277088165,0.6425850987434387
1788957739569655800,0.35265576171875,0.3541000187397003,0.15928499400615692,0.7127668261528015
1788957739579705900,0.362705810546875,0.4348180294036865,0.3964488208293915,0.6527863144874573
1788957739589755600,0.372755615234375,0.43672192096710205,0.3346392512321472,0.6001185774803162
1788957739599806000,0.382805908203125,0.3656163215637207,0.20865920186042786,0.5343449115753174
1788957739609856000,0.39285595703125,0.2882797420024872,0.11838922649621964,0.3783569037914276
1788957739619906000,0.402906005859375,0.22547200322151184,-0.013338974677026272,0.17343516647815704
1788957739629955800,0.412955810546875,0.23479892313480377,-0.2392629235982895,-0.030493460595607758
1788957739640006000,0.423005859375,0.3102065920829773,-0.4722924530506134,-0.1679900735616684
1788957739650057000,0.433056884765625,0.4389187693595886,-0.6504225134849548,-0.17582562565803528
1788957739660107000,0.44310693359375,0.6302828788757324,-0.7161818146705627,-0.04560796543955803
1788957739670157000,0.453156982421875,0.8557738065719604,-0.576145350933075,0.22027750313282013
1788957739680206800,0.463206787109375,1.0533497333526611,-0.15494883060455322,0.5533537268638611
1788957739690257000,0.4732568359375,1.0706123113632202,0.8533034324645996,0.8685582876205444
1788957739700307000,0.483306884765625,1.1868633031845093,1.6494925022125244,1.0269484519958496
1788957739710357000,0.49335693359375,1.2561718225479126,2.153263568878174,1.1235383749008179
1788957739720406800,0.50340673828125,1.2621580362319946,2.368910312652588,1.1037750244140625
1788957739730456800,0.513456787109375,1.1697170734405518,2.313810348510742,0.9696047306060791
1788957739740507000,0.5235068359375,1.0387837886810303,2.1007707118988037,0.7066649794578552
1788957739750557000,0.533556884765625,0.9196451902389526,1.7321407794952393,0.3723442852497101
1788957739760606700,0.543606689453125,0.8032160401344299,1.161799430847168,0.042032405734062195
1788957739770656800,0.55365673828125,0.6559386849403381,-0.373957097530365,-0.2462470531463623
1788957739780706800,0.563706787109375,0.35741886496543884,-2.3310964107513428,-0.36544081568717957
1788957739790756900,0.5737568359375,-0.03357287496328354,-4.45485258102417,-0.5761890411376953
1788957739800806700,0.583806640625,-0.2437056005001068,-6.816472053527832,-0.9503375887870789
1788957739810856700,0.593856689453125,-0.40571287274360657,-6.94036340713501,-1.3242392539978027
1788957739820907800,0.60390771484375,-0.6346589922904968,-4.529118061065674,-1.347467303276062
1788957739830957800,0.613957763671875,-0.845281183719635,-4.225461483001709,-1.4407259225845337
1788957739841007900,0.6240078125,-1.6299322843551636,-3.3794219493865967,-1.9269315004348755
1788957739851057700,0.6340576171875,-3.025347948074341,-1.6365151405334473,-2.5844197273254395
1788957739861107700,0.644107666015625,-4.019651412963867,0.07226860523223877,-3.0613462924957275
1788957739871157800,0.65415771484375,-4.402002811431885,1.9520411491394043,-3.4113361835479736
1788957739881208000,0.6642080078125,-3.874752998352051,1.9508403539657593,-3.370342254638672
1788957739891257900,0.6742578125,-1.9085884094238281,1.6852754354476929,-2.677816867828369
1788957739901308000,0.684307861328125,-0.9355604648590088,3.723275899887085,-1.4668323993682861
1788957739911358000,0.69435791015625,-0.7314742207527161,4.328857421875,-0.015296930447220802
1788957739921408000,0.704407958984375,-0.3173164427280426,4.783322811126709,1.639455795288086
1788957739931457800,0.714457763671875,0.2185397893190384,5.41519832611084,3.0615758895874023
1788957739941507800,0.7245078125,0.616934061050415,6.151854038238525,3.9830665588378906
1788957739951558000,0.734557861328125,1.002177119255066,6.223491191864014,4.594078540802002
1788957739961608000,0.74460791015625,0.8457072973251343,5.592678546905518,4.704492092132568
1788957739971657700,0.75465771484375,-0.06184099614620209,4.627439975738525,3.8870692253112793
1788957739981707800,0.764707763671875,-1.3802186250686646,4.607785224914551,3.6443123817443848
1788957739991758800,0.7747587890625,-2.6921164989471436,5.053711414337158,3.486095428466797
1788957740001809000,0.784808837890625,-3.636503219604492,5.197204113006592,3.568497896194458
1788957740011859000,0.79485888671875,-4.527818202972412,5.212504863739014,3.716895341873169
1788957740021908700,0.80490869140625,-5.2803497314453125,5.117087364196777,3.6962814331054688
1788957740031958800,0.814958740234375,-5.7696051597595215,5.0889458656311035,3.661367416381836
1788957740042008800,0.8250087890625,-6.069767951965332,4.727932453155518,3.5014193058013916
1788957740052059000,0.835058837890625,-6.240904808044434,4.239790916442871,3.062971353530884
1788957740062108700,0.845108642578125,-6.302419185638428,3.737534523010254,2.4085681438446045
1788957740072158700,0.85515869140625,-6.273035526275635,3.304412364959717,1.5797165632247925
1788957740082208800,0.865208740234375,-6.243419170379639,2.5682897567749023,0.64638751745224
1788957740092258800,0.8752587890625,-6.284119129180908,1.6848293542861938,-0.2617682218551636
1788957740102308900,0.885308837890625,-6.568047523498535,0.153526172041893,-0.7251167297363281
1788957740112359000,0.89535888671875,-7.186807632446289,-1.077494502067566,-0.6532459855079651
1788957740122409000,0.905408935546875,-7.563211917877197,-1.6403543949127197,-0.4885358512401581
1788957740132459000,0.915458984375,-7.187187671661377,-1.8893895149230957,-0.06271824240684509
1788957740142509000,0.925509033203125,-6.380871295928955,-2.19028377532959,0.5953384637832642
1788957740152559900,0.935559814453125,-5.48675537109375,-1.711469054222107,1.0226809978485107
1788957740162610000,0.94560986328125,-4.746293067932129,-1.0475528240203857,1.611956238746643
1788957740172660000,0.955659912109375,-4.038723468780518,-0.39374303817749023,2.1655688285827637
1788957740182710000,0.9657099609375,-3.021475315093994,0.13587553799152374,2.316119432449341
1788957740192760000,0.975760009765625,-1.5095020532608032,0.2740808129310608,1.7394896745681763
1788957740202809900,0.985809814453125,0.27217185497283936,-0.24953420460224152,0.25718918442726135
1788957740212860000,0.99585986328125,1.1262580156326294,-0.6997586488723755,-2.232809066772461
1788957740222910000,1.005909912109375,1.3340522050857544,-1.571224570274353,-4.482812881469727
1788957740232960000,1.0159599609375,1.9033974409103394,-2.1526827812194824,-5.573774337768555
1788957740243009800,1.026009765625,2.1788930892944336,-1.5443974733352661,-4.605100631713867
1788957740253059800,1.036059814453125,3.2988133430480957,-0.6195085048675537,-2.873401403427124
1788957740263110000,1.04610986328125,4.38421630859375,0.24013084173202515,-1.1979295015335083
1788957740273160000,1.056159912109375,4.578271389007568,0.49000805616378784,0.13731977343559265
1788957740283209700,1.066209716796875,3.748598098754883,0.8085117340087891,1.0786441564559937
1788957740293259800,1.076259765625,2.4736287593841553,1.034238338470459,1.542929768562317
1788957740303309800,1.086309814453125,1.547637701034546,1.2486214637756348,1.6652703285217285
1788957740313361000,1.09636083984375,1.1049684286117554,1.372995138168335,2.116953134536743
1788957740323411000,1.106410888671875,0.9441419839859009,1.4003078937530518,2.731755495071411
1788957740333460700,1.116460693359375,1.0013309717178345,1.2077326774597168,3.189528703689575
1788957740343510800,1.1265107421875,1.158645749092102,0.8868675231933594,2.9811594486236572
1788957740353560800,1.136560791015625,1.2704191207885742,0.464672327041626,1.983437418937683
1788957740363611000,1.14661083984375,1.4094353914260864,-0.08360142260789871,0.7938422560691833
1788957740373661000,1.156660888671875,1.7419872283935547,-0.18856218457221985,0.23573821783065796
1788957740383711000,1.1667109375,2.2376561164855957,0.03678544610738754,-0.2187829464673996
1788957740393761000,1.176760986328125,2.7140655517578125,-0.09220955520868301,-0.6087778210639954
1788957740403811000,1.18681103515625,3.042080879211426,-0.6324464082717896,-0.7414738535881042
1788957740413860900,1.19686083984375,2.156893253326416,-1.6776974201202393,-0.8836802244186401
1788957740423911000,1.206910888671875,1.2490938901901245,-2.927260160446167,-1.2612123489379883
1788957740433961000,1.2169609375,0.9604357481002808,-2.8327157497406006,-2.1751668453216553
1788957740444011000,1.227010986328125,1.4407621622085571,-1.9956754446029663,-3.506417989730835
1788957740454060800,1.237060791015625,2.13506817817688,-0.6149324178695679,-4.518993854522705
1788957740464110800,1.24711083984375,2.2252650260925293,-0.02714213915169239,-4.185481548309326
1788957740474162000,1.257161865234375,2.175156831741333,-0.4069182276725769,-2.9878668785095215
1788957740484212000,1.2672119140625,2.2769815921783447,-0.4387667179107666,-1.5396604537963867
1788957740494262000,1.277261962890625,2.53615140914917,-1.0399497747421265,-0.9776759743690491
1788957740504311800,1.287311767578125,2.653555154800415,-0.642949104309082,-0.7304369211196899
1788957740514361900,1.29736181640625,3.485081911087036,1.0443450212478638,0.16649070382118225
1788957740524412000,1.307411865234375,4.464609622955322,2.133089065551758,0.015387478284537792
1788957740534462000,1.3174619140625,5.1769914627075195,3.5160043239593506,-0.1345902979373932
1788957740544512500,1.327512451171875,5.70964241027832,4.504124641418457,0.4408831298351288
1788957740554562600,1.3375625,5.8950114250183105,5.888963222503662,1.7890578508377075
1788957740564612600,1.347612548828125,5.906332969665527,6.3346028327941895,2.5012266635894775
1788957740574662700,1.35766259765625,6.173490524291992,5.185222625732422,2.163424491882324
1788957740584712400,1.36771240234375,6.425471782684326,3.9297757148742676,1.1616854667663574
1788957740594762500,1.377762451171875,6.867184638977051,2.4936532974243164,-0.17042899131774902
1788957740604812500,1.3878125,7.428181171417236,0.03892476111650467,-1.300078272819519
1788957740614862600,1.397862548828125,7.9171671867370605,-2.758906602859497,-1.6409711837768555
1788957740624913700,1.40791357421875,7.545719146728516,-3.2595038414001465,-1.8841321468353271
1788957740634963500,1.41796337890625,6.237822532653809,-1.2998775243759155,-1.7339987754821777
1788957740645013500,1.428013427734375,3.9063546657562256,0.6124969720840454,-0.5809419751167297
1788957740655063600,1.4380634765625,1.678957462310791,-0.3823401927947998,0.651313841342926
1788957740665113600,1.448113525390625,0.20154456794261932,-2.539271593093872,2.335533380508423
1788957740675163400,1.458163330078125,0.3860084116458893,-2.9152660369873047,3.7647223472595215
1788957740685213400,1.46821337890625,0.7775229215621948,-2.714966058731079,4.4030280113220215
1788957740695263700,1.478263671875,0.9632691144943237,-3.2623538970947266,3.6293060779571533
1788957740705313800,1.488313720703125,1.0616090297698975,-4.62683629989624,1.6756186485290527
1788957740715363800,1.49836376953125,1.0731418132781982,-4.4401445388793945,0.5304337739944458
1788957740725413600,1.50841357421875,1.0024585723876953,-3.1445324420928955,0.3071357011795044
1788957740735463700,1.518463623046875,1.060460090637207,-1.707457184791565,0.22045274078845978
1788957740745513700,1.528513671875,0.858954668045044,-0.7148672938346863,0.16636048257350922
1788957740755563800,1.538563720703125,0.6019306182861328,-0.5693774223327637,0.03255102038383484
1788957740765613600,1.548613525390625,0.32573601603507996,-0.8983896970748901,-0.19261978566646576
1788957740775664600,1.55866455078125,0.11498676985502243,-1.336029291152954,-0.41573622822761536
1788957740785714700,1.568714599609375,0.1345149278640747,-2.260507106781006,-0.6222593188285828
1788957740795764700,1.5787646484375,0.27620789408683777,-3.4356801509857178,-0.7473375797271729
1788957740805814500,1.588814453125,0.5610026121139526,-3.9179224967956543,-0.7956204414367676
1788957740815864600,1.598864501953125,0.7555254697799683,-3.1338205337524414,-0.783790647983551
1788957740825914600,1.60891455078125,0.8281019330024719,-2.173002004623413,-0.7424845099449158
1788957740835964700,1.618964599609375,0.815615713596344,-1.6353724002838135,-0.5566009283065796
1788957740846014700,1.6290146484375,0.7700064182281494,-1.0105878114700317,-0.2840578258037567
1788957740856064500,1.639064453125,0.6658176779747009,-0.70526522397995,-0.08835089951753616
1788957740866114600,1.649114501953125,0.45366016030311584,-0.8001307845115662,0.1608903557062149
1788957740876164600,1.65916455078125,-0.034577950835227966,-0.7321224212646484,0.5466588139533997
1788957740886214700,1.669214599609375,-0.46236684918403625,-0.4339895248413086,0.8670110106468201
1788957740896264400,1.679264404296875,-0.5094723105430603,0.14917483925819397,0.9780464172363281
1788957740906314500,1.689314453125,-0.4361882209777832,0.4006885588169098,0.8741056323051453
1788957740916364500,1.699364501953125,-0.28433531522750854,0.5029520988464355,0.7228258848190308
1788957740926414800,1.709414794921875,-0.10467474907636642,0.6529002785682678,0.6098273992538452
1788957740936465700,1.719465576171875,0.032894566655159,0.6332789063453674,0.5294755697250366
1788957740946515500,1.729515380859375,0.08087274432182312,0.30219367146492004,0.4953197240829468
1788957740956565500,1.7395654296875,0.04885542392730713,-0.017129717394709587,0.4981328248977661
1788957740966615600,1.749615478515625,0.02123285084962845,-0.25029560923576355,0.4386862814426422
1788957740976665900,1.759665771484375,0.040712010115385056,-0.49998772144317627,0.3875613212585449
1788957740986715600,1.769715576171875,0.05229782685637474,-0.695848822593689,0.3582864999771118
1788957740996765700,1.779765625,0.06109371408820152,-0.8481403589248657,0.30181604623794556
1788957741006815700,1.789815673828125,0.07501085847616196,-0.9903635382652283,0.2763591408729553
1788957741016865800,1.79986572265625,0.045885201543569565,-1.0701875686645508,0.3115059435367584
1788957741026915600,1.80991552734375,-0.023906664922833443,-1.0594185590744019,0.40826472640037537
1788957741036965600,1.819965576171875,-0.09265723079442978,-1.0192791223526,0.4876745939254761
1788957741047015700,1.830015625,-0.1866883933544159,-0.9845640063285828,0.5259087681770325
1788957741057065700,1.840065673828125,-0.2988399565219879,-0.9844958186149597,0.47330257296562195
1788957741067115500,1.850115478515625,-0.37894517183303833,-0.9193404912948608,0.39528635144233704
1788957741077165600,1.86016552734375,-0.4596797227859497,-0.8429021835327148,0.37292802333831787
1788957741087216600,1.870216552734375,-0.5059015154838562,-0.830559253692627,0.35026639699935913
1788957741097266700,1.8802666015625,-0.5052077770233154,-0.9374619722366333,0.29960376024246216
1788957741107316700,1.890316650390625,-0.4563382565975189,-1.0904067754745483,0.2652125060558319
1788957741117366500,1.900366455078125,-0.3798844814300537,-1.1816855669021606,0.1869477778673172
1788957741127416600,1.91041650390625,-0.3111376464366913,-1.1676137447357178,0.03901318088173866
1788957741137466600,1.920466552734375,-0.2315456122159958,-1.1682651042938232,-0.1433507651090622
1788957741147516700,1.9305166015625,-0.15176129341125488,-1.3098973035812378,-0.3116428554058075
1788957741157566500,1.94056640625,-0.05205068364739418,-1.6502692699432373,-0.3882755637168884
1788957741167616500,1.950616455078125,-0.10660313814878464,-1.814733624458313,-0.414459228515625
1788957741177666600,1.96066650390625,-0.22136114537715912,-1.7113523483276367,-0.42295578122138977
1788957741187716600,1.970716552734375,-0.2541164457798004,-1.6233218908309937,-0.4562748670578003
1788957741197766700,1.9807666015625,-0.22293028235435486,-1.7103585004806519,-0.5736435651779175
1788957741207816700,1.990816650390625,-0.11922306567430496,-2.1612792015075684,-0.572414219379425
1788957741217866800,2.00086669921875,-0.07743193954229355,-4.159262180328369,-0.6099493503570557
1788957741227917600,2.01091748046875,-0.4500467777252197,-4.741353511810303,-0.7029677033424377
1788957741237967600,2.020967529296875,-0.09523916989564896,-3.10002064704895,-1.1567165851593018
1788957741248017700,2.031017578125,0.28454652428627014,-1.0566022396087646,-1.285123586654663
1788957741258067700,2.041067626953125,0.3903304636478424,0.19266586005687714,-1.266842246055603
1788957741268117800,2.05111767578125,0.37505510449409485,0.38326722383499146,-1.2314808368682861
1788957741278167800,2.061167724609375,0.2617431879043579,0.11443789303302765,-1.2561159133911133
1788957741288217600,2.071217529296875,0.15667296946048737,-0.10636106133460999,-1.281859278678894
1788957741298267600,2.081267578125,0.13226935267448425,-0.12633903324604034,-1.2820342779159546
1788957741308317700,2.091317626953125,0.15689747035503387,-0.009019860066473484,-1.2864234447479248
1788957741318367700,2.10136767578125,0.21905352175235748,0.11521340906620026,-1.310166597366333
1788957741328417500,2.11141748046875,0.3360312581062317,0.14372014999389648,-1.3190761804580688
1788957741338467600,2.121467529296875,0.42688101530075073,0.2087087333202362,-1.3429019451141357
1788957741348517600,2.131517578125,0.46026772260665894,0.3261711895465851,-1.3466460704803467
1788957741358567700,2.141567626953125,0.4473913609981537,0.3513937294483185,-1.2744735479354858
1788957741368617500,2.151617431640625,0.38725319504737854,0.2926510274410248,-1.2043722867965698
1788957741378668500,2.16166845703125,0.2853161692619324,0.11856206506490707,-1.1776272058486938
1788957741388718600,2.171718505859375,0.19229461252689362,-0.08935810625553131,-1.1616569757461548
1788957741398768600,2.1817685546875,0.12177463620901108,-0.19349676370620728,-1.12898588180542
1788957741408818700,2.191818603515625,0.05062482878565788,-0.05474447086453438,-1.0511257648468018
1788957741418868500,2.201868408203125,0.013003150001168251,0.16410425305366516,-0.9343745708465576
1788957741428918500,2.21191845703125,0.022587068378925323,0.16505713760852814,-0.8559120297431946
1788957741438968600,2.221968505859375,0.07275143265724182,-0.1081208810210228,-0.8201143145561218
1788957741449018600,2.2320185546875,0.09829221665859222,-0.3947731554508209,-0.7869912385940552
1788957741459068400,2.242068359375,0.062301989644765854,-0.5190439820289612,-0.7042700052261353
1788957741469118700,2.25211865234375,-0.03086204268038273,-0.4082189202308655,-0.5404602885246277
1788957741479168800,2.262168701171875,-0.06377711147069931,-0.18357035517692566,-0.4149971902370453
1788957741489218800,2.27221875,-0.04778030514717102,-0.0883793979883194,-0.4634217321872711
1788957741499268600,2.2822685546875,-0.015364575199782848,-0.13049516081809998,-0.5741910934448242
1788957741509318700,2.292318603515625,-0.002252235310152173,-0.18888336420059204,-0.6047753691673279
1788957741519369700,2.30236962890625,-0.010203368961811066,-0.09976547211408615,-0.486411988735199
1788957741529419800,2.312419677734375,-0.003469566348940134,0.13436393439769745,-0.3058949410915375
1788957741539469800,2.3224697265625,0.017702298238873482,0.3829324543476105,-0.18302415311336517
1788957741549519000,2.33251904296875,0.056771669536828995,0.4702785611152649,-0.13478150963783264
1788957741559569000,2.34256884765625,0.08382565528154373,0.41981297731399536,-0.12771429121494293
1788957741569619000,2.352618896484375,0.07371363788843155,0.34652945399284363,-0.07124195247888565
1788957741579669000,2.3626689453125,0.027353061363101006,0.32278764247894287,0.05294577404856682
1788957741589719000,2.372718994140625,-0.011896073818206787,0.3863825798034668,0.18027523159980774
1788957741599769000,2.38276904296875,-0.020312462002038956,0.49093616008758545,0.24474184215068817
1788957741609819000,2.39281884765625,-0.022068550810217857,0.5500940084457397,0.22213107347488403
1788957741619869000,2.402868896484375,0.003052248852327466,0.5358557105064392,0.15033917129039764
1788957741629919000,2.4129189453125,0.030055636540055275,0.503292977809906,0.10903114825487137
1788957741639969000,2.422968994140625,0.04791959002614021,0.5715771913528442,0.1285632997751236
1788957741650018800,2.433018798828125,0.06979186087846756,0.7271686792373657,0.198150634765625
1788957741660070000,2.44306982421875,0.09499549120664597,0.8867306113243103,0.27837756276130676
1788957741670120000,2.453119873046875,0.11685098707675934,0.9796643257141113,0.3468932509422302
1788957741680170000,2.463169921875,0.1317947804927826,1.0213885307312012,0.4007580578327179
1788957741690219800,2.4732197265625,0.130697563290596,1.0010050535202026,0.46243396401405334
1788957741700269800,2.483269775390625,0.10867321491241455,0.936352014541626,0.5309064984321594
1788957741710319900,2.49331982421875,0.072746641933918,0.8628498315811157,0.5601336359977722
1788957741720370200,2.5033701171875,0.04600983485579491,0.8123357892036438,0.5459885001182556
1788957741730420200,2.513420166015625,0.03587144985795021,0.7999686002731323,0.5137969851493835
1788957741740470000,2.523469970703125,0.043423108756542206,0.7801128625869751,0.5000124573707581
1788957741750520000,2.53352001953125,0.05446963384747505,0.7290573716163635,0.5468159317970276
1788957741760570000,2.543570068359375,0.08119791746139526,0.7143761515617371,0.637937068939209
1788957741770620200,2.5536201171875,0.1384393721818924,0.789527416229248,0.7145980000495911
1788957741780670000,2.563669921875,0.2269497960805893,0.9353522062301636,0.7529616355895996
1788957741790720000,2.573719970703125,0.2977350056171417,1.0662000179290771,0.7653788924217224
1788957741800771000,2.58377099609375,0.3321441113948822,1.1027190685272217,0.799545407295227
1788957741810821000,2.593821044921875,0.34783145785331726,1.085183024406433,0.8493657112121582
1788957741820871200,2.60387109375,0.3594689667224884,1.0539385080337524,0.8725684881210327
1788957741830921000,2.6139208984375,0.37797045707702637,1.0153464078903198,0.8539090156555176
1788957741840971000,2.623970947265625,0.40397170186042786,0.9875930547714233,0.8083972334861755
1788957741851021000,2.63402099609375,0.4344867467880249,1.0196157693862915,0.7702139019966125
1788957741861071000,2.644071044921875,0.46830621361732483,1.0900592803955078,0.7711028456687927
1788957741871121000,2.654120849609375,0.49942365288734436,1.138468623161316,0.7967698574066162
1788957741881171000,2.6641708984375,0.5463139414787292,1.1059479713439941,0.8383204936981201
1788957741891221000,2.674220947265625,0.6097285747528076,1.0425106287002563,0.9251618981361389
1788957741901271000,2.68427099609375,0.6570314168930054,0.9339287877082825,1.0134694576263428
1788957741911320800,2.69432080078125,0.6986432671546936,0.8625379204750061,1.0451782941818237
1788957741921371000,2.704370849609375,0.7710426449775696,0.8395578265190125,1.0381747484207153
1788957741931421000,2.7144208984375,0.8040671944618225,0.7586190104484558,0.987313985824585
1788957741941472000,2.724471923828125,0.7896981239318848,0.6189846992492676,0.9332539439201355
1788957741951522000,2.73452197265625,0.7500510811805725,0.4668460190296173,0.8649619817733765
1788957741961571800,2.74457177734375,0.7025451064109802,0.28503546118736267,0.7610272765159607
1788957741971622000,2.754621826171875,0.6660121083259583,0.08495403826236725,0.606637716293335
1788957741981672000,2.764671875,0.6542382836341858,-0.115998774766922,0.42555129528045654
1788957741991722000,2.774721923828125,0.6477393507957458,-0.290574312210083,0.2632193863391876
1788957742001772000,2.78477197265625,0.6279363632202148,-0.3921864330768585,0.1627660095691681
1788957742011822000,2.794822021484375,0.5970841646194458,-0.4048154056072235,0.10192956030368805
1788957742021872000,2.8048720703125,0.5755458474159241,-0.35618340969085693,0.04078471288084984
1788957742031922200,2.814922119140625,0.5659598112106323,-0.3036094307899475,-0.01401728205382824
1788957742041972000,2.824971923828125,0.5539566874504089,-0.26258420944213867,-0.0409274585545063
1788957742052022000,2.83502197265625,0.5339164137840271,-0.15512460470199585,-0.06555024534463882
1788957742062072000,2.845072021484375,0.5398381948471069,-0.03111157938838005,-0.09178584814071655
1788957742072122000,2.8551220703125,0.5305341482162476,0.009221461601555347,-0.11941001564264297
1788957742082173200,2.865173095703125,0.4952574074268341,-0.044191163033246994,-0.1368558555841446
1788957742092223000,2.875222900390625,0.4348723590373993,-0.15574964880943298,-0.09137731790542603
1788957742102273000,2.88527294921875,0.35999199748039246,-0.24640046060085297,-0.015801332890987396
1788957742112323000,2.895322998046875,0.29989537596702576,-0.2799570858478546,0.05913202837109566
1788957742122373000,2.905373046875,0.24938665330410004,-0.28843018412590027,0.10902289301156998
1788957742132423000,2.9154228515625,0.19758231937885284,-0.3215519189834595,0.11841292679309845
1788957742142473000,2.925472900390625,0.13664093613624573,-0.32873794436454773,0.11909230053424835
1788957742152523000,2.93552294921875,0.06138879060745239,-0.2861212491989136,0.16778047382831573
1788957742162573000,2.945572998046875,0.0009318400407209992,-0.22757244110107422,0.24204352498054504
1788957742172622800,2.955622802734375,-0.01685488037765026,-0.24810966849327087,0.2665960192680359
1788957742182673000,2.9656728515625,0.0029979203827679157,-0.32338792085647583,0.23382288217544556
1788957742192723000,2.975722900390625,0.027575967833399773,-0.3608543276786804,0.15938939154148102
1788957742202773000,2.98577294921875,0.02997467666864395,-0.3005387783050537,0.08559506386518478
1788957742212823000,2.995822998046875,0.020928984507918358,-0.19559666514396667,0.041677672415971756
1788957742222873900,3.005873779296875,-0.01028699241578579,-0.0880795270204544,0.04331498220562935
1788957742232924000,3.015923828125,-0.06859530508518219,0.010884871706366539,0.08543314039707184
1788957742242974000,3.025973876953125,-0.11907019466161728,0.1314706802368164,0.16811390221118927
1788957742253024000,3.03602392578125,-0.13164564967155457,0.2789432108402252,0.2437194585800171
1788957742263074000,3.046073974609375,-0.11106739938259125,0.36938735842704773,0.2681121528148651
1788957742273124000,3.0561240234375,-0.08588294684886932,0.3688294291496277,0.2289825826883316
1788957742283174100,3.066174072265625,-0.07375491410493851,0.30930086970329285,0.16273005306720734
1788957742293224200,3.07622412109375,-0.07898269593715668,0.261773020029068,0.1028403639793396
1788957742303274000,3.08627392578125,-0.07765724509954453,0.2287876456975937,0.07443961501121521
1788957742313324000,3.096323974609375,-0.0871327742934227,0.1750999093055725,0.11984597891569138
1788957742323374000,3.1063740234375,-0.12263111025094986,0.06562162190675735,0.27564090490341187
1788957742333424000,3.116424072265625,-0.14767174422740936,-0.01853959634900093,0.5116227865219116
1788957742343474000,3.126473876953125,-0.12140632420778275,-0.03723898157477379,0.7418259382247925
1788957742353524000,3.13652392578125,-0.05438361316919327,-0.07364439219236374,0.8806468844413757
1788957742363575000,3.146574951171875,-0.002002430846914649,-0.17763417959213257,0.893698513507843
1788957742373625000,3.156625,0.03774791210889816,-0.2939392030239105,0.8099620938301086
1788957742383675100,3.166675048828125,0.06975750625133514,-0.3751523196697235,0.6697847247123718
1788957742393725000,3.176724853515625,0.08364802598953247,-0.4604317843914032,0.5099061131477356
1788957742403775000,3.18677490234375,0.06370440870523453,-0.5574464797973633,0.3397200107574463
1788957742413825000,3.196824951171875,0.015545669943094254,-0.5760571956634521,0.18629717826843262
1788957742423875000,3.206875,-0.025374332442879677,-0.4569510221481323,0.07248378545045853
1788957742433924900,3.2169248046875,-0.06064843386411667,-0.2656090259552002,-0.012526444159448147
1788957742443975000,3.226974853515625,-0.0692664235830307,-0.10243955254554749,-0.04458078369498253
1788957742454025000,3.23702490234375,-0.09514915198087692,-0.0273290928453207,-0.020964937284588814
1788957742464075000,3.247074951171875,-0.1307862401008606,0.028541896492242813,0.05110153183341026
1788957742474124800,3.257124755859375,-0.16786517202854156,0.11093077808618546,0.1432812660932541
1788957742484174800,3.2671748046875,-0.2060042917728424,0.15714195370674133,0.21800130605697632
1788957742494225200,3.27722509765625,-0.27015531063079834,0.11771465092897415,0.2548099160194397
1788957742504276000,3.28727587890625,-0.36681634187698364,0.011081946082413197,0.2564144730567932
1788957742514326000,3.297325927734375,-0.45431530475616455,-0.1063046008348465,0.23440717160701752
1788957742524375800,3.307375732421875,-0.5047606229782104,-0.1530316323041916,0.16306374967098236
1788957742534425900,3.31742578125,-0.5134696960449219,-0.13551095128059387,0.04574458673596382
1788957742544476200,3.32747607421875,-0.4894581139087677,-0.16037769615650177,-0.06327244639396667
1788957742554526200,3.337526123046875,-0.4576343894004822,-0.2532804608345032,-0.0463256873190403
1788957742564576300,3.347576171875,-0.45179063081741333,-0.42017117142677307,0.13090555369853973
1788957742574626300,3.357626220703125,-0.42883017659187317,-0.5572544932365417,0.3609134554862976
1788957742584676400,3.36767626953125,-0.37063291668891907,-0.6089922189712524,0.4712410271167755
1788957742594726400,3.377726318359375,-0.29682183265686035,-0.6478594541549683,0.4182009696960449
1788957742604776200,3.387776123046875,-0.24894031882286072,-0.7242458462715149,0.2932148277759552
1788957742614826200,3.397826171875,-0.24669739603996277,-0.8712978959083557,0.21343638002872467
1788957742624876300,3.407876220703125,-0.28288736939430237,-1.0258756875991821,0.18330350518226624
1788957742634927400,3.41792724609375,-0.3602069020271301,-1.1303470134735107,0.1829541027545929
1788957742644977400,3.427977294921875,-0.4661343991756439,-1.1308889389038086,0.24031247198581696
1788957742655027200,3.438027099609375,-0.5916816592216492,-1.050689458847046,0.3033694624900818
1788957742665077200,3.4480771484375,-0.6637492179870605,-0.8879386186599731,0.28102901577949524
1788957742675127300,3.458127197265625,-0.6308671832084656,-0.7933862805366516,0.17908240854740143
1788957742685177300,3.46817724609375,-0.5462409853935242,-0.7817027568817139,0.043889425694942474
1788957742695227100,3.47822705078125,-0.46332690119743347,-0.7043232917785645,-0.04272988811135292
1788957742705277200,3.488277099609375,-0.3884231150150299,-0.5581607222557068,-0.05928489565849304
1788957742715327200,3.4983271484375,-0.3352009057998657,-0.3205617666244507,0.0031348068732768297
1788957742725377300,3.508377197265625,-0.3635510504245758,-0.027098994702100754,0.036433909088373184
1788957742735427000,3.518427001953125,-0.365030437707901,0.1694558709859848,0.0244374331086874
1788957742745477000,3.52847705078125,-0.3218320906162262,0.29806339740753174,-0.01888607256114483
1788957742755527200,3.538527099609375,-0.2629410922527313,0.4156757593154907,-0.05817648768424988
1788957742765577200,3.5485771484375,-0.22606801986694336,0.49597594141960144,-0.08349116146564484
1788957742775628300,3.558628173828125,-0.2423497885465622,0.5294084548950195,-0.08008071780204773
1788957742785678000,3.568677978515625,-0.23980620503425598,0.4983552098274231,-0.07983198016881943
1788957742795728100,3.57872802734375,-0.2174377739429474,0.40446385741233826,-0.09624424576759338
1788957742805778200,3.588778076171875,-0.1873304843902588,0.3063492774963379,-0.0989108681678772
1788957742815828200,3.598828125,-0.15228727459907532,0.2656835913658142,-0.08724142611026764
1788957742825878000,3.6088779296875,-0.09900620579719543,0.2840716540813446,-0.09651216119527817
1788957742835928300,3.61892822265625,-0.07174689322710037,0.32265955209732056,-0.12466603517532349
1788957742845978400,3.628978271484375,-0.07093382626771927,0.3615669906139374,-0.12827275693416595
1788957742856028400,3.6390283203125,-0.07956513017416,0.40375837683677673,-0.09077730774879456
1788957742866078200,3.649078125,-0.09572705626487732,0.4255467653274536,-0.025107750669121742
1788957742876128300,3.659128173828125,-0.10423506051301956,0.41810137033462524,0.0436212457716465
1788957742886178300,3.66917822265625,-0.07004859298467636,0.3934181332588196,0.04855315387248993
1788957742896228400,3.679228271484375,-0.029737655073404312,0.41155025362968445,-0.02484116703271866
1788957742906279400,3.689279541015625,-0.04168406501412392,0.5059188604354858,-0.0719359740614891
1788957742916329200,3.6993291015625,-0.059170644730329514,0.5918853878974915,-0.02099449746310711
1788957742926379300,3.709379150390625,-0.0704222321510315,0.6390033960342407,0.057071808725595474
1788957742936429300,3.71942919921875,-0.08290953189134598,0.6800310015678406,0.12597285211086273
1788957742946479400,3.729479248046875,-0.06722777336835861,0.7608142495155334,0.1612892895936966
1788957742956529200,3.739529052734375,0.003186205867677927,0.9019623398780823,0.10983888059854507
1788957742966579200,3.7495791015625,0.06869464367628098,1.00577974319458,-0.006813164800405502
1788957742976629200,3.759629150390625,0.11461792141199112,1.0217334032058716,-0.11278673261404037
1788957742986679300,3.76967919921875,0.1504422277212143,0.9724958539009094,-0.17988134920597076
1788957742996729000,3.77972900390625,0.16876398026943207,0.9330001473426819,-0.18653765320777893
1788957743006779100,3.789779052734375,0.20002123713493347,0.9207168221473694,-0.1410151720046997
1788957743016829200,3.7998291015625,0.23944002389907837,0.9571643471717834,-0.09427990019321442
1788957743026879200,3.809879150390625,0.28199440240859985,0.9994214773178101,-0.07456211745738983
1788957743036929000,3.819928955078125,0.3314570188522339,1.0487406253814697,-0.06545250862836838
1788957743046980000,3.82997998046875,0.37132108211517334,1.084362506866455,-0.06255844980478287
1788957743057030100,3.840030029296875,0.38713201880455017,1.0938528776168823,-0.0712113305926323
1788957743067080200,3.850080078125,0.38740071654319763,1.0976694822311401,-0.07013487815856934
1788957743077130200,3.860130126953125,0.3760649859905243,1.0849523544311523,-0.025065138936042786
1788957743087180000,3.870179931640625,0.3837013244628906,1.0901072025299072,0.0363345704972744
1788957743097230000,3.88022998046875,0.4103720784187317,1.1107650995254517,0.06338829547166824
1788957743107280100,3.890280029296875,0.45601093769073486,1.1110388040542603,0.025841983035206795
1788957743117330400,3.900330322265625,0.4693374037742615,1.0714938640594482,-0.02768515795469284
1788957743127380200,3.910380126953125,0.45469507575035095,0.9834771752357483,0.0011358382180333138
1788957743137430300,3.92043017578125,0.4461385905742645,0.8735085725784302,0.10393225401639938
1788957743147480300,3.930480224609375,0.4643426239490509,0.8250089287757874,0.20363354682922363
1788957743157530400,3.9405302734375,0.49474209547042847,0.8448433876037598,0.24580523371696472
1788957743167580400,3.950580322265625,0.517642080783844,0.8758974075317383,0.21362653374671936
1788957743177631200,3.96063134765625,0.5095716118812561,0.8625989556312561,0.11120828241109848
1788957743187681300,3.970681396484375,0.4853331446647644,0.7956939339637756,-0.007354319095611572
1788957743197731300,3.9807314453125,0.4811304211616516,0.6839719414710999,-0.09854015707969666
1788957743207781400,3.990781494140625,0.49632400274276733,0.5895772576332092,-0.14742407202720642
1788957743217831200,4.0008310546875,0.516371488571167,0.5404022336006165,-0.14949920773506165
1788957743227881200,4.010881103515625,0.5566776394844055,0.4567340016365051,-0.14649543166160583
1788957743237931300,4.02093115234375,0.6099352836608887,0.3449925482273102,-0.1525631695985794
1788957743247981300,4.030981201171875,0.659008264541626,0.2501227557659149,-0.20423489809036255
1788957743258031000,4.041031005859375,0.6964879631996155,0.2138739377260208,-0.2792385518550873
1788957743268081200,4.0510810546875,0.7284432649612427,0.25289884209632874,-0.3394894003868103
1788957743278131200,4.061131103515625,0.7234498262405396,0.3179585337638855,-0.3830547034740448
1788957743288181200,4.07118115234375,0.6955186128616333,0.38786622881889343,-0.4065096974372864
1788957743298231300,4.081231201171875,0.6222832798957825,0.4326097369194031,-0.4053325951099396
1788957743308281000,4.091281005859375,0.5199998021125793,0.4403797686100006,-0.3907424509525299
1788957743318332200,4.101332275390625,0.44233641028404236,0.42578431963920593,-0.3761214315891266
1788957743328382200,4.11138232421875,0.3909986615180969,0.4397507309913635,-0.35795068740844727
1788957743338432300,4.121432373046875,0.3464202582836151,0.4558769762516022,-0.3278745412826538
1788957743348482000,4.13148193359375,0.2953624129295349,0.4663786292076111,-0.3082113564014435
1788957743358532000,4.141531982421875,0.23567430675029755,0.4811221659183502,-0.3066803216934204
1788957743368582100,4.15158203125,0.1958422064781189,0.4695320725440979,-0.2989339828491211
1788957743378632200,4.161632080078125,0.19768698513507843,0.34682798385620117,-0.2800401747226715
1788957743388682200,4.17168212890625,0.21694828569889069,0.1314416527748108,-0.2642979621887207
1788957743398732300,4.181732177734375,0.21002860367298126,-0.0830749124288559,-0.22865155339241028
1788957743408782300,4.1917822265625,0.1887747049331665,-0.1728207767009735,-0.20807144045829773
1788957743418832400,4.201832275390625,0.16577379405498505,-0.19263842701911926,-0.1847408264875412
1788957743428882400,4.21188232421875,0.135031059384346,-0.18247953057289124,-0.1711387187242508
1788957743438932200,4.22193212890625,0.10138334333896637,-0.1938331127166748,-0.18753394484519958
1788957743448982300,4.231982177734375,0.06774096190929413,-0.24962128698825836,-0.22230204939842224
1788957743459033300,4.242033447265625,0.021154554560780525,-0.3179111182689667,-0.2829693853855133
1788957743469083400,4.25208349609375,-0.030351780354976654,-0.35389283299446106,-0.3447491228580475
1788957743479133200,4.26213330078125,-0.08503739535808563,-0.34366655349731445,-0.3661670684814453
1788957743489183200,4.272183349609375,-0.15805275738239288,-0.31500375270843506,-0.37620294094085693
1788957743499233300,4.2822333984375,-0.21710887551307678,-0.25301629304885864,-0.3772905468940735
1788957743509283300,4.292283447265625,-0.2515616714954376,-0.15120096504688263,-0.36043888330459595
1788957743519333400,4.30233349609375,-0.2612744867801666,-0.06105909124016762,-0.3136790990829468
1788957743529383200,4.312383056640625,-0.2502455413341522,-0.003498062025755644,-0.22753489017486572
1788957743539433200,4.32243310546875,-0.2579125165939331,0.04340686276555061,-0.1389072835445404
1788957743549483000,4.33248291015625,-0.26440688967704773,0.0971321389079094,-0.09210409224033356
1788957743559533000,4.342532958984375,-0.25713086128234863,0.11830214411020279,-0.10169254243373871
1788957743569583000,4.3525830078125,-0.2681153416633606,0.09868902713060379,-0.13287922739982605
1788957743579633200,4.362633056640625,-0.28436487913131714,0.071149542927742,-0.16484886407852173
1788957743589684200,4.372684326171875,-0.3086073696613312,0.04072719067335129,-0.17759236693382263
1788957743599734000,4.382734130859375,-0.34847328066825867,-0.0049039446748793125,-0.15549291670322418
1788957743609784000,4.3927841796875,-0.39288681745529175,-0.04734434559941292,-0.11778655648231506
1788957743619834000,4.402834228515625,-0.40696775913238525,-0.07677893340587616,-0.09338374435901642
1788957743629884200,4.41288427734375,-0.38450345396995544,-0.16554662585258484,-0.07078336179256439
1788957743639934000,4.422933837890625,-0.3620106875896454,-0.28443092107772827,-0.03231959044933319
1788957743649984000,4.43298388671875,-0.3498344421386719,-0.35273462533950806,0.04601755738258362
1788957743660034300,4.443034423828125,-0.3490472137928009,-0.3812863826751709,0.1365692913532257
1788957743670084400,4.45308447265625,-0.35688915848731995,-0.42208707332611084,0.19499798119068146
1788957743680134100,4.463134033203125,-0.3743770718574524,-0.4677887558937073,0.1938653439283371
1788957743690184200,4.47318408203125,-0.39569592475891113,-0.5228477716445923,0.16565527021884918
1788957743700234200,4.483234130859375,-0.37957048416137695,-0.5893218517303467,0.14278191328048706
1788957743710284300,4.4932841796875,-0.3419325649738312,-0.6271550059318542,0.16209623217582703
1788957743720334000,4.503333984375,-0.30710214376449585,-0.6378031373023987,0.22801798582077026
1788957743730385200,4.51338525390625,-0.2625296115875244,-0.6391069889068604,0.2918888330459595
1788957743740435200,4.523435302734375,-0.19989846646785736,-0.6514025330543518,0.31689831614494324
1788957743750485200,4.5334853515625,-0.1320112943649292,-0.7234666347503662,0.2899801433086395
1788957743760535300,4.543535400390625,-0.05023840442299843,-0.8322902917861938,0.2278163880109787
1788957743770585000,4.553585205078125,-0.009555954486131668,-0.9383426904678345,0.14991305768489838
1788957743780635100,4.56363525390625,-0.0057526943273842335,-1.0203124284744263,0.06571030616760254
1788957743790685200,4.573685302734375,-0.054009173065423965,-1.0073643922805786,0.02310585230588913
1788957743800735200,4.5837353515625,-0.13734960556030273,-0.895126223564148,0.013026053085923195
1788957743810785000,4.593784912109375,-0.23997078835964203,-0.787598729133606,0.031497471034526825
1788957743820835000,4.6038349609375,-0.328086256980896,-0.7331775426864624,0.0387687012553215
1788957743830885000,4.613885009765625,-0.3793196380138397,-0.675519585609436,-0.0017235978739336133
1788957743840935200,4.62393505859375,-0.40552085638046265,-0.625688374042511,-0.08453725278377533
1788957743850985000,4.63398486328125,-0.41284987330436707,-0.5856267213821411,-0.1457340270280838
1788957743861035000,4.644034912109375,-0.41833892464637756,-0.5958862900733948,-0.1798965334892273
1788957743871086000,4.654086181640625,-0.40290483832359314,-0.6405818462371826,-0.19669201970100403
1788957743881136000,4.66413623046875,-0.38794055581092834,-0.7462222576141357,-0.21531976759433746
1788957743891186200,4.674186279296875,-0.4042651951313019,-0.850727379322052,-0.18466810882091522
1788957743901236000,4.684236083984375,-0.46284249424934387,-0.8469829559326172,-0.11402670294046402
1788957743911286000,4.6942861328125,-0.5259745717048645,-0.8462183475494385,-0.02143045701086521
1788957743921336000,4.704336181640625,-0.5535622835159302,-0.8828099370002747,0.03574974089860916
1788957743931386000,4.71438623046875,-0.564419150352478,-0.9198137521743774,0.05580254644155502
1788957743941436200,4.724436279296875,-0.5662609934806824,-0.9002496600151062,0.061953380703926086
1788957743951486200,4.734486328125,-0.56367427110672,-0.8418515920639038,0.049671415239572525
1788957743961536300,4.744536376953125,-0.5650029182434082,-0.7519019842147827,0.03350096940994263
1788957743971586300,4.75458642578125,-0.5563694834709167,-0.6676446199417114,0.03749890625476837
1788957743981636000,4.764635986328125,-0.5351446270942688,-0.6158802509307861,0.05777008831501007
1788957743991686100,4.77468603515625,-0.5185616612434387,-0.5576640367507935,0.06240851804614067
1788957744001737200,4.7847373046875,-0.5155631899833679,-0.5408704280853271,0.01197170838713646
1788957744011787300,4.794787353515625,-0.5220754146575928,-0.5761194825172424,-0.05293458700180054
1788957744021837300,4.80483740234375,-0.5262912511825562,-0.5939972996711731,-0.1068958267569542
1788957744031887000,4.81488720703125,-0.5302937030792236,-0.5355616807937622,-0.13004668056964874
1788957744041937200,4.824937255859375,-0.5232323408126831,-0.4293939769268036,-0.12510758638381958
1788957744051987200,4.8349873046875,-0.47120532393455505,-0.3353172838687897,-0.12136717140674591
1788957744062037200,4.845037353515625,-0.3985918462276459,-0.2884296774864197,-0.1598820686340332
1788957744072087000,4.855087158203125,-0.3295547366142273,-0.32752513885498047,-0.22963745892047882
1788957744082137000,4.86513720703125,-0.28854870796203613,-0.3665388524532318,-0.27699005603790283
1788957744092187100,4.875187255859375,-0.29310670495033264,-0.35452187061309814,-0.27633705735206604
1788957744102237200,4.8852373046875,-0.32696452736854553,-0.2746952176094055,-0.2513999938964844
1788957744112287000,4.895286865234375,-0.35215193033218384,-0.13258600234985352,-0.24432851374149323
1788957744122337000,4.9053369140625,-0.3620159924030304,-0.07246381044387817,-0.2205592691898346
1788957744132387000,4.915386962890625,-0.3792051076889038,-0.09507964551448822,-0.15588706731796265
1788957744142438100,4.925438232421875,-0.37603434920310974,-0.15400367975234985,-0.06676331907510757
1788957744152488200,4.93548828125,-0.3423349857330322,-0.26813051104545593,-0.009784986265003681
1788957744162538000,4.9455380859375,-0.25620487332344055,-0.37803998589515686,-0.03340908885002136
1788957744172588000,4.955588134765625,-0.1610485464334488,-0.49556073546409607,-0.09042124450206757
1788957744182638000,4.96563818359375,-0.07340550422668457,-0.6273563504219055,-0.11890587955713272
1788957744192688000,4.975688232421875,-0.0049313753843307495,-0.7165658473968506,-0.13140861690044403
1788957744202738000,4.985738037109375,-0.016562465578317642,-0.8043361902236938,-0.139779731631279
1788957744212788200,4.995788330078125,-0.144859179854393,-0.8349923491477966,-0.14065085351467133
1788957744222838300,5.00583837890625,-0.3056235611438751,-0.7826801538467407,-0.13552826642990112
1788957744232888300,5.015888427734375,-0.43066057562828064,-0.6991836428642273,-0.2124909609556198
1788957744242938400,5.0259384765625,-0.4666966199874878,-0.582653820514679,-0.44650799036026
1788957744252988200,5.03598828125,-0.4488164186477661,-0.5281932353973389,-0.6681021451950073
1788957744263038200,5.0460380859375,-0.42194271087646484,-0.5490338206291199,-0.7216335535049438
1788957744273089300,5.05608935546875,-0.41633251309394836,-0.597655177116394,-0.6009412407875061
1788957744283139300,5.066139404296875,-0.44428396224975586,-0.6829268932342529,-0.39327430725097656
1788957744293189000,5.076189208984375,-0.5104550123214722,-0.7819927930831909,-0.2093883752822876
1788957744303239200,5.0862392578125,-0.5981078743934631,-0.890778660774231,-0.08537828177213669
1788957744313289200,5.096289306640625,-0.6132529973983765,-0.9395278096199036,0.006372145377099514
1788957744323339300,5.10633935546875,-0.7038598656654358,-1.0254546403884888,-0.012717925943434238
1788957744333389300,5.116389404296875,-0.7607939839363098,-1.0788843631744385,-0.10244861245155334
1788957744343439000,5.126439208984375,-0.8001110553741455,-1.087893009185791,-0.1861797273159027
1788957744353489200,5.1364892578125,-0.8279546499252319,-1.0512479543685913,-0.22247861325740814
1788957744363539200,5.146539306640625,-0.8569623827934265,-1.0152076482772827,-0.21501430869102478
1788957744373589200,5.15658935546875,-0.8859298229217529,-1.045382022857666,-0.17914631962776184
1788957744383639000,5.16663916015625,-0.9024944305419922,-1.1473369598388672,-0.11734553426504135
1788957744393689000,5.176689208984375,-0.9012584686279297,-1.2558798789978027,-0.02382410690188408
1788957744403739100,5.1867392578125,-0.9046270847320557,-1.3750592470169067,0.056822001934051514
1788957744413790200,5.196790283203125,-0.9132091403007507,-1.4814454317092896,0.08566377311944962
1788957744423840000,5.206840087890625,-0.9069229960441589,-1.5184478759765625,0.05335936322808266
1788957744433890000,5.21689013671875,-0.8674261569976807,-1.445542812347412,-0.013904630206525326
1788957744443940000,5.226940185546875,-0.8473882675170898,-1.32242751121521,-0.10141556710004807
1788957744453990100,5.236990234375,-0.8632404804229736,-1.2266876697540283,-0.20955349504947662
1788957744464040200,5.247040283203125,-0.8439773321151733,-1.128159999847412,-0.2952803671360016
1788957744474090000,5.257090087890625,-0.785290539264679,-1.0033544301986694,-0.3202880024909973
1788957744484140000,5.26714013671875,-0.7484630346298218,-0.8103583455085754,-0.3007633090019226
1788957744494190300,5.2771904296875,-0.7189006209373474,-0.5790058374404907,-0.2558746635913849
1788957744504240400,5.287240478515625,-0.6528621912002563,-0.3106561303138733,-0.22394920885562897
1788957744514290200,5.297290283203125,-0.5956031680107117,-0.04561835154891014,-0.2130424976348877
1788957744524340200,5.30734033203125,-0.5905793905258179,0.20725971460342407,-0.2366066873073578
1788957744534390300,5.317390380859375,-0.5667792558670044,0.4255092144012451,-0.26889991760253906
1788957744544441300,5.32744140625,-0.5625213980674744,0.5736624598503113,-0.3034520149230957
1788957744554491400,5.337491455078125,-0.5585799217224121,0.6548529267311096,-0.31571027636528015
1788957744564541400,5.34754150390625,-0.5663478374481201,0.680151104927063,-0.26087552309036255
1788957744574591500,5.357591552734375,-0.5203036665916443,0.7219861745834351,-0.08804889768362045
1788957744584641500,5.3676416015625,-0.4146113097667694,0.7034785151481628,0.17072540521621704
1788957744594691300,5.37769140625,-0.30216971039772034,0.5405609607696533,0.4087190628051758
1788957744604741400,5.387741455078125,-0.22373509407043457,0.3020365536212921,0.6334818601608276
1788957744614791400,5.39779150390625,-0.20293927192687988,0.000010918960470007733,0.8242603540420532
1788957744624841500,5.407841552734375,-0.20614518225193024,-0.27521371841430664,0.9154938459396362
1788957744634891300,5.417891357421875,-0.10598529130220413,-0.4572453200817108,0.8968141674995422
1788957744644941300,5.42794140625,0.032033033668994904,-0.5982330441474915,0.7736802697181702
1788957744654991400,5.437991455078125,0.10377806425094604,-0.7802068591117859,0.620674729347229
1788957744665041400,5.44804150390625,0.11185915768146515,-0.9798371195793152,0.5250669717788696
1788957744675092500,5.458092529296875,0.09979050606489182,-1.146399974822998,0.4756333827972412
1788957744685142300,5.468142333984375,0.0807073637843132,-1.2104929685592651,0.42979690432548523
1788957744695192300,5.4781923828125,0.0621589794754982,-1.2389261722564697,0.4052090048789978
1788957744705242400,5.488242431640625,0.07235036045312881,-1.288649082183838,0.4093049466609955
1788957744715292400,5.49829248046875,0.1429784595966339,-1.3533124923706055,0.4133841097354889
1788957744725342200,5.50834228515625,0.24111807346343994,-1.4205458164215088,0.40025845170021057
1788957744735392300,5.518392333984375,0.3220113217830658,-1.4794381856918335,0.3566175103187561
1788957744745442300,5.5284423828125,0.33952268958091736,-1.4849213361740112,0.30305016040802
1788957744755492400,5.538492431640625,0.29855525493621826,-1.394806146621704,0.22988086938858032
1788957744765542100,5.548542236328125,0.2244006097316742,-1.2566828727722168,0.1454448103904724
1788957744775592400,5.558592529296875,0.19013851881027222,-1.1168186664581299,0.08629680424928665
1788957744785642500,5.568642578125,0.1506265252828598,-1.0090656280517578,0.048102013766765594
1788957744795692500,5.578692626953125,0.1347855180501938,-0.9338430166244507,0.03610314428806305
1788957744805742300,5.588742431640625,0.15013037621974945,-0.9171820282936096,0.08372845500707626
1788957744815793200,5.598793212890625,0.19542649388313293,-0.9352251887321472,0.1877986639738083
1788957744825843500,5.608843505859375,0.23185400664806366,-0.983734667301178,0.29594695568084717
1788957744835893500,5.6188935546875,0.23929700255393982,-0.9617670774459839,0.346909761428833
1788957744845943600,5.628943603515625,0.23135866224765778,-0.8296180963516235,0.32711154222488403
1788957744855993300,5.638993408203125,0.22172467410564423,-0.639135479927063,0.27313193678855896
1788957744866043400,5.64904345703125,0.22109536826610565,-0.4458589553833008,0.22594764828681946
1788957744876093400,5.659093505859375,0.22454841434955597,-0.24437165260314941,0.19905024766921997
1788957744886143500,5.6691435546875,0.23235493898391724,-0.05643637850880623,0.18577545881271362
1788957744896193300,5.679193359375,0.22266343235969543,0.08308929204940796,0.1831655651330948
1788957744906243300,5.689243408203125,0.18774060904979706,0.1416117250919342,0.19687524437904358
1788957744916293400,5.69929345703125,0.1265060156583786,0.11490288376808167,0.23687832057476044
1788957744926343400,5.709343505859375,0.06834124028682709,0.048651427030563354,0.29083317518234253
1788957744936393200,5.719393310546875,0.06850289553403854,0.02592294290661812,0.33177608251571655
1788957744946443300,5.729443359375,0.0771685540676117,0.0034961977507919073,0.36105939745903015
1788957744956494300,5.739494384765625,0.1287286877632141,0.029533125460147858,0.3583003580570221
1788957744966544400,5.74954443359375,0.1900397092103958,0.13834695518016815,0.3209410011768341
1788957744976594400,5.759594482421875,0.1970648616552353,0.2512250244617462,0.3082502484321594
1788957744986644200,5.769644287109375,0.15496161580085754,0.3750372529029846,0.3842339515686035
1788957744996694300,5.7796943359375,0.004165183752775192,0.5263932347297668,0.485321968793869
1788957745006744300,5.789744384765625,-0.13545610010623932,0.7111074328422546,0.5574232935905457
1788957745016794400,5.79979443359375,-0.22998046875,0.8593474626541138,0.5829494595527649
1788957745026844200,5.80984423828125,-0.30230847001075745,0.8885394334793091,0.6208571195602417
1788957745036894200,5.819894287109375,-0.32654163241386414,0.7694184184074402,0.7833102345466614
1788957745046944300,5.8299443359375,-0.2633804976940155,0.5652971863746643,1.0484257936477661
1788957745056994600,5.83999462890625,-0.13406725227832794,0.35042911767959595,1.3320585489273071
1788957745067044400,5.85004443359375,-0.02895122393965721,0.16556739807128906,1.5523496866226196
1788957745077094400,5.860094482421875,0.018280204385519028,0.002213885774835944,1.6317390203475952
1788957745087145200,5.870145263671875,0.08520863950252533,-0.12731507420539856,1.6060733795166016
1788957745097195300,5.8801953125,0.18397942185401917,-0.17086336016654968,1.547623634338379
1788957745107245600,5.89024560546875,0.2306944578886032,-0.22580303251743317,1.477152705192566
1788957745117295400,5.90029541015625,0.1682278960943222,-0.3162194788455963,1.469767689704895
1788957745127345400,5.910345458984375,0.06036347523331642,-0.5299946069717407,1.5362186431884766
1788957745137395500,5.9203955078125,0.0018759306985884905,-0.8670431971549988,1.6527023315429688
1788957745147445500,5.930445556640625,-0.017240239307284355,-1.147741436958313,1.74793541431427
1788957745157495300,5.940495361328125,0.06671138852834702,-1.2148818969726562,1.746977686882019
1788957745167545300,5.95054541015625,0.14422056078910828,-1.1622083187103271,1.6013484001159668
1788957745177595400,5.960595458984375,0.08987103402614594,-1.1267480850219727,1.436586856842041
1788957745187645400,5.9706455078125,0.06709621101617813,-1.073380470275879,1.2854751348495483
1788957745197695200,5.9806953125,0.1526513248682022,-0.8405780792236328,1.1433565616607666
1788957745207745300,5.990745361328125,0.26180151104927063,-0.4244050681591034,1.0242801904678345
1788957745217795300,6.00079541015625,0.27588164806365967,-0.044626858085393906,0.9528236389160156
1788957745227846400,6.010846435546875,0.2140933871269226,0.13823696970939636,0.9221711754798889
1788957745237896400,6.020896484375,0.12105345726013184,0.06807652115821838,0.8373274207115173
1788957745247946200,6.0309462890625,0.10295887291431427,-0.23638483881950378,0.7008851170539856
1788957745257996300,6.040996337890625,0.1115797907114029,-0.7090181708335876,0.47432470321655273
1788957745268046300,6.05104638671875,0.1291273534297943,-1.2155191898345947,0.1710423231124878
1788957745278096400,6.061096435546875,0.1319226175546646,-1.61739981174469,-0.17882753908634186
1788957745288146200,6.071146240234375,0.07854753732681274,-1.902374505996704,-0.546858549118042
1788957745298196200,6.0811962890625,-0.0978061854839325,-2.0369253158569336,-0.8889570236206055
1788957745308246300,6.091246337890625,-0.25052809715270996,-1.9551924467086792,-1.1121962070465088
1788957745318296300,6.10129638671875,-0.2605349123477936,-1.664239764213562,-1.14310622215271
1788957745328346400,6.111346435546875,-0.17881502211093903,-1.2272865772247314,-1.0207453966140747
1788957745338396400,6.121396484375,-0.016826916486024857,-0.7844663262367249,-0.9108791351318359
1788957745348446500,6.131446533203125,0.34424418210983276,-0.3917589783668518,-0.8711599111557007
1788957745358496500,6.14149658203125,0.5180348753929138,0.031205322593450546,-1.125634789466858
1788957745368547300,6.15154736328125,0.4806172251701355,0.7046500444412231,-1.4091581106185913
1788957745378597400,6.161597412109375,0.34960994124412537,1.4109456539154053,-1.4768407344818115
1788957745388647400,6.1716474609375,0.23315362632274628,1.8441357612609863,-1.3662914037704468
1788957745398697500,6.181697509765625,0.0750710517168045,1.9811806678771973,-1.1654884815216064
1788957745408747500,6.19174755859375,-0.08691012859344482,1.9925047159194946,-1.006229043006897
1788957745418797300,6.20179736328125,-0.2569156885147095,2.0026121139526367,-0.9063469767570496
1788957745428847400,6.211847412109375,-0.4037567973136902,2.0158488750457764,-0.810526967048645
1788957745438897400,6.2218974609375,-0.48207715153694153,2.025550127029419,-0.6986659169197083
1788957745448947500,6.231947509765625,-0.4934256970882416,1.9765172004699707,-0.5763538479804993
1788957745458997500,6.24199755859375,-0.4527967572212219,1.8938521146774292,-0.45110300183296204
1788957745469047300,6.25204736328125,-0.3312562108039856,1.7863701581954956,-0.3203015923500061
1788957745479097300,6.262097412109375,-0.1414514034986496,1.628692865371704,-0.17337365448474884
1788957745489147400,6.2721474609375,0.12367187440395355,1.4514659643173218,0.04151654988527298
1788957745499197400,6.282197509765625,0.44956156611442566,1.3773645162582397,0.26525405049324036
1788957745509248300,6.292248291015625,0.7718831300735474,1.4390408992767334,0.3869517147541046
1788957745519298300,6.30229833984375,1.0082978010177612,1.589909315109253,0.4022827446460724
1788957745529348400,6.312348388671875,1.1879565715789795,1.6407448053359985,0.2924472987651825
1788957745539398400,6.3223984375,1.3191419839859009,1.3079668283462524,0.0788029357790947
1788957745549448400,6.332448486328125,1.2692832946777344,0.5658943057060242,-0.1763172447681427
1788957745559498200,6.342498291015625,0.9985370635986328,-0.2805964946746826,-0.40704551339149475
1788957745569548300,6.35254833984375,0.5700056552886963,-0.8977449536323547,-0.5597091317176819
1788957745579598300,6.362598388671875,0.4336166977882385,-1.4513620138168335,-0.5635398030281067
1788957745589648400,6.3726484375,0.312844455242157,-1.771993637084961,-0.5438371896743774
1788957745599698400,6.382698486328125,0.06635238975286484,-1.8250192403793335,-0.6141382455825806
1788957745609748500,6.39274853515625,-0.19430795311927795,-1.4702467918395996,-0.681571900844574
1788957745619798500,6.402798583984375,-0.15039695799350739,-0.8316788077354431,-0.651987612247467
1788957745629848600,6.4128486328125,0.21521563827991486,-0.2767043113708496,-0.6184105277061462
1788957745639899100,6.422899169921875,0.493139386177063,0.009827064350247383,-0.6144876480102539
1788957745649949400,6.432949462890625,0.552918553352356,0.2737407386302948,-0.5796308517456055
1788957745659999500,6.44299951171875,0.5240472555160522,0.6950448155403137,-0.4451550841331482
1788957745670049500,6.453049560546875,0.4889792799949646,1.0947074890136719,-0.21327951550483704
1788957745680099600,6.463099609375,0.45600348711013794,1.2735580205917358,0.12305029481649399
1788957745690149400,6.4731494140625,0.43865910172462463,1.3056565523147583,0.49844202399253845
1788957745700199400,6.483199462890625,0.3941238820552826,1.2999144792556763,0.6996462345123291
1788957745710249500,6.49324951171875,0.2627682387828827,0.9941734671592712,0.6251254081726074
1788957745720299500,6.503299560546875,0.33837246894836426,0.27947211265563965,0.3613606095314026
1788957745730349300,6.513349365234375,0.5981299877166748,-0.511061429977417,0.06654467433691025
1788957745740399400,6.5233994140625,0.7374362349510193,-1.16438889503479,-0.20402264595031738
1788957745750449400,6.533449462890625,0.6576950550079346,-1.5273841619491577,-0.38655197620391846
1788957745760499500,6.54349951171875,0.38640788197517395,-1.624375343322754,-0.4336438477039337
1788957745770549200,6.55354931640625,-0.03190600126981735,-1.530579686164856,-0.4453103542327881
1788957745780600300,6.563600341796875,-0.42959052324295044,-1.4354344606399536,-0.43986526131629944
1788957745790650400,6.573650390625,-0.5598853826522827,-1.4898951053619385,-0.3973172605037689
1788957745800700400,6.583700439453125,-0.6293108463287354,-1.403038740158081,-0.43417888879776
1788957745810750500,6.59375048828125,-0.7752227783203125,-1.0603748559951782,-0.6348286271095276
1788957745820800300,6.60380029296875,-0.823453426361084,-0.6346060037612915,-0.8463376760482788
1788957745830850300,6.613850341796875,-0.5814868211746216,-0.3582742512226105,-0.9047983288764954
1788957745840900400,6.623900390625,-0.19066715240478516,-0.41574233770370483,-0.8180850148200989
1788957745850950400,6.633950439453125,0.16296255588531494,-0.6740505695343018,-0.6888481974601746
1788957745861000200,6.644000244140625,0.2831273078918457,-0.895857572555542,-0.5939134359359741
1788957745871050200,6.65405029296875,0.15605032444000244,-0.9675165414810181,-0.5376943349838257
1788957745881100500,6.6641005859375,-0.0775696262717247,-0.9409049153327942,-0.464890718460083
1788957745891150600,6.674150634765625,-0.30932164192199707,-0.9094383716583252,-0.3788088262081146
1788957745901200400,6.684200439453125,-0.39862939715385437,-0.8891109824180603,-0.2864799499511719
1788957745911250400,6.69425048828125,-0.43058785796165466,-0.8861045241355896,-0.21099665760993958
1788957745921301200,6.70430126953125,-0.46256816387176514,-0.8626340627670288,-0.17309615015983582
1788957745931351300,6.714351318359375,-0.48867514729499817,-0.794393002986908,-0.1630680114030838
1788957745941401600,6.724401611328125,-0.5025312900543213,-0.7036686539649963,-0.14475639164447784
1788957745951451400,6.734451416015625,-0.5200703740119934,-0.6341851949691772,-0.11082744598388672
1788957745961501400,6.74450146484375,-0.531308650970459,-0.6050334572792053,-0.09284551441669464
1788957745971551500,6.754551513671875,-0.5474894642829895,-0.6132810115814209,-0.07870972901582718
1788957745981601500,6.7646015625,-0.5526589155197144,-0.6646440625190735,-0.06148386746644974
1788957745991651300,6.7746513671875,-0.543047308921814,-0.7557126879692078,-0.03706108033657074
1788957746001701400,6.784701416015625,-0.5262084007263184,-0.8558313250541687,-0.014152304269373417
1788957746011751400,6.79475146484375,-0.5189928412437439,-0.9650768637657166,-0.024539165198802948
1788957746021801500,6.804801513671875,-0.5243838429450989,-1.0886651277542114,-0.08746939152479172
1788957746031851300,6.814851318359375,-0.5200431942939758,-1.1472855806350708,-0.16343553364276886
1788957746041901300,6.8249013671875,-0.5152364373207092,-1.1867355108261108,-0.20679952204227448
1788957746051951400,6.834951416015625,-0.5180519223213196,-1.2875920534133911,-0.20387350022792816
1788957746062002400,6.84500244140625,-0.5173893570899963,-1.4094101190567017,-0.1675274819135666
1788957746072052500,6.855052490234375,-0.5217321515083313,-1.4525799751281738,-0.13416312634944916
1788957746082102300,6.865102294921875,-0.524883508682251,-1.37092125415802,-0.10549367219209671
1788957746092152300,6.87515234375,-0.5167278051376343,-1.1737620830535889,-0.05784465745091438
1788957746102202400,6.885202392578125,-0.49440625309944153,-0.9754522442817688,-0.009400958195328712
1788957746112252400,6.89525244140625,-0.47047269344329834,-0.885995626449585,0.02533518336713314
1788957746122302200,6.90530224609375,-0.4697374105453491,-0.8547047972679138,0.06456700712442398
1788957746132352300,6.915352294921875,-0.4696851968765259,-0.8008298277854919,0.1121923178434372
1788957746142402300,6.92540234375,-0.4713728427886963,-0.7164425253868103,0.159333735704422
1788957746152452400,6.935452392578125,-0.49530029296875,-0.6555618643760681,0.18689292669296265
1788957746162502400,6.94550244140625,-0.5312143564224243,-0.6392974257469177,0.21089865267276764
1788957746172552400,6.955552490234375,-0.5676360130310059,-0.6613683700561523,0.24670645594596863
1788957746182602500,6.9656025390625,-0.5666908621788025,-0.6739123463630676,0.284155011177063
1788957746192653300,6.9756533203125,-0.5231793522834778,-0.6356789469718933,0.3103482723236084
1788957746202703400,6.985703369140625,-0.4544830918312073,-0.5920206904411316,0.34217625856399536
1788957746212753400,6.99575341796875,-0.3969614803791046,-0.5970079898834229,0.39928242564201355
1788957746222803500,7.005803466796875,-0.3417450785636902,-0.5945442914962769,0.47885847091674805
1788957746232853500,7.015853515625,-0.2910808324813843,-0.5417484641075134,0.520935595035553
1788957746242903600,7.025903564453125,-0.23931218683719635,-0.5185707211494446,0.43977123498916626
1788957746252953300,7.035953369140625,-0.17726773023605347,-0.5967933535575867,0.28939852118492126
1788957746263003400,7.04600341796875,-0.13322463631629944,-0.7438541650772095,0.18097618222236633
1788957746273053400,7.056053466796875,-0.15367504954338074,-0.8208818435668945,0.18367528915405273
1788957746283103500,7.066103515625,-0.22519956529140472,-0.7920211553573608,0.2631149888038635
1788957746293153300,7.0761533203125,-0.3098020553588867,-0.6711770296096802,0.3221229016780853
1788957746303203300,7.086203369140625,-0.37590545415878296,-0.555382251739502,0.3447163701057434
1788957746313253400,7.09625341796875,-0.39786481857299805,-0.49163684248924255,0.3616953492164612
1788957746323303400,7.106303466796875,-0.38850727677345276,-0.4737587869167328,0.4088841676712036
1788957746333354500,7.1163544921875,-0.3717477321624756,-0.4947969615459442,0.4688873291015625
1788957746343404300,7.126404296875,-0.32204729318618774,-0.5730238556861877,0.49878397583961487
1788957746353454300,7.136454345703125,-0.27489495277404785,-0.6836374402046204,0.5105538368225098
1788957746363504400,7.14650439453125,-0.24413277208805084,-0.7558367848396301,0.5328263640403748
1788957746373554400,7.156554443359375,-0.22637322545051575,-0.8010777831077576,0.5904598236083984
1788957746383604200,7.166604248046875,-0.1725587248802185,-0.8026250600814819,0.6637740135192871
1788957746393654300,7.176654296875,-0.14426583051681519,-0.820249080657959,0.7228388786315918
1788957746403704300,7.186704345703125,-0.1424333155155182,-0.8130601644515991,0.7555313110351562
1788957746413754400,7.19675439453125,-0.12072162330150604,-0.7104852795600891,0.767565906047821
1788957746423804200,7.20680419921875,-0.0662919357419014,-0.5693771839141846,0.7778574228286743
1788957746433854500,7.2168544921875,-0.01756913959980011,-0.49360039830207825,0.7748360633850098
1788957746443904500,7.226904541015625,0.012502209283411503,-0.4363144636154175,0.7212327718734741
1788957746453954600,7.23695458984375,0.03802274912595749,-0.3784141540527344,0.6103041172027588
1788957746464005400,7.24700537109375,0.08307171612977982,-0.2936140298843384,0.4751950204372406
1788957746474055200,7.25705517578125,0.1242910623550415,-0.21190160512924194,0.37142229080200195
1788957746484105500,7.26710546875,0.13953286409378052,-0.15913905203342438,0.3145419657230377
1788957746494155500,7.277155517578125,0.13292023539543152,-0.09112325310707092,0.28676626086235046
1788957746504205600,7.28720556640625,0.11820520460605621,-0.022640597075223923,0.2645605504512787
1788957746514255400,7.29725537109375,0.12098634243011475,0.09594517201185226,0.23512117564678192
1788957746524305400,7.307305419921875,0.14301282167434692,0.2024332582950592,0.19705048203468323
1788957746534355500,7.31735546875,0.17070436477661133,0.2631400227546692,0.14366768300533295
1788957746544405500,7.327405517578125,0.17366419732570648,0.2662748396396637,0.07432936131954193
1788957746554454800,7.337454833984375,0.1557014435529709,0.2584669589996338,0.018496718257665634
1788957746564504800,7.3475048828125,0.13677915930747986,0.2949061989784241,-0.025800971314311028
1788957746574554600,7.3575546875,0.14500460028648376,0.36082690954208374,-0.05048474669456482
1788957746584604700,7.367604736328125,0.16054867208003998,0.4172464907169342,-0.0788109228014946
1788957746594654700,7.37765478515625,0.16984683275222778,0.4315333068370819,-0.1318720132112503
1788957746604705800,7.387705810546875,0.15771958231925964,0.3833383321762085,-0.18876831233501434
1788957746614755800,7.397755859375,0.13699060678482056,0.31594306230545044,-0.244735985994339
1788957746624805600,7.4078056640625,0.1385144740343094,0.28103992342948914,-0.26628920435905457
1788957746634855700,7.417855712890625,0.14392973482608795,0.2806961238384247,-0.2550338804721832
1788957746644905700,7.42790576171875,0.13110129535198212,0.2924603521823883,-0.22491221129894257
1788957746654955800,7.437955810546875,0.13162806630134583,0.33703553676605225,-0.17654547095298767
1788957746665005600,7.448005615234375,0.1555941253900528,0.3898414969444275,-0.1277712732553482
1788957746675055600,7.4580556640625,0.1836710274219513,0.38651975989341736,-0.08917887508869171
1788957746685106000,7.46810595703125,0.22278434038162231,0.30571916699409485,-0.08709362149238586
1788957746695156000,7.478156005859375,0.23082469403743744,0.1863728016614914,-0.1351141482591629
1788957746705205800,7.488205810546875,0.22899429500102997,0.09184097498655319,-0.1994159072637558
1788957746715255800,7.498255859375,0.23415178060531616,0.012688098475337029,-0.2549513280391693
1788957746725305900,7.508305908203125,0.23015783727169037,-0.07119934260845184,-0.28999054431915283
1788957746735356000,7.51835595703125,0.21610219776630402,-0.13148611783981323,-0.2615189552307129
1788957746745407000,7.528406982421875,0.19641505181789398,-0.12046436220407486,-0.1699906289577484
1788957746755456800,7.538456787109375,0.17147667706012726,-0.0976027250289917,-0.09597952663898468
1788957746765506800,7.5485068359375,0.157841295003891,-0.11690717935562134,-0.11346770823001862
1788957746775556900,7.558556884765625,0.14281600713729858,-0.1518598347902298,-0.17744934558868408
1788957746785607000,7.56860693359375,0.11452711373567581,-0.1844015270471573,-0.2055925726890564
1788957746795656700,7.57865673828125,0.08074464648962021,-0.25367939472198486,-0.17524345219135284
1788957746805706800,7.588706787109375,0.03611486032605171,-0.3563472032546997,-0.11973172426223755
1788957746815756800,7.5987568359375,-0.002296976512297988,-0.4288158118724823,-0.08348264545202255
1788957746825806800,7.608806884765625,-0.01943308673799038,-0.4147889316082001,-0.06524238735437393
1788957746835856600,7.618856689453125,-0.027119236066937447,-0.33136114478111267,-0.06764908134937286
1788957746845906700,7.62890673828125,-0.04837978258728981,-0.2578161060810089,-0.09483622759580612
1788957746855956700,7.638956787109375,-0.07368727028369904,-0.19231458008289337,-0.10822980105876923
1788957746866006800,7.6490068359375,-0.10227017849683762,-0.12039192765951157,-0.07394106686115265
1788957746876056600,7.659056640625,-0.1164027750492096,-0.06320187449455261,-0.005092496518045664
1788957746886107600,7.669107666015625,-0.12051123380661011,-0.01871030405163765,0.05643318220973015
1788957746896157700,7.67915771484375,-0.12075704336166382,0.039270706474781036,0.09889914840459824
1788957746906207700,7.689207763671875,-0.10286059975624084,0.11706963181495667,0.10991345345973969
1788957746916257800,7.6992578125,-0.07523536682128906,0.1712638884782791,0.075595423579216
1788957746926307600,7.7093076171875,-0.053707703948020935,0.18059295415878296,0.016464726999402046
1788957746936357600,7.719357666015625,-0.052864812314510345,0.11709386855363846,-0.03496277704834938
1788957746946407700,7.72940771484375,-0.04243214428424835,0.02155083231627941,-0.03870745003223419
1788957746956457700,7.739457763671875,-0.03534041345119476,-0.03152197226881981,0.027668911963701248
1788957746966507800,7.7495078125,-0.026064889505505562,-0.03099733032286167,0.14131371676921844
1788957746976557800,7.759557861328125,-0.023500265553593636,0.024402013048529625,0.2688823342323303
1788957746986607900,7.76960791015625,0.01188275869935751,0.13985857367515564,0.363797128200531
1788957746996658000,7.779657958984375,0.044256143271923065,0.2735590934753418,0.3911097049713135
1788957747006708000,7.7897080078125,0.06945071369409561,0.3331073820590973,0.3457733690738678
1788957747016757800,7.7997578125,0.09207799285650253,0.2942473292350769,0.26701200008392334
1788957747026808800,7.809808837890625,0.11407623440027237,0.20709805190563202,0.19312818348407745
1788957747036859000,7.81985888671875,0.1411491334438324,0.1255294233560562,0.13335059583187103
1788957747046909000,7.829908935546875,0.16895253956317902,0.07026510685682297,0.08768165111541748
1788957747056958700,7.839958740234375,0.1873326152563095,0.015235678292810917,0.06440535187721252
1788957747067008800,7.8500087890625,0.1864718794822693,-0.0423453263938427,0.08285094052553177
1788957747077058800,7.860058837890625,0.17495636641979218,-0.05079101026058197,0.16849394142627716
1788957747087108900,7.87010888671875,0.15675686299800873,0.010035323910415173,0.2775879502296448
1788957747097158700,7.88015869140625,0.15266278386116028,0.09088090062141418,0.32402387261390686
1788957747107208700,7.890208740234375,0.17121756076812744,0.15196822583675385,0.22370553016662598
1788957747117258800,7.9002587890625,0.21321693062782288,0.13929344713687897,-0.05174761638045311
1788957747127308800,7.910308837890625,0.24514371156692505,0.016631973907351494,-0.4062436521053314
1788957747137358800,7.92035888671875,0.22284665703773499,-0.10159533470869064,-0.7502713203430176
1788957747147408600,7.93040869140625,0.15816593170166016,-0.1556846648454666,-0.883906900882721
1788957747157458700,7.940458740234375,0.10064511746168137,-0.16801750659942627,-0.7391347885131836
1788957747167509800,7.950509765625,0.052555352449417114,-0.1791606992483139,-0.41994374990463257
1788957747177559800,7.960559814453125,-0.004878112114965916,-0.2270328849554062,-0.08444058150053024
1788957747187609600,7.970609619140625,-0.057607635855674744,-0.3305760622024536,0.12442554533481598
1788957747197659600,7.98065966796875,-0.09613798558712006,-0.41875624656677246,0.15865088999271393
1788957747207709700,7.990709716796875,-0.10740768164396286,-0.3963678479194641,0.09042417258024216
1788957747217759700,8.000759765625,-0.10754110664129257,-0.2250882387161255,0.011654258705675602
1788957747227809800,8.010809814453125,-0.1134200319647789,0.0029646309558302164,-0.016258863732218742
1788957747237859800,8.02085986328125,-0.10123766958713531,0.16773387789726257,-0.007500526960939169
1788957747247910000,8.030909912109376,-0.061157628893852234,0.2696322798728943,0.021496769040822983
1788957747257960000,8.0409599609375,-0.00968325324356556,0.38066479563713074,0.11980336904525757
1788957747268010000,8.051010009765625,0.04192321375012398,0.49440041184425354,0.21583110094070435
1788957747278059800,8.061059814453126,0.08929046243429184,0.5601360201835632,0.24041500687599182
1788957747288109800,8.07110986328125,0.12579068541526794,0.5647616386413574,0.18016284704208374
1788957747298159900,8.081159912109374,0.1436048299074173,0.4718865752220154,0.12084812670946121
1788957747308211000,8.0912109375,0.14988590776920319,0.3599826693534851,0.10604334622621536
1788957747318260700,8.1012607421875,0.16462942957878113,0.23315975069999695,0.11373908072710037
1788957747328310800,8.111310791015624,0.18526412546634674,0.13396818935871124,0.13758236169815063
1788957747338360800,8.12136083984375,0.18183504045009613,0.13076892495155334,0.14118614792823792
1788957747348411000,8.131410888671875,0.12069445848464966,0.08820708841085434,0.06878358870744705
1788957747358461000,8.1414609375,0.004298075567930937,-0.6288122534751892,-0.1721946746110916
1788957747368510700,8.1515107421875,-0.06987069547176361,-1.5400525331497192,-0.5151123404502869
1788957747378560800,8.161560791015624,-0.10559273511171341,-1.4357831478118896,-0.6931220293045044
1788957747388610800,8.17161083984375,-0.09460080415010452,-0.28018930554389954,-0.6135720610618591
1788957747398660900,8.181660888671875,0.020844828337430954,0.30953043699264526,-0.5889769792556763
1788957747408710700,8.191710693359376,0.10476316511631012,0.3401607573032379,-0.5573697686195374
1788957747418760700,8.2017607421875,0.09313367307186127,0.10505931079387665,-0.4054891765117645
1788957747428810800,8.211810791015624,0.009424926713109016,-0.1568189114332199,-0.18910786509513855
1788957747438860800,8.22186083984375,-0.06232089921832085,-0.270770788192749,-0.006698382552713156
1788957747448912000,8.231911865234375,-0.11708081513643265,-0.21376687288284302,0.14284557104110718
1788957747458961700,8.241961669921874,-0.1570010632276535,-0.29763010144233704,0.21963249146938324
1788957747469011700,8.25201171875,-0.17501682043075562,-0.24433384835720062,0.21565958857536316
1788957747479061800,8.262061767578125,-0.1695280522108078,0.23981525003910065,0.22506481409072876
1788957747489111800,8.27211181640625,-0.1367751657962799,0.009924535639584064,0.10504785925149918
1788957747499161600,8.28216162109375,-0.04663727805018425,-0.14059360325336456,-0.017845842987298965
1788957747509212000,8.2922119140625,0.030311033129692078,-0.01267132069915533,0.0716659277677536
1788957747519262000,8.302261962890626,0.09458376467227936,0.3729197680950165,0.3891586661338806
1788957747529312000,8.31231201171875,0.24494077265262604,0.7768344879150391,0.5798276662826538
1788957747539361800,8.32236181640625,0.42884349822998047,0.9203197360038757,0.12205320596694946
1788957747549411800,8.332411865234375,0.7187709212303162,0.7351400256156921,-1.0625141859054565
1788957747559462400,8.34246240234375,0.9195668697357178,0.24789662659168243,-2.695521831512451
1788957747569512400,8.352512451171876,0.951231062412262,-0.3361378014087677,-4.0919599533081055
1788957747579562200,8.362562255859375,0.9706804156303406,-0.9659141302108765,-4.668026924133301
1788957747589612300,8.3726123046875,0.7836897373199463,-1.48618745803833,-4.118741989135742
1788957747599663400,8.382663330078126,0.15409636497497559,-1.7197312116622925,-2.757169246673584
1788957747609713400,8.39271337890625,-0.40862956643104553,-1.5107694864273071,-1.102304458618164
1788957747619763500,8.402763427734374,-0.9713371396064758,-0.9002512097358704,0.4645005762577057
1788957747629813200,8.412813232421875,-1.2818670272827148,0.1298844963312149,1.7961580753326416
1788957747639863300,8.42286328125,-1.1647262573242188,1.011441946029663,2.8036646842956543
1788957747649913300,8.432913330078126,-0.9608919620513916,1.7427387237548828,3.3895046710968018
1788957747659963400,8.44296337890625,-0.6827276945114136,2.450441837310791,3.6538994312286377
1788957747670013200,8.45301318359375,-0.3753270208835602,3.1536946296691895,3.728530168533325
1788957747680063200,8.463063232421876,-0.21756108105182648,3.4956655502319336,3.415440320968628
1788957747690113300,8.47311328125,-0.42257094383239746,2.596186637878418,2.2223551273345947
1788957747700163300,8.483163330078124,-0.7516061067581177,1.0915231704711914,0.8254950046539307
1788957747710213000,8.493213134765625,-0.7697917819023132,0.3058001399040222,-0.15297304093837738
1788957747720263200,8.50326318359375,-0.4671781063079834,0.5760718584060669,-0.36452123522758484
1788957747730313200,8.513313232421876,-0.24090182781219482,1.0921604633331299,-0.1333141177892685
1788957747740364300,8.5233642578125,-0.15609505772590637,1.315932273864746,0.18867723643779755
1788957747750414300,8.533414306640625,-0.12271632999181747,1.2639216184616089,0.4443606734275818
1788957747760464100,8.543464111328126,0.006798783782869577,1.038191556930542,0.6606245040893555
1788957747770514200,8.55351416015625,0.24344967305660248,0.7426405549049377,0.8432550430297852
1788957747780564200,8.563564208984374,0.3317590355873108,0.4159442186355591,0.9611225724220276
1788957747790614300,8.5736142578125,0.24710913002490997,0.18079428374767303,0.9763033986091614
1788957747800664000,8.5836640625,0.22256436944007874,0.056708551943302155,0.9089877605438232
1788957747810714400,8.59371435546875,0.2477908879518509,-0.0011374361347407103,0.7600323557853699
1788957747820764400,8.603764404296875,0.25425785779953003,0.014512363821268082,0.5760933756828308
1788957747830814500,8.613814453125,0.2650044858455658,0.06514864414930344,0.4370095431804657
1788957747840864300,8.6238642578125,0.2875681221485138,0.062364839017391205,0.3411448001861572
1788957747850914300,8.633914306640625,0.2620377242565155,0.12040284276008606,0.24651816487312317
1788957747860964400,8.64396435546875,0.22838656604290009,-0.04127154126763344,0.19079631567001343
1788957747871014400,8.654014404296875,0.21196897327899933,-0.22136381268501282,0.1948898583650589
1788957747881065500,8.6640654296875,0.1621292531490326,-0.3646085858345032,0.19114919006824493
1788957747891115300,8.674115234375,0.0753709226846695,-0.5854749083518982,0.16315722465515137
1788957747901165300,8.684165283203125,-0.03135845437645912,-0.6890713572502136,0.1412692368030548
1788957747911215400,8.69421533203125,-0.13859835267066956,-0.7302366495132446,0.19236624240875244
1788957747921265400,8.704265380859376,-0.25486478209495544,-0.6973527073860168,0.2679915130138397
1788957747931315200,8.714315185546875,-0.2895098328590393,-0.5134105682373047,0.3128513991832733
1788957747941365200,8.724365234375,-0.295204758644104,-0.33981722593307495,0.28567489981651306
1788957747951415300,8.734415283203125,-0.27205735445022583,-0.19270500540733337,0.16190926730632782
1788957747961465300,8.74446533203125,-0.20636223256587982,0.010877680964767933,-0.016984310001134872
1788957747971515100,8.75451513671875,-0.16128236055374146,0.07400738447904587,-0.1794230192899704
1788957747981565200,8.764565185546875,-0.14351321756839752,0.013579191640019417,-0.20766425132751465
1788957747991615200,8.774615234375,-0.11680038273334503,0.019176358357071877,-0.11564643681049347
1788957748001665300,8.784665283203125,-0.11338088661432266,0.04735526442527771,-0.007713579572737217
1788957748011715000,8.794715087890625,-0.13122619688510895,0.018955048173666,0.08569733053445816
1788957748021766100,8.80476611328125,-0.15663115680217743,-0.0021736719645559788,0.14425571262836456
1788957748031816200,8.814816162109375,-0.1386295109987259,0.05932244658470154,0.1576647311449051
1788957748041866200,8.8248662109375,-0.0813896656036377,0.15346944332122803,0.1557568460702896
1788957748051916300,8.834916259765626,0.013585849665105343,0.25004205107688904,0.1691666543483734
1788957748061966000,8.844966064453125,0.03725789114832878,0.25494974851608276,0.17588448524475098
1788957748072016100,8.85501611328125,0.07402548938989639,0.1658472865819931,0.16110339760780334
1788957748082066200,8.865066162109375,0.17033950984477997,0.032884445041418076,0.173513725399971
1788957748092116500,8.875116455078125,0.12535925209522247,0.08096755295991898,0.11388182640075684
1788957748102166300,8.885166259765626,0.22335799038410187,0.06011873111128807,0.05149221792817116
1788957748112216300,8.89521630859375,0.18005232512950897,0.05885479599237442,-0.049253832548856735
1788957748122266400,8.905266357421874,0.051112718880176544,0.19355322420597076,-0.12382127344608307
1788957748132316400,8.91531640625,-0.051174238324165344,0.26188912987709045,-0.14327433705329895
1788957748142366200,8.9253662109375,-0.08686938136816025,0.29048216342926025,-0.11723261326551437
1788957748152416300,8.935416259765624,-0.04152054712176323,0.34337732195854187,-0.02424754947423935
1788957748162467300,8.94546728515625,-0.07855872064828873,0.32203903794288635,0.08869977295398712
1788957748172517400,8.955517333984375,-0.16474074125289917,0.3847980201244354,0.1909470558166504
1788957748182567400,8.9655673828125,-0.2088000774383545,0.4679264426231384,0.2904486060142517
1788957748192617200,8.9756171875,-0.2575463056564331,0.48512008786201477,0.34460026025772095
1788957748202667300,8.985667236328124,-0.25095897912979126,-0.3071655333042145,0.5736872553825378
1788957748212717300,8.99571728515625,-0.1826707422733307,-0.0676080733537674,0.6358893513679504
1788957748222767400,9.005767333984375,-0.09601707756519318,-0.015352857299149036,0.6169694662094116
1788957748232817200,9.015817138671874,-0.04601196572184563,0.2508476674556732,0.48023077845573425
1788957748242867200,9.0258671875,0.07148456573486328,0.5535814166069031,0.31941288709640503
1788957748252917200,9.035917236328125,0.12311900407075882,0.7373946905136108,0.22255371510982513
1788957748262967300,9.04596728515625,0.09530068933963776,0.9713150262832642,0.1831948608160019
1788957748273017300,9.056017333984375,0.0821358785033226,1.2573184967041016,0.2083020657300949
1788957748283067100,9.066067138671874,-0.016768060624599457,1.238287091255188,0.25232571363449097
1788957748293117200,9.0761171875,-0.1436312049627304,1.0340911149978638,0.25788772106170654
1788957748303167200,9.086167236328125,-0.17727863788604736,0.9070441722869873,0.17581097781658173
1788957748313218300,9.09621826171875,-0.09819580614566803,0.7858831286430359,0.06129291653633118
1788957748323268000,9.10626806640625,0.06809702515602112,0.6257418990135193,-0.002710032742470503
1788957748333318100,9.116318115234375,0.2618318796157837,0.512192964553833,-0.015231417492032051
1788957748343368200,9.1263681640625,0.4424317479133606,0.4429427981376648,-0.010639861226081848
1788957748353418200,9.136418212890625,0.5217574834823608,0.4087755084037781,-0.12662318348884583
1788957748363468300,9.14646826171875,0.6674158573150635,0.469561904668808,-0.27521640062332153
1788957748373518300,9.156518310546875,0.6654201149940491,0.4630257189273834,-0.44411805272102356
1788957748383568400,9.166568359375,0.542441189289093,0.5276393294334412,-0.5916963219642639
1788957748393618400,9.176618408203124,0.46033617854118347,0.5550389885902405,-0.7701781988143921
1788957748403668500,9.18666845703125,0.3322051167488098,0.8862536549568176,-0.651764452457428
1788957748413718300,9.19671826171875,0.1497921645641327,1.3503196239471436,-0.1416868269443512
1788957748423768300,9.206768310546876,-0.07478848844766617,1.8410123586654663,0.6355056166648865
1788957748433818400,9.216818359375,-0.3562861979007721,2.4342527389526367,1.579595685005188
1788957748443868400,9.226868408203124,-0.6303081512451172,2.5898609161376953,2.3520760536193848
1788957748453919200,9.236919189453126,-0.79349684715271,2.3554532527923584,2.633134365081787
1788957748463969300,9.24696923828125,-0.9718343615531921,2.0797696113586426,2.5316686630249023
1788957748474019300,9.257019287109374,-1.007858157157898,1.958206057548523,2.17138671875
1788957748484069400,9.2670693359375,-0.7730187177658081,2.072568893432617,1.6441975831985474
1788957748494119400,9.277119384765625,-0.42490682005882263,1.6420483589172363,1.180471658706665
1788957748504169200,9.287169189453126,-0.2117719054222107,1.5439727306365967,0.7486206889152527
1788957748514219300,9.29721923828125,-0.08021414279937744,1.754886269569397,0.28517502546310425
1788957748524269300,9.307269287109374,-0.0901796966791153,1.6960314512252808,-0.2516205310821533
1788957748534319400,9.3173193359375,-0.17901475727558136,1.4732036590576172,-0.9055631756782532
1788957748544369200,9.327369140625,-0.2095486968755722,0.7303000092506409,-1.7979652881622314
1788957748554419200,9.337419189453126,-0.4669152498245239,0.8649390339851379,-2.047396659851074
1788957748564469200,9.34746923828125,-0.26544204354286194,-0.4691627025604248,-2.230501890182495
1788957748574519300,9.357519287109374,1.9545838832855225,0.07390138506889343,-2.9722659587860107
1788957748584569300,9.3675693359375,2.7373921871185303,-0.58144211769104,-3.674809455871582
1788957748594620400,9.377620361328125,1.8326255083084106,-0.5106059908866882,-3.2855429649353027
1788957748604670200,9.387670166015624,-0.416888028383255,0.8776969313621521,-2.376533031463623
1788957748614720300,9.39772021484375,-2.5745737552642822,1.7422370910644531,-1.0100147724151611
1788957748624770300,9.407770263671875,-3.76933217048645,1.3983625173568726,0.3465116024017334
1788957748634820400,9.4178203125,-4.607898235321045,1.5693401098251343,1.291404366493225
1788957748644870400,9.427870361328125,-4.987656116485596,2.127751111984253,1.7296030521392822
1788957748654920400,9.43792041015625,-4.806473731994629,1.4145818948745728,2.216859817504883
1788957748664970500,9.447970458984376,-3.837726354598999,1.40395987033844,2.445190668106079
1788957748675020500,9.4580205078125,-2.574251651763916,1.0297935009002686,2.399571180343628
1788957748685070300,9.4680703125,-1.408424735069275,0.4735092520713806,1.9594162702560425
1788957748695120400,9.478120361328125,-0.6853882074356079,-0.011841479688882828,1.2211251258850098
1788957748705170400,9.48817041015625,-0.27373406291007996,-0.40499916672706604,0.31154191493988037
1788957748715220500,9.498220458984376,-0.059477176517248154,-0.8890371918678284,-0.5936974287033081
1788957748725270300,9.508270263671875,-0.04397278279066086,-1.2911311388015747,-1.309934139251709
1788957748735320300,9.5183203125,-0.3835172951221466,-1.379741907119751,-1.714842677116394
1788957748745371400,9.528371337890626,-0.8574134707450867,-1.0415178537368774,-1.8478806018829346
1788957748755421400,9.53842138671875,-1.1939725875854492,-0.5324676036834717,-1.6805737018585205
1788957748765471500,9.548471435546874,-1.6060800552368164,0.16892510652542114,-1.3388525247573853
1788957748775521300,9.558521240234375,-2.043381452560425,0.8314039707183838,-1.0713343620300293
1788957748785571300,9.5685712890625,-1.9646722078323364,1.1550168991088867,-0.8713474273681641
1788957748795621400,9.578621337890626,-1.520129680633545,1.4544204473495483,-0.67424476146698
1788957748805671400,9.58867138671875,-1.0764994621276855,1.3225529193878174,-0.5097522139549255
1788957748815721200,9.59872119140625,-0.8701673746109009,1.111275315284729,-0.4593436121940613
1788957748825771300,9.608771240234375,-0.9541557431221008,1.0767868757247925,-0.5326455235481262
1788957748835821300,9.6188212890625,-1.2792515754699707,1.0486761331558228,-0.6806941032409668
1788957748845871400,9.628871337890626,-1.5084855556488037,1.2608219385147095,-0.8430968523025513
1788957748855921200,9.638921142578125,-1.4656105041503906,1.4277299642562866,-0.9555709362030029
1788957748865971200,9.64897119140625,-1.2549046277999878,1.4602080583572388,-1.0998772382736206
1788957748876021500,9.659021484375,-0.9857456088066101,1.8659249544143677,-1.361654281616211
1788957748886072300,9.669072265625,-0.7976356744766235,2.0534467697143555,-1.7013194561004639
1788957748896122400,9.679122314453124,-0.724912703037262,1.7370641231536865,-2.0647621154785156
1788957748906172200,9.689172119140625,-0.7302283644676208,1.4081422090530396,-2.458944797515869
1788957748916222200,9.69922216796875,-0.7734333872795105,1.0496209859848022,-2.8399782180786133
1788957748926272500,9.7092724609375,-0.8569421172142029,0.6271901726722717,-3.1533825397491455
1788957748936322600,9.719322509765625,-0.893388032913208,0.1420769840478897,-3.331923723220825
1788957748946372400,9.729372314453125,-0.9188640713691711,-0.3253072500228882,-3.2868056297302246
1788957748956422400,9.73942236328125,-0.920153021812439,-0.6472325325012207,-3.1001946926116943
1788957748966472400,9.749472412109375,-0.9400721788406372,-0.9442461133003235,-2.751692771911621
1788957748976522500,9.7595224609375,-1.031640648841858,-1.0075310468673706,-2.209843873977661
1788957748986572300,9.769572265625,-1.0863454341888428,-0.9055799841880798,-1.5421452522277832
1788957748996622300,9.779622314453125,-0.9491205215454102,-0.9330054521560669,-0.8604217767715454
1788957749006672400,9.78967236328125,-0.6701210737228394,-0.9829778075218201,-0.2874256670475006
1788957749016722400,9.799722412109375,-0.4514673054218292,-0.8852277994155884,0.1790136992931366
1788957749026773500,9.8097734375,-0.4903353452682495,-1.2712490558624268,0.6425826549530029
1788957749036823300,9.8198232421875,-0.7046774625778198,-1.4904284477233887,1.0048695802688599
1788957749046873300,9.829873291015625,-0.8389695286750793,-1.6129019260406494,1.2167820930480957
1788957749056923400,9.83992333984375,-0.7685057520866394,-1.9009116888046265,1.3659214973449707
1788957749066973400,9.849973388671875,-0.5818064212799072,-2.241255044937134,1.442814588546753
1788957749077023200,9.860023193359375,-0.42903339862823486,-2.719358444213867,1.4671261310577393
1788957749087073300,9.8700732421875,-0.5609826445579529,-3.570941925048828,1.5276707410812378
1788957749097123300,9.880123291015625,-1.0282819271087646,-3.9697649478912354,1.5107086896896362
1788957749107173400,9.89017333984375,-1.1537655591964722,-3.6236069202423096,1.2722277641296387
1788957749117223200,9.90022314453125,-0.7042412757873535,-4.1954474449157715,0.7980364561080933
1788957749127273200,9.910273193359375,0.10561324656009674,-4.5839924812316895,0.34424924850463867
1788957749137323300,9.9203232421875,0.9914671778678894,-4.433738708496094,0.0009648632840253413
1788957749147373300,9.930373291015625,1.7489780187606812,-3.869600296020508,-0.2962750792503357
1788957749157423400,9.94042333984375,2.14359188079834,-2.9181389808654785,-0.5434966087341309
1788957749167473400,9.950473388671876,2.1430375576019287,-2.184171676635742,-0.7822553515434265
1788957749177524200,9.960524169921875,1.9229726791381836,-1.922935128211975,-1.0337648391723633
1788957749187574300,9.97057421875,1.6828967332839966,-2.1213481426239014,-1.3468968868255615
1788957749197624300,9.980624267578126,1.395278811454773,-2.2779550552368164,-1.6267567873001099
1788957749207674400,9.99067431640625,1.1165961027145386,-2.148020029067993,-1.7574197053909302
1788957749217724400,10.000724365234374,1.1300474405288696,-2.2770330905914307,-1.7754740715026855
1788957749227774500,10.0107744140625,1.3153916597366333,-2.3172342777252197,-1.5885590314865112
1788957749237824500,10.020824462890625,1.4800273180007935,-2.2811577320098877,-1.2487826347351074
1788957749247874300,10.030874267578126,1.5292876958847046,-2.460451602935791,-0.8689034581184387
1788957749257924400,10.04092431640625,1.420386552810669,-2.8285226821899414,-0.5629067420959473
1788957749267974400,10.050974365234374,1.1719261407852173,-3.3342666625976562,-0.3891719877719879
1788957749278024400,10.0610244140625,0.803817629814148,-3.692474842071533,-0.3394145667552948
1788957749288074200,10.07107421875,0.46527981758117676,-3.9423110485076904,-0.4480384886264801
1788957749298124300,10.081124267578126,0.2261553704738617,-4.187603950500488,-0.6309595704078674
1788957749308174300,10.09117431640625,0.09844188392162323,-4.308121681213379,-0.7738046050071716
1788957749318225400,10.101225341796875,0.01260953489691019,-4.248146057128906,-0.8003014922142029
1788957749328275500,10.111275390625,-0.1778765171766281,-4.165550231933594,-0.7150188088417053
1788957749338325200,10.1213251953125,-0.5604047179222107,-3.3443896770477295,-0.6886481642723083
1788957749348375300,10.131375244140624,-0.8211758732795715,-2.1186981201171875,-0.9914445281028748
1788957749358425300,10.14142529296875,-0.811794102191925,-0.9470506906509399,-1.2562165260314941
1788957749368475400,10.151475341796875,-0.606630802154541,-0.0841340497136116,-1.2854095697402954
1788957749378525200,10.161525146484376,-0.3456953465938568,0.1003098264336586,-1.1641215085983276
1788957749388575200,10.1715751953125,-0.0996757298707962,-0.05764066055417061,-0.9537094235420227
1788957749398625300,10.181625244140625,0.06321705132722855,-0.10637836903333664,-0.7485498785972595
1788957749408675300,10.19167529296875,0.09015332907438278,0.029516879469156265,-0.7980524301528931
1788957749418725400,10.201725341796875,0.011326956562697887,0.08820309489965439,-0.9665778279304504
1788957749428775400,10.211775390625,-0.14632631838321686,0.0751863643527031,-1.1787097454071045
1788957749438825500,10.221825439453125,-0.26239699125289917,0.09967253357172012,-1.4778932332992554
1788957749448875500,10.23187548828125,-0.2853923439979553,0.24711045622825623,-1.7644305229187012
1788957749458926300,10.24192626953125,-0.2651144862174988,0.44126981496810913,-1.8251616954803467
1788957749468976400,10.251976318359375,-0.21438287198543549,0.5882227420806885,-1.61269211769104
1788957749479026400,10.2620263671875,-0.13479402661323547,0.5945451259613037,-1.236338496208191
1788957749489076500,10.272076416015626,-0.012811935506761074,0.3628426492214203,-0.7488068342208862
1788957749499126500,10.28212646484375,0.12573476135730743,0.07268698513507843,-0.32488781213760376
1788957749509176300,10.29217626953125,0.20996494591236115,-0.1250588446855545,-0.12246759235858917
1788957749519226400,10.302226318359375,0.21353065967559814,-0.14933782815933228,-0.10720741003751755
1788957749529276400,10.3122763671875,0.20539842545986176,-0.024090422317385674,-0.22002530097961426
1788957749539326500,10.322326416015626,0.20662614703178406,0.06921608746051788,-0.3361559212207794
1788957749549376500,10.33237646484375,0.18288646638393402,0.05578310415148735,-0.39908507466316223
1788957749559425800,10.34242578125,0.11388422548770905,-0.07103849202394485,-0.3685987889766693
1788957749569475800,10.352475830078125,0.02714533358812332,-0.2248552143573761,-0.2796204686164856
1788957749579526000,10.36252587890625,-0.056900832802057266,-0.3826501667499542,-0.19169087707996368
1788957749589575700,10.37257568359375,-0.10859545320272446,-0.5138974189758301,-0.13245230913162231
1788957749599625700,10.382625732421875,-0.12669269740581512,-0.6237645149230957,-0.12935559451580048
1788957749609676800,10.3926767578125,-0.10109492391347885,-0.5857545733451843,-0.18947964906692505
1788957749619726800,10.402726806640626,-0.07051145285367966,-0.4405670166015625,-0.22523126006126404
1788957749629777000,10.41277685546875,-0.04357490688562393,-0.25859692692756653,-0.2270432710647583
1788957749639826700,10.42282666015625,-0.01702239364385605,-0.059484366327524185,-0.2267647087574005
1788957749649876700,10.432876708984375,-0.007521831896156073,0.032042622566223145,-0.16869261860847473
1788957749659926800,10.4429267578125,-0.03760090470314026,-0.11164983361959457,-0.05812988057732582
1788957749669976800,10.452976806640624,-0.06467700004577637,-0.3530142605304718,0.04767724126577377
1788957749680027000,10.46302685546875,-0.07146060466766357,-0.5918989777565002,0.16591040790081024
1788957749690077000,10.473076904296875,-0.08479611575603485,-0.6817471385002136,0.24106161296367645
1788957749700127000,10.483126953125,-0.07955314964056015,-0.6950677037239075,0.32566890120506287
1788957749710177000,10.493177001953125,-0.06363463401794434,-0.6423600316047668,0.39868560433387756
1788957749720226800,10.503226806640624,-0.07662207633256912,-0.47519102692604065,0.3974895775318146
1788957749730276900,10.51327685546875,-0.11154676973819733,-0.23236826062202454,0.39106816053390503
1788957749740328000,10.523327880859375,-0.13418523967266083,0.18648812174797058,0.23017168045043945
1788957749750378000,10.5333779296875,-0.2673153281211853,0.2336127609014511,0.05727074667811394
1788957749760428000,10.543427978515625,-0.41337504982948303,-0.038065891712903976,-0.1186470240354538
1788957749770477800,10.553477783203125,-0.44863930344581604,-0.2864557206630707,-0.2715332508087158
1788957749780527900,10.56352783203125,-0.33203813433647156,-0.42967814207077026,-0.2937011122703552
1788957749790578000,10.573577880859375,-0.15264439582824707,-0.24304912984371185,-0.22814235091209412
