time,seconds_elapsed,z,y,x
1789552330799292700,0.054292724609375,-0.9699249267578125,-0.2949981689453125,-0.0686492919921875
1789552330809261600,0.064261474609375,-0.892364501953125,-0.29833984375,-0.0728607177734375
1789552330819231500,0.0742314453125,-0.884368896484375,-0.2508697509765625,0.003448486328125
1789552330829200400,0.084200439453125,-1.01263427734375,-0.2010955810546875,-0.025665283203125
1789552330839169500,0.09416943359375,-0.948699951171875,-0.2735595703125,-0.0059967041015625
1789552330849138400,0.104138427734375,-0.974945068359375,-0.292022705078125,-0.118865966796875
1789552330859107600,0.114107666015625,-0.98876953125,-0.286285400390625,-0.077484130859375
1789552330869076500,0.124076416015625,-0.9736480712890625,-0.289581298828125,-0.0844879150390625
1789552330879046700,0.134046630859375,-0.944366455078125,-0.27178955078125,-0.0687408447265625
1789552330889015600,0.144015625,-0.8181610107421875,-0.307952880859375,-0.1051483154296875
1789552330898984700,0.153984619140625,-0.6969146728515625,-0.4777984619140625,-0.0587615966796875
1789552330908953600,0.16395361328125,-0.8782958984375,-0.304534912109375,-0.0084075927734375
1789552330918922800,0.1739228515625,-0.983673095703125,-0.259857177734375,-0.013580322265625
1789552330928892700,0.183892578125,-1.157623291015625,-0.2013092041015625,0.0457305908203125
1789552330938861600,0.193861572265625,-1.0974273681640625,-0.277679443359375,0.035003662109375
1789552330948830700,0.203830810546875,-0.997283935546875,-0.290191650390625,0.021820068359375
1789552330958799600,0.213799560546875,-0.84381103515625,-0.3842010498046875,0.04718017578125
1789552330968768500,0.2237685546875,-0.76531982421875,-0.33935546875,0.1428985595703125
1789552330978738400,0.233738525390625,-0.8833465576171875,-0.2753448486328125,0.1132049560546875
1789552330988707600,0.24370751953125,-0.980804443359375,-0.2546844482421875,0.0847625732421875
1789552330998676500,0.253676513671875,-1.1078948974609375,-0.253814697265625,-0.0137176513671875
1789552331008645600,0.263645751953125,-1.0201873779296875,-0.311279296875,0.02587890625
1789552331018614500,0.273614501953125,-0.9979095458984375,-0.2700958251953125,0.023834228515625
1789552331028583400,0.28358349609375,-0.8559112548828125,-0.3708648681640625,0.116729736328125
1789552331038553600,0.2935537109375,-0.872589111328125,-0.322052001953125,0.060516357421875
1789552331048522500,0.3035224609375,-0.78472900390625,-0.381683349609375,0.01171875
1789552331058491400,0.313491455078125,-0.926361083984375,-0.27569580078125,0.0260467529296875
1789552331068460500,0.32346044921875,-1.034393310546875,-0.2465362548828125,-0.0157470703125
1789552331078430000,0.333429931640625,-1.0293426513671875,-0.245025634765625,0.0835113525390625
1789552331088400000,0.34339990234375,-1.00701904296875,-0.271575927734375,0.0655059814453125
1789552331098368800,0.35336865234375,-1.003021240234375,-0.20751953125,0.03106689453125
1789552331108338000,0.363337890625,-1.053375244140625,-0.135955810546875,-0.05267333984375
1789552331118306800,0.373306884765625,-1.0561981201171875,-0.1569366455078125,0.0702667236328125
1789552331128276000,0.38327587890625,-1.091644287109375,-0.192138671875,0.05889892578125
1789552331138244900,0.393244873046875,-1.02191162109375,-0.226165771484375,-0.133636474609375
1789552331148214800,0.40321484375,-0.9042205810546875,-0.2841339111328125,-0.078582763671875
1789552331158184000,0.413183837890625,-0.8760986328125,-0.298553466796875,-0.0718841552734375
1789552331168152800,0.42315283203125,-0.9011383056640625,-0.26495361328125,-0.215118408203125
1789552331178121700,0.433121826171875,-0.91839599609375,-0.2956390380859375,-0.1461334228515625
1789552331188091000,0.4430908203125,-0.9120635986328125,-0.327056884765625,-0.0092620849609375
1789552331198060800,0.453060791015625,-0.894134521484375,-0.3236083984375,-0.2455596923828125
1789552331208029700,0.46302978515625,-0.867950439453125,-0.3677825927734375,-0.310821533203125
1789552331217998800,0.472998779296875,-0.880523681640625,-0.4289093017578125,-0.053070068359375
1789552331227967700,0.4829677734375,-1.0017547607421875,-0.3578643798828125,-0.001434326171875
1789552331237936600,0.4929365234375,-1.02764892578125,-0.29766845703125,0.1251373291015625
1789552331247905800,0.50290576171875,-1.036773681640625,-0.2806396484375,0.3486328125
1789552331257876000,0.5128759765625,-0.88812255859375,-0.4136505126953125,0.2233123779296875
1789552331267844900,0.522844970703125,-0.9379119873046875,-0.326080322265625,0.2624664306640625
1789552331277814000,0.53281396484375,-0.969451904296875,-0.2398223876953125,0.2808685302734375
1789552331287783000,0.542782958984375,-0.935699462890625,-0.349639892578125,0.3533782958984375
1789552331297751800,0.552751708984375,-0.92596435546875,-0.4437103271484375,0.115234375
1789552331307721700,0.5627216796875,-0.93212890625,-0.4344024658203125,0.17523193359375
1789552331317691000,0.57269091796875,-0.895416259765625,-0.3956451416015625,0.159637451171875
1789552331327659800,0.58265966796875,-0.88653564453125,-0.2756805419921875,0.025146484375
1789552331337629000,0.59262890625,-0.8531341552734375,-0.3187103271484375,-0.18017578125
1789552331347597800,0.602597900390625,-0.866363525390625,-0.4233856201171875,-0.107208251953125
1789552331357566700,0.612566650390625,-1.0539398193359375,-0.300506591796875,-0.0289306640625
1789552331367537000,0.622536865234375,-1.0798492431640625,-0.236297607421875,-0.0200042724609375
1789552331377505800,0.632505859375,-0.962554931640625,-0.3098602294921875,-0.07916259765625
1789552331387474700,0.642474609375,-0.974365234375,-0.223724365234375,-0.010345458984375
1789552331397443800,0.65244384765625,-1.0173492431640625,-0.2064056396484375,-0.0036468505859375
1789552331407412700,0.662412841796875,-0.99920654296875,-0.286285400390625,-0.0684051513671875
1789552331417382700,0.672382568359375,-0.9835357666015625,-0.35369873046875,-0.0388946533203125
1789552331427351800,0.682351806640625,-0.9058380126953125,-0.37750244140625,0.0591888427734375
1789552331437320700,0.69232080078125,-0.960479736328125,-0.3499908447265625,0.04486083984375
1789552331447289900,0.702289794921875,-0.9997406005859375,-0.3666534423828125,0.1583404541015625
1789552331457259000,0.712259033203125,-0.8414459228515625,-0.3951873779296875,0.2137603759765625
1789552331467228000,0.722227783203125,-0.7911224365234375,-0.3991851806640625,0.22747802734375
1789552331477197800,0.73219775390625,-0.73345947265625,-0.414520263671875,0.15338134765625
1789552331487167000,0.7421669921875,-0.81610107421875,-0.3065338134765625,0.0959014892578125
1789552331497135900,0.752135986328125,-0.8978424072265625,-0.282958984375,0.1249237060546875
1789552331507104800,0.762104736328125,-0.9742584228515625,-0.3069305419921875,-0.0205535888671875
1789552331517074000,0.772073974609375,-1.081817626953125,-0.257843017578125,-0.1332855224609375
1789552331527042800,0.782042724609375,-1.13360595703125,-0.188690185546875,-0.18988037109375
1789552331537012700,0.7920126953125,-1.0863494873046875,-0.2449493408203125,-0.237579345703125
1789552331546982000,0.80198193359375,-1.0555267333984375,-0.26934814453125,-0.282318115234375
1789552331556950800,0.81195068359375,-0.9326019287109375,-0.326324462890625,-0.2114410400390625
1789552331566919700,0.821919677734375,-0.9313812255859375,-0.3355560302734375,-0.283203125
1789552331576888800,0.831888916015625,-0.8693389892578125,-0.337860107421875,-0.2275238037109375
1789552331586858800,0.841858642578125,-0.6965179443359375,-0.4720916748046875,-0.2147064208984375
1789552331596827600,0.85182763671875,-0.773193359375,-0.4194488525390625,-0.1851348876953125
1789552331606796800,0.861796875,-0.8782501220703125,-0.351043701171875,-0.1192474365234375
1789552331616765700,0.871765625,-1.009307861328125,-0.3298187255859375,-0.167877197265625
1789552331626734800,0.88173486328125,-1.1215972900390625,-0.334869384765625,0.0635833740234375
1789552331636703700,0.891703857421875,-0.9797515869140625,-0.4369659423828125,-0.0214996337890625
1789552331646674000,0.901673828125,-0.8102264404296875,-0.48211669921875,0.037322998046875
1789552331656642800,0.911642822265625,-0.778411865234375,-0.379638671875,-0.058837890625
1789552331666612000,0.921612060546875,-0.9620361328125,-0.2047576904296875,-0.024810791015625
1789552331676580900,0.931580810546875,-1.1207733154296875,-0.225067138671875,-0.003265380859375
1789552331686550000,0.941550048828125,-1.35748291015625,-0.1873321533203125,0.0042572021484375
1789552331696519000,0.951518798828125,-1.246246337890625,-0.25482177734375,-0.11737060546875
1789552331706488800,0.96148876953125,-1.06982421875,-0.236175537109375,-0.0762176513671875
1789552331716457700,0.971457763671875,-0.87567138671875,-0.1946258544921875,-0.099090576171875
1789552331726427000,0.981427001953125,-0.7611541748046875,-0.27294921875,-0.1096649169921875
1789552331736395800,0.991395751953125,-0.8483734130859375,-0.288330078125,-0.0570831298828125
1789552331746365000,1.001364990234375,-0.9415283203125,-0.2226409912109375,-0.1298828125
1789552331756333800,1.011333740234375,-0.9499664306640625,-0.2354888916015625,-0.0785064697265625
1789552331766303700,1.0213037109375,-0.8939361572265625,-0.313446044921875,-0.10565185546875
1789552331776273000,1.03127294921875,-0.8991546630859375,-0.326507568359375,-0.1922454833984375
1789552331786241800,1.04124169921875,-0.9886627197265625,-0.278594970703125,-0.2284088134765625
1789552331796210700,1.051210693359375,-1.064544677734375,-0.2555999755859375,-0.1872711181640625
1789552331806179800,1.061179931640625,-0.9887237548828125,-0.278961181640625,-0.2590179443359375
1789552331816148700,1.071148681640625,-0.9001312255859375,-0.351654052734375,-0.1725006103515625
1789552331826119000,1.081118896484375,-0.8239898681640625,-0.3957977294921875,-0.1353607177734375
1789552331836088000,1.091088134765625,-0.8765106201171875,-0.3382720947265625,-0.133087158203125
1789552331846057000,1.101056884765625,-0.8972015380859375,-0.2843017578125,-0.1592559814453125
1789552331856025900,1.11102587890625,-0.8328399658203125,-0.3656158447265625,-0.12701416015625
1789552331865995000,1.1209951171875,-0.97454833984375,-0.3375396728515625,-0.1082611083984375
1789552331875964000,1.1309638671875,-1.0324859619140625,-0.332183837890625,-0.1407012939453125
1789552331885933800,1.140933837890625,-1.1053924560546875,-0.28619384765625,-0.067596435546875
1789552331895903000,1.150903076171875,-1.078826904296875,-0.2906036376953125,-0.2057952880859375
1789552331905872000,1.160871826171875,-0.9168243408203125,-0.349334716796875,-0.1109619140625
1789552331915840800,1.1708408203125,-0.7958831787109375,-0.3397979736328125,-0.0036163330078125
1789552331925810000,1.180809814453125,-0.87762451171875,-0.16595458984375,0.0738677978515625
1789552331935778800,1.19077880859375,-0.8117218017578125,-0.27911376953125,0.0028533935546875
1789552331945748700,1.200748779296875,-0.8889007568359375,-0.292877197265625,0.0859527587890625
1789552331955718000,1.2107177734375,-1.03753662109375,-0.2669219970703125,-0.028564453125
1789552331965686800,1.220686767578125,-1.0798492431640625,-0.202392578125,-0.11395263671875
1789552331975655700,1.23065576171875,-1.042266845703125,-0.248443603515625,-0.0521087646484375
1789552331985624800,1.240624755859375,-0.8900909423828125,-0.2944183349609375,-0.0228118896484375
1789552331995593700,1.25059375,-0.9340972900390625,-0.27618408203125,-0.0278472900390625
1789552332005563600,1.260563720703125,-0.920745849609375,-0.3228302001953125,-0.008819580078125
1789552332015532800,1.27053271484375,-0.8675079345703125,-0.3929443359375,-0.0604705810546875
1789552332025501700,1.280501708984375,-0.892608642578125,-0.31512451171875,-0.052825927734375
1789552332035470800,1.290470947265625,-0.8642120361328125,-0.3720550537109375,0.01910400390625
1789552332045439700,1.300439697265625,-0.885345458984375,-0.3639984130859375,0.048309326171875
1789552332055408600,1.31040869140625,-0.9698333740234375,-0.3381805419921875,-0.0264434814453125
1789552332065378800,1.32037890625,-1.0245361328125,-0.295379638671875,0.0141754150390625
1789552332075348000,1.330347900390625,-0.940277099609375,-0.397064208984375,-0.03106689453125
1789552332085316400,1.34031640625,-0.9714508056640625,-0.306976318359375,-0.0020599365234375
1789552332095285500,1.350285400390625,-0.9455108642578125,-0.3338165283203125,0.0605010986328125
1789552332105254400,1.36025439453125,-1.0132904052734375,-0.2142791748046875,0.132568359375
1789552332115223300,1.370223388671875,-0.96173095703125,-0.382171630859375,0.1436767578125
1789552332125193500,1.380193359375,-1.079071044921875,-0.3320465087890625,0.1790771484375
1789552332135162600,1.39016259765625,-0.9493255615234375,-0.31640625,0.119049072265625
1789552332145131500,1.400131591796875,-0.792144775390625,-0.3392791748046875,0.19659423828125
1789552332155100700,1.4101005859375,-0.8156280517578125,-0.3212127685546875,0.0920867919921875
1789552332165069600,1.420069580078125,-0.9223480224609375,-0.3043212890625,0.1242523193359375
1789552332175038500,1.43003857421875,-1.0428466796875,-0.163970947265625,0.1951446533203125
1789552332185008600,1.440008544921875,-0.9893798828125,-0.212432861328125,0.054656982421875
1789552332194977500,1.4499775390625,-0.99615478515625,-0.17242431640625,0.1126708984375
1789552332204946400,1.459946533203125,-0.980316162109375,-0.1826019287109375,0.1103363037109375
1789552332214915600,1.46991552734375,-1.045440673828125,-0.2035980224609375,0.0011444091796875
1789552332224884500,1.479884521484375,-1.1390228271484375,-0.1442413330078125,-0.050811767578125
1789552332234853600,1.489853515625,-1.08013916015625,-0.2078399658203125,0.0013275146484375
1789552332244823600,1.499823486328125,-0.9241943359375,-0.3021240234375,-0.0886993408203125
1789552332254792400,1.50979248046875,-0.7634429931640625,-0.3326873779296875,0.03765869140625
1789552332264761300,1.51976123046875,-0.8061065673828125,-0.2097625732421875,-0.0306549072265625
1789552332274730500,1.52973046875,-0.820526123046875,-0.17413330078125,-0.2508697509765625
1789552332284699400,1.539699462890625,-0.920562744140625,-0.270233154296875,-0.2778472900390625
1789552332294668500,1.54966845703125,-0.994720458984375,-0.34063720703125,-0.147430419921875
1789552332304638500,1.559638427734375,-1.067962646484375,-0.2408599853515625,-0.3097991943359375
1789552332314607400,1.569607421875,-1.0338287353515625,-0.2826080322265625,-0.2603912353515625
1789552332324576300,1.579576171875,-0.966339111328125,-0.2875823974609375,-0.1829986572265625
1789552332334545700,1.589545654296875,-0.8922882080078125,-0.3101806640625,-0.2655029296875
1789552332344514600,1.5995146484375,-0.9262542724609375,-0.368133544921875,-0.116973876953125
1789552332354483700,1.609483642578125,-0.9990234375,-0.3033294677734375,-0.0724639892578125
1789552332364453600,1.61945361328125,-0.9068603515625,-0.42340087890625,-0.1308746337890625
1789552332374422500,1.629422607421875,-0.9516143798828125,-0.3958892822265625,0.0258331298828125
1789552332384391400,1.639391357421875,-1.0379791259765625,-0.3296966552734375,0.0380859375
1789552332394360600,1.649360595703125,-0.939788818359375,-0.38922119140625,0.027496337890625
1789552332404329500,1.65932958984375,-0.91180419921875,-0.3943023681640625,-0.0894775390625
1789552332414298600,1.669298583984375,-0.989776611328125,-0.28619384765625,-0.1087799072265625
1789552332424268500,1.6792685546875,-1.0047607421875,-0.2705535888671875,-0.088714599609375
1789552332434237400,1.689237548828125,-0.996978759765625,-0.3224639892578125,-0.099639892578125
1789552332444206600,1.69920654296875,-1.030914306640625,-0.2828826904296875,-0.0117034912109375
1789552332454175500,1.709175537109375,-0.907440185546875,-0.3491668701171875,0.04620361328125
1789552332464144400,1.719144287109375,-0.9185638427734375,-0.248626708984375,-0.0181732177734375
1789552332474113500,1.729113525390625,-0.9362335205078125,-0.2780303955078125,0.089691162109375
1789552332484082400,1.73908251953125,-1.03924560546875,-0.2712860107421875,0.159332275390625
1789552332494052400,1.74905224609375,-1.086334228515625,-0.281890869140625,0.2205810546875
1789552332504021500,1.759021484375,-1.0182952880859375,-0.305908203125,0.181243896484375
1789552332513990400,1.768990478515625,-0.8863983154296875,-0.3052520751953125,0.114013671875
1789552332523959300,1.778959228515625,-0.827545166015625,-0.2951812744140625,0.0736846923828125
1789552332533928400,1.788928466796875,-0.7998809814453125,-0.3347625732421875,0.1211395263671875
1789552332543897300,1.7988974609375,-0.882659912109375,-0.3194427490234375,0.1259002685546875
1789552332553867500,1.808867431640625,-0.9882659912109375,-0.274139404296875,0.155792236328125
1789552332563836700,1.818836669921875,-1.0593109130859375,-0.21630859375,-0.0026397705078125
1789552332573805600,1.8288056640625,-0.9665985107421875,-0.259246826171875,-0.0052490234375
1789552332583774500,1.8387744140625,-0.9005889892578125,-0.3419036865234375,0.0196075439453125
1789552332593743600,1.84874365234375,-0.88507080078125,-0.3750762939453125,0.048126220703125
1789552332603712500,1.85871240234375,-0.9351654052734375,-0.336822509765625,0.0165252685546875
1789552332613682400,1.868682373046875,-1.025634765625,-0.3707427978515625,0.2171478271484375
1789552332623651600,1.878651611328125,-1.0422515869140625,-0.4423065185546875,0.1080322265625
1789552332633620500,1.888620361328125,-0.9337005615234375,-0.5065765380859375,0.12384033203125
1789552332643589400,1.89858935546875,-0.91790771484375,-0.404083251953125,0.0814971923828125
1789552332653558500,1.90855859375,-0.74017333984375,-0.4544677734375,-0.06011962890625
1789552332663527400,1.91852734375,-0.90972900390625,-0.32135009765625,-0.007354736328125
1789552332673496600,1.92849658203125,-0.9744873046875,-0.319915771484375,0.002349853515625
1789552332683466500,1.938466552734375,-0.9515533447265625,-0.35491943359375,0.002197265625
1789552332693435400,1.948435302734375,-0.9683380126953125,-0.270721435546875,-0.07293701171875
1789552332703404500,1.958404541015625,-0.9850006103515625,-0.201690673828125,-0.08544921875
1789552332713373400,1.96837353515625,-0.96002197265625,-0.19091796875,0.014251708984375
1789552332723342300,1.97834228515625,-1.0178070068359375,-0.2349090576171875,0.0865325927734375
1789552332733311500,1.9883115234375,-1.054931640625,-0.28155517578125,0.057952880859375
1789552332743281700,1.99828173828125,-1.0129241943359375,-0.260406494140625,0.140380859375
1789552332753250600,2.00825048828125,-0.9182586669921875,-0.2410888671875,0.103851318359375
1789552332763219700,2.0182197265625,-0.85382080078125,-0.265838623046875,-0.0107421875
1789552332773188600,2.028188720703125,-0.874755859375,-0.2724456787109375,0.1109619140625
1789552332783157500,2.038157470703125,-0.914337158203125,-0.3265380859375,0.124908447265625
1789552332793126700,2.048126708984375,-0.9134979248046875,-0.4092864990234375,0.0871124267578125
1789552332803096600,2.0580966796875,-1.0044708251953125,-0.245574951171875,0.145538330078125
1789552332813065500,2.0680654296875,-0.9850616455078125,-0.2342071533203125,0.0525970458984375
1789552332823034600,2.07803466796875,-0.9747772216796875,-0.30718994140625,0.0648345947265625
1789552332833003500,2.08800341796875,-0.9833526611328125,-0.288818359375,0.2030029296875
1789552332842972400,2.097972412109375,-1.0289764404296875,-0.272735595703125,0.1106719970703125
1789552332852941600,2.107941650390625,-0.9902496337890625,-0.292236328125,0.18798828125
1789552332862910500,2.117910400390625,-0.9025115966796875,-0.32568359375,0.2028045654296875
1789552332872880400,2.12788037109375,-0.8571014404296875,-0.3679962158203125,0.056549072265625
1789552332882849500,2.137849609375,-0.8740081787109375,-0.3149261474609375,0.055328369140625
1789552332892818400,2.147818359375,-0.798004150390625,-0.36798095703125,-0.0981292724609375
1789552332902787300,2.157787353515625,-0.825225830078125,-0.345367431640625,-0.10968017578125
1789552332912756500,2.167756591796875,-0.9821624755859375,-0.2463531494140625,-0.14056396484375
1789552332922725400,2.177725341796875,-1.0230560302734375,-0.2910308837890625,-0.214202880859375
1789552332932695300,2.1876953125,-1.066497802734375,-0.26031494140625,-0.2761077880859375
1789552332942664400,2.19766455078125,-1.07379150390625,-0.19061279296875,-0.2022552490234375
1789552332952633300,2.20763330078125,-0.9906768798828125,-0.220062255859375,-0.1330413818359375
1789552332962602500,2.2176025390625,-0.9252777099609375,-0.226959228515625,0.09088134765625
1789552332972571600,2.227571533203125,-0.9496307373046875,-0.245086669921875,0.0836334228515625
1789552332982540500,2.23754052734375,-0.9547271728515625,-0.3207244873046875,0.0360565185546875
1789552332992509700,2.247509765625,-0.955352783203125,-0.32159423828125,0.0349578857421875
1789552333002479600,2.257479736328125,-0.9254150390625,-0.313018798828125,0.0190582275390625
1789552333012448500,2.267448486328125,-0.9582366943359375,-0.2842254638671875,0.0275726318359375
1789552333022417700,2.277417724609375,-0.8497772216796875,-0.3855438232421875,0.0025177001953125
1789552333032386600,2.287386474609375,-0.8885040283203125,-0.31036376953125,-0.08447265625
1789552333042355500,2.29735546875,-0.8567657470703125,-0.336639404296875,-0.0869293212890625
1789552333052324600,2.30732470703125,-0.9071044921875,-0.3104248046875,-0.1043853759765625
1789552333062293500,2.31729345703125,-0.9788818359375,-0.2485504150390625,-0.1313323974609375
1789552333072263400,2.327263427734375,-1.02972412109375,-0.22314453125,-0.1121063232421875
1789552333082232600,2.337232666015625,-0.8859405517578125,-0.362579345703125,-0.0511932373046875
1789552333092201700,2.34720166015625,-0.8880462646484375,-0.3503570556640625,-0.0456390380859375
1789552333102170600,2.357170654296875,-0.97906494140625,-0.2989044189453125,-0.01220703125
1789552333112139800,2.367139892578125,-1.0660552978515625,-0.2556304931640625,0.04132080078125
1789552333122108700,2.377108642578125,-1.0644989013671875,-0.3058624267578125,0.033966064453125
1789552333132078600,2.38707861328125,-1.0231170654296875,-0.2999267578125,-0.0229034423828125
1789552333142047700,2.3970478515625,-0.934783935546875,-0.2923431396484375,-0.0594940185546875
1789552333152016600,2.4070166015625,-0.8455352783203125,-0.3408050537109375,-0.051300048828125
1789552333161985500,2.416985595703125,-0.845001220703125,-0.3177032470703125,-0.0311737060546875
1789552333171954700,2.42695458984375,-0.805419921875,-0.3898162841796875,-0.104736328125
1789552333181923600,2.436923583984375,-0.88134765625,-0.3060455322265625,-0.021881103515625
1789552333191892700,2.446892822265625,-0.9398651123046875,-0.269866943359375,0.0351104736328125
1789552333201863000,2.45686279296875,-1.0099639892578125,-0.2732086181640625,0.077850341796875
1789552333211831800,2.466831787109375,-1.0782623291015625,-0.2783355712890625,0.058929443359375
1789552333221800700,2.47680078125,-1.211334228515625,-0.2417449951171875,0.1316070556640625
1789552333231769900,2.486769775390625,-1.083648681640625,-0.281707763671875,0.1147918701171875
1789552333241738800,2.49673876953125,-0.959869384765625,-0.29638671875,0.1259765625
1789552333251708000,2.5067080078125,-0.862060546875,-0.2891387939453125,0.0911865234375
1789552333261676800,2.5166767578125,-0.860382080078125,-0.2582550048828125,0.1152191162109375
1789552333271646700,2.526646728515625,-0.84283447265625,-0.34832763671875,0.037872314453125
1789552333281615600,2.53661572265625,-0.821624755859375,-0.399871826171875,0.0299072265625
1789552333291584800,2.546584716796875,-0.9548187255859375,-0.249114990234375,0.024322509765625
1789552333301553700,2.5565537109375,-0.913848876953125,-0.2756195068359375,0.0420684814453125
1789552333311522800,2.566522705078125,-1.081207275390625,-0.23931884765625,0.119415283203125
1789552333321491700,2.57649169921875,-1.12786865234375,-0.222015380859375,-0.04248046875
1789552333331460600,2.586460693359375,-1.0770263671875,-0.3590240478515625,0.0197601318359375
1789552333341430800,2.5964306640625,-1.120880126953125,-0.245697021484375,-0.0467681884765625
1789552333351399700,2.606399658203125,-1.0219268798828125,-0.2855072021484375,0.01873779296875
1789552333361368600,2.61636865234375,-0.926513671875,-0.390838623046875,-0.0475921630859375
1789552333371337700,2.626337646484375,-0.8962554931640625,-0.376068115234375,-0.0999755859375
1789552333381306600,2.636306640625,-0.8639068603515625,-0.37115478515625,-0.0621185302734375
1789552333391275500,2.646275634765625,-0.890960693359375,-0.287628173828125,-0.101593017578125
1789552333401245700,2.65624560546875,-0.965667724609375,-0.2144317626953125,-0.142059326171875
1789552333411214600,2.666214599609375,-0.925750732421875,-0.28472900390625,-0.0681610107421875
1789552333421183500,2.67618359375,-1.0756072998046875,-0.152191162109375,-0.0848846435546875
1789552333431153000,2.68615283203125,-0.9567413330078125,-0.1885223388671875,0.004119873046875
1789552333441121800,2.696121826171875,-0.856597900390625,-0.2062225341796875,-0.0662689208984375
1789552333451090700,2.706090576171875,-0.81048583984375,-0.3526763916015625,-0.0300445556640625
1789552333461059800,2.716059814453125,-0.902008056640625,-0.2851715087890625,0.0153961181640625
1789552333471029800,2.72602978515625,-0.8336181640625,-0.3583526611328125,-0.046661376953125
1789552333480998700,2.73599853515625,-0.847686767578125,-0.34429931640625,-0.0802001953125
1789552333490967800,2.7459677734375,-0.8505096435546875,-0.339996337890625,-0.03985595703125
1789552333500936700,2.755936767578125,-0.94805908203125,-0.2891387939453125,-0.0121307373046875
1789552333510905900,2.76590576171875,-1.0156402587890625,-0.2384185791015625,0.0589752197265625
1789552333520874800,2.775874755859375,-0.9558868408203125,-0.3194580078125,0.061370849609375
1789552333530843600,2.78584375,-0.9320220947265625,-0.3154754638671875,0.0407562255859375
1789552333540813600,2.7958134765625,-0.9699859619140625,-0.25311279296875,-0.04522705078125
1789552333550782700,2.80578271484375,-0.90557861328125,-0.3060302734375,-0.002685546875
1789552333560751600,2.815751708984375,-1.0275421142578125,-0.2323455810546875,0.011322021484375
1789552333570720800,2.825720703125,-1.0141143798828125,-0.2908172607421875,0.038421630859375
1789552333580689700,2.835689697265625,-0.989837646484375,-0.3463287353515625,-0.013336181640625
1789552333590658600,2.845658447265625,-0.98321533203125,-0.3565826416015625,0.035186767578125
1789552333600627700,2.855627685546875,-0.96722412109375,-0.3730621337890625,-0.0596466064453125
1789552333610597600,2.86559765625,-0.94903564453125,-0.3258056640625,-0.080413818359375
1789552333620566500,2.87556640625,-0.95440673828125,-0.368743896484375,-0.103179931640625
1789552333630535700,2.88553564453125,-0.940216064453125,-0.386474609375,0.0400543212890625
1789552333640504600,2.895504638671875,-0.881927490234375,-0.39788818359375,-0.0461883544921875
1789552333650473500,2.905473388671875,-0.8562774658203125,-0.396331787109375,0.025634765625
1789552333660442600,2.915442626953125,-0.8580780029296875,-0.372955322265625,-0.0225067138671875
1789552333670411500,2.92541162109375,-0.9529876708984375,-0.30328369140625,0.013153076171875
1789552333680381700,2.935381591796875,-0.94915771484375,-0.35321044921875,-0.10223388671875
1789552333690350800,2.945350830078125,-0.98443603515625,-0.3104400634765625,-0.1054534912109375
1789552333700319700,2.95531982421875,-1.0728607177734375,-0.2270660400390625,-0.001617431640625
1789552333710288600,2.96528857421875,-1.072418212890625,-0.2389678955078125,-0.0526580810546875
1789552333720257800,2.9752578125,-0.93505859375,-0.3175506591796875,-0.0364532470703125
1789552333730226700,2.985226806640625,-0.9129791259765625,-0.2938690185546875,-0.0087127685546875
1789552333740195800,2.99519580078125,-0.8746490478515625,-0.2829437255859375,-0.1754913330078125
1789552333750165800,3.005165771484375,-0.8916473388671875,-0.31304931640625,-0.0692291259765625
1789552333760134700,3.015134765625,-0.8366851806640625,-0.312652587890625,-0.1685943603515625
1789552333770103800,3.025103759765625,-0.82177734375,-0.3077392578125,-0.1202850341796875
1789552333780072700,3.03507275390625,-0.904083251953125,-0.253143310546875,-0.1588897705078125
1789552333790041600,3.04504150390625,-0.9561004638671875,-0.15771484375,-0.062408447265625
1789552333800010800,3.0550107421875,-1.0443572998046875,-0.12835693359375,-0.109649658203125
1789552333809979600,3.064979736328125,-1.0003814697265625,-0.3011932373046875,-0.1651763916015625
1789552333819949600,3.074949462890625,-1.023162841796875,-0.2522735595703125,-0.0957794189453125
1789552333829918700,3.084918701171875,-1.0213165283203125,-0.2313690185546875,-0.0354766845703125
1789552333839887600,3.0948876953125,-1.104034423828125,-0.2075347900390625,-0.128021240234375
1789552333849856500,3.1048564453125,-0.957733154296875,-0.3575897216796875,-0.04644775390625
1789552333859825700,3.11482568359375,-0.9534912109375,-0.3990478515625,-0.03350830078125
1789552333869794600,3.124794677734375,-1.0544891357421875,-0.2550506591796875,0.0333251953125
1789552333879763700,3.134763671875,-0.9768524169921875,-0.3666229248046875,0.081817626953125
1789552333889734000,3.14473388671875,-1.038818359375,-0.2456817626953125,0.0931854248046875
1789552333899702800,3.154702880859375,-0.9834136962890625,-0.27398681640625,0.0614166259765625
1789552333909671700,3.164671630859375,-1.005706787109375,-0.2408294677734375,0.1117706298828125
1789552333919640800,3.174640869140625,-0.975128173828125,-0.2710723876953125,0.2480621337890625
1789552333929609700,3.184609619140625,-1.0348358154296875,-0.2773895263671875,0.2161865234375
1789552333939579000,3.194578857421875,-1.013641357421875,-0.328826904296875,0.113677978515625
1789552333949547800,3.2045478515625,-0.9569854736328125,-0.396331787109375,0.0177154541015625
1789552333959516700,3.2145166015625,-0.8944549560546875,-0.4118499755859375,0.1608428955078125
1789552333969486600,3.224486572265625,-0.8899383544921875,-0.4292449951171875,0.0816192626953125
1789552333979455700,3.234455810546875,-0.8047027587890625,-0.4033050537109375,0.0771942138671875
1789552333989424600,3.244424560546875,-0.7641448974609375,-0.394561767578125,0.02020263671875
1789552333999393800,3.254393798828125,-0.7273712158203125,-0.3780975341796875,-0.119598388671875
1789552334009362700,3.26436279296875,-0.86944580078125,-0.29443359375,-0.0947113037109375
1789552334019331600,3.27433154296875,-0.9687347412109375,-0.2896270751953125,-0.0805816650390625
1789552334029300700,3.28430078125,-1.0514678955078125,-0.211273193359375,-0.02850341796875
1789552334039270700,3.294270751953125,-1.0347442626953125,-0.2558135986328125,-0.211578369140625
1789552334049239600,3.304239501953125,-0.999053955078125,-0.2852020263671875,0.0028076171875
1789552334059208700,3.314208740234375,-0.890533447265625,-0.3117523193359375,0.115081787109375
1789552334069177600,3.324177490234375,-0.838531494140625,-0.2291717529296875,-0.1132965087890625
1789552334079146500,3.334146484375,-0.8861541748046875,-0.1335601806640625,-0.162506103515625
1789552334089115400,3.344115478515625,-0.9016571044921875,-0.231597900390625,0.08294677734375
1789552334099084300,3.354084228515625,-0.9810028076171875,-0.2410430908203125,-0.00323486328125
1789552334109054200,3.36405419921875,-0.9906463623046875,-0.2297821044921875,0.1035308837890625
1789552334119023400,3.3740234375,-1.126068115234375,-0.0958404541015625,0.126708984375
1789552334128992300,3.3839921875,-1.01763916015625,-0.18218994140625,0.144683837890625
1789552334138961400,3.39396142578125,-0.964630126953125,-0.290130615234375,0.086578369140625
1789552334148930300,3.403930419921875,-0.9556884765625,-0.3886566162109375,-0.0233001708984375
1789552334158899200,3.413899169921875,-1.1290435791015625,-0.2885284423828125,0.0140228271484375
1789552334168868400,3.423868408203125,-1.2087554931640625,-0.276763916015625,0.0528411865234375
1789552334178837200,3.433837158203125,-1.0312652587890625,-0.4276580810546875,-0.0412139892578125
1789552334188807200,3.44380712890625,-0.9370880126953125,-0.45379638671875,0.0704345703125
1789552334198776300,3.4537763671875,-0.7554473876953125,-0.4813079833984375,-0.0374298095703125
1789552334208745200,3.4637451171875,-0.7083587646484375,-0.4781951904296875,0.012939453125
1789552334218714000,3.473714111328125,-0.86407470703125,-0.257171630859375,0.073974609375
1789552334228683300,3.483683349609375,-0.8155364990234375,-0.3653564453125,-0.023406982421875
1789552334238652200,3.493652099609375,-0.968017578125,-0.326507568359375,0.11614990234375
1789552334248621300,3.503621337890625,-0.98065185546875,-0.228424072265625,0.1503143310546875
1789552334258591500,3.513591552734375,-1.0702667236328125,-0.1827392578125,0.1210479736328125
1789552334268560400,3.523560302734375,-0.984283447265625,-0.2958831787109375,0.0777587890625
1789552334278529300,3.533529296875,-1.045623779296875,-0.2354583740234375,0.0789031982421875
1789552334288498400,3.54349853515625,-1.0118865966796875,-0.238922119140625,0.1309814453125
1789552334298467300,3.55346728515625,-1.0184783935546875,-0.2890472412109375,0.1137847900390625
1789552334308436500,3.5634365234375,-0.952392578125,-0.2711639404296875,-0.01104736328125
1789552334318405400,3.5734052734375,-0.9488677978515625,-0.24884033203125,-0.024261474609375
1789552334328374300,3.583374267578125,-0.98114013671875,-0.260589599609375,-0.01947021484375
1789552334338344400,3.593344482421875,-0.9439697265625,-0.2922210693359375,0.02587890625
1789552334348313300,3.603313232421875,-1.003326416015625,-0.218963623046875,0.0492095947265625
1789552334358282200,3.6132822265625,-1.005859375,-0.1790008544921875,-0.0737762451171875
1789552334368251400,3.62325146484375,-0.9288330078125,-0.23590087890625,0.04986572265625
1789552334378220300,3.63322021484375,-0.8779296875,-0.298065185546875,0.0384674072265625
1789552334388189400,3.643189453125,-1.03497314453125,-0.1629486083984375,0.0098114013671875
1789552334398158300,3.653158447265625,-1.0133514404296875,-0.24041748046875,0.0133056640625
1789552334408128300,3.663128173828125,-1.0076446533203125,-0.2871551513671875,-0.049530029296875
1789552334418097200,3.67309716796875,-1.020538330078125,-0.284942626953125,-0.0167236328125
1789552334428066300,3.68306640625,-1.048492431640625,-0.2983245849609375,-0.0819854736328125
1789552334438035200,3.69303515625,-0.9677734375,-0.3167572021484375,-0.0389862060546875
1789552334448004400,3.70300439453125,-0.9555206298828125,-0.2868194580078125,-0.1058502197265625
1789552334457973200,3.71297314453125,-0.86541748046875,-0.35345458984375,-0.1947479248046875
1789552334467942100,3.722942138671875,-0.855987548828125,-0.4003753662109375,-0.0463104248046875
1789552334477911300,3.732911376953125,-0.8675079345703125,-0.3908538818359375,-0.037506103515625
1789552334487881500,3.742881591796875,-0.950103759765625,-0.332427978515625,0.050048828125
1789552334497850400,3.752850341796875,-0.9539642333984375,-0.3593292236328125,0.03314208984375
1789552334507819500,3.762819580078125,-0.8955535888671875,-0.409820556640625,0.115692138671875
1789552334517788400,3.772788330078125,-0.936279296875,-0.411224365234375,-0.0014801025390625
1789552334527757300,3.78275732421875,-0.943939208984375,-0.2902679443359375,0.06695556640625
1789552334537726500,3.7927265625,-1.0046844482421875,-0.235107421875,0.038665771484375
1789552334547695400,3.8026953125,-0.9510955810546875,-0.345001220703125,-0.0344696044921875
1789552334557665300,3.812665283203125,-0.8969573974609375,-0.3200531005859375,-0.0643157958984375
1789552334567634400,3.822634521484375,-0.8807220458984375,-0.1844940185546875,-0.089447021484375
1789552334577603300,3.832603271484375,-0.869659423828125,-0.1737060546875,-0.0153045654296875
1789552334587572200,3.842572265625,-0.8248138427734375,-0.33203125,-0.059967041015625
1789552334597541400,3.852541259765625,-0.9348602294921875,-0.332000732421875,-0.1741485595703125
1789552334607510300,3.86251025390625,-1.103485107421875,-0.23419189453125,-0.0828704833984375
1789552334617479400,3.8724794921875,-1.1697998046875,-0.22259521484375,0.0329437255859375
1789552334627448300,3.8824482421875,-1.140228271484375,-0.27374267578125,-0.0280609130859375
1789552334637418200,3.892418212890625,-0.97833251953125,-0.3267364501953125,0.07818603515625
1789552334647387400,3.902387451171875,-0.8494415283203125,-0.3834381103515625,0.0110321044921875
1789552334657356300,3.912356201171875,-0.8309173583984375,-0.4133758544921875,0.00665283203125
1789552334667325200,3.9223251953125,-0.9081878662109375,-0.2751922607421875,0.004608154296875
1789552334677294300,3.93229443359375,-0.8486175537109375,-0.3536224365234375,0.06646728515625
1789552334687263200,3.94226318359375,-0.8629302978515625,-0.353302001953125,0.111480712890625
1789552334697232100,3.952232177734375,-0.9228973388671875,-0.259979248046875,0.118255615234375
1789552334707201300,3.962201171875,-0.9631500244140625,-0.2205810546875,0.04901123046875
1789552334717171500,3.97217138671875,-0.9565887451171875,-0.2788848876953125,0.067657470703125
1789552334727140400,3.982140380859375,-0.9980316162109375,-0.31231689453125,0.0071868896484375
1789552334737109500,3.992109619140625,-1.0688934326171875,-0.2010498046875,0.070465087890625
1789552334747078400,4.002078369140625,-0.898681640625,-0.339691162109375,0.1256256103515625
1789552334757047300,4.01204736328125,-0.9705352783203125,-0.3060150146484375,-0.0633087158203125
1789552334767016400,4.022016357421875,-0.95867919921875,-0.26318359375,0.042266845703125
1789552334776985300,4.0319853515625,-0.965545654296875,-0.321563720703125,-0.0180511474609375
1789552334786954500,4.04195458984375,-1.047332763671875,-0.26007080078125,0.0662689208984375
1789552334796924400,4.05192431640625,-1.08721923828125,-0.1794891357421875,0.15240478515625
1789552334806893300,4.061893310546875,-0.9469757080078125,-0.268402099609375,0.0171661376953125
1789552334816862500,4.071862548828125,-0.891265869140625,-0.2845916748046875,0.09552001953125
1789552334826831400,4.081831298828125,-0.9056549072265625,-0.2841949462890625,0.1902008056640625
1789552334836800300,4.09180029296875,-0.9392852783203125,-0.3350830078125,0.125640869140625
1789552334846769400,4.101769287109375,-0.980987548828125,-0.310272216796875,0.0369873046875
1789552334856738300,4.11173828125,-1.04180908203125,-0.306915283203125,-0.0347442626953125
1789552334866707200,4.121707275390625,-0.9976654052734375,-0.34942626953125,0.114410400390625
1789552334876677400,4.131677490234375,-1.0440521240234375,-0.2703857421875,-0.1200714111328125
1789552334886646300,4.141646240234375,-0.9873199462890625,-0.1930389404296875,-0.1892242431640625
1789552334896615200,4.151615234375,-0.7617645263671875,-0.3407440185546875,0.049652099609375
1789552334906584300,4.161584228515625,-0.75408935546875,-0.2675933837890625,-0.037933349609375
1789552334916553200,4.17155322265625,-0.8651885986328125,-0.2154693603515625,0.0507049560546875
1789552334926522400,4.1815224609375,-0.9821929931640625,-0.2073516845703125,0.0034942626953125
1789552334936491300,4.1914912109375,-1.0455322265625,-0.1223602294921875,0.0335540771484375
1789552334946460200,4.201460205078125,-0.9717254638671875,-0.222015380859375,-0.1107940673828125
1789552334956430300,4.211430419921875,-0.940216064453125,-0.29443359375,0.033599853515625
1789552334966399500,4.2213994140625,-1.0828704833984375,-0.1728668212890625,0.090728759765625
1789552334976368400,4.231368408203125,-1.0439453125,-0.21197509765625,0.0734100341796875
1789552334986337500,4.241337646484375,-0.9974212646484375,-0.307647705078125,0.019622802734375
1789552334996306400,4.251306396484375,-0.9137420654296875,-0.372283935546875,0.014404296875
1789552335006275300,4.261275390625,-0.8392181396484375,-0.376617431640625,-0.024017333984375
1789552335016244500,4.271244384765625,-0.806549072265625,-0.305694580078125,0.0117034912109375
1789552335026213400,4.28121337890625,-0.845123291015625,-0.2889251708984375,-0.0753173828125
1789552335036183300,4.291183349609375,-0.8003997802734375,-0.35614013671875,-0.0654449462890625
1789552335046152400,4.30115234375,-0.976104736328125,-0.2832794189453125,-0.103729248046875
1789552335056121300,4.311121337890625,-1.06195068359375,-0.3077850341796875,-0.0300140380859375
1789552335066090200,4.32109033203125,-1.1864471435546875,-0.269744873046875,0.029144287109375
1789552335076059400,4.331059326171875,-1.087371826171875,-0.3302154541015625,0.0687255859375
1789552335086029000,4.341029052734375,-0.9477081298828125,-0.3702239990234375,-0.0456695556640625
1789552335095998000,4.350998046875,-0.7911224365234375,-0.4691314697265625,-0.0303192138671875
1789552335105967000,4.360967041015625,-0.7991180419921875,-0.3618011474609375,-0.02703857421875
1789552335115937000,4.37093701171875,-0.8064727783203125,-0.34039306640625,0.019439697265625
1789552335125906000,4.380906005859375,-0.853607177734375,-0.3176116943359375,0.0280609130859375
1789552335135875000,4.390875,-1.0001373291015625,-0.1971435546875,0.02508544921875
1789552335145844000,4.400843994140625,-1.0511322021484375,-0.17608642578125,-0.0010528564453125
1789552335155812900,4.410812744140625,-1.11248779296875,-0.09796142578125,-0.2230682373046875
1789552335165782000,4.420781982421875,-1.0702056884765625,-0.2197418212890625,-0.100860595703125
1789552335175751000,4.4307509765625,-1.044677734375,-0.288726806640625,0.03173828125
1789552335185720000,4.440719970703125,-0.9995269775390625,-0.2811126708984375,0.275115966796875
1789552335195690200,4.450690185546875,-0.835418701171875,-0.170379638671875,0.0861358642578125
1789552335205659100,4.4606591796875,-0.735809326171875,-0.193603515625,0.1741943359375
1789552335215628000,4.4706279296875,-0.8728179931640625,-0.4451751708984375,0.0549468994140625
1789552335225597200,4.48059716796875,-1.0204620361328125,-0.4194488525390625,-0.05609130859375
1789552335235566000,4.490566162109375,-1.218414306640625,-0.1685943603515625,-0.1342010498046875
1789552335245535200,4.50053515625,-1.06451416015625,-0.3940277099609375,0.09869384765625
1789552335255504100,4.510504150390625,-1.024810791015625,-0.2979888916015625,-0.175994873046875
1789552335265473000,4.52047314453125,-0.9478759765625,-0.206878662109375,-0.1797027587890625
1789552335275443200,4.530443115234375,-0.843902587890625,-0.225799560546875,-0.1475982666015625
1789552335285412000,4.540412109375,-0.8463287353515625,-0.321258544921875,-0.230712890625
1789552335295381000,4.550381103515625,-0.962158203125,-0.2809600830078125,-0.1851654052734375
1789552335305350100,4.56035009765625,-0.98309326171875,-0.220489501953125,-0.273284912109375
1789552335315319000,4.570319091796875,-1.0019378662109375,-0.1545562744140625,-0.294097900390625
1789552335325288000,4.580287841796875,-0.897735595703125,-0.1788787841796875,-0.110565185546875
1789552335335257000,4.590257080078125,-0.8830718994140625,-0.2248077392578125,-0.16058349609375
1789552335345226000,4.60022607421875,-0.9289398193359375,-0.221832275390625,-0.116790771484375
1789552335355195100,4.610195068359375,-0.962738037109375,-0.2432403564453125,0.0200653076171875
1789552335365165000,4.6201650390625,-1.02410888671875,-0.2885284423828125,0.0501861572265625
1789552335375134000,4.630134033203125,-1.0514678955078125,-0.265716552734375,0.1313629150390625
1789552335385103000,4.64010302734375,-1.0370330810546875,-0.3678741455078125,0.128021240234375
1789552335395072000,4.650072021484375,-1.0262298583984375,-0.3798065185546875,0.086395263671875
1789552335405041000,4.660041015625,-0.8957977294921875,-0.388397216796875,-0.0418548583984375
1789552335415010000,4.670010009765625,-0.9371795654296875,-0.3387908935546875,-0.0695953369140625
1789552335424979000,4.67997900390625,-0.9095001220703125,-0.3512420654296875,-0.0915374755859375
1789552335434947800,4.68994775390625,-0.97967529296875,-0.3661041259765625,-0.0244293212890625
1789552335444918300,4.699918212890625,-0.9970703125,-0.3682098388671875,-0.107147216796875
1789552335454887200,4.70988720703125,-0.9799041748046875,-0.3325958251953125,-0.1403350830078125
1789552335464856000,4.71985595703125,-0.9354095458984375,-0.3355865478515625,-0.1307525634765625
1789552335474825200,4.7298251953125,-0.8529510498046875,-0.3914031982421875,-0.1201324462890625
1789552335484794000,4.739794189453125,-0.788177490234375,-0.414306640625,-0.133880615234375
1789552335494763000,4.749762939453125,-0.9804840087890625,-0.2631683349609375,-0.0507659912109375
1789552335504732200,4.759732177734375,-1.0286712646484375,-0.267547607421875,-0.008636474609375
1789552335514701000,4.769701171875,-1.13726806640625,-0.250823974609375,0.0281524658203125
1789552335524670200,4.779670166015625,-1.1752471923828125,-0.243011474609375,-0.038970947265625
1789552335534640000,4.78964013671875,-0.9045562744140625,-0.4486846923828125,0.0744476318359375
1789552335544609000,4.799609130859375,-0.781036376953125,-0.4124603271484375,0.0083465576171875
1789552335554578200,4.809578125,-0.7492828369140625,-0.267822265625,-0.020965576171875
1789552335564547000,4.819547119140625,-0.7530975341796875,-0.27294921875,0.0856781005859375
1789552335574516000,4.829515869140625,-0.8346099853515625,-0.21539306640625,-0.046417236328125
1789552335584485000,4.839485107421875,-0.9776153564453125,-0.20184326171875,0.1402740478515625
1789552335594454000,4.8494541015625,-1.10882568359375,-0.1793365478515625,0.0272216796875
1789552335604423200,4.859423095703125,-1.0947113037109375,-0.2107696533203125,0.1776885986328125
1789552335614393000,4.86939306640625,-1.074462890625,-0.1382293701171875,0.0162506103515625
1789552335624362000,4.879362060546875,-1.019287109375,-0.2252655029296875,0.053466796875
1789552335634331000,4.889330810546875,-0.9871368408203125,-0.321929931640625,-0.00848388671875
1789552335644300000,4.899300048828125,-0.924072265625,-0.2930755615234375,-0.0423126220703125
1789552335654269000,4.90926904296875,-0.971221923828125,-0.2831268310546875,0.044403076171875
1789552335664238000,4.919238037109375,-0.960845947265625,-0.1921234130859375,0.073516845703125
1789552335674207000,4.92920703125,-0.9237518310546875,-0.300994873046875,0.035430908203125
1789552335684176000,4.93917578125,-0.9580535888671875,-0.37823486328125,0.0787353515625
1789552335694146000,4.94914599609375,-1.0858154296875,-0.1773681640625,0.09130859375
1789552335704115200,4.959115234375,-0.906829833984375,-0.3458404541015625,0.1298828125
1789552335714084000,4.969083984375,-0.9043426513671875,-0.2909698486328125,0.2078094482421875
1789552335724053200,4.97905322265625,-0.98248291015625,-0.3121185302734375,0.104461669921875
1789552335734022100,4.989022216796875,-1.062225341796875,-0.291290283203125,0.130615234375
1789552335743991000,4.998990966796875,-1.047943115234375,-0.2602691650390625,0.0587921142578125
1789552335753960200,5.008960205078125,-0.9052276611328125,-0.3733367919921875,0.1279144287109375
1789552335763929000,5.01892919921875,-0.9007415771484375,-0.3875732421875,0.0815887451171875
1789552335773898200,5.028898193359375,-0.816558837890625,-0.3596649169921875,0.1128997802734375
1789552335783868200,5.0388681640625,-0.897979736328125,-0.2539215087890625,0.10186767578125
1789552335793837000,5.048837158203125,-0.892730712890625,-0.3080902099609375,0.2035675048828125
1789552335803806000,5.058805908203125,-0.99176025390625,-0.3098602294921875,0.1734466552734375
1789552335813775000,5.068775146484375,-1.044189453125,-0.3345489501953125,0.10882568359375
1789552335823744000,5.078743896484375,-1.02850341796875,-0.353240966796875,0.131103515625
1789552335833713200,5.088713134765625,-0.94659423828125,-0.3643341064453125,0.0635986328125
1789552335843682000,5.09868212890625,-0.941650390625,-0.242340087890625,0.0782012939453125
1789552335853651000,5.10865087890625,-0.957305908203125,-0.3956146240234375,0.1296844482421875
1789552335863621000,5.11862109375,-1.08795166015625,-0.2015533447265625,-0.1259307861328125
1789552335873590000,5.128590087890625,-1.0186920166015625,-0.274261474609375,0.034576416015625
1789552335883559000,5.138558837890625,-0.83758544921875,-0.325927734375,-0.134124755859375
1789552335893528000,5.148528076171875,-0.7821502685546875,-0.27825927734375,-0.094573974609375
1789552335903497000,5.1584970703125,-0.7917633056640625,-0.26593017578125,-0.0279541015625
1789552335913465900,5.1684658203125,-0.7524261474609375,-0.2721099853515625,-0.0919952392578125
1789552335923435000,5.17843505859375,-0.9376373291015625,-0.1257476806640625,0.024871826171875
1789552335933404000,5.18840380859375,-1.0821990966796875,-0.183685302734375,-0.0388336181640625
1789552335943373000,5.198373046875,-1.16326904296875,-0.2194976806640625,0.055267333984375
1789552335953343200,5.20834326171875,-1.2993621826171875,-0.155914306640625,0.0658111572265625
1789552335963312000,5.21831201171875,-1.0374603271484375,-0.332489013671875,0.034393310546875
1789552335973281000,5.228281005859375,-0.86590576171875,-0.3185882568359375,0.069854736328125
1789552335983250200,5.238250244140625,-0.7933807373046875,-0.265228271484375,-0.103363037109375
1789552335993219000,5.248218994140625,-0.667877197265625,-0.3551788330078125,-0.121002197265625
1789552336003188200,5.258188232421875,-0.83929443359375,-0.2021484375,0.0232086181640625
1789552336013157000,5.2681572265625,-0.8485107421875,-0.3308563232421875,-0.152618408203125
1789552336023126000,5.2781259765625,-0.9208526611328125,-0.3152618408203125,-0.0906829833984375
1789552336033096200,5.28809619140625,-0.984527587890625,-0.2735748291015625,0.03521728515625
1789552336043065000,5.298065185546875,-1.0754852294921875,-0.1649017333984375,0.0176544189453125
1789552336053034000,5.308033935546875,-0.99017333984375,-0.312408447265625,-0.0192718505859375
1789552336063003100,5.318003173828125,-0.9849395751953125,-0.351806640625,-0.0284576416015625
1789552336072972000,5.327971923828125,-1.0309906005859375,-0.2438812255859375,-0.0277252197265625
1789552336082940000,5.33793994140625,-0.9658966064453125,-0.340240478515625,0.00738525390625
1789552336092908800,5.34790869140625,-1.0045013427734375,-0.273101806640625,0.1417999267578125
1789552336102878000,5.3578779296875,-1.0498809814453125,-0.2490997314453125,0.093170166015625
1789552336112848100,5.36784814453125,-1.0153045654296875,-0.263702392578125,0.2758331298828125
1789552336122817000,5.377817138671875,-0.970550537109375,-0.3113250732421875,0.1169891357421875
1789552336132786000,5.387785888671875,-0.8886566162109375,-0.327972412109375,0.0567169189453125
1789552336142755000,5.397755126953125,-0.8388671875,-0.366973876953125,0.208038330078125
1789552336152724000,5.407723876953125,-0.8862762451171875,-0.33380126953125,0.1572113037109375
1789552336162693000,5.417693115234375,-0.91632080078125,-0.3817901611328125,0.198516845703125
1789552336172662000,5.427662109375,-1.001190185546875,-0.277801513671875,0.1237640380859375
1789552336182631000,5.437630859375,-1.0428466796875,-0.2479400634765625,0.062896728515625
1789552336192600000,5.44760009765625,-1.0432586669921875,-0.2894744873046875,0.113983154296875
1789552336202570000,5.457570068359375,-1.0046844482421875,-0.17388916015625,0.0789031982421875
1789552336212539000,5.467538818359375,-0.8980865478515625,-0.2200775146484375,0.157196044921875
1789552336222508000,5.477508056640625,-0.9870758056640625,-0.2162322998046875,0.04937744140625
1789552336232477000,5.487476806640625,-0.926055908203125,-0.234649658203125,-0.013397216796875
1789552336242445800,5.49744580078125,-0.9173431396484375,-0.2611846923828125,0.026947021484375
1789552336252415000,5.5074150390625,-0.9624481201171875,-0.2784271240234375,-0.056854248046875
1789552336262383900,5.5173837890625,-0.9585723876953125,-0.2808990478515625,-0.0462799072265625
1789552336272353000,5.52735302734375,-1.0111846923828125,-0.273223876953125,-0.1632080078125
1789552336282323000,5.537322998046875,-0.9664459228515625,-0.34002685546875,-0.11322021484375
1789552336292291800,5.547291748046875,-0.9274444580078125,-0.3826141357421875,-0.269927978515625
1789552336302261000,5.557260986328125,-1.0417938232421875,-0.2861175537109375,-0.21142578125
1789552336312230000,5.56722998046875,-1.0996856689453125,-0.190521240234375,-0.23052978515625
1789552336322198800,5.57719873046875,-0.8600616455078125,-0.3548736572265625,-0.218780517578125
1789552336332168000,5.58716796875,-0.7180023193359375,-0.41302490234375,-0.2461395263671875
1789552336342136800,5.59713671875,-0.6526641845703125,-0.4127197265625,-0.215728759765625
1789552336352105700,5.607105712890625,-0.80755615234375,-0.1765594482421875,-0.130859375
1789552336362076200,5.617076171875,-1.120819091796875,-0.0850830078125,-0.150054931640625
1789552336372045000,5.627045166015625,-1.362640380859375,-0.0504913330078125,-0.0611419677734375
1789552336382014000,5.637013916015625,-1.294647216796875,-0.204498291015625,-0.07391357421875
1789552336391983000,5.646983154296875,-1.0512847900390625,-0.3943023681640625,-0.1144256591796875
1789552336401952000,5.656951904296875,-0.831878662109375,-0.369232177734375,-0.0693817138671875
1789552336411921200,5.666921142578125,-0.8074493408203125,-0.2556610107421875,-0.1938018798828125
1789552336421890000,5.67689013671875,-0.6710968017578125,-0.359100341796875,-0.147491455078125
1789552336431859000,5.68685888671875,-0.7865142822265625,-0.293548583984375,-0.1014404296875
1789552336441828900,5.696828857421875,-0.9353790283203125,-0.247528076171875,-0.09027099609375
1789552336451798000,5.706798095703125,-1.0254974365234375,-0.2085113525390625,-0.01641845703125
1789552336461767000,5.716766845703125,-0.9385833740234375,-0.27154541015625,-0.159088134765625
1789552336471736000,5.726736083984375,-0.9794464111328125,-0.1882781982421875,-0.082061767578125
1789552336481705000,5.736705078125,-0.942596435546875,-0.3180389404296875,-0.100555419921875
1789552336491673900,5.746673828125,-1.123626708984375,-0.294708251953125,-0.0337371826171875
1789552336501643000,5.75664306640625,-1.05010986328125,-0.2449798583984375,-0.049713134765625
1789552336511612000,5.76661181640625,-0.96258544921875,-0.3493194580078125,0.002838134765625
1789552336521581800,5.776581787109375,-0.939727783203125,-0.262054443359375,0.1221466064453125
1789552336531551000,5.786551025390625,-0.91748046875,-0.2919464111328125,0.021148681640625
1789552336541520000,5.796519775390625,-0.944549560546875,-0.2578582763671875,0.0541229248046875
1789552336551488800,5.80648876953125,-0.910980224609375,-0.2721710205078125,0.0775604248046875
1789552336561458000,5.8164580078125,-0.9698944091796875,-0.27069091796875,-0.032379150390625
1789552336571426800,5.8264267578125,-0.8645782470703125,-0.390869140625,0.0652313232421875
1789552336581396000,5.83639599609375,-0.8767547607421875,-0.4718475341796875,0.01361083984375
1789552336591366100,5.8463662109375,-1.007659912109375,-0.359832763671875,0.0203857421875
1789552336601335000,5.8563349609375,-1.023712158203125,-0.302581787109375,-0.026947021484375
1789552336611304000,5.866303955078125,-1.0284271240234375,-0.3222808837890625,-0.13677978515625
1789552336621273000,5.876273193359375,-1.007415771484375,-0.2770538330078125,-0.0553131103515625
1789552336631242000,5.886241943359375,-0.9514007568359375,-0.2187957763671875,-0.1430816650390625
1789552336641211100,5.896211181640625,-0.826873779296875,-0.3647613525390625,-0.010833740234375
1789552336651180000,5.906179931640625,-0.824310302734375,-0.3425750732421875,-0.054412841796875
1789552336661149000,5.91614892578125,-0.8826751708984375,-0.256683349609375,-0.0700531005859375
1789552336671118800,5.926118896484375,-0.9300384521484375,-0.259765625,-0.022186279296875
1789552336681088000,5.936087890625,-0.9540863037109375,-0.2660369873046875,-0.0237884521484375
1789552336691057000,5.946056884765625,-1.0225830078125,-0.2707061767578125,-0.0276641845703125
1789552336701026000,5.956026123046875,-1.064453125,-0.2430267333984375,-0.0261688232421875
1789552336710995000,5.965994873046875,-1.0407562255859375,-0.2415313720703125,0.11279296875
1789552336720963800,5.9759638671875,-1.0736846923828125,-0.25738525390625,-0.04962158203125
1789552336730933000,5.98593310546875,-1.06634521484375,-0.225494384765625,-0.00518798828125
1789552336740903000,5.99590283203125,-1.0001220703125,-0.187896728515625,-0.038330078125
1789552336750871800,6.005871826171875,-0.8894500732421875,-0.304107666015625,-0.0030364990234375
1789552336760841000,6.015841064453125,-0.9466552734375,-0.250457763671875,0.0164947509765625
1789552336770809900,6.025809814453125,-0.921661376953125,-0.256134033203125,-0.0026397705078125
1789552336780779000,6.035779052734375,-0.9019927978515625,-0.2559356689453125,0.0801544189453125
1789552336790748000,6.045747802734375,-0.9742279052734375,-0.3132171630859375,0.0453033447265625
1789552336800716800,6.055716796875,-1.017578125,-0.2556915283203125,0.1316375732421875
1789552336810687000,6.06568701171875,-1.1071014404296875,-0.3094482421875,0.16607666015625
1789552336820656000,6.07565625,-1.001678466796875,-0.466949462890625,0.0732421875
1789552336830625000,6.085625,-0.991455078125,-0.30328369140625,0.11474609375
1789552336840594200,6.09559423828125,-0.8351287841796875,-0.39483642578125,0.0671234130859375
1789552336850563000,6.10556298828125,-0.6711273193359375,-0.4631500244140625,0.0513916015625
1789552336860532000,6.115531982421875,-0.8378143310546875,-0.2790679931640625,0.100860595703125
1789552336870501000,6.125501220703125,-0.8864898681640625,-0.2858428955078125,0.035797119140625
1789552336880471000,6.135470947265625,-0.9201812744140625,-0.236236572265625,-0.00531005859375
1789552336890440000,6.14543994140625,-0.98114013671875,-0.28662109375,-0.0486602783203125
1789552336900409000,6.1554091796875,-1.0414886474609375,-0.2321929931640625,-0.05572509765625
1789552336910378000,6.1653779296875,-1.0430755615234375,-0.3424072265625,-0.05816650390625
1789552336920347000,6.175346923828125,-0.9605560302734375,-0.311798095703125,0.0424957275390625
1789552336930316000,6.18531591796875,-0.981201171875,-0.248626708984375,0.04620361328125
1789552336940285000,6.195284912109375,-0.964263916015625,-0.1913604736328125,0.083038330078125
1789552336950254800,6.2052548828125,-0.9061737060546875,-0.21966552734375,0.1399688720703125
1789552336960224000,6.21522412109375,-0.88970947265625,-0.2445220947265625,0.10040283203125
1789552336970193000,6.22519287109375,-1.01068115234375,-0.19476318359375,0.1429595947265625
1789552336980161800,6.235161865234375,-1.0818939208984375,-0.1444854736328125,0.075714111328125
1789552336990131000,6.245130859375,-1.04608154296875,-0.2421112060546875,0.019012451171875
1789552337000099800,6.255099853515625,-1.009979248046875,-0.2708892822265625,0.092315673828125
1789552337010069000,6.265069091796875,-0.8769378662109375,-0.325103759765625,0.19317626953125
1789552337020039000,6.275038818359375,-1.00201416015625,-0.2108612060546875,0.0829620361328125
1789552337030007800,6.2850078125,-1.0377655029296875,-0.23492431640625,0.0149383544921875
1789552337039977000,6.29497705078125,-0.9650115966796875,-0.36529541015625,-0.0029449462890625
1789552337049946000,6.304946044921875,-1.0297088623046875,-0.2005615234375,-0.0408477783203125
1789552337059915000,6.3149150390625,-0.895416259765625,-0.3231048583984375,-0.0294036865234375
1789552337069884200,6.32488427734375,-0.794281005859375,-0.3389739990234375,0.12640380859375
1789552337079853000,6.33485302734375,-0.7815093994140625,-0.2718353271484375,0.0625762939453125
1789552337089824300,6.34482421875,-0.82257080078125,-0.3200836181640625,0.0422821044921875
1789552337099793200,6.354793212890625,-0.9215850830078125,-0.350311279296875,-0.0004425048828125
1789552337109762300,6.36476220703125,-1.009765625,-0.307403564453125,0.0498199462890625
1789552337119731200,6.374731201171875,-1.0167694091796875,-0.2747039794921875,0.0645904541015625
1789552337129700000,6.3847001953125,-0.99957275390625,-0.2777862548828125,0.1162109375
1789552337139669200,6.394669189453125,-0.9666900634765625,-0.311614990234375,0.1285858154296875
1789552337149638100,6.40463818359375,-0.999176025390625,-0.2859954833984375,0.0301971435546875
1789552337159608000,6.414608154296875,-1.0524139404296875,-0.19757080078125,0.060394287109375
1789552337169577200,6.4245771484375,-1.006683349609375,-0.2277374267578125,-0.00531005859375
1789552337179546000,6.434546142578125,-0.8571319580078125,-0.3620452880859375,-0.01556396484375
1789552337189515000,6.444514892578125,-0.8624267578125,-0.2981719970703125,0.0659332275390625
1789552337199484200,6.454484130859375,-0.8701324462890625,-0.24261474609375,0.0559539794921875
1789552337209453000,6.464453125,-0.8938446044921875,-0.2301177978515625,0.04931640625
1789552337219422200,6.474422119140625,-1.030517578125,-0.1911468505859375,-0.114471435546875
1789552337229392400,6.484392333984375,-1.109283447265625,-0.2139434814453125,-0.0202178955078125
1789552337239361300,6.494361328125,-1.1179046630859375,-0.2499847412109375,-0.0055999755859375
1789552337249330200,6.504330078125,-1.0686187744140625,-0.2859344482421875,0.0791015625
1789552337259299300,6.51429931640625,-0.9467010498046875,-0.312164306640625,-0.0570068359375
1789552337269268200,6.524268310546875,-0.786468505859375,-0.373077392578125,-0.1381378173828125
1789552337279237400,6.5342373046875,-0.8317718505859375,-0.3047637939453125,-0.015655517578125
1789552337289207300,6.544207275390625,-0.86669921875,-0.3123321533203125,-0.1158905029296875
1789552337299176200,6.55417626953125,-0.9363250732421875,-0.2834930419921875,-0.03631591796875
1789552337309145000,6.56414501953125,-0.903076171875,-0.320709228515625,-0.08502197265625
1789552337319114200,6.5741142578125,-1.022186279296875,-0.2500457763671875,-0.207916259765625
1789552337329083100,6.584083251953125,-0.996246337890625,-0.309234619140625,-0.086212158203125
1789552337339052300,6.59405224609375,-1.004608154296875,-0.3363037109375,-0.1732177734375
1789552337349021200,6.604021240234375,-1.02630615234375,-0.2600250244140625,-0.096282958984375
1789552337358990000,6.613989990234375,-0.9772491455078125,-0.2631072998046875,-0.1132049560546875
1789552337368960300,6.623960205078125,-0.9300689697265625,-0.262939453125,-0.105224609375
1789552337378929200,6.63392919921875,-0.8975372314453125,-0.2617645263671875,-0.0033721923828125
1789552337388898000,6.64389794921875,-0.9183197021484375,-0.2633209228515625,-0.0623779296875
1789552337398867200,6.6538671875,-0.9919281005859375,-0.2178192138671875,0.0027618408203125
1789552337408836000,6.663836181640625,-0.975616455078125,-0.249664306640625,0.0256805419921875
1789552337418805200,6.67380517578125,-0.9098358154296875,-0.319732666015625,-0.001983642578125
1789552337428775400,6.683775390625,-0.9636993408203125,-0.3013916015625,-0.0068817138671875
1789552337438744300,6.693744384765625,-1.0663604736328125,-0.2619476318359375,-0.00494384765625
1789552337448713200,6.703713134765625,-1.021240234375,-0.2558441162109375,-0.0166015625
1789552337458682400,6.713682373046875,-0.8852691650390625,-0.3199310302734375,-0.154541015625
1789552337468651300,6.7236513671875,-0.9133453369140625,-0.251953125,-0.0507659912109375
1789552337478620400,6.733620361328125,-0.91107177734375,-0.2504425048828125,-0.1147003173828125
1789552337488589300,6.74358935546875,-0.949310302734375,-0.2503662109375,-0.033721923828125
1789552337498559200,6.753559326171875,-0.8684539794921875,-0.27850341796875,0.021575927734375
1789552337508528000,6.763528076171875,-0.9508056640625,-0.2672271728515625,0.014251708984375
1789552337518497300,6.773497314453125,-0.9144439697265625,-0.32720947265625,0.0952911376953125
1789552337528466200,6.783466064453125,-0.8318634033203125,-0.3811492919921875,-0.0153350830078125
1789552337538435300,6.793435302734375,-0.93597412109375,-0.26849365234375,-0.0433807373046875
1789552337548404200,6.803404296875,-0.9436187744140625,-0.2493438720703125,-0.0202484130859375
1789552337558373000,6.813373046875,-0.99517822265625,-0.253173828125,0.030548095703125
1789552337568343000,6.823343017578125,-0.9258880615234375,-0.376373291015625,0.002105712890625
1789552337578312200,6.833312255859375,-1.061248779296875,-0.2154541015625,0.0067138671875
1789552337588281000,6.843281005859375,-1.1626739501953125,-0.171600341796875,-0.0229644775390625
1789552337598250200,6.853250244140625,-0.989532470703125,-0.34930419921875,-0.1194610595703125
1789552337608219100,6.86321923828125,-0.9197845458984375,-0.3083343505859375,-0.181243896484375
1789552337618188000,6.87318798828125,-0.8564300537109375,-0.352325439453125,0.0419158935546875
1789552337628157200,6.8831572265625,-0.8778533935546875,-0.295928955078125,-0.0227813720703125
1789552337638127000,6.893127197265625,-0.9039306640625,-0.29315185546875,-0.00457763671875
1789552337648096000,6.903095947265625,-1.029266357421875,-0.2335052490234375,-0.1048431396484375
1789552337658065400,6.9130654296875,-1.0711517333984375,-0.3075408935546875,0.0590667724609375
1789552337668034300,6.923034423828125,-1.0933837890625,-0.2489166259765625,-0.0572662353515625
1789552337678003200,6.933003173828125,-0.985015869140625,-0.222503662109375,0.0562896728515625
1789552337687972400,6.942972412109375,-0.82672119140625,-0.352813720703125,-0.1292572021484375
1789552337697941200,6.952941162109375,-0.828857421875,-0.253631591796875,0.0413970947265625
1789552337707911200,6.9629111328125,-0.8760223388671875,-0.2837982177734375,-0.055145263671875
1789552337717880300,6.97288037109375,-0.9084014892578125,-0.375518798828125,-0.031768798828125
1789552337727849200,6.98284912109375,-1.021636962890625,-0.1962432861328125,0.0034027099609375
1789552337737818400,6.992818359375,-1.0227813720703125,-0.156463623046875,-0.0563507080078125
1789552337747787300,7.002787353515625,-0.9119720458984375,-0.346099853515625,-0.056121826171875
1789552337757756200,7.012756103515625,-0.93017578125,-0.3399200439453125,-0.0194854736328125
1789552337767725300,7.022725341796875,-0.9473724365234375,-0.2573699951171875,-0.00274658203125
1789552337777695200,7.0326953125,-1.060821533203125,-0.1370697021484375,0.1101837158203125
1789552337787664100,7.0426640625,-1.0348052978515625,-0.2319183349609375,0.1371917724609375
1789552337797633300,7.05263330078125,-1.05535888671875,-0.3083343505859375,0.134674072265625
1789552337807602200,7.062602294921875,-1.0678253173828125,-0.3510894775390625,0.0998077392578125
1789552337817571000,7.072571044921875,-1.0018463134765625,-0.3300323486328125,0.14678955078125
1789552337827540200,7.082540283203125,-0.888885498046875,-0.3189697265625,0.1277008056640625
1789552337837509000,7.092509033203125,-0.7220001220703125,-0.39300537109375,0.06146240234375
1789552337847479000,7.10247900390625,-0.844512939453125,-0.363433837890625,0.03662109375
1789552337857448200,7.1124482421875,-0.9967193603515625,-0.3065643310546875,0.0151824951171875
1789552337867417000,7.1224169921875,-1.1332550048828125,-0.253173828125,0.0090789794921875
1789552337877386000,7.132385986328125,-1.098388671875,-0.201934814453125,-0.0097808837890625
1789552337887355100,7.142355224609375,-0.9456024169921875,-0.3481903076171875,-0.164154052734375
1789552337897324000,7.152323974609375,-0.8844451904296875,-0.294464111328125,-0.0495147705078125
1789552337907293400,7.16229345703125,-0.9018402099609375,-0.271759033203125,-0.036102294921875
1789552337917263400,7.172263427734375,-0.816925048828125,-0.290283203125,0.01690673828125
1789552337927232300,7.182232177734375,-0.8176116943359375,-0.3094635009765625,-0.0279693603515625
1789552337937201200,7.192201171875,-0.8487701416015625,-0.3686676025390625,0.0244293212890625
1789552337947170300,7.20217041015625,-1.0872955322265625,-0.1445159912109375,0.052825927734375
1789552337957139200,7.21213916015625,-1.1214447021484375,-0.14239501953125,0.0738677978515625
1789552337967108400,7.2221083984375,-0.9070281982421875,-0.27606201171875,0.139892578125
1789552337977077200,7.2320771484375,-0.8376922607421875,-0.293243408203125,0.046478271484375
1789552337987047200,7.242047119140625,-0.8410186767578125,-0.241180419921875,0.174652099609375
1789552337997016000,7.25201611328125,-0.9046478271484375,-0.1727142333984375,-0.003143310546875
1789552338006985200,7.261985107421875,-1.044891357421875,-0.1691436767578125,0.0534820556640625
1789552338016954000,7.2719541015625,-1.0111846923828125,-0.2862091064453125,0.0084075927734375
1789552338026923300,7.28192333984375,-0.9936981201171875,-0.229522705078125,0.0515899658203125
1789552338036892200,7.29189208984375,-1.0482025146484375,-0.13323974609375,0.095123291015625
1789552338046861000,7.301861083984375,-0.9560089111328125,-0.2602386474609375,0.128570556640625
1789552338056831200,7.311831298828125,-0.9621124267578125,-0.256591796875,0.14501953125
1789552338066800000,7.321800048828125,-0.925262451171875,-0.3725433349609375,-0.0633697509765625
1789552338076769000,7.33176904296875,-0.9472198486328125,-0.41082763671875,0.0091705322265625
1789552338086737200,7.341737060546875,-1.0262298583984375,-0.268310546875,-0.0527801513671875
1789552338096706000,7.3517060546875,-0.9901123046875,-0.320281982421875,-0.01446533203125
1789552338106675200,7.36167529296875,-0.82073974609375,-0.387359619140625,0.1299285888671875
1789552338116644000,7.37164404296875,-0.830780029296875,-0.2882232666015625,0.1131439208984375
1789552338126614300,7.3816142578125,-0.7673187255859375,-0.3221588134765625,0.1272735595703125
1789552338136583400,7.39158349609375,-0.8621673583984375,-0.2564849853515625,0.0943756103515625
1789552338146552300,7.40155224609375,-0.9600372314453125,-0.26190185546875,0.0616302490234375
1789552338156521200,7.411521240234375,-1.122894287109375,-0.25537109375,0.1158447265625
1789552338166490400,7.421490478515625,-1.216796875,-0.288665771484375,0.0115966796875
1789552338176459300,7.431459228515625,-1.1556396484375,-0.2109375,0.0825042724609375
1789552338186428400,7.441428466796875,-1.0507965087890625,-0.2038116455078125,-0.0037689208984375
1789552338196398300,7.4513984375,-0.939910888671875,-0.228179931640625,0.0430908203125
1789552338206367200,7.4613671875,-0.87347412109375,-0.23394775390625,-0.002288818359375
1789552338216336100,7.471336181640625,-0.7642974853515625,-0.31439208984375,0.09161376953125
1789552338226305300,7.48130517578125,-0.9007720947265625,-0.2214202880859375,0.017913818359375
1789552338236274200,7.491274169921875,-1.0491180419921875,-0.228118896484375,-0.044830322265625
1789552338246243300,7.501243408203125,-1.0648651123046875,-0.2880859375,0.0112457275390625
1789552338256212200,7.511212158203125,-0.981842041015625,-0.3133392333984375,-0.1045684814453125
1789552338266181000,7.52118115234375,-1.0719757080078125,-0.244293212890625,-0.094635009765625
1789552338276151300,7.5311513671875,-0.869598388671875,-0.391632080078125,-0.070770263671875
1789552338286120200,7.5411201171875,-1.0012359619140625,-0.213470458984375,-0.1213836669921875
1789552338296089000,7.551089111328125,-0.9094696044921875,-0.297149658203125,-0.257293701171875
1789552338306058200,7.561058349609375,-1.046722412109375,-0.217620849609375,-0.29217529296875
1789552338316027100,7.571027099609375,-1.0318450927734375,-0.206634521484375,-0.1432342529296875
1789552338325996300,7.580996337890625,-0.934844970703125,-0.27264404296875,-0.1865386962890625
1789552338335965200,7.590965087890625,-0.8679046630859375,-0.361663818359375,-0.206451416015625
1789552338345935400,7.600935302734375,-0.9974517822265625,-0.213623046875,-0.136077880859375
1789552338355904300,7.610904296875,-0.841339111328125,-0.3719329833984375,0.02886962890625
1789552338365873400,7.620873291015625,-0.790435791015625,-0.404052734375,-0.0598297119140625
1789552338375842300,7.63084228515625,-0.867156982421875,-0.3475189208984375,0.0107421875
1789552338385811500,7.6408115234375,-1.0003814697265625,-0.25286865234375,0.0771484375
1789552338395780400,7.6507802734375,-1.1043548583984375,-0.2015228271484375,-0.033599853515625
1789552338405749200,7.660749267578125,-1.190704345703125,-0.1608123779296875,-0.0014190673828125
1789552338415719200,7.67071923828125,-1.1061248779296875,-0.20306396484375,-0.076995849609375
1789552338425688300,7.680688232421875,-1.0504913330078125,-0.2857513427734375,-0.1547393798828125
1789552338435657200,7.6906572265625,-0.910491943359375,-0.3151702880859375,-0.1735992431640625
1789552338445626400,7.70062646484375,-0.8317108154296875,-0.244049072265625,-0.1221466064453125
1789552338455595300,7.71059521484375,-0.800994873046875,-0.2987823486328125,-0.0154266357421875
1789552338465564200,7.720564208984375,-0.7068634033203125,-0.39178466796875,-0.04986572265625
1789552338475533300,7.730533203125,-0.956451416015625,-0.2133026123046875,-0.0801544189453125
1789552338485502200,7.740502197265625,-0.9737396240234375,-0.2165374755859375,-0.036834716796875
1789552338495472000,7.75047216796875,-1.0816192626953125,-0.239044189453125,-0.0077362060546875
1789552338505441300,7.760441162109375,-1.2169342041015625,-0.185455322265625,0.0047760009765625
1789552338515410200,7.77041015625,-1.0235748291015625,-0.3118743896484375,0.0256805419921875
1789552338525379000,7.780379150390625,-0.92041015625,-0.302947998046875,0.0010986328125
1789552338535348200,7.79034814453125,-0.8162994384765625,-0.327362060546875,-0.0216827392578125
1789552338545317000,7.800317138671875,-0.7935791015625,-0.3617706298828125,0.01715087890625
1789552338555286300,7.810286376953125,-0.833221435546875,-0.4270782470703125,-0.03253173828125
1789552338565256400,7.82025634765625,-0.98138427734375,-0.2669677734375,-0.0428466796875
1789552338575225300,7.830225341796875,-1.0167999267578125,-0.3083038330078125,-0.12530517578125
1789552338585194200,7.8401943359375,-1.066192626953125,-0.289764404296875,-0.034149169921875
1789552338595163400,7.850163330078125,-1.00665283203125,-0.27386474609375,-0.128173828125
1789552338605132300,7.86013232421875,-0.8455810546875,-0.412933349609375,-0.0237274169921875
1789552338615101400,7.870101318359375,-0.934814453125,-0.2768402099609375,0.01690673828125
1789552338625070300,7.8800703125,-0.9539642333984375,-0.2109222412109375,-0.0991058349609375
1789552338635040300,7.890040283203125,-0.9535369873046875,-0.2223968505859375,0.013580322265625
1789552338645009200,7.900009033203125,-0.94775390625,-0.2405242919921875,0.0106048583984375
1789552338654978300,7.909978271484375,-0.900238037109375,-0.2982940673828125,-0.02142333984375
1789552338664947200,7.919947265625,-0.885650634765625,-0.2486114501953125,0.0351409912109375
1789552338674916400,7.929916259765625,-0.956634521484375,-0.1704254150390625,-0.0821380615234375
1789552338684885200,7.93988525390625,-0.9627838134765625,-0.2577667236328125,0.00701904296875
1789552338694854100,7.949854248046875,-1.1385345458984375,-0.2448883056640625,0.0915679931640625
1789552338704823300,7.9598232421875,-1.056182861328125,-0.2548828125,0.0212860107421875
1789552338714793200,7.969793212890625,-0.8878021240234375,-0.260955810546875,0.1395416259765625
1789552338724762000,7.97976220703125,-1.0404510498046875,-0.221771240234375,0.02764892578125
1789552338734731300,7.989731201171875,-1.0434112548828125,-0.303802490234375,0.07843017578125
1789552338744700200,7.9997001953125,-0.9919586181640625,-0.288787841796875,0.1436614990234375
1789552338754669300,8.00966943359375,-0.915496826171875,-0.385009765625,0.1830902099609375
1789552338764638200,8.01963818359375,-0.8577880859375,-0.359832763671875,0.2338714599609375
1789552338774607000,8.029607177734375,-0.8209381103515625,-0.321990966796875,0.1961212158203125
1789552338784576300,8.039576171875,-0.864227294921875,-0.3172760009765625,0.1491241455078125
1789552338794546200,8.049546142578125,-0.94757080078125,-0.353271484375,0.357147216796875
1789552338804515300,8.059515380859375,-1.022796630859375,-0.3425140380859375,0.1923980712890625
1789552338814484500,8.069484375,-1.04791259765625,-0.282379150390625,0.146636962890625
1789552338824453400,8.079453369140625,-1.0999755859375,-0.2149505615234375,0.082366943359375
1789552338834422300,8.08942236328125,-1.0459136962890625,-0.269622802734375,-0.013397216796875
1789552338844391400,8.099391357421876,-1.0400543212890625,-0.2896270751953125,0.0576629638671875
1789552338854360300,8.1093603515625,-0.9530792236328125,-0.3302154541015625,-0.03802490234375
1789552338864330200,8.119330322265625,-0.93408203125,-0.245269775390625,0.09442138671875
1789552338874299400,8.12929931640625,-0.873443603515625,-0.283111572265625,0.022216796875
1789552338884268300,8.139268310546875,-0.9830169677734375,-0.1862030029296875,0.0974884033203125
1789552338894237200,8.1492373046875,-0.8543548583984375,-0.430816650390625,-0.0213165283203125
1789552338904206300,8.159206298828124,-1.0886383056640625,-0.2796783447265625,-0.005615234375
1789552338914175200,8.16917529296875,-1.080169677734375,-0.19158935546875,0.0042266845703125
1789552338924144400,8.179144287109375,-0.779296875,-0.4288482666015625,-0.0687713623046875
1789552338934113300,8.18911328125,-0.801239013671875,-0.25311279296875,0.14544677734375
1789552338944083200,8.199083251953125,-0.8076934814453125,-0.1386871337890625,0.1511077880859375
1789552338954052000,8.209052001953125,-0.870941162109375,-0.2245635986328125,0.0388031005859375
1789552338964021200,8.219021240234374,-0.9309539794921875,-0.1671142578125,0.01678466796875
1789552338973990100,8.228990234375,-0.958343505859375,-0.1646728515625,-0.0784759521484375
1789552338983959300,8.238959228515625,-0.7928619384765625,-0.4586639404296875,-0.0205841064453125
1789552338993928200,8.24892822265625,-1.0971527099609375,-0.106170654296875,-0.002288818359375
1789552339003897000,8.25889697265625,-1.120758056640625,-0.08087158203125,-0.06622314453125
1789552339013866200,8.2688662109375,-1.028961181640625,-0.3331298828125,-0.100555419921875
1789552339023836200,8.278836181640624,-1.07965087890625,-0.2379150390625,-0.0473785400390625
1789552339033805000,8.28880517578125,-0.9190673828125,-0.322540283203125,-0.0036163330078125
1789552339043774200,8.298774169921876,-0.85137939453125,-0.30657958984375,-0.002838134765625
1789552339053743400,8.308743408203124,-0.973480224609375,-0.20306396484375,-0.0099029541015625
1789552339063712300,8.318712158203125,-1.0503997802734375,-0.271026611328125,0.0824737548828125
1789552339073681400,8.328681396484376,-1.0267181396484375,-0.4210357666015625,0.013214111328125
1789552339083650300,8.338650390625,-1.24530029296875,-0.284423828125,0.0556488037109375
1789552339093620200,8.3486201171875,-0.853515625,-0.3376007080078125,0.0829620361328125
1789552339103589400,8.35858935546875,-0.7436676025390625,-0.30224609375,0.2650909423828125
1789552339113558300,8.368558349609375,-0.7281646728515625,-0.3719940185546875,0.0399627685546875
1789552339123527200,8.378527099609375,-1.0517730712890625,-0.0673675537109375,-0.0889434814453125
1789552339133496300,8.388496337890626,-1.12811279296875,-0.1429595947265625,-0.062469482421875
1789552339143465200,8.39846533203125,-1.0833892822265625,-0.3143463134765625,0.0175933837890625
1789552339153434400,8.408434326171875,-1.0908966064453125,-0.1985015869140625,0.0386505126953125
1789552339163403300,8.4184033203125,-0.923858642578125,-0.3111419677734375,0.131378173828125
1789552339173373200,8.428373291015625,-0.835418701171875,-0.40106201171875,0.11273193359375
1789552339183342300,8.43834228515625,-0.9491119384765625,-0.1689300537109375,0.076934814453125
1789552339193311200,8.448311279296876,-0.8809967041015625,-0.26776123046875,0.1148223876953125
1789552339203280100,8.458280029296875,-0.9266357421875,-0.2725830078125,-0.037017822265625
1789552339213249500,8.46824951171875,-0.8379974365234375,-0.3321685791015625,0.03033447265625
1789552339223218400,8.478218505859376,-0.9713897705078125,-0.1743927001953125,-0.0164642333984375
1789552339233187300,8.488187255859375,-0.8954925537109375,-0.3053436279296875,-0.1584625244140625
1789552339243156500,8.498156494140625,-0.9171142578125,-0.3110809326171875,-0.1126556396484375
1789552339253126400,8.50812646484375,-1.0785369873046875,-0.2249908447265625,-0.2764434814453125
1789552339263095300,8.51809521484375,-0.99664306640625,-0.367828369140625,-0.3424224853515625
1789552339273064400,8.528064453125,-0.97930908203125,-0.2989349365234375,-0.2473907470703125
1789552339283033300,8.538033447265626,-0.8367156982421875,-0.35479736328125,-0.2335205078125
1789552339293002200,8.548002197265625,-0.885009765625,-0.315673828125,-0.2652587890625
1789552339302971400,8.557971435546875,-0.8666534423828125,-0.3169708251953125,-0.2778472900390625
1789552339312940300,8.567940185546876,-0.7721710205078125,-0.311279296875,-0.2756195068359375
1789552339322910200,8.57791015625,-0.997344970703125,-0.2401580810546875,-0.1574249267578125
1789552339332879400,8.58787939453125,-1.2070159912109375,-0.1610107421875,-0.123626708984375
1789552339342848300,8.59784814453125,-1.05914306640625,-0.2728729248046875,-0.0106048583984375
1789552339352817400,8.6078173828125,-1.046295166015625,-0.2737884521484375,0.02105712890625
1789552339362786300,8.617786376953125,-0.7197265625,-0.3798828125,-0.101226806640625
1789552339372755200,8.627755126953126,-0.835052490234375,-0.2049713134765625,0.0177001953125
1789552339382724400,8.637724365234375,-0.8533782958984375,-0.1919097900390625,-0.0480194091796875
1789552339392693200,8.647693359375,-0.9111785888671875,-0.2888641357421875,-0.136199951171875
1789552339402662400,8.657662353515626,-1.0201568603515625,-0.32904052734375,-0.1518707275390625
1789552339412632300,8.66763232421875,-1.103179931640625,-0.190704345703125,-0.05987548828125
1789552339422601200,8.677601318359375,-1.1115570068359375,-0.1317291259765625,-0.005035400390625
1789552339432570000,8.687570068359374,-1.1712799072265625,-0.05206298828125,-0.01947021484375
1789552339442539300,8.697539306640625,-1.0064697265625,-0.253753662109375,0.055450439453125
1789552339452508200,8.707508056640625,-0.9733123779296875,-0.263671875,-0.0320281982421875
1789552339462477600,8.7174775390625,-0.819793701171875,-0.3026580810546875,0.1623992919921875
1789552339472446500,8.727446533203125,-0.8347015380859375,-0.343475341796875,0.1161346435546875
1789552339482416400,8.73741650390625,-0.927734375,-0.3232269287109375,0.069000244140625
1789552339492385300,8.74738525390625,-0.970306396484375,-0.3220367431640625,0.087615966796875
1789552339502354400,8.7573544921875,-1.0056610107421875,-0.335723876953125,0.0282440185546875
1789552339512323300,8.7673232421875,-1.0038604736328125,-0.30645751953125,0.0983123779296875
1789552339522292500,8.77729248046875,-0.872772216796875,-0.3488006591796875,0.2121429443359375
1789552339532261400,8.787261474609375,-0.83837890625,-0.351226806640625,0.0641937255859375
1789552339542230300,8.797230224609375,-0.9720916748046875,-0.292999267578125,0.04937744140625
1789552339552199400,8.807199462890624,-1.0030517578125,-0.365692138671875,0.01861572265625
1789552339562168300,8.817168212890625,-1.08648681640625,-0.245147705078125,0.11944580078125
1789552339572138200,8.82713818359375,-1.0333709716796875,-0.2678070068359375,-0.0476837158203125
1789552339582107400,8.837107421875,-0.918487548828125,-0.3582916259765625,0.050048828125
1789552339592076300,8.847076171875,-0.92059326171875,-0.4354705810546875,-0.126190185546875
1789552339602045200,8.857045166015626,-1.0854339599609375,-0.2220306396484375,0.03424072265625
1789552339612014300,8.867014404296874,-0.9357452392578125,-0.3096923828125,0.124420166015625
1789552339621983200,8.876983154296875,-0.8313140869140625,-0.4120941162109375,0.0824127197265625
1789552339631952400,8.886952392578126,-0.865478515625,-0.232818603515625,0.1501007080078125
1789552339641921300,8.89692138671875,-0.9319000244140625,-0.226470947265625,0.0799102783203125
1789552339651891200,8.90689111328125,-1.0477294921875,-0.185760498046875,0.18731689453125
1789552339661860400,8.9168603515625,-1.066131591796875,-0.225128173828125,0.054595947265625
1789552339671829200,8.926829345703124,-1.1082916259765625,-0.175018310546875,0.0652618408203125
1789552339681798100,8.936798095703125,-0.98907470703125,-0.226043701171875,0.020965576171875
1789552339691767300,8.946767333984376,-0.88330078125,-0.269439697265625,-0.032989501953125
1789552339701736200,8.956736083984374,-0.872650146484375,-0.252227783203125,0.0085296630859375
1789552339711705300,8.966705322265625,-0.8397979736328125,-0.355804443359375,0.0496826171875
1789552339721674500,8.976674560546876,-0.9571685791015625,-0.2505035400390625,0.0699005126953125
1789552339731644400,8.98664453125,-1.0307769775390625,-0.225341796875,0.0022125244140625
1789552339741613300,8.99661328125,-1.0679473876953125,-0.2732391357421875,0.0680389404296875
1789552339751582500,9.00658251953125,-1.097808837890625,-0.24481201171875,0.17742919921875
1789552339761551400,9.01655126953125,-1.0192718505859375,-0.322601318359375,0.176361083984375
1789552339771520300,9.026520263671875,-0.9107666015625,-0.4319610595703125,0.103363037109375
1789552339781489400,9.036489501953126,-0.7805938720703125,-0.3687286376953125,0.0721435546875
1789552339791458300,9.046458251953124,-0.81317138671875,-0.3023681640625,0.0674896240234375
1789552339801427500,9.056427490234375,-0.8220672607421875,-0.3917999267578125,-0.053924560546875
1789552339811396400,9.066396240234376,-1.015869140625,-0.337982177734375,0.06494140625
1789552339821366300,9.0763662109375,-1.0502166748046875,-0.2730560302734375,-0.1572265625
1789552339831335400,9.08633544921875,-1.05535888671875,-0.18426513671875,-0.0720672607421875
1789552339841304300,9.09630419921875,-0.9664459228515625,-0.1820831298828125,-0.078460693359375
1789552339851273200,9.106273193359375,-1.0003662109375,-0.1867523193359375,-0.0276641845703125
1789552339861242400,9.116242431640625,-0.99237060546875,-0.2918701171875,-0.0012054443359375
1789552339871211300,9.126211181640626,-1.0234527587890625,-0.274932861328125,0.0411529541015625
1789552339881180200,9.13618017578125,-0.9750823974609375,-0.304473876953125,0.0645751953125
1789552339891149300,9.1461494140625,-0.952117919921875,-0.271026611328125,-0.0529937744140625
1789552339901119200,9.156119140625,-1.0053253173828125,-0.2344512939453125,0.03997802734375
1789552339911088000,9.166088134765625,-1.0456695556640625,-0.2720184326171875,-0.0229034423828125
1789552339921057300,9.176057373046875,-0.8951416015625,-0.3404083251953125,-0.003570556640625
1789552339931026200,9.186026123046876,-0.6876678466796875,-0.328643798828125,0.0142974853515625
1789552339940995300,9.195995361328125,-0.5523223876953125,-0.3282470703125,-0.0709075927734375
1789552339950964200,9.205964111328125,-0.7377166748046875,-0.2419891357421875,0.0113372802734375
1789552339960933000,9.21593310546875,-1.004119873046875,-0.1386871337890625,0.00213623046875
1789552339970902500,9.225902587890625,-1.1222076416015625,-0.0724029541015625,-0.009063720703125
1789552339980871400,9.235871337890625,-0.9489898681640625,-0.300262451171875,-0.041168212890625
1789552339990841300,9.24584130859375,-0.8126220703125,-0.37969970703125,0.065460205078125
1789552340000810500,9.255810546875,-0.853668212890625,-0.2626190185546875,-0.00787353515625
1789552340010779400,9.265779296875,-1.000457763671875,-0.1855010986328125,0.088592529296875
1789552340020748300,9.275748291015624,-1.0554962158203125,-0.2343902587890625,0.0166473388671875
1789552340030717400,9.285717529296875,-1.1348419189453125,-0.2322540283203125,-0.054443359375
1789552340040686300,9.295686279296875,-1.07684326171875,-0.233001708984375,0.0255889892578125
1789552340050655500,9.305655517578124,-1.0063018798828125,-0.2330474853515625,0.00592041015625
1789552340060624400,9.315624267578125,-0.98333740234375,-0.227935791015625,0.031494140625
1789552340070593300,9.32559326171875,-0.8661956787109375,-0.3502960205078125,-0.0247802734375
1789552340080563700,9.335563720703124,-0.936676025390625,-0.2782135009765625,0.0493316650390625
1789552340090532900,9.345532958984375,-0.9075469970703125,-0.349822998046875,0.062744140625
1789552340100501800,9.355501708984375,-1.0072479248046875,-0.2207794189453125,0.12847900390625
1789552340110470700,9.365470703125,-1.0291290283203125,-0.216949462890625,0.0283660888671875
1789552340120439800,9.375439697265625,-0.9299468994140625,-0.4141998291015625,0.1188201904296875
1789552340130408700,9.38540869140625,-1.0849761962890625,-0.235321044921875,0.103424072265625
1789552340140377900,9.3953779296875,-1.07244873046875,-0.2198638916015625,0.003662109375
1789552340150346800,9.4053466796875,-1.1331024169921875,-0.1918487548828125,0.070037841796875
1789552340160315600,9.415315673828125,-1.097503662109375,-0.1907806396484375,0.0157623291015625
1789552340170285800,9.425285888671874,-0.9219818115234375,-0.3478240966796875,0.028594970703125
1789552340180254700,9.435254638671875,-0.7961273193359375,-0.450225830078125,0.00543212890625
1789552340190223600,9.4452236328125,-0.821990966796875,-0.3130645751953125,0.0157012939453125
1789552340200192800,9.45519287109375,-0.7409820556640625,-0.3228302001953125,-0.0301361083984375
1789552340210161700,9.46516162109375,-0.7505645751953125,-0.4282073974609375,-0.1124725341796875
1789552340220130600,9.475130615234375,-0.822357177734375,-0.428619384765625,-0.1402435302734375
1789552340230099700,9.485099609375,-0.989532470703125,-0.343414306640625,-0.20379638671875
1789552340240068600,9.495068603515625,-1.0291900634765625,-0.2657318115234375,-0.073028564453125
1789552340250037800,9.505037841796875,-1.0741424560546875,-0.227264404296875,-0.1636810302734375
1789552340260008000,9.515008056640625,-1.04620361328125,-0.2169342041015625,-0.1460418701171875
1789552340269976800,9.524976806640625,-0.9902191162109375,-0.2244415283203125,-0.1413116455078125
1789552340279945700,9.53494580078125,-0.9254302978515625,-0.2488555908203125,-0.1055145263671875
1789552340289915000,9.544914794921874,-0.9162139892578125,-0.2627716064453125,-0.0743865966796875
1789552340299883800,9.5548837890625,-0.9393157958984375,-0.31304931640625,-0.0816650390625
1789552340309853000,9.56485302734375,-0.9970245361328125,-0.265411376953125,-0.0671234130859375
1789552340319821800,9.57482177734375,-0.927154541015625,-0.3487548828125,-0.119354248046875
1789552340329790700,9.584790771484375,-0.904541015625,-0.2758026123046875,-0.07098388671875
1789552340339759900,9.594759765625,-0.901275634765625,-0.2303314208984375,-0.0162811279296875
1789552340349729800,9.604729736328125,-0.99908447265625,-0.12115478515625,0.006072998046875
1789552340359698700,9.61469873046875,-1.095184326171875,-0.1633148193359375,-0.0033111572265625
1789552340369667800,9.624667724609376,-1.104248046875,-0.1767730712890625,0.0003662109375
1789552340379636700,9.63463671875,-1.1147613525390625,-0.19122314453125,-0.021331787109375
1789552340389606000,9.64460595703125,-1.0373992919921875,-0.294281005859375,-0.0034942626953125
1789552340399574800,9.65457470703125,-1.0027618408203125,-0.2533416748046875,0.0162811279296875
1789552340409543700,9.664543701171874,-0.8769073486328125,-0.324188232421875,-0.228179931640625
1789552340419512800,9.674512939453125,-0.853668212890625,-0.35467529296875,0.0286865234375
1789552340429481700,9.684481689453126,-0.9648284912109375,-0.2745361328125,-0.075714111328125
1789552340439451600,9.69445166015625,-0.9568328857421875,-0.345733642578125,0.0391082763671875
1789552340449420800,9.7044208984375,-0.9004058837890625,-0.3351593017578125,0.00970458984375
1789552340459389700,9.7143896484375,-0.9302825927734375,-0.359954833984375,-0.087646484375
1789552340469358600,9.724358642578125,-1.0513916015625,-0.318634033203125,-0.0032501220703125
1789552340479327700,9.73432763671875,-1.0894622802734375,-0.2989501953125,-0.0479736328125
1789552340489296600,9.744296630859376,-0.8694000244140625,-0.430419921875,0.0479888916015625
1789552340499265800,9.754265869140625,-0.8655853271484375,-0.3879547119140625,-0.0261383056640625
1789552340509234700,9.764234619140625,-0.7860870361328125,-0.299560546875,0.054229736328125
1789552340519203600,9.77420361328125,-0.7558746337890625,-0.3441314697265625,-0.046630859375
1789552340529172700,9.7841728515625,-0.7511138916015625,-0.35589599609375,0.0540008544921875
1789552340539141600,9.7941416015625,-0.9794769287109375,-0.25146484375,0.0374908447265625
1789552340549110500,9.804110595703126,-1.0877838134765625,-0.1869049072265625,0.0482330322265625
1789552340559079700,9.81407958984375,-1.1207122802734375,-0.157318115234375,0.0619964599609375
1789552340569048600,9.824048583984375,-1.059051513671875,-0.1965789794921875,0.0657196044921875
1789552340579017700,9.834017822265626,-0.9282684326171875,-0.2950286865234375,0.0142059326171875
1789552340588988000,9.84398779296875,-0.8461761474609375,-0.3553009033203125,0.1092071533203125
1789552340598956800,9.853956787109375,-0.87298583984375,-0.1927947998046875,0.064178466796875
1789552340608925700,9.86392578125,-0.8027801513671875,-0.27996826171875,-0.0186004638671875
1789552340618894800,9.873894775390625,-0.83856201171875,-0.2592315673828125,0.064788818359375
1789552340628863700,9.88386376953125,-0.986968994140625,-0.2200775146484375,-0.0999755859375
1789552340638833000,9.8938330078125,-1.1338653564453125,-0.2071380615234375,0.1122589111328125
1789552340648801800,9.9038017578125,-1.2017974853515625,-0.0743255615234375,0.172210693359375
1789552340658770700,9.913770751953125,-1.178741455078125,-0.1620330810546875,0.0284423828125
1789552340668739800,9.92373974609375,-1.1045379638671875,-0.3338775634765625,0.1213531494140625
1789552340678709800,9.933709716796875,-1.039764404296875,-0.3895416259765625,0.1515045166015625
1789552340688678700,9.9436787109375,-0.97845458984375,-0.3520965576171875,0.1566925048828125
1789552340698647800,9.953647705078126,-0.88018798828125,-0.359649658203125,0.1500396728515625
1789552340708616700,9.96361669921875,-0.885345458984375,-0.39080810546875,0.1636962890625
1789552340718585900,9.9735859375,-0.90924072265625,-0.3612823486328125,0.1751861572265625
1789552340728554800,9.9835546875,-0.9104156494140625,-0.40606689453125,0.03765869140625
1789552340738523600,9.993523681640625,-0.9202880859375,-0.330413818359375,0.06976318359375
1789552340748492800,10.003492919921875,-0.9187469482421875,-0.250640869140625,0.0507659912109375
1789552340758461700,10.013461669921876,-0.956756591796875,-0.2691192626953125,-0.079071044921875
1789552340768431600,10.023431640625,-1.0334625244140625,-0.237823486328125,-0.102691650390625
1789552340778400800,10.03340087890625,-0.986114501953125,-0.2766876220703125,-0.1370849609375
1789552340788369700,10.04336962890625,-0.9356842041015625,-0.27337646484375,-0.047821044921875
1789552340798338600,10.053338623046875,-0.83831787109375,-0.297760009765625,-0.0796966552734375
1789552340808307700,10.0633076171875,-0.7369537353515625,-0.3301544189453125,-0.0650634765625
1789552340818276600,10.073276611328126,-0.8332061767578125,-0.2452239990234375,-0.00067138671875
1789552340828245800,10.083245849609375,-0.955474853515625,-0.190093994140625,-0.06256103515625
1789552340838214700,10.093214599609375,-0.9841766357421875,-0.1972503662109375,-0.06298828125
1789552340848183600,10.10318359375,-0.996246337890625,-0.1662750244140625,0.0199127197265625
1789552340858153700,10.11315380859375,-1.12530517578125,-0.183929443359375,-0.0440673828125
1789552340868123000,10.123122802734375,-1.0602264404296875,-0.25396728515625,0.0283966064453125
1789552340878091800,10.133091796875,-0.9962615966796875,-0.2292633056640625,0.0281829833984375
1789552340888061000,10.14306103515625,-1.0377044677734375,-0.1800537109375,-0.0314788818359375
1789552340898029800,10.15302978515625,-0.95733642578125,-0.25201416015625,-0.045135498046875
1789552340907998700,10.162998779296874,-0.806365966796875,-0.316650390625,-0.04681396484375
1789552340917968000,10.1729677734375,-0.818023681640625,-0.320343017578125,-0.123016357421875
1789552340927936800,10.182936767578125,-0.8236541748046875,-0.3428497314453125,-0.04193115234375
1789552340937905700,10.19290576171875,-0.947235107421875,-0.3145294189453125,-0.05584716796875
1789552340947875800,10.202875732421875,-1.0216522216796875,-0.32391357421875,-0.1136016845703125
1789552340957844700,10.2128447265625,-1.1703033447265625,-0.223175048828125,0.0255889892578125
1789552340967813600,10.222813720703124,-1.1232757568359375,-0.2913665771484375,0.130523681640625
1789552340977782800,10.23278271484375,-0.912353515625,-0.39703369140625,0.0142669677734375
1789552340987751700,10.242751708984375,-0.7156219482421875,-0.483428955078125,0.0601806640625
1789552340997720800,10.252720947265624,-0.8785552978515625,-0.3320465087890625,0.12939453125
1789552341007689700,10.262689697265625,-0.862030029296875,-0.36627197265625,0.0843658447265625
1789552341017658600,10.27265869140625,-0.9176025390625,-0.35833740234375,0.113311767578125
1789552341027627800,10.282627685546874,-0.9313507080078125,-0.350433349609375,0.0711212158203125
1789552341037597700,10.29259765625,-0.8913421630859375,-0.3370513916015625,0.0816650390625
1789552341047566600,10.302566650390625,-1.156219482421875,-0.1195526123046875,0.2031402587890625
1789552341057535700,10.31253564453125,-1.2740020751953125,-0.0482330322265625,0.0517730712890625
1789552341067504600,10.322504638671875,-1.0242767333984375,-0.230743408203125,0.0941925048828125
1789552341077473500,10.3324736328125,-0.8478546142578125,-0.347198486328125,0.171112060546875
1789552341087442400,10.3424423828125,-0.9554595947265625,-0.20806884765625,-0.0059814453125
1789552341097411300,10.352411376953125,-0.9236297607421875,-0.1493377685546875,0.001129150390625
1789552341107380500,10.36238037109375,-1.0518798828125,-0.154022216796875,-0.090240478515625
1789552341117349400,10.372349365234374,-1.02130126953125,-0.2705841064453125,-0.051544189453125
1789552341127319300,10.3823193359375,-0.9258270263671875,-0.3223114013671875,-0.0238800048828125
1789552341137288400,10.392288330078125,-0.9280853271484375,-0.1509857177734375,0.0001068115234375
1789552341147257300,10.40225732421875,-0.8163299560546875,-0.2400360107421875,0.0521392822265625
1789552341157226200,10.412226318359375,-0.869873046875,-0.3196258544921875,-0.104461669921875
1789552341167195400,10.4221953125,-1.14617919921875,-0.1407470703125,-0.116912841796875
1789552341177164300,10.432164306640624,-0.943359375,-0.3026580810546875,-0.0514373779296875
1789552341187133400,10.442133544921875,-1.108551025390625,-0.24188232421875,0.0059967041015625
1789552341197102300,10.452102294921875,-0.9175872802734375,-0.398895263671875,-0.099334716796875
1789552341207071200,10.4620712890625,-0.8643951416015625,-0.375396728515625,-0.0690765380859375
1789552341217040400,10.472040283203125,-0.8302001953125,-0.398590087890625,-0.114532470703125
1789552341227010300,10.48201025390625,-0.924407958984375,-0.327972412109375,-0.106475830078125
1789552341236979200,10.491979248046874,-0.998870849609375,-0.267730712890625,-0.15087890625
1789552341246948400,10.5019482421875,-1.0035858154296875,-0.247100830078125,0.0196380615234375
1789552341256917200,10.511917236328125,-0.97845458984375,-0.32757568359375,0.0996856689453125
1789552341266886100,10.52188623046875,-0.9901123046875,-0.36712646484375,-0.151275634765625
1789552341276855300,10.531855224609375,-1.0337982177734375,-0.2522735595703125,-0.0533599853515625
1789552341286824200,10.54182421875,-1.055084228515625,-0.214874267578125,-0.0202789306640625
1789552341296793300,10.55179345703125,-1.0501861572265625,-0.2153472900390625,-0.1265411376953125
1789552341306762200,10.56176220703125,-0.7918853759765625,-0.376129150390625,-0.2012176513671875
1789552341316732400,10.571732421875,-0.6613311767578125,-0.4470977783203125,-0.2239227294921875
1789552341326701300,10.581701416015624,-0.83331298828125,-0.2191009521484375,-0.12109375
1789552341336670500,10.59167041015625,-0.9284210205078125,-0.127197265625,-0.09942626953125
1789552341346639400,10.601639404296876,-0.958282470703125,-0.2928009033203125,-0.238494873046875
1789552341356608500,10.6116083984375,-1.14398193359375,-0.1748046875,-0.1339874267578125
1789552341366577400,10.621577392578125,-1.186614990234375,-0.175384521484375,0.096923828125
1789552341376546300,10.63154638671875,-1.006866455078125,-0.285125732421875,0.0290679931640625
1789552341386515500,10.641515380859374,-0.8301239013671875,-0.43377685546875,0.006439208984375
1789552341396484400,10.651484375,-0.791351318359375,-0.4349517822265625,-0.0397796630859375
1789552341406453200,10.661453369140625,-0.8917083740234375,-0.4241943359375,-0.0643463134765625
1789552341416423400,10.67142333984375,-0.9333648681640625,-0.36328125,-0.0331878662109375
1789552341426392300,10.681392333984375,-0.9751129150390625,-0.331207275390625,-0.063323974609375
1789552341436361200,10.691361328125,-0.963592529296875,-0.3217010498046875,-0.069732666015625
1789552341446330400,10.701330322265624,-0.9548187255859375,-0.354248046875,0.03631591796875
1789552341456299300,10.71129931640625,-0.9817962646484375,-0.3121490478515625,-0.0759429931640625
1789552341466268400,10.721268310546876,-0.9970703125,-0.3113861083984375,-0.036468505859375
1789552341476237300,10.7312373046875,-1.001220703125,-0.3906097412109375,0.050201416015625
1789552341486206200,10.741206298828125,-0.9698028564453125,-0.39263916015625,0.0240631103515625
1789552341496175400,10.75117529296875,-0.934844970703125,-0.3839874267578125,-0.111602783203125
1789552341506144300,10.761144287109374,-0.96197509765625,-0.28662109375,-0.0783233642578125
1789552341516114200,10.7711142578125,-0.963623046875,-0.288055419921875,-0.012542724609375
1789552341526083300,10.781083251953126,-1.12445068359375,-0.1440277099609375,-0.0477294921875
1789552341536052200,10.79105224609375,-1.0081939697265625,-0.1754150390625,-0.0413970947265625
1789552341546021000,10.801021240234375,-0.98236083984375,-0.1137847900390625,0.083587646484375
1789552341555990300,10.810990234375,-0.9774017333984375,-0.1534271240234375,0.049530029296875
1789552341565959200,10.820959228515624,-1.0253753662109375,-0.1025390625,-0.034149169921875
1789552341575928300,10.83092822265625,-0.9925537109375,-0.1664276123046875,0.0869293212890625
1789552341585897500,10.8408974609375,-0.894256591796875,-0.2117919921875,0.2939910888671875
1789552341595866400,10.850866455078124,-0.87188720703125,-0.2617340087890625,0.1339263916015625
1789552341605835500,10.86083544921875,-0.9799346923828125,-0.18548583984375,0.1131134033203125
1789552341615804400,10.870804443359376,-1.0529937744140625,-0.1248626708984375,0.248779296875
1789552341625774300,10.8807744140625,-0.9030609130859375,-0.2854156494140625,0.2733001708984375
1789552341635743500,10.890743408203125,-1.0226593017578125,-0.218902587890625,0.211273193359375
1789552341645712400,10.90071240234375,-1.1232757568359375,-0.1999664306640625,0.0423431396484375
1789552341655681300,10.910681396484375,-1.059234619140625,-0.2775115966796875,0.1125030517578125
1789552341665650400,10.920650390625,-0.9222412109375,-0.3453521728515625,0.3304443359375
1789552341675619300,10.930619384765626,-0.8859710693359375,-0.3179779052734375,0.103790283203125
1789552341685588500,10.94058837890625,-0.782562255859375,-0.3686370849609375,-0.0487823486328125
1789552341695557400,10.950557373046875,-0.772247314453125,-0.3316497802734375,-0.0062408447265625
1789552341705526300,10.9605263671875,-0.87432861328125,-0.2829132080078125,-0.0358428955078125
1789552341715495400,10.970495361328124,-0.9368896484375,-0.332000732421875,-0.0647430419921875
1789552341725464300,10.98046435546875,-1.0312652587890625,-0.2542572021484375,-0.05450439453125
1789552341735434200,10.990434326171876,-0.8331146240234375,-0.3881378173828125,-0.0426788330078125
1789552341745403400,11.0004033203125,-0.834930419921875,-0.2867279052734375,-0.1247406005859375
1789552341755372300,11.010372314453125,-1.1685791015625,-0.07470703125,-0.192108154296875
1789552341765341200,11.020341064453126,-1.2217254638671875,-0.0819091796875,-0.068389892578125
1789552341775310300,11.030310302734375,-1.106353759765625,-0.2308807373046875,-0.0425567626953125
1789552341785279200,11.040279296875,-0.8857269287109375,-0.323699951171875,-0.058258056640625
1789552341795248400,11.050248291015626,-0.7007904052734375,-0.42901611328125,-0.0086669921875
1789552341805217300,11.06021728515625,-0.7511444091796875,-0.33428955078125,0.05145263671875
1789552341815186200,11.070186279296875,-0.8211517333984375,-0.25677490234375,-0.154327392578125
1789552341825155300,11.0801552734375,-0.8990020751953125,-0.2561492919921875,-0.239227294921875
1789552341835124200,11.090124267578124,-1.0234832763671875,-0.241973876953125,-0.1656494140625
1789552341845094400,11.100094482421875,-1.2166595458984375,-0.0853729248046875,-0.070404052734375
1789552341855063600,11.1100634765625,-1.1738433837890625,-0.1551666259765625,-0.0456390380859375
1789552341865032400,11.120032470703125,-1.0628662109375,-0.232025146484375,0.0039520263671875
1789552341875001300,11.13000146484375,-1.0396575927734375,-0.298370361328125,0.045867919921875
1789552341884970500,11.139970458984376,-0.9147491455078125,-0.3430023193359375,0.077850341796875
1789552341894939400,11.149939453125,-0.871856689453125,-0.35296630859375,0.064788818359375
1789552341904908500,11.159908447265625,-0.781982421875,-0.46148681640625,0.06158447265625
1789552341914877400,11.16987744140625,-0.838348388671875,-0.477935791015625,0.0526275634765625
1789552341924846300,11.179846435546875,-0.9665374755859375,-0.4363555908203125,-0.0511016845703125
1789552341934815500,11.1898154296875,-1.0225677490234375,-0.2908782958984375,0.13397216796875
1789552341944784400,11.199784423828126,-1.0140380859375,-0.2741851806640625,0.1787872314453125
1789552341954753300,11.209753173828124,-0.8912353515625,-0.373291015625,0.1255035400390625
1789552341964723500,11.219723388671875,-1.064178466796875,-0.3148193359375,0.1200103759765625
1789552341974692400,11.2296923828125,-1.074554443359375,-0.3740081787109375,0.0700531005859375
1789552341984661200,11.2396611328125,-0.968963623046875,-0.410003662109375,0.1966094970703125
1789552341994630400,11.24963037109375,-0.9418487548828125,-0.299468994140625,0.13861083984375
1789552342004599300,11.259599365234376,-0.8413238525390625,-0.225982666015625,0.257049560546875
1789552342014568400,11.269568359375,-0.8309326171875,-0.2609405517578125,0.0828094482421875
1789552342024537300,11.279537353515625,-0.9141387939453125,-0.2503814697265625,0.0034027099609375
1789552342034506200,11.28950634765625,-1.16583251953125,-0.0472259521484375,0.0816802978515625
1789552342044475400,11.299475341796875,-1.119384765625,-0.092681884765625,0.2408599853515625
1789552342054444300,11.3094443359375,-0.8465423583984375,-0.3025360107421875,-0.013824462890625
1789552342064413200,11.3194130859375,-0.9368896484375,-0.233612060546875,-0.0118865966796875
1789552342074383400,11.32938330078125,-0.974609375,-0.213470458984375,0.0611419677734375
1789552342084352800,11.339352783203125,-1.0622406005859375,-0.107940673828125,0.0037841796875
1789552342094321700,11.34932177734375,-1.0797271728515625,-0.160369873046875,-0.0413818359375
1789552342104290800,11.359290771484375,-0.8889923095703125,-0.3914031982421875,-0.141326904296875
1789552342114259700,11.369259765625,-0.7732696533203125,-0.37188720703125,0.0394287109375
1789552342124228600,11.379228515625,-0.746826171875,-0.334625244140625,0.044921875
1789552342134197800,11.38919775390625,-0.83197021484375,-0.2518463134765625,-0.072601318359375
1789552342144166700,11.399166748046875,-1.203460693359375,-0.0594635009765625,-0.148162841796875
1789552342154135800,11.4091357421875,-1.22314453125,-0.2509002685546875,-0.02093505859375
1789552342164104700,11.419104736328125,-1.1656494140625,-0.319366455078125,0.065460205078125
1789552342174073600,11.429073486328125,-0.9611358642578125,-0.3104095458984375,0.0198516845703125
1789552342184042800,11.439042724609376,-0.587799072265625,-0.512115478515625,0.0394744873046875
1789552342194011600,11.44901171875,-0.6568603515625,-0.55712890625,-0.2301483154296875
1789552342203981600,11.458981689453125,-0.9738006591796875,-0.202484130859375,-0.139678955078125
1789552342213950700,11.46895068359375,-0.9261932373046875,-0.262969970703125,-0.045745849609375
1789552342223919600,11.478919677734375,-0.863067626953125,-0.27410888671875,0.0772247314453125
1789552342233888500,11.488888427734375,-0.886810302734375,-0.3217620849609375,-0.1871185302734375
1789552342243857700,11.498857666015626,-1.028106689453125,-0.1817779541015625,-0.1459197998046875
1789552342253826600,11.50882666015625,-1.0271148681640625,-0.1836395263671875,0.0066375732421875
1789552342263795700,11.518795654296875,-1.0100860595703125,-0.2667999267578125,-0.0015716552734375
1789552342273764600,11.5287646484375,-0.967559814453125,-0.3269195556640625,-0.0546722412109375
1789552342283733500,11.5387333984375,-0.8519287109375,-0.4049530029296875,-0.084716796875
1789552342293702700,11.54870263671875,-0.9104461669921875,-0.342987060546875,-0.08428955078125
1789552342303671600,11.558671630859376,-1.119415283203125,-0.1516571044921875,-0.1000823974609375
1789552342313640700,11.568640625,-1.0449066162109375,-0.2369842529296875,0.043792724609375
1789552342323609600,11.578609619140625,-0.9269866943359375,-0.375823974609375,-0.07928466796875
1789552342333579500,11.58857958984375,-0.8829498291015625,-0.394989013671875,-0.0177001953125
1789552342343548400,11.59854833984375,-0.886077880859375,-0.3221435546875,0.0907135009765625
1789552342353517600,11.608517578125,-1.1227264404296875,-0.2036895751953125,-0.0127716064453125
1789552342363486500,11.618486572265626,-1.1180877685546875,-0.413482666015625,-0.0388336181640625
1789552342373455600,11.62845556640625,-1.0208892822265625,-0.4605560302734375,0.173248291015625
1789552342383424500,11.638424560546875,-0.94464111328125,-0.3722991943359375,0.02972412109375
1789552342393393400,11.648393310546876,-0.792266845703125,-0.35650634765625,0.06939697265625
1789552342403362600,11.658362548828125,-0.7913665771484375,-0.385589599609375,-0.050933837890625
1789552342413331500,11.66833154296875,-0.9463348388671875,-0.2739715576171875,-0.0025634765625
1789552342423300600,11.678300537109376,-1.1406097412109375,-0.183502197265625,-0.008575439453125
1789552342433269500,11.68826953125,-1.092132568359375,-0.1897430419921875,-0.004669189453125
1789552342443238700,11.69823876953125,-0.82574462890625,-0.278656005859375,0.008636474609375
1789552342453207800,11.708207763671876,-0.84893798828125,-0.2512664794921875,0.0370330810546875
1789552342463177700,11.718177734375,-0.8748779296875,-0.2427978515625,0.1076507568359375
1789552342473146600,11.728146728515625,-1.0083770751953125,-0.15972900390625,-0.040771484375
1789552342483115800,11.73811572265625,-1.098785400390625,-0.080047607421875,0.035736083984375
1789552342493084700,11.748084716796875,-0.90692138671875,-0.197174072265625,0.116180419921875
1789552342503053600,11.758053466796875,-0.872833251953125,-0.2145233154296875,0.174652099609375
1789552342513022700,11.768022705078126,-0.867462158203125,-0.302703857421875,0.1054534912109375
1789552342522991600,11.77799169921875,-0.9978179931640625,-0.148162841796875,0.1682281494140625
1789552342532960800,11.787960693359375,-1.139251708984375,-0.0112457275390625,0.225555419921875
1789552342542929700,11.7979296875,-1.14935302734375,-0.1467437744140625,0.112518310546875
1789552342552898600,11.807898681640625,-1.1973114013671875,-0.3048553466796875,0.1618804931640625
1789552342562867700,11.81786767578125,-1.0807952880859375,-0.2557525634765625,0.17694091796875
1789552342572836600,11.827836669921876,-0.7664794921875,-0.4059906005859375,0.1619873046875
1789552342582805800,11.8378056640625,-0.7368927001953125,-0.3791046142578125,0.15887451171875
1789552342592774700,11.847774658203125,-0.7456207275390625,-0.42584228515625,-0.0465545654296875
1789552342602744600,11.85774462890625,-0.737457275390625,-0.4004058837890625,-0.082183837890625
1789552342612713500,11.86771337890625,-0.885345458984375,-0.272674560546875,-0.0126800537109375
1789552342622682600,11.8776826171875,-1.1019744873046875,-0.0925750732421875,-0.1016845703125
1789552342632651500,11.887651611328126,-1.105682373046875,-0.2285003662109375,-0.0610809326171875
1789552342642620700,11.89762060546875,-1.1490325927734375,-0.229248046875,-0.13519287109375
1789552342652589600,11.907589599609375,-1.120635986328125,-0.2544708251953125,-0.1117706298828125
1789552342662558500,11.917558349609376,-1.007781982421875,-0.2503814697265625,-0.3087615966796875
1789552342672527600,11.927527587890625,-0.817535400390625,-0.3844451904296875,-0.063232421875
1789552342682496500,11.93749658203125,-0.8770599365234375,-0.3707122802734375,-0.2227935791015625
1789552342692465700,11.947465576171876,-0.96575927734375,-0.3341217041015625,-0.318023681640625
1789552342702434600,11.9574345703125,-0.82049560546875,-0.33013916015625,-0.1707763671875
1789552342712403500,11.967403564453125,-0.72021484375,-0.3196258544921875,-0.1829071044921875
1789552342722372600,11.97737255859375,-0.88116455078125,-0.262725830078125,-0.2196197509765625
1789552342732341500,11.987341552734375,-0.894805908203125,-0.261932373046875,-0.1034698486328125
1789552342742310400,11.997310302734375,-1.16571044921875,-0.168243408203125,-0.242828369140625
1789552342752280800,12.00728076171875,-1.37200927734375,-0.1103057861328125,-0.2873077392578125
1789552342762249700,12.017249755859375,-1.163909912109375,-0.2538604736328125,-0.1956634521484375
1789552342772218600,12.027218505859375,-0.76837158203125,-0.408447265625,0.0059814453125
1789552342782187800,12.037187744140626,-0.7049713134765625,-0.318206787109375,-0.10455322265625
1789552342792156700,12.04715673828125,-0.656768798828125,-0.1817169189453125,-0.160186767578125
1789552342802125600,12.05712548828125,-0.714569091796875,-0.1548309326171875,-0.210479736328125
1789552342812094700,12.0670947265625,-1.0410919189453125,-0.125244140625,-0.21026611328125
1789552342822063600,12.077063720703125,-1.3596954345703125,-0.173126220703125,-0.2627105712890625
1789552342832032800,12.08703271484375,-1.230804443359375,-0.2255096435546875,-0.056549072265625
1789552342842001700,12.097001708984376,-0.9906463623046875,-0.3014068603515625,0.01190185546875
1789552342851970600,12.106970458984375,-0.8493804931640625,-0.4197235107421875,-0.09576416015625
1789552342861939700,12.116939697265625,-0.8905029296875,-0.3796234130859375,-0.0561065673828125
1789552342871908600,12.12690869140625,-1.0102386474609375,-0.2748870849609375,-0.128143310546875
1789552342881877800,12.136877685546875,-0.98968505859375,-0.33770751953125,-0.0538787841796875
1789552342891847700,12.14684765625,-0.8068695068359375,-0.34564208984375,0.02899169921875
1789552342901816600,12.156816650390626,-0.593658447265625,-0.50323486328125,0.106658935546875
1789552342911785700,12.16678564453125,-0.7582550048828125,-0.276763916015625,0.1357574462890625
1789552342921754600,12.176754638671875,-1.0176239013671875,-0.1519317626953125,-0.069183349609375
1789552342931723500,12.1867236328125,-1.1138916015625,-0.2854766845703125,0.06988525390625
1789552342941692700,12.196692626953125,-1.234832763671875,-0.2851715087890625,0.2092742919921875
1789552342951661600,12.20666162109375,-1.022735595703125,-0.3985748291015625,0.170379638671875
1789552342961630500,12.21663037109375,-0.843719482421875,-0.4163360595703125,0.06884765625
1789552342971599600,12.226599609375,-0.757293701171875,-0.3441925048828125,-0.1689300537109375
1789552342981568500,12.236568603515625,-0.8572998046875,-0.27362060546875,-0.0223846435546875
1789552342991537700,12.24653759765625,-1.02008056640625,-0.1445465087890625,-0.0242767333984375
1789552343001506600,12.256506591796875,-1.02294921875,-0.217926025390625,0.018707275390625
1789552343011475500,12.266475341796875,-1.0238037109375,-0.2530059814453125,-0.0874786376953125
1789552343021444600,12.276444580078126,-0.9848480224609375,-0.376251220703125,-0.01068115234375
1789552343031413500,12.28641357421875,-1.0478515625,-0.315032958984375,-0.0512847900390625
1789552343041382700,12.296382568359375,-0.9918212890625,-0.3371734619140625,0.023834228515625
1789552343051351600,12.3063515625,-0.975799560546875,-0.270843505859375,-0.029144287109375
1789552343061321700,12.31632177734375,-0.940826416015625,-0.27764892578125,-0.115447998046875
1789552343071290600,12.32629052734375,-0.8828125,-0.356781005859375,-0.0544281005859375
1789552343081259800,12.336259765625,-0.979827880859375,-0.2349853515625,-0.0461883544921875
1789552343091229000,12.34622900390625,-1.0194549560546875,-0.180999755859375,-0.026947021484375
1789552343101198000,12.356197998046875,-1.0111541748046875,-0.193695068359375,-0.064453125
1789552343111167000,12.3661669921875,-1.00634765625,-0.2283172607421875,0.0242767333984375
1789552343121135900,12.376135986328125,-0.9922943115234375,-0.1958465576171875,0.1228179931640625
1789552343131105000,12.38610498046875,-1.039947509765625,-0.3172454833984375,0.1699066162109375
1789552343141074000,12.396073974609376,-1.06304931640625,-0.2400970458984375,0.1066131591796875
1789552343151042800,12.406042724609375,-0.9666595458984375,-0.321136474609375,0.1160125732421875
1789552343161012000,12.416011962890625,-0.8885650634765625,-0.3211212158203125,0.0190277099609375
1789552343170980900,12.42598095703125,-0.768218994140625,-0.311370849609375,-0.0121612548828125
1789552343180950000,12.435949951171875,-0.754547119140625,-0.272918701171875,-0.0487213134765625
1789552343190919000,12.4459189453125,-0.8950958251953125,-0.1789093017578125,-0.09197998046875
1789552343200887800,12.4558876953125,-1.055419921875,-0.184844970703125,-0.0938720703125
1789552343210857000,12.46585693359375,-1.038055419921875,-0.2335662841796875,-0.031463623046875
1789552343220827000,12.475826904296875,-1.0507659912109375,-0.2002716064453125,0.1130218505859375
1789552343230795800,12.485795654296876,-1.056243896484375,-0.2063140869140625,0.0293121337890625
1789552343240765000,12.495764892578125,-1.0028228759765625,-0.3002471923828125,0.039398193359375
1789552343250733800,12.50573388671875,-1.0048675537109375,-0.3522491455078125,-0.090484619140625
1789552343260703000,12.515702880859376,-0.8695526123046875,-0.4777984619140625,0.094696044921875
1789552343270672000,12.525671875,-0.8654327392578125,-0.38140869140625,0.1517791748046875
1789552343280640800,12.535640869140625,-0.8423614501953125,-0.411285400390625,0.0196075439453125
1789552343290610000,12.54560986328125,-0.824066162109375,-0.388916015625,0.003997802734375
1789552343300579000,12.5555791015625,-0.78668212890625,-0.3945465087890625,-0.0003204345703125
1789552343310548000,12.5655478515625,-1.0106964111328125,-0.25201416015625,-0.0628509521484375
1789552343320517000,12.57551708984375,-1.1395721435546875,-0.245513916015625,0.0582275390625
1789552343330486000,12.585486083984375,-1.1913909912109375,-0.223541259765625,-0.075469970703125
1789552343340455200,12.595455078125,-0.975921630859375,-0.405120849609375,-0.0471649169921875
1789552343350424000,12.605424072265626,-0.81884765625,-0.4251251220703125,-0.1321258544921875
1789552343360393000,12.61539306640625,-0.8928070068359375,-0.299896240234375,-0.1369476318359375
1789552343370362000,12.625362060546875,-1.0018310546875,-0.2217864990234375,-0.0044403076171875
1789552343380331000,12.6353310546875,-0.975799560546875,-0.307708740234375,-0.015228271484375
1789552343390300200,12.645300048828124,-0.9532623291015625,-0.2979888916015625,-0.0826416015625
1789552343400270000,12.65527001953125,-0.925201416015625,-0.1946563720703125,0.1125030517578125
1789552343410239000,12.665239013671876,-0.8643035888671875,-0.3212890625,0.0203704833984375
1789552343420207900,12.675207763671875,-0.9675445556640625,-0.2901763916015625,0.08392333984375
1789552343430177000,12.685177001953125,-1.03948974609375,-0.260986328125,0.0816497802734375
1789552343440146000,12.69514599609375,-1.0304412841796875,-0.2399749755859375,0.0933380126953125
1789552343450115000,12.705114990234375,-0.9273529052734375,-0.3314971923828125,0.04327392578125
1789552343460084000,12.715083984375,-0.9188690185546875,-0.335784912109375,-0.0603485107421875
1789552343470052900,12.725052978515626,-1.0144500732421875,-0.206024169921875,0.043426513671875
1789552343480022000,12.73502197265625,-1.0885009765625,-0.192047119140625,0.0689544677734375
1789552343489991000,12.744990966796875,-0.9969024658203125,-0.32586669921875,0.04833984375
1789552343499960000,12.7549599609375,-0.8882598876953125,-0.376129150390625,0.0930633544921875
1789552343509929000,12.764928955078124,-0.8543853759765625,-0.3469390869140625,0.1256256103515625
1789552343519897900,12.77489794921875,-0.7764739990234375,-0.3664703369140625,0.12493896484375
1789552343529867000,12.784866943359376,-0.83978271484375,-0.2687225341796875,0.06500244140625
