time,seconds_elapsed,z,y,x
1789552330805522700,0.060522705078125,0.39962534101903435,-0.15536621053963898,0.5423115912709385
1789552330815492600,0.07049267578125,0.6308189459592104,0.04327829297333956,0.38263540857769546
1789552330825461500,0.08046142578125,-0.14157120168209075,0.8091685572013259,0.5937909455522895
1789552330835430700,0.0904306640625,-0.20217326216101644,0.13037702297270298,0.6651161331627518
1789552330845399600,0.100399658203125,-0.13992460351884364,0.1645037489801645,0.06342676251083612
1789552330855368700,0.11036865234375,-0.21377543714940547,-0.24212708688676357,-0.2789295349095017
1789552330865337600,0.120337646484375,-0.29726620578467844,-0.010238485419750212,-0.1470769594915211
1789552330875307500,0.1303076171875,0.0922995135128498,-0.08459054657071828,-0.06389196886979043
1789552330885276700,0.140276611328125,0.8711959743082522,0.07589373763501643,-0.10875322018563746
1789552330895245600,0.15024560546875,2.083767345240712,-1.4330088963195682,-0.3253805396348238
1789552330905214500,0.16021435546875,1.395302265998721,-0.8386398586183786,0.7433035346928983
1789552330915183600,0.17018359375,0.22515198668837547,0.12053893504738807,0.25203761899378146
1789552330925153500,0.180153564453125,-1.2113164024353027,0.368202613273263,0.8093861454747617
1789552330935122400,0.190122314453125,-1.9317928229659795,0.5092936302229761,0.7640363069243729
1789552330945091600,0.200091552734375,-0.8507651806980371,-0.034874914026260376,1.1248790589541195
1789552330955060500,0.210060546875,0.5446405456751585,-0.5176406028077006,0.566437987996079
1789552330965029400,0.220029296875,2.029006996527314,-1.0205980157464742,1.8435338170155882
1789552330974999600,0.22999951171875,1.3800906683415173,-0.1458610078305006,1.5701067519798875
1789552330984968700,0.23996875,0.4236912762612104,0.10079729274511337,1.449298790732771
1789552330994937600,0.2499375,-1.2640858695924282,0.4031543919280171,0.8832471351731568
1789552331004906800,0.25990673828125,-1.1404209114789963,-0.10644640454798936,0.38066787136439234
1789552331014875600,0.269875732421875,-0.7409568985015154,0.20332155541330574,0.8192273021399974
1789552331024844500,0.279844482421875,0.6343693319171667,-0.6858762317925691,1.1828421492315828
1789552331034814700,0.289814697265625,0.7515180400043725,-0.4473310950458049,1.5757912273570893
1789552331044783600,0.29978369140625,1.2461661820203065,-0.588025221632421,0.5900041935551911
1789552331054752500,0.30975244140625,1.1731342635571955,-0.5432479222729801,0.8882622599214315
1789552331064721700,0.3197216796875,-0.5506242962598801,0.48410892008394,0.10276420890390872
1789552331074690800,0.32969091796875,-0.4087473896294832,0.0172822664514184,1.1077584128051996
1789552331084660700,0.33966064453125,-0.9887556012839078,0.4536456850200891,0.956081631368026
1789552331094630000,0.3496298828125,-0.40261517048478124,0.4506286752864718,1.4314520222663878
1789552331104598800,0.359598876953125,-0.7716495584070682,1.2825862796619534,-0.007102415883727372
1789552331114567700,0.369567626953125,-0.874346547293663,1.3325254918292164,0.572445813576132
1789552331124536800,0.379536865234375,-0.9913158071607351,0.7852706720024347,1.3760989683568476
1789552331134505700,0.389505615234375,-1.1971943535804748,0.9610615386724471,-0.10827420449703931
1789552331144476000,0.399475830078125,0.2816086179256439,0.12193477331995964,-0.6164619193047285
1789552331154445000,0.409445068359375,0.6888438494265079,-0.1714531297266483,-0.17830456652399151
1789552331164414000,0.4194140625,0.9406874436855316,0.03460837204456329,-1.1351062923274933
1789552331174382800,0.4293828125,0.3745890994399786,0.15158669200092553,-1.3031567740038037
1789552331184352000,0.43935205078125,0.6015455052018165,-0.5089186594307422,0.14308142358195036
1789552331194322000,0.449322021484375,0.4601368006050586,-0.444764751689136,-1.1060377264924346
1789552331204290800,0.459290771484375,0.7076403198331594,-0.48241292982101436,-2.292575223110616
1789552331214260000,0.469260009765625,0.6996797162175178,-1.1951403436601162,-1.2611378334417938
1789552331224228900,0.479228759765625,0.3488894255161285,-1.2710934102669358,0.6798058989029377
1789552331234197800,0.48919775390625,-0.7710475008606911,-0.4732143088430166,0.9260049844689666
1789552331244167000,0.4991669921875,-1.2408289126455783,0.3257242385059595,3.181733555088937
1789552331254136800,0.50913671875,0.20938743132352827,-0.9414747946709394,3.3639401340201496
1789552331264105700,0.519105712890625,0.30235680692195893,-0.6413783338963985,3.2378073244884606
1789552331274075000,0.529074951171875,0.10251695614457129,0.2911158664613962,3.1810762602239846
1789552331284043800,0.539043701171875,0.3036982846587896,-0.4638821246132254,3.5985856329798698
1789552331294012700,0.5490126953125,0.11603577840924262,-1.1238830336540937,2.708300342798233
1789552331303982800,0.55898291015625,0.5048363585531711,-1.7576441705450414,2.1469044771552084
1789552331313951700,0.56895166015625,0.19379881704747676,-1.2195511468172073,2.3048661110155284
1789552331323920600,0.578920654296875,0.7692892590165138,-0.45337388234138487,1.4782809934586285
1789552331333889800,0.588889892578125,0.814020965668559,0.10357055685073137,-0.7117924710765481
1789552331343858700,0.598858642578125,1.339443600654602,-1.2646262600794433,-0.2512243663821369
1789552331353827800,0.608827880859375,-0.7121230182051658,-0.6010135902822017,-0.1007766152832657
1789552331363798000,0.618798095703125,-1.20499888985157,0.2721060455650091,0.41685748471841216
1789552331373767000,0.628766845703125,-0.9003495880782604,0.24377222374528645,0.6213253606226294
1789552331383735800,0.63873583984375,0.2695961085706949,-0.07317600310891867,0.23461196201629936
1789552331393705000,0.648705078125,-0.5036848504304886,0.8558224640876054,0.6257434693258256
1789552331403673900,0.658673828125,-0.5813520274788141,0.3041065731987357,0.5206218105755746
1789552331413643800,0.668643798828125,-0.5032148948311805,-0.34551088899374005,0.2764104647606611
1789552331423613000,0.678613037109375,0.37431963484883307,-1.2249787248238921,1.0254070965286344
1789552331433581800,0.688581787109375,0.003168693163990974,-0.6122498545676469,1.0050650771804153
1789552331443550700,0.69855078125,-0.8856874409973621,-0.3918304493591189,2.457037471036613
1789552331453520000,0.708519775390625,0.9558429272413254,-1.413200618521869,2.6966414691865443
1789552331463488800,0.71848876953125,1.2252823839455842,-0.9486196979895234,2.9779829606086015
1789552331473458700,0.728458740234375,2.185518577709794,-1.4436778821110725,2.689321793822944
1789552331483427800,0.738427734375,1.7444003658294678,-0.5932683829829096,2.306225855061412
1789552331493396700,0.748396728515625,0.8423737844496965,-0.06064151570647955,1.9615905798584221
1789552331503365600,0.75836572265625,0.08424187926352024,-0.2558431852892041,1.1073531930051743
1789552331513334800,0.768334716796875,-0.6713403414398431,-0.05931406649500131,0.4961942754793912
1789552331523303700,0.7783037109375,-1.561276672053337,0.39432665008902545,-1.0414957692813127
1789552331533273900,0.78827392578125,-2.074125656670332,0.9875307356640696,-1.216051029741764
1789552331543243000,0.798242919921875,-0.9083002548217773,0.09375205040872096,-1.3228238897651434
1789552331553212000,0.8082119140625,-0.12184183433949947,-0.5170362071737646,-1.551255190385133
1789552331563180800,0.818180908203125,0.17515198424458503,-0.5164344418883323,-1.5818375217840075
1789552331573150000,0.82814990234375,0.36508711160123347,-0.45906887911260125,-1.4896893994405864
1789552331583120000,0.838119873046875,2.074727714216709,-1.4515700966656206,-0.7384499571818858
1789552331593088800,0.8480888671875,2.105002440971136,-1.6232123192235826,-1.3382013455085455
1789552331603058000,0.858057861328125,1.2621277212619781,-1.1459233082875608,-0.12794475432448088
1789552331613026800,0.86802685546875,-0.3189531369358301,-0.20814386100322008,-0.7014552014574408
1789552331622996000,0.877995849609375,-0.9780056592106818,-0.8375663841679691,0.8373537643305957
1789552331632964900,0.88796484375,-1.088365145549178,-1.0448334623366593,1.1842680903814733
1789552331642934800,0.897934814453125,0.9072609749019146,-2.1166838186755776,0.9744763160407542
1789552331652903700,0.907903564453125,1.7724053940862416,-1.4341346854791044,0.9498432484351098
1789552331662872800,0.917872802734375,0.8510960200875997,0.039994741258025164,0.6286123758256436
1789552331672841700,0.927841796875,-1.0246750559270381,0.654212388767302,0.44168410213477904
1789552331682811000,0.937810791015625,-3.395141035708785,0.8646803088039159,1.5056632136419414
1789552331692779800,0.94777978515625,-3.4561645364701747,0.37362843771427867,0.05135996568538248
1789552331702749700,0.957749755859375,-1.5831278538554905,0.050176235793530935,-0.056184024840965865
1789552331712718800,0.96771875,-0.035870939326286315,0.816523888400197,0.053028264223784205
1789552331722687700,0.977687744140625,1.8940332934141157,0.20551029762923717,-0.21411409451924263
1789552331732656600,0.98765673828125,1.3789169483870267,-0.06814765355288982,0.355874389032647
1789552331742625800,0.997625732421875,0.35265199292004107,0.18969167398959397,-0.15956775388270616
1789552331752594700,1.0075947265625,-0.009237783944606781,0.5910729187652468,-0.21959581386595964
1789552331762564900,1.01756494140625,0.44611061334013935,-0.13477058175653217,0.09672164080403745
1789552331772534000,1.027533935546875,0.8525544022023678,-0.7344850721389055,-0.807073923009634
1789552331782503000,1.0375029296875,-0.4124608571946621,0.16651625784635543,-1.2549372252359985
1789552331792471800,1.047471923828125,-0.5674059197127819,-0.10184066431820392,-1.2635234134040771
1789552331802441000,1.05744091796875,-0.4914052145719528,-0.0947615197122097,-1.6430160669766365
1789552331812409900,1.067409912109375,0.06218319219052791,-0.19428893865197897,-1.1781373325414954
1789552331822379800,1.0773798828125,1.0776005904287098,-1.2370724827215074,-0.8336815786238759
1789552331832349000,1.087348876953125,1.2049801851511002,-0.8719634515494108,-0.6445542605187744
1789552331842317800,1.09731787109375,0.4051701156646013,-0.21449235324710605,-0.6401031263288111
1789552331852286700,1.10728662109375,1.1223796433538198,-0.599625643055141,-1.0592482105277479
1789552331862255900,1.117255859375,-0.003776595929265022,-0.41372517804205416,-0.3619711350051686
1789552331872224800,1.127224853515625,-0.3909808467924595,-0.6597808365494012,-0.5189603071041405
1789552331882194700,1.137194580078125,-1.0466384659320116,-0.4866197338610887,-0.7937304573118686
1789552331892163800,1.147163818359375,-1.6622037286579607,0.3956289648592472,-0.715596101143211
1789552331902132700,1.1571328125,-0.05106207871735096,-0.6009165596485138,-0.957812035357207
1789552331912101600,1.1671015625,1.5778087046593428,-1.103818443007767,-0.43615240616649387
1789552331922070800,1.17707080078125,0.7236088733375072,0.9706175947859883,1.1750452117450534
1789552331932039700,1.187039794921875,1.4608546423614024,0.5313903112187981,0.6970106431387364
1789552331942009900,1.197009765625,1.4434171853482722,-0.48651685800850386,0.9982864498909563
1789552331951979000,1.20697900390625,-0.5701537571161985,0.1499965002000332,0.4175702726302668
1789552331961948000,1.216947998046875,-1.3666864123672247,0.7641010427236556,-0.8165263726182281
1789552331971916800,1.226916748046875,-0.8833575367450713,0.48005730660557744,-0.05181963735269382
1789552331981886000,1.236885986328125,-0.027928455889225004,-0.0022474866658449173,-0.37379027721248564
1789552331991854800,1.246854736328125,0.4942319624304771,0.2913631192207336,-0.11869264959357678
1789552332001824800,1.25682470703125,0.6852835265964269,-0.4825824411690235,0.46318595904260873
1789552332011794000,1.2667939453125,0.5079752411007881,-0.9559659690991044,-0.5479218323681503
1789552332021762800,1.2767626953125,0.19577859268784523,-0.18788842395991087,-0.8321150599595158
1789552332031732000,1.28673193359375,1.342819214567542,-0.7972446029126644,0.7242818041630089
1789552332041700900,1.296700927734375,1.0465040258973837,-1.086205629427731,0.2936288356630131
1789552332051669800,1.306669677734375,-0.18231471548080444,-0.48865679264664647,-0.2515698918841779
1789552332061639700,1.3166396484375,-0.36253859616219997,-0.19339929633587596,0.31905842394120987
1789552332071608800,1.32660888671875,-0.32109131800830365,-0.7805822219252586,-0.001633441854151897
1789552332081577500,1.336577392578125,-0.047211833029985426,-0.38858693739324807,-0.4327163307705894
1789552332091546600,1.346546630859375,0.4130003708988428,-0.64270899797827,0.6565544218488037
1789552332101515500,1.356515625,-0.1678589046269655,0.1928007459208369,0.8778571126978844
1789552332111484400,1.366484375,-0.5732295112997293,-0.07984598239213228,1.0188614742774516
1789552332121454600,1.37645458984375,-0.5208674558997154,-0.7415560334384441,2.1962781643941995
1789552332131423500,1.386423583984375,-0.272063375467062,-0.7538131652042269,1.2024153030991553
1789552332141392400,1.396392333984375,0.581214080312848,-0.01803600742816925,1.0634869440760464
1789552332151361500,1.406361572265625,1.5848451791673899,-0.49667614071220156,1.88284466766268
1789552332161330400,1.416330322265625,1.1695371158480643,-0.45432752980440855,0.7405496328748762
1789552332171299600,1.426299560546875,-0.380979677259922,0.5132622415930033,1.5646991938479244
1789552332181269500,1.43626953125,-0.7007739411950111,1.0947525084987282,0.8523235891211778
1789552332191238400,1.44623828125,-0.4483849880129099,0.9374009693607688,0.9909633404612541
1789552332201207300,1.456207275390625,-0.12263093889057636,0.9243135242506861,0.9488627129651606
1789552332211176400,1.466176513671875,-0.3589788578540086,0.6278808466807008,0.15910444721989334
1789552332221145300,1.476145263671875,-1.6191501843512057,1.3525868676051496,-0.39788470789678393
1789552332231114500,1.486114501953125,-1.4524562318503855,0.979409680789709,-0.2282711050895974
1789552332241084700,1.496084716796875,-0.6496838054269551,0.40474633729457854,-0.6743290749270469
1789552332251053600,1.506053466796875,1.8952298097223041,-0.8798170876592397,-0.5041141452258453
1789552332261022500,1.5160224609375,1.7065186712026594,0.21303601695895194,0.22868617043020203
1789552332270991600,1.52599169921875,1.3473293854683637,1.2829907688096165,-2.0151158338189123
1789552332280960500,1.53596044921875,0.9920727630078792,0.3443441833019256,-3.047190644608438
1789552332290929700,1.5459296875,-0.027510522738099098,-0.6904922011554241,-2.0012192642830313
1789552332300899600,1.555899658203125,-1.2653256405204534,0.41862756313085553,-2.8303865072876215
1789552332310868500,1.565868408203125,-0.4485276113539934,-0.11018559107631444,-2.912593081331253
1789552332320837400,1.57583740234375,-0.34185704266130923,-0.03882306713014841,-2.34959518731907
1789552332330806500,1.585806640625,0.22388532775342462,-0.009154197314381598,-2.8594778694763776
1789552332340775400,1.595775390625,0.48239773225188254,-0.6553489915817976,-1.8741013892367482
1789552332350744600,1.60574462890625,0.09055413115024566,-0.6918821942090988,-1.1500584353309125
1789552332360714500,1.615714599609375,-0.035412089642882345,-0.6772516113102436,-1.841834173490852
1789552332370683400,1.625683349609375,0.3847662100613117,-1.4643936301425098,-0.5597742557905614
1789552332380652500,1.635652587890625,-0.519954432708025,-0.5611331230536103,-0.019401560160331427
1789552332390621400,1.645621337890625,-0.16075228749215603,-1.1414724663585423,-0.34195637484993785
1789552332400590300,1.65559033203125,-0.24306758260726927,-0.6080559100091457,-0.7965852622210979
1789552332410559500,1.6655595703125,0.37822950176894665,-0.6712301590636373,-1.4998682636275886
1789552332420529700,1.67552978515625,-0.1270773969054222,-0.12917904535979033,-1.6912182262182234
1789552332430498600,1.68549853515625,-0.5984814414560794,-0.05744944166690111,-1.648088694065809
1789552332440467700,1.6954677734375,-0.9361632442593574,0.040486031906306744,-0.9134132139213382
1789552332450436600,1.7054365234375,0.5239034625947475,-0.8198080246374011,-0.26421923783794043
1789552332460405500,1.715405517578125,0.5301420647233724,-0.0019879589468240737,-0.6224660550903529
1789552332470374700,1.725374755859375,0.007495324191451072,0.343616161288321,-0.2798229766178876
1789552332480343600,1.735343505859375,-0.13846505236029624,-0.10272592272013426,0.7994075531002134
1789552332490313500,1.7453134765625,-1.0869950262397527,0.055850482037663456,1.1950604102917015
1789552332500282600,1.75528271484375,-0.9196236128687858,-0.1954039141565561,1.7270988101556897
1789552332510251500,1.76525146484375,0.14414602060616016,-0.40286037741750474,0.40187808838188643
1789552332520220400,1.775220458984375,0.7254857731252908,0.22498130629658697,-0.050728389783576126
1789552332530189600,1.785189453125,2.2187182520002127,-0.8218293013319372,0.9172096835948527
1789552332540158500,1.795158447265625,0.8330074056893587,-0.2255675817519426,0.2677566181838512
1789552332550128400,1.80512841796875,0.0788490803092718,-0.29621874255836006,0.8181908717643469
1789552332560097500,1.81509765625,-0.7193436171084642,0.48681584095507857,-0.10265899496376514
1789552332570066400,1.82506640625,-0.22464754429757594,0.2343842176750302,-0.39183958251364526
1789552332580035300,1.835035400390625,0.09234919787347316,-0.14438216744959353,-0.8897662347435951
1789552332590004500,1.84500439453125,0.5947714810222386,-0.9381164241537451,-0.20479195675943046
1789552332599973400,1.854973388671875,0.6771066498816013,-0.7011290382429957,-0.17718254022412
1789552332609943300,1.864943359375,0.020918869388103483,-1.0024585479438304,0.8864525801509618
1789552332619912400,1.874912353515625,-2.1682681677013633,-0.4761252278536558,0.7035328114490955
1789552332629881300,1.88488134765625,1.1040759249001741,-2.7875883990466592,0.9754960144773125
1789552332639850500,1.8948505859375,-0.12602584202587605,-1.4577952547907829,0.549192254162766
1789552332649819600,1.904819580078125,1.4951076250970363,-1.4376651976928114,-0.9369538831803947
1789552332659788500,1.91478857421875,1.2122364398896694,-0.8635805308684706,-0.9919272170573472
1789552332669757700,1.9247578125,0.16760931378006935,-0.2202624610811472,0.5053702097015456
1789552332679727600,1.9347275390625,-0.005754618003964424,-0.9057441405981779,-1.124007975208014
1789552332689696500,1.944696533203125,-0.3149930011332035,-0.043028117604553696,-0.9957141882501542
1789552332699665700,1.954665771484375,0.2235942358523607,0.3471072182744741,-0.5812027552012354
1789552332709634600,1.964634521484375,-0.39214462987482546,1.028442591767013,-1.1858595973566173
1789552332719603500,1.974603515625,-0.2995779898583889,0.704782007792592,0.40668596358764914
1789552332729572600,1.984572509765625,-1.0772288345068692,0.27665508717149495,0.330268311676383
1789552332739542500,1.99454248046875,-0.31339550280869005,-0.1340820149704814,1.071310696504265
1789552332749511400,2.004511474609375,-0.08141220879554747,0.40687312019020316,0.6584444003138691
1789552332759480600,2.01448046875,0.9548469019412994,0.1472659061923623,-0.3835875216707587
1789552332769449500,2.024449462890625,0.7836170595765113,0.47442719176411624,0.902895692364499
1789552332779418400,2.03441845703125,1.1108826823055744,-0.5860755488693714,0.7993610105447471
1789552332789387500,2.044387451171875,0.09230652777552605,-0.8958566605731845,0.3615592297360301
1789552332799357400,2.054357421875,0.042616321933269495,-0.39651130065172907,1.3778352906301616
1789552332809326300,2.064326416015625,-0.2765460738390684,0.71521104734838,0.7648224888660013
1789552332819295500,2.07429541015625,0.10062953496277331,-0.43799744951128955,-0.10967243565609679
1789552332829264400,2.084264404296875,-0.6464426315486431,0.1283405487090349,1.274791095741093
1789552332839233300,2.0942333984375,-0.4996013805091381,0.13190116380006073,1.5572493162333965
1789552332849202400,2.104202392578125,-0.1719295150667429,-0.24223697700202462,1.3772799948349594
1789552332859171300,2.11417138671875,-0.15497779574394224,0.032472821320593356,1.8508834491260349
1789552332869141500,2.1241416015625,1.1172124698489905,-0.9782640178859233,0.6636702452033758
1789552332879110700,2.134110595703125,0.753751498144865,-0.34330694920867677,0.994870211706683
1789552332889079600,2.14407958984375,1.4042203164696692,-0.8339610531523823,-0.842061357499659
1789552332899048400,2.15404833984375,1.3540087171018123,-0.7976064219623804,-1.516983064557612
1789552332909017600,2.164017578125,0.09311550607085227,0.45671559398472306,-0.7690829958546906
1789552332918986500,2.173986572265625,-0.0005570493608713149,-0.2135845907524228,-1.9089992457471787
1789552332928956400,2.183956298828125,-1.1296931812375783,0.044023266121745105,-2.9272751021564005
1789552332938925600,2.193925537109375,-1.2912719826817511,0.7517553558915853,-2.328615819915384
1789552332948894500,2.20389453125,-0.7481611307919025,0.8357105271682143,-1.654316482539475
1789552332958863600,2.213863525390625,0.4369692755073309,0.39255554876327514,0.09660687358425929
1789552332968832500,2.22383251953125,-0.05019172562360763,0.6062529522404074,0.8141195306722074
1789552332978801400,2.233801513671875,0.07446867326796054,-0.04847381578981876,0.5598897719290107
1789552332988770600,2.2437705078125,0.33741233821213246,-0.695212799936533,0.19475975276781246
1789552332998740500,2.253740478515625,0.15190145703852176,-0.20540479142814874,0.18191603501942008
1789552333008709400,2.26370947265625,0.148200848954916,-0.15938012235611676,0.07130619978220201
1789552333018678500,2.273678466796875,0.4504430895864963,-0.5739288917407394,0.14208423837129958
1789552333028647400,2.2836474609375,1.0935241357475518,-0.4492790142431855,-0.5387924772340804
1789552333038616300,2.2936162109375,1.3749725946754217,-0.6157350663349032,-0.8894932630211114
1789552333048585500,2.30358544921875,1.0083680642485617,-0.84302932574898,-1.3373989430844784
1789552333058554400,2.313554443359375,-0.8889128327846526,0.7759276741176844,-1.3830048022225498
1789552333068524500,2.323524658203125,-0.3341208954513073,0.41540889334529635,-0.8256195604603737
1789552333078493700,2.33349365234375,0.20679975291788577,-0.445370900888741,-1.3091245963670313
1789552333088462600,2.343462646484375,0.512265047249198,-0.6328595118761062,-0.4338210040768608
1789552333098431500,2.353431396484375,0.08427461248934269,-0.3054334378883242,-0.5322200035085901
1789552333108401000,2.36340087890625,-0.6652846946626901,0.18039631463885306,0.44859877689406275
1789552333118369800,2.373369873046875,-1.1304553977817295,-0.06624532706290483,-0.06703306164080276
1789552333128339700,2.383339599609375,-0.7130185057401657,-0.4293433106735349,-0.22481890054279938
1789552333138308900,2.393308837890625,-0.30000352179408074,0.03009323270767927,-0.6105974842507392
1789552333148277800,2.40327783203125,0.6035556759804487,-0.14380319851785897,-0.6661600161924958
1789552333158246700,2.41324658203125,1.6040034686237572,-0.7484829100921749,-0.48457105770297343
1789552333168215800,2.4232158203125,1.312524029546976,-0.8294380227699876,-1.1909808858931064
1789552333178184700,2.433184814453125,0.7321814713716507,-0.3436325279012322,-0.7892473936136811
1789552333188153900,2.44315380859375,0.8464420568019151,-0.20542466517239807,0.13944909496158361
1789552333198123800,2.453123779296875,-0.41328444853723045,0.0468491371974349,0.3124045920751989
1789552333208092700,2.4630927734375,-1.0832967562437057,0.20428017131239173,-0.03125400184905156
1789552333218061600,2.4730615234375,-2.099732391613722,0.3200800951391458,1.5495903259128332
1789552333228030700,2.48303076171875,-1.6049796201795339,0.10040683212280273,0.5270041320238262
1789552333237999600,2.49299951171875,-0.4530459655612707,-0.18622224431335924,1.027262515136972
1789552333247968800,2.50296875,0.567515809828043,0.005292845711112022,0.6659310297422111
1789552333257937700,2.512937744140625,1.068885369053483,0.11147504636496305,1.1215672309923916
1789552333267907600,2.522907470703125,1.1258195546746252,-0.35566432647854085,0.16932252917243168
1789552333277876700,2.532876708984375,1.2615630731165408,-1.1219847988173366,-0.0628778599238023
1789552333287845600,2.542845703125,0.5184726697176695,-0.19085545707195997,0.2526641899269074
1789552333297814500,2.552814453125,0.45200200946629043,0.2516413496851921,-0.047948403676226735
1789552333307783700,2.56278369140625,-0.4112479742735624,0.08291852170526981,0.8063127293787896
1789552333317752600,2.572752685546875,-1.6286597709745168,0.6524339809179306,-0.23661687209792434
1789552333327721500,2.582721435546875,-1.2359697821766138,-0.43710283875912426,-0.1912551421803422
1789552333337692000,2.59269189453125,-1.6384809077650309,-0.03775105398446321,-0.3479776809660718
1789552333347660800,2.602660888671875,-1.0395166512280702,0.3790346806719899,-0.42062450910173355
1789552333357629700,2.612629638671875,0.3528080602645874,-1.1847744324684142,-0.23447094611041247
1789552333367598800,2.622598876953125,0.09855039060115814,-0.7019254493176936,-1.3504296895712613
1789552333377567700,2.632567626953125,0.9178823221594095,-0.9309235900402069,-0.7145492224387824
1789552333387536600,2.64253662109375,0.9295248291581869,-0.5566159378901123,-0.9458229068778454
1789552333397506800,2.6525068359375,-0.10104746811389922,0.609603431712091,-1.8421870785817502
1789552333407475700,2.662475830078125,-0.17426760262548924,0.46481034537404775,-0.911283070024848
1789552333417444600,2.672444580078125,-0.29429040484428404,0.6499822038516402,-0.9716348820697516
1789552333427413800,2.682413818359375,-0.5623708481550216,0.9168860045984387,-0.5972144902601838
1789552333437382700,2.692382568359375,0.469224362424016,1.2676362555503844,-0.6347526321463286
1789552333447351800,2.702351806640625,1.3495382936894893,-0.4758613162204623,-0.7005572297044098
1789552333457320700,2.71232080078125,0.7500012057006359,-0.02971592382788658,-0.06783266931958497
1789552333467290600,2.72229052734375,1.0313812755674123,-0.602947188693285,-0.5327708788570016
1789552333477259500,2.732259521484375,1.040186513313651,-0.6327595586329698,-1.1314642094980925
1789552333487228700,2.742228759765625,1.2174790167182683,-0.7436588509365916,-0.5363624005429446
1789552333497197600,2.752197509765625,0.01990121677815914,0.13855916038453578,-0.7285359544761478
1789552333507166700,2.762166748046875,0.02406125906705856,0.0141451374694705,0.11149473744612186
1789552333517135600,2.772135498046875,-0.234558112937212,0.020485738667845727,0.5327240440405905
1789552333527104500,2.7821044921875,0.010299275696277617,-0.42232934025824065,0.02346311051081866
1789552333537074700,2.79207470703125,-0.0493085130482912,0.1848752136185765,-0.32422720488123596
1789552333547043800,2.8020439453125,0.5215688821673393,-0.17878566457182168,-0.5354092280039563
1789552333557012700,2.8120126953125,-0.4089040414959192,0.34089784224033354,-0.21282168008852748
1789552333566982000,2.82198193359375,-0.5259270773768425,0.05581394941955804,0.0916148922495544
1789552333576950800,2.83195068359375,-0.8802999027401208,-0.11658026054948567,-0.35709947384819385
1789552333586919700,2.841919677734375,0.21639994043409824,-1.0696136833280325,0.15212710075424984
1789552333596888800,2.851888916015625,-0.4806500118017196,-0.613426497131586,-0.587794408551231
1789552333606858800,2.861858642578125,0.5120072730958461,-0.9120070003852248,-1.0465632087387144
1789552333616827600,2.87182763671875,-0.2758206821739673,-0.36854689666628837,-1.2991849477633832
1789552333626796800,2.881796875,0.2962304329961538,-1.184920562940836,-0.20388324441667646
1789552333636765700,2.891765625,0.4643465272545814,-0.9490554590582847,-0.48966125698145474
1789552333646734600,2.901734619140625,1.3596400009870528,-1.5338915292605757,-0.027452125348057597
1789552333656703700,2.911703857421875,0.7187813070505857,-0.7875365711078047,-0.7702914217963814
1789552333666672600,2.921672607421875,0.9079290834218263,-0.7001470414683222,0.16695614710096268
1789552333676642600,2.931642578125,-0.1066647234737873,-0.4352656864598393,-0.7683551930367947
1789552333686611700,2.94161181640625,-0.060256023520231246,-0.6010320027217269,-1.7463053226679564
1789552333696580600,2.95158056640625,-0.823745071825385,0.199083771713078,-0.38224560554251075
1789552333706549800,2.9615498046875,-1.6733055529087781,0.8520850311249494,-0.5910538122059777
1789552333716518700,2.9715185546875,0.005519640204310417,-0.3374780969247222,-0.577155014180392
1789552333726487600,2.981487548828125,0.2244955686062574,-0.2804346057102084,-0.6362531729023904
1789552333736456700,2.991456787109375,0.5500765992492437,0.17856383851468563,-1.1804451710924506
1789552333746427000,3.001427001953125,1.069006365084648,-0.48555794984847306,-1.493946910754591
1789552333756395800,3.011395751953125,0.8984668430715799,-0.3580488835275173,-1.6206421764746308
1789552333766365000,3.021364990234375,1.5236042362630366,-0.4434253197789192,-1.8204764742940662
1789552333776333800,3.031333740234375,0.571732550740242,0.2906473721668124,-1.4188916697703302
1789552333786302700,3.041302734375,0.5663076030820607,0.37909108703434463,-1.6335802762418985
1789552333796271900,3.05127197265625,-0.7978150962769984,1.9083017650023102,-1.1255242980550975
1789552333806240800,3.06124072265625,-0.4152747455716133,0.2581350956186652,-1.7276150891147553
1789552333816210700,3.071210693359375,-0.44348903266489503,-0.16780103695988655,-1.595221904014051
1789552333826179800,3.081179931640625,-0.7182283493429422,0.5365706364661454,-1.0544135569129138
1789552333836148700,3.091148681640625,-1.1774018578737973,0.7210539281576871,-1.2996598717987538
1789552333846117600,3.10111767578125,-0.2715729616016149,-0.300036547280848,-1.1137527578491717
1789552333856086800,3.111086669921875,0.14963643471598626,-1.3067866549387575,-0.7202458266451954
1789552333866055700,3.1210556640625,-0.7005664359241723,-0.1505164324209094,-0.8747796780139208
1789552333876024800,3.13102490234375,-0.3094423812687397,-0.5300064556449652,0.6144936879716814
1789552333885994800,3.140994873046875,-0.37691666560471054,-0.2304240818724036,0.44311512131858616
1789552333895963600,3.150963623046875,-0.4564513900905847,0.2760518605813384,0.16260693891551345
1789552333905932500,3.1609326171875,-0.32436756319999693,0.11418225949704647,0.06753142135068774
1789552333915901700,3.170901611328125,-0.1234399171859026,0.19950813460499048,1.7987465807840226
1789552333925870600,3.18087060546875,-0.6630255175590515,0.11534224318712949,1.6616051782429218
1789552333935839700,3.19083984375,-0.4968167182266712,-0.27464140926152464,1.0780527181103825
1789552333945808600,3.20080859375,-0.1430062029212713,-1.0515455271959304,-0.03376753730624914
1789552333955777500,3.210777587890625,0.5814174939304589,-1.3398437058880925,0.18661701578460632
1789552333965747700,3.220747802734375,0.20368600481152532,-1.1706509223088621,0.8398254151411354
1789552333975716600,3.230716552734375,1.3887784171879292,-1.3438853824943304,0.3511719834953546
1789552333985685500,3.240685546875,1.8770570241719484,-1.2896414588704705,-0.17275011073462665
1789552333995655000,3.250655029296875,2.1160797153025865,-0.9055319591522216,-1.1553326494067906
1789552334005623800,3.260623779296875,1.5502122572034596,-0.5034770528987049,-1.8128731596834957
1789552334015592700,3.2705927734375,0.1881464903742075,-0.062414955119788645,-1.141048834118992
1789552334025561900,3.280561767578125,-0.6637088236480951,0.3440180200874805,-1.1427809186086058
1789552334035531800,3.29053173828125,-0.6784048729985952,0.5223924735099077,-1.8207927006363869
1789552334045500700,3.300500732421875,-0.44131578027904034,-0.08533025902211666,-1.6257343850471078
1789552334055469800,3.3104697265625,0.27624621410965916,-0.33306817152798174,0.36094814863298086
1789552334065438700,3.320438720703125,1.1765268286049366,-0.004969897367060184,-0.7011888056062161
1789552334075407400,3.330407470703125,0.5154986223429441,1.6066276796475052,-2.171463456611335
1789552334085376300,3.340376220703125,0.9399889400273561,0.6236193898439407,-0.7925646284028888
1789552334095345200,3.35034521484375,-0.04563479297161102,0.42071839793026444,-0.12409260894097388
1789552334105315300,3.3603154296875,-0.4471884717047214,0.3458142558544874,-0.20467655021883546
1789552334115284500,3.370284423828125,-1.3337468503177166,1.6181120734751224,0.8841441570781171
1789552334125253400,3.38025341796875,-0.7960574389547109,1.0479109700858593,0.36931641973406076
1789552334135222500,3.390222412109375,-0.3088707188606262,0.49797348704636096,0.7959249716814607
1789552334145191400,3.40019140625,0.054712417918443675,-0.979042308782041,-0.6372231869783253
1789552334155160300,3.410160400390625,-1.3268442313224076,-0.3394301077753305,-0.8591895293679088
1789552334165129500,3.42012939453125,-2.1506997777849435,0.1293836280211806,0.07707659074403345
1789552334175098400,3.430098388671875,-1.224029169014096,-1.099053712823987,-0.9062010175202041
1789552334185068300,3.440068359375,-0.3444675174206495,-1.6669260810047386,-0.4854324237726628
1789552334195037400,3.450037353515625,1.1112532691836357,-1.7506410137847064,-0.42595235306099055
1789552334205006300,3.46000634765625,2.634308639392257,-2.2496163713499904,-1.0792214696288107
1789552334214975200,3.469975341796875,1.29119950196743,-0.5412839287236333,0.39816096755489705
1789552334224944400,3.4799443359375,1.1260416729927063,-0.1891761256828904,-1.1791597343917934
1789552334234913300,3.489913330078125,0.22497429203391073,-0.8325994094103574,0.32088147464990613
1789552334244882400,3.49988232421875,-0.27869126917421816,0.2762394921079278,0.5376330780658871
1789552334254852400,3.509852294921875,-0.7470826879054308,0.8331105738028883,0.9091860246803611
1789552334264821200,3.5198212890625,-0.7672136217862368,0.3634618484869599,0.054167278191074725
1789552334274790400,3.529790283203125,-0.5242173508495092,0.03587970715463161,0.24741079944334923
1789552334284759300,3.53975927734375,-0.4273685034692287,0.30305764866769314,0.174266141320765
1789552334294728200,3.549728271484375,-0.701878103044629,0.06704553752988576,1.0183810703493654
1789552334304697300,3.559697265625,-0.36125206348299976,-0.04402092803418636,-0.6959581384111195
1789552334314666200,3.569666259765625,0.15516951892375946,0.35438714614957567,-0.5443307490736246
1789552334324635400,3.579635498046875,0.17154431514143942,0.09589198504686355,-0.5724069428704679
1789552334334605300,3.589605224609375,0.03739303432703018,-0.21007424454391002,-1.277219199670851
1789552334344574200,3.59957421875,-0.2276297749787569,0.23472061002254485,0.5149941068869084
1789552334354543000,3.609543212890625,-0.8919447478264569,1.115486084447801,-1.0878159872338176
1789552334364512500,3.619512451171875,0.02555237440764904,0.5975576046094297,-0.4057512765534222
1789552334374481400,3.6294814453125,0.8445125500440597,-0.1940630209416151,-0.3959970309866592
1789552334384450600,3.639450439453125,-0.22378946616351603,0.670204907669127,0.011057912043854593
1789552334394419500,3.64941943359375,-0.8352379412204026,0.8841203378111123,-0.32321185382623224
1789552334404389400,3.659389404296875,-0.34661329727768897,-0.19189210664331913,-1.0221142655283213
1789552334414358300,3.669358154296875,-0.7318804425984621,0.1877908088043332,-0.695324443617463
1789552334424327400,3.679327392578125,-0.7702893759697675,-0.25039953293055295,-0.8560329650331288
1789552334434296300,3.68929638671875,-0.36686347362399097,-0.15934095938950776,-0.9483122394755482
1789552334444265500,3.699265380859375,-0.05405833792388439,-0.24053981769531965,-1.3129858018398284
1789552334454234400,3.709234375,0.6736597242981195,-0.21010405516028402,-2.04174343624264
1789552334464203300,3.719203369140625,1.2921604559540747,-1.3936346250474452,-1.4936676554217934
1789552334474172400,3.72917236328125,0.9209428787738084,-1.1026827169761062,-0.830350023048371
1789552334484142300,3.739142333984375,0.28216800537407394,-0.6239379542738199,-0.20099249141123143
1789552334494111200,3.749111328125,0.10198504122495651,-0.432310343785584,0.042755840001814066
1789552334504080400,3.759080322265625,1.0084902293235063,-1.457584242388606,0.419488271613419
1789552334514049300,3.76904931640625,0.4010059817224741,-1.3549331384703516,-0.22642986113708466
1789552334524018200,3.77901806640625,-0.4573457085818052,-0.19467559988200664,0.4256399626435712
1789552334533987300,3.7889873046875,-0.16405775877833365,0.4714741871774196,0.013888276631571352
1789552334543956200,3.798956298828125,-0.3163689656615257,-0.1910252606809139,-0.46100704410094767
1789552334553926100,3.808926025390625,0.5718506241619586,-0.9655836922720074,-0.7641659246534108
1789552334563895300,3.818895263671875,0.4277823449671268,0.9418252155438065,-1.6744148293249308
1789552334573864200,3.8288642578125,1.30184890627563,1.0160837531924247,0.11484726274441927
1789552334583833300,3.838833251953125,1.1205325541824103,0.038676059874892234,-1.3322797003746032
1789552334593802200,3.84880224609375,0.40400633258223534,-0.4864981533080339,-1.8133609432004392
1789552334603771100,3.858771240234375,-1.0383967072874307,0.3470873445302248,-0.7346047529958188
1789552334613740500,3.868740478515625,-1.6544348482221365,0.5240080920130014,-0.9894527897678315
1789552334623709400,3.87870947265625,-2.1357921315103767,0.2060404589831829,-0.28491250004293395
1789552334633679400,3.888679443359375,-0.9133844262182712,-0.13267507078200577,0.1318563748102635
1789552334643648500,3.8986484375,0.6013461832374334,-0.5817950950711965,0.638782326053828
1789552334653617400,3.908617431640625,1.5256336962640284,-1.6570526295050978,-1.1488561468690632
1789552334663586300,3.91858642578125,0.6437585070312023,-0.1776239273160696,0.364889397072047
1789552334673555500,3.928555419921875,0.8491746966361999,-0.2328267590999603,0.04447656284719705
1789552334683524400,3.9385244140625,1.1235679763555526,-0.9044897566229104,0.5702241920039057
1789552334693493200,3.9484931640625,0.5343208117127418,-0.04236351621598005,1.1729020622365176
1789552334703462400,3.95846240234375,0.04762041383087635,0.5136424730822443,0.42335543190296737
1789552334713432300,3.968432373046875,0.04555529799461364,0.16565350353717803,0.08752804306102917
1789552334723401200,3.978401123046875,-0.25603929238319395,-0.1770198239430785,0.38749402759000656
1789552334733370400,3.988370361328125,-0.9906722485601901,0.48419279897511003,0.065587246746663
1789552334743339300,3.99833935546875,-0.06443477050960064,-0.04222469226717949,1.0465528334751724
1789552334753308400,4.008308349609375,-0.024151275438070295,-0.37954818315207955,-0.2847660773095675
1789552334763277300,4.01827734375,0.15338263550698755,0.012196341489255427,0.16981022135782986
1789552334773246200,4.02824609375,-0.07226444122195243,-0.11922259175181388,-0.5565771402496844
1789552334783215400,4.03821533203125,-0.2994254296451807,-0.2696346870154142,0.2539637830170803
1789552334793185300,4.048185302734375,-1.293208503702283,0.9376911844789981,1.4689647374503314
1789552334803154200,4.058154296875,-0.3953191682577133,0.32385727559030053,0.041595609716558825
1789552334813123300,4.068123291015625,0.3058528323441744,0.1568967811077833,0.5504561366187408
1789552334823092200,4.07809228515625,0.7037988419741392,0.15754297005683182,1.8533353723227977
1789552334833061000,4.08806103515625,0.4471317730814218,-0.5484621497899294,1.3037192301921545
1789552334843030300,4.0980302734375,-0.053393152013421055,-0.381313439258933,0.2743117023831233
1789552334852999200,4.107999267578125,-0.7870873660355806,-0.06622165392637253,0.23934204101180656
1789552334862968300,4.11796826171875,-0.3996405385881662,-0.6213987911850214,0.24565303252320736
1789552334872938500,4.1279384765625,-0.4597603685081005,-0.7254597619011998,-0.11581610777657478
1789552334882907400,4.137907470703125,-1.373084588971734,1.3756474251970647,-2.522795014582574
1789552334892876300,4.147876220703125,1.1005354758143424,0.16046382593959568,1.2956769396424292
1789552334902845400,4.157845458984375,2.7144308083772657,-0.924444164893031,-1.6510912368826567
1789552334912814300,4.167814453125,1.2528560350477695,0.78807696159482,0.37327794377617535
1789552334922783500,4.177783447265625,0.36992110762894154,0.5426864889979363,0.9680347386859357
1789552334932752400,4.18775244140625,-1.0735188740730286,1.5984657082408666,-0.1646642367715016
1789552334942721300,4.19772119140625,-0.4339788615196943,0.9309361572608351,-0.772337102279812
1789552334952691200,4.207691162109375,0.26485738961100574,0.03677256434112787,-0.05341594380054157
1789552334962660400,4.217660400390625,-0.5858908399522305,0.45206221522092815,0.7391934690255672
1789552334972629200,4.227629150390625,-1.3257687110453844,1.1376111147552728,0.7235231678154319
1789552334982598400,4.237598388671875,-0.5631804109722376,0.12811141612827778,0.500480939822644
1789552334992567300,4.2475673828125,0.2669686826765537,-0.8414312429025769,0.1713626749642193
1789552335002536200,4.2575361328125,0.7156278114557266,-0.7621566306576132,-0.13302575651635415
1789552335012505300,4.26750537109375,1.4954460632711648,-0.5808388172596692,0.025809413342061452
1789552335022474200,4.27747412109375,1.3587830918967723,0.0201446701452136,-0.319410927173309
1789552335032444200,4.287444091796875,1.3284078273773192,-0.583506282903254,-0.7609215359047055
1789552335042413300,4.297413330078125,0.5950888764083385,-0.2329623681783676,-1.0192640637289732
1789552335052382200,4.30738232421875,-0.8475807054430246,-0.18340864819735286,-0.5083527326436713
1789552335062351000,4.31735107421875,-2.1549381460070607,0.41949879300743337,0.1201032013780903
1789552335072320300,4.3273203125,-1.7600363263785839,-0.47081280065923925,0.7655524836409836
1789552335082290200,4.337290283203125,-0.5272948585987091,-0.5659776404753327,-0.2624607037328183
1789552335092259000,4.347259033203125,1.007284360665083,-1.366156251013279,-0.3464218298261985
1789552335102228200,4.357228271484375,2.195514486545324,-1.6551432887524364,-0.1237534949134104
1789552335112198100,4.3671982421875,1.2582166852980852,-0.3276557910904288,-0.42292105907369404
1789552335122167000,4.3771669921875,1.376266141617298,-0.48893765541464085,0.6265603386666625
1789552335132136200,4.38713623046875,0.3663625383645296,0.29472236652076245,0.024235090397158637
1789552335142105000,4.39710498046875,-0.4734451949894428,0.757395699866116,0.4272061525143683
1789552335152074000,4.407073974609375,-2.052411252990365,1.977544228054583,-1.805788315989077
1789552335162043100,4.417043212890625,-1.131914948940277,1.192378477731347,-1.3302481945469975
1789552335172012000,4.427011962890625,-0.7717085951179266,-0.5059866976320744,-0.5061757539307699
1789552335181981200,4.436981201171875,-1.2494114475518465,0.6051742170929908,1.286535309548676
1789552335191951000,4.446951171875,0.6177846923410892,0.24035686234384773,2.7888892525121567
1789552335201920000,4.456919921875,1.951053403753042,1.8004978083655236,0.6997166872270405
1789552335211889200,4.46688916015625,1.570098276412487,-1.0989239489644764,0.5025537640413269
1789552335221858000,4.476858154296875,-0.16536474972367285,-1.7846683710709212,0.4278342943500727
1789552335231827000,4.486826904296875,-2.2025088754773137,0.6547893118724226,-1.5287290319308637
1789552335241796000,4.496796142578125,-1.3229822951972483,-0.7250280924856662,-0.3877374444244429
1789552335251765000,4.506764892578125,-1.1269511890530586,-0.6241556886777282,-0.2123080314779654
1789552335261734000,4.51673388671875,-0.5133803150147199,0.9763719205290079,-2.271422252705693
1789552335271704300,4.526704345703125,1.2973083402365446,0.2730149771034717,-1.4060060308426618
1789552335281673200,4.536673095703125,1.1873860762715338,0.11641893250793219,-2.4512048193603753
1789552335291642000,4.54664208984375,0.18659750736653805,-0.19204145198613404,-1.7777362337201832
1789552335301611300,4.556611328125,-0.25436522169113157,0.38853871433734893,-2.8009429706603286
1789552335311580200,4.566580078125,-0.3572299683600664,1.0944622933804988,-2.9017244813144205
1789552335321549000,4.576549072265625,0.2946726821601391,1.1487439186662436,-2.0166494731269777
1789552335331518200,4.586518310546875,0.7410363934785127,0.7248670567050576,-1.5220532074287534
1789552335341487000,4.596487060546875,0.6970493677139282,0.3701788817822933,-1.6683569905906914
1789552335351456300,4.606456298828125,-0.0752203684180975,0.6441100969478487,-0.5357128140604123
1789552335361426200,4.61642626953125,-0.3155360219687223,-0.0328410701110959,0.23338618308100847
1789552335371395000,4.62639501953125,-0.7996078249126672,0.08843757738769054,0.6665229312207549
1789552335381364200,4.6363642578125,-0.7330155841082334,-0.44570495514869685,1.072544183821976
1789552335391333000,4.6463330078125,-0.7590063499331474,-1.1251447241529822,0.808419638530165
1789552335401302000,4.656302001953125,0.022950082954764365,-0.8517454239070416,-0.3346100672077387
1789552335411271200,4.666271240234375,0.4924690444111824,-0.7255711133211851,-0.6831941531017423
1789552335421240000,4.676239990234375,0.421683443570137,-0.7111375142991543,-1.491187821304798
1789552335431209000,4.686208984375,-0.1094224977493286,-0.6208125157296657,-0.5049256442718207
1789552335441179100,4.69617919921875,-0.3992945016294718,-0.8966901887878775,-1.2716478292793034
1789552335451148000,4.70614794921875,-0.208723998978734,-0.5924506368592382,-1.3465619082272051
1789552335461117000,4.716116943359375,0.24050211603343485,-0.5015694657117128,-1.8003022857934234
1789552335471086000,4.726086181640625,0.6763076084583998,-0.851970172573626,-1.6981605927020311
1789552335481055000,4.736054931640625,1.8605641545325518,-1.3906851275920866,-1.4457164022013544
1789552335491024100,4.746024169921875,0.6312058994501829,-0.35571810249239205,-1.2614512833051383
1789552335500993000,4.755992919921875,-0.33701427880525586,0.1885530253484845,-0.6561837619055062
1789552335510962000,4.7659619140625,-1.7024182501465082,0.3795826699435711,0.18648560795728117
1789552335520931000,4.77593115234375,-2.545708564919233,0.7455228912428021,-1.0041449666608124
1789552335530901200,4.7859013671875,-0.2193517759770155,-0.9970736400350928,0.30884945687688886
1789552335540870100,4.7958701171875,1.7660668387144802,-1.9777727761134505,0.02712053703982383
1789552335550839300,4.80583935546875,1.1400398032069206,0.42524756579250095,-0.8014131207689642
1789552335560808200,4.81580810546875,2.529261872509122,-0.22712533258795736,0.5088530468486249
1789552335570777000,4.825777099609375,1.8285820393383503,0.39588206283748145,-0.6931123935911804
1789552335580746200,4.835746337890625,0.027277298504114148,0.9528253329858183,0.49941477189585565
1789552335590715100,4.845715087890625,-0.9642962828099727,1.0472565978303552,0.2995992518421262
1789552335600684300,4.855684326171875,-1.0250479808926583,0.3876327054083347,0.8652006063509732
1789552335610654200,4.865654296875,-1.672087993812561,1.6776280922830105,0.43647747340239584
1789552335620623000,4.875623046875,-0.4685433944225311,0.680055855076015,0.3679233579404652
1789552335630592000,4.885592041015625,-0.7508166137367487,0.027843992476165293,-0.8792807888254522
1789552335640561200,4.89556103515625,0.28491408921182154,-0.3786918585836887,-0.029839659805409608
1789552335650530000,4.905530029296875,-0.3896633344531059,0.2873237807020545,-0.5216641227027401
1789552335660499200,4.915499267578125,0.5408697949647903,0.04319587538689375,0.4467113922448829
1789552335670468000,4.925468017578125,-0.15763094060122965,0.7433823720827698,0.011490713970549404
1789552335680437000,4.93543701171875,0.12018179217278957,-0.8072519099250436,0.6075633041866123
1789552335690407000,4.945406982421875,-0.9610516018003225,0.27624270697832104,0.6075550478149205
1789552335700376000,4.9553759765625,-0.1013362219274044,0.20355653321295974,0.5151268664211035
1789552335710345000,4.965344970703125,0.8688771759718656,-0.6156073483020067,1.7947938976354896
1789552335720314000,4.975314208984375,0.05589549022316932,0.12386281877309083,1.3336524500325322
1789552335730283000,4.985282958984375,-0.7320359254211187,-0.40652328383922576,0.928326778480038
1789552335740252000,4.995251953125,-0.7782768675923347,0.10087912580966948,0.3624718876015395
1789552335750221000,5.005220947265625,-0.12713351100683212,-0.47754736961126326,0.894600523032248
1789552335760190000,5.01518994140625,0.4139110560029745,-0.7240098553538322,1.118699128210172
1789552335770159000,5.0251591796875,1.2048486677259207,-1.14454500567168,0.8237482136305421
1789552335780129300,5.03512939453125,1.0568716906547546,-0.01889876173734665,0.6616271950684487
1789552335790098200,5.04509814453125,0.49116263798773285,0.05838350764662027,1.8448513293549418
1789552335800067000,5.055067138671875,-0.07493278364837169,-0.08979103782325983,1.6291919781550763
1789552335810036200,5.0650361328125,-0.28031857811510563,-0.6882847542390227,1.5565622107520698
1789552335820005000,5.075005126953125,-0.94507311142385,-0.33859511825591326,0.7833679071210324
1789552335829974300,5.084974365234375,0.17805296638309956,-1.3326350896835326,1.1853221294790506
1789552335839943200,5.094943115234375,0.18661971919834613,0.3864391117095947,0.5786646515583619
1789552335849912000,5.104912109375,0.06777063693404198,-0.539259144897759,1.2947126246549188
1789552335859882200,5.11488232421875,-0.6474158604949712,-0.09091565793901682,-0.10209231012486852
1789552335869851100,5.12485107421875,-0.8043705092698336,0.5613154938831925,-0.3622931700337678
1789552335879820000,5.134820068359375,0.51811728040874,-0.5836962525174021,-0.570143199189566
1789552335889789200,5.1447890625,1.47335464297235,0.3158881964072585,-1.1296464194864033
1789552335899758000,5.154758056640625,1.9903700996190308,-0.038002690657973286,0.09339338229731656
1789552335909727000,5.16472705078125,1.8420143523633479,0.10161386982500553,-1.006674412073195
1789552335919696100,5.174696044921875,1.1448983491539955,1.1942243978589773,0.35718327967412766
1789552335929665000,5.1846650390625,-0.904858005413413,1.172713700057566,-0.033247897346317765
1789552335939634200,5.19463427734375,-1.7701754430770873,0.6413508613675832,-0.06182234125519171
1789552335949604000,5.20460400390625,-3.285584682446718,1.3317188516214489,1.1506174574531614
1789552335959573000,5.214572998046875,-1.8908733680784702,0.20102584569156168,1.0140396801441907
1789552335969542100,5.224542236328125,0.2429220366567373,-0.5586565038070083,0.28882508864309636
1789552335979511000,5.234510986328125,1.4358581482708452,-0.07091244209110736,-0.286936498417519
1789552335989480000,5.24447998046875,2.090272489351034,-0.051342649224400516,-0.5580945956079288
1789552335999449000,5.254448974609375,1.9448224004089831,0.03763093473613262,-0.2627526358840987
1789552336009418000,5.26441796875,0.8365192132025957,0.3401908630147576,-1.0063849276073276
1789552336019387000,5.274386962890625,0.8545634039372205,-0.5920215977922082,-0.4825208837075159
1789552336029357300,5.284357421875,0.13058335919976233,-0.1364268245309591,-0.3429593048147857
1789552336039326200,5.294326171875,-1.1377017156481741,0.9579209025591612,0.6205176244363189
1789552336049295000,5.304295166015625,-0.9504472056776284,0.41948242639452216,0.06136469714818522
1789552336059264300,5.31426416015625,-0.3453875548750162,-0.31035978837460276,-0.012791603968665003
1789552336069233200,5.324233154296875,-0.007791092267632484,-0.4583993092879653,0.09955299177244305
1789552336079201000,5.334200927734375,-0.2842711151331663,-0.052670390696823596,-0.532956756817922
1789552336090417000,5.3454169921875,-0.1377396606951952,-0.45860798360258337,1.223071576028317
1789552336100385800,5.3553857421875,-0.808894124174118,0.6214294785842299,1.2587367636494338
1789552336110355000,5.36535498046875,-0.648494303381443,-0.05527414345443248,2.2056503883734346
1789552336120323800,5.37532373046875,-0.5830050553828477,-0.006457505576312542,1.8716840989619492
1789552336130293000,5.38529296875,0.12300620194375514,0.07894757224768399,0.8954843931946903
1789552336140263000,5.395262939453125,1.4458055417895317,-1.175925355580449,1.8735471163548527
1789552336150231800,5.405231689453125,0.869161838132143,-0.48561464847177266,1.3393265501461922
1789552336160201000,5.415200927734375,0.4332978935182094,-0.724304746647179,2.2693425238221883
1789552336170170000,5.425170166015625,-0.15993337232470511,-0.359936889231205,2.011540021158755
1789552336180139000,5.435138916015625,-0.8143371920108795,0.38631606985181566,0.4444679606996476
1789552336190108200,5.445108154296875,-0.7537590969294309,0.06818389391005039,1.2825456553906203
1789552336200077000,5.4550771484375,-0.5929980416089295,0.35571342631727454,1.293275139197707
1789552336210046000,5.4650458984375,0.10832827277183532,1.155395485509932,1.009057434752211
1789552336220016000,5.47501611328125,0.012653145346045494,0.4657005722120404,1.5791642109215258
1789552336229985000,5.484985107421875,0.21195289789736269,0.5748588660672307,-0.019098558625765143
1789552336239954000,5.494953857421875,0.14380173721313474,0.4888096451207995,0.605227627780661
1789552336249923000,5.504923095703125,0.2956342206686735,0.0812435742303729,-0.23514108219062907
1789552336259892000,5.51489208984375,0.35480127990841864,-0.3156640322625637,-0.19050372102484106
1789552336269860900,5.52486083984375,-0.7419342191010713,0.5250760135054588,-0.916059198385477
1789552336279830000,5.534830078125,-0.14003858528733254,-0.4605611634969711,-1.0078335189804435
1789552336289799000,5.544798828125,0.29039456644952294,-0.8667334419414401,-1.8456208524227142
1789552336299768800,5.554768798828125,-0.12517185554504393,-0.6248299346774816,-2.2575391271732745
1789552336309738000,5.564738037109375,-1.1954250058203935,0.6783309309795499,-1.842560880330205
1789552336319707000,5.574706787109375,-0.1500122822910547,0.06064619188159704,-2.046928583795577
1789552336329676000,5.584676025390625,1.7103975584626196,-1.0036948117405176,-1.9602546550795434
1789552336339645000,5.59464501953125,3.106798141092062,-1.542693844397366,-2.341229656164348
1789552336349613800,5.60461376953125,2.4822534530967473,-0.07991583275794982,-1.0425884598888455
1789552336359583000,5.6145830078125,-0.6782067200779914,2.0091049029663206,-1.6071423511713743
1789552336369552000,5.6245517578125,-3.249931185263395,2.0590999369740484,-0.7763974835865199
1789552336379521800,5.634521728515625,-4.138511425092816,1.8473197652950881,0.0517752684880048
1789552336389491000,5.644490966796875,-1.7673177155584097,-0.8533549049302935,-1.6261020493157208
1789552336399459800,5.6544599609375,0.3870522751718759,-0.7999845492705703,-0.1751822697849944
1789552336409428700,5.6644287109375,1.7057395035237073,-0.1524707813590765,-1.3245412150770426
1789552336419398100,5.674398193359375,2.2259376818597314,-0.2681143455803394,-1.9018316922053693
1789552336429367000,5.684366943359375,2.423125556823611,-0.59569239525944,-1.08596480640918
1789552336439336000,5.6943359375,0.49414311510324477,0.5337655159175395,-0.8375967062409967
1789552336449305000,5.70430517578125,-0.28036417082250115,0.4544827203661203,-0.13158149425848387
1789552336459275000,5.71427490234375,-0.11488777741789817,0.455339337195456,-1.3869659609384835
1789552336469244000,5.724243896484375,0.07376140178143978,0.5685360927864909,-0.9021355216469615
1789552336479213000,5.734213134765625,-0.15023790774047374,0.4805813304796815,-0.7368753282763063
1789552336489182000,5.744181884765625,-1.0501192937850952,-0.5108206936597823,-1.1206246163800357
1789552336499151000,5.754151123046875,-1.058510105511546,0.3409004725888371,-0.137709448220022
1789552336509119000,5.764118896484375,-0.08738193085491656,-0.3711106096744537,-0.22549835244063288
1789552336519089000,5.7740888671875,0.19245675478875635,-0.16014146211743355,0.6541106088932603
1789552336529058000,5.78405810546875,0.30454233426749705,0.145960961073637,0.5122719884466379
1789552336539027000,5.79402685546875,0.5214087231695652,-0.0857356249526143,0.3654263900255784
1789552336548996000,5.80399609375,0.24612580113410948,0.22934213185459373,0.7329269559767096
1789552336558965000,5.813965087890625,-0.21470073530077932,0.33417350242137905,-0.1421143321154639
1789552336568934000,5.823933837890625,0.8305290328770876,-0.8247977957487106,0.08597455740817822
1789552336578903000,5.833903076171875,0.757656688889861,-1.4492863696426153,0.39349684820137915
1789552336588873000,5.843873046875,0.324781404697895,-1.4563798350349069,0.15438143728598952
1789552336598841900,5.853841796875,-0.8739677771091461,-0.1555371831923723,-0.22546298886630683
1789552336608811000,5.86381103515625,-0.5917664539873599,-0.3512754438698292,-1.2673795043103395
1789552336618780000,5.87377978515625,-0.6422399191617966,-0.21003128218501804,-0.6929332376319914
1789552336628748800,5.883748779296875,-0.28761984103918076,0.8225675524786115,-1.350880794339627
1789552336638718000,5.893718017578125,0.9976765743643045,-0.46180356477349993,-0.6688751934353262
1789552336648686800,5.903686767578125,1.3667372657716272,-0.7732134467229247,-0.6788186414312571
1789552336658656000,5.913656005859375,0.9582225158542395,-0.0469362309589982,-0.38163741051629185
1789552336668626200,5.923626220703125,0.3614706746697426,0.42820495429337024,-1.1251520306766032
1789552336678595000,5.933594970703125,0.2953682632088661,0.1898310824602842,0.4144307690281421
1789552336688564000,5.94356396484375,-0.29956220776736736,0.04118541234731674,-1.1337121345553547
1789552336698533000,5.953533203125,-1.1755828257530927,0.3900932503029704,0.043936528553208336
1789552336708502000,5.963501953125,-0.8883277263730763,0.35843203762620685,0.0727410366246011
1789552336718471200,5.97347119140625,-1.0324415982753037,0.4239826604232192,0.4988719702560454
1789552336728440000,5.983440185546875,-0.9997165557593106,0.19305062902867792,-0.873308582548052
1789552336738410000,5.993409912109375,-0.8033499340504408,1.0969906428143381,-0.07458269156906754
1789552336748379000,6.00337890625,0.41516777806580063,0.18595073389559982,-0.5620304372195154
1789552336758348000,6.01334814453125,0.4418231452792883,0.01673719978928566,0.0395922796706669
1789552336768317000,6.02331689453125,0.7186421908408402,0.04676993448138237,-0.047561322321090845
1789552336778286000,6.0332861328125,0.15849369491040705,0.40460137586593625,0.011886033431068062
1789552336788255000,6.0432548828125,-0.1404804838359356,0.08272475269883871,0.5207700599398464
1789552336798224000,6.053223876953125,-0.16515899801850317,-0.06546119094789028,1.0300684394031763
1789552336808194000,6.063194091796875,-1.112371459558606,0.023093875339627264,1.0894396429128945
1789552336818163000,6.073162841796875,-0.9539256954431533,-1.393605106692016,1.0231135787639767
1789552336828131800,6.0831318359375,-0.9568418751507997,-0.5722741102710366,0.7963941235631704
1789552336838101000,6.09310107421875,0.8244879991471767,-0.49857262198328967,0.8368287175431847
1789552336848070000,6.10306982421875,2.2593325864613054,-1.8114862353697418,0.08307415065839886
1789552336858038800,6.113038818359375,2.198590240728855,-0.6399027083858847,1.0146170416407287
1789552336868008000,6.123008056640625,0.5634229875564575,0.08368775251209735,0.24924112014304844
1789552336877977900,6.132977783203125,0.21796178292334079,0.5567562231436372,0.034039604846434666
1789552336887946800,6.14294677734375,0.40449207027256484,-0.008918342731893063,-0.30820816329866646
1789552336897916000,6.152916015625,-0.49680035161375996,0.3116621031448245,-0.9677095253195613
1789552336907884800,6.162884765625,-0.7239981649160385,-0.07406886029541492,-0.5627749719765037
1789552336917854000,6.17285400390625,-0.12299451150596141,-0.7773758270993828,-0.04654036350920796
1789552336927823000,6.182822998046875,-0.44245033726692196,0.5809612745955586,0.07690700633078813
1789552336937792000,6.1927919921875,0.05695172127783298,0.5076274505764246,1.0343637254443019
1789552336947762000,6.202761962890625,0.16505553764402867,0.9870882525935768,0.7600115814529359
1789552336957731000,6.21273095703125,0.8126847486287355,0.26050416283756495,1.0197951749309897
1789552336967700000,6.222699951171875,-0.1340010586887598,0.7314128250867128,1.2808430892564355
1789552336977669000,6.232669189453125,-1.085187100034952,1.3955702692851424,1.04617976237908
1789552336987638000,6.242637939453125,-0.8789543333500623,0.6577841097742319,-0.09258139006099664
1789552336997607000,6.25260693359375,-0.7793874591827392,0.46102118222415445,0.8349615354318172
1789552337007576000,6.262576171875,0.6872855140686035,-0.638335605199635,1.3748729336932302
1789552337017546000,6.2725458984375,-0.23471476480364797,0.5839496427565812,1.2052185239516198
1789552337027515000,6.282514892578125,-0.7012070719152689,0.7213795068502425,0.3793731188461184
1789552337037484000,6.292484130859375,-0.30529227585196494,-0.48297114822566506,0.02894261963414028
1789552337047453000,6.302452880859375,-0.6015303076326847,0.24338468573242425,-0.2472947901145555
1789552337057421800,6.312421875,-0.1433341197013855,0.3596861293405294,-0.8654486628279089
1789552337067391000,6.322390869140625,1.3212065176963805,-0.7015192066043615,1.3163823124103247
1789552337077359900,6.33235986328125,1.7471423580139875,-0.004662731114029884,0.4420243669398129
1789552337087331300,6.342331298828125,1.6503385188192128,-0.11579992382675408,0.7480467836972325
1789552337097300200,6.35230029296875,0.6569225245088338,-0.5695923238411545,0.08530336188203655
1789552337107269400,6.362269287109375,-0.1923550479799509,-0.5048953952640295,0.14239468342680484
1789552337117238300,6.37223828125,-0.6653583444207907,0.1343567402586341,0.8353486350532621
1789552337127207200,6.382207275390625,-0.3286334039509296,-0.09944967752844094,0.78182688822411
1789552337137176300,6.39217626953125,-0.3184884420335293,-0.02273760924786329,1.339234341818094
1789552337147145200,6.402145263671875,-0.4095569524466991,-0.16711510052233933,1.0086590100191533
1789552337157115100,6.412115234375,-0.6805483147680759,0.4956017894789576,0.10725790359396487
1789552337167084300,6.422084228515625,-0.9655693714857101,1.055343458174169,0.5683947846196592
1789552337177053200,6.43205322265625,0.45508010173738,-0.27750176712870595,0.042515939431870355
1789552337187022300,6.442022216796875,1.102565520337224,-0.506541116644442,0.118656509701116
1789552337196991200,6.4519912109375,1.0589145946592091,0.21606939330548047,0.8686497969567776
1789552337206960000,6.461960205078125,0.8973539133936166,0.4538385772436857,0.9589863398335874
1789552337216929300,6.47192919921875,-0.19210078095793723,0.7525880073234439,-0.9719980893589556
1789552337226899200,6.481899169921875,-1.4180109414130448,0.9705515438124537,-0.16013010047320275
1789552337236868000,6.4918681640625,-1.4861872365385294,0.38549014042168855,-0.11078319164328276
1789552337246837200,6.501837158203125,-1.1086772812157868,0.02257131277024746,0.7707811780747026
1789552337256806100,6.51180615234375,-0.6755284407794475,-0.0554369328007102,0.07484783617812209
1789552337266775000,6.521775146484375,1.2540589810967444,-0.6854428088113665,-0.9650932784065603
1789552337276744200,6.531744140625,1.3784580987036228,-0.47937283147275445,-0.458336144391261
1789552337286714400,6.54171435546875,1.0972995626330375,-0.29611323635727166,-0.8462578593414276
1789552337296683300,6.551683349609375,0.05342880784869194,0.15510317568928003,-0.15708740830905735
1789552337306652400,6.56165234375,0.5005611654520035,-0.3303568667426705,-0.577022619972378
1789552337316621300,6.571621337890625,-0.0202384859085083,-0.09649754972457886,-1.6799806467585265
1789552337326590200,6.581590087890625,-0.5542880794644356,0.16233634181320666,-0.990716233832389
1789552337336559400,6.591559326171875,-0.5048556477755308,-0.5556874248683452,-1.4671923209503293
1789552337346528300,6.6015283203125,-0.7558931863486766,0.23458850807547568,-0.8397917320672422
1789552337356497400,6.611497314453125,-0.08515081080198288,-0.11290770951658487,-0.8465294428244232
1789552337366467300,6.62146728515625,-0.12503273933529854,0.3013406156167388,-1.744319701808691
1789552337376436200,6.631436279296875,0.648169893732667,0.24919424879401922,0.4643721366198733
1789552337386405000,6.641405029296875,0.6740279730886221,0.23848346968740222,-0.4190621186232194
1789552337396374300,6.651374267578125,0.08340075226426125,0.20655016207098958,-0.7148249706402421
1789552337406343200,6.66134326171875,-0.32881811286807056,0.723965431690216,0.924319004143402
1789552337416312300,6.671312255859375,0.30147885504364963,-0.26596651989668607,-0.37398148893564936
1789552337426282200,6.6812822265625,0.16938333771526812,-0.21232845321148633,0.19039688138319177
1789552337436251100,6.691251220703125,-0.6575830342441796,0.10581570542901754,-0.03769994941831101
1789552337446220000,6.701219970703125,-0.9423720357716083,0.2583975459471345,-0.1345187989525497
1789552337456189200,6.711189208984375,0.5831897642999887,-0.18042817108184098,-0.8321864446952939
1789552337466158000,6.721157958984375,0.32849253417551516,0.04263853376507759,-1.1811441131420433
1789552337476127200,6.731127197265625,0.49180035136938094,0.516850913734734,-0.7772977203618735
1789552337486096100,6.74109619140625,0.5546814626961947,0.030266835708916185,-0.8543875359136611
1789552337496066000,6.751066162109375,0.6347112772226333,0.06320405967086554,0.2182717987205833
1789552337506035200,6.76103515625,-0.0027536826223134993,0.5692965557649732,-0.13647928537055848
1789552337516004000,6.771004150390625,0.42184710969924927,-0.42471886574327944,0.9303798385523259
1789552337525973200,6.78097314453125,1.0157365471899509,-0.7351333069145679,0.23522012050990013
1789552337535942400,6.7909423828125,0.8037509160667657,-0.42170682444572444,-0.5504216863598674
1789552337545911300,6.800911376953125,0.39677053610980506,0.22380203338414428,-0.34078038987312465
1789552337555880200,6.810880126953125,-0.3383329601883888,0.5430395402193069,0.07564623371392953
1789552337565850400,6.820850341796875,-0.014706570744514464,-0.5566247057184577,-0.10701164634847081
1789552337575819300,6.8308193359375,0.030209260302782058,-0.34654520047754045,0.4283075378850102
1789552337585788200,6.8407880859375,-2.183645769575238,1.5160554283186793,-0.4098950618272647
1789552337595757300,6.85075732421875,-0.9036854545027017,-0.24551000732332467,-1.1694395006924867
1789552337605726200,6.860726318359375,0.20282441954612732,-0.28161680123209953,-1.1182622711628676
1789552337615695400,6.8706953125,0.847076263052225,-0.5438520256459712,-1.0515404856946318
1789552337625664300,6.880664306640625,0.7560469156056642,-0.32985067078620195,0.15721311704795807
1789552337635634200,6.89063427734375,0.549548191460967,0.00925561186224222,0.21675518361255525
1789552337645603000,6.90060302734375,-0.28402503141760826,0.34608518175035713,-1.4551035314887761
1789552337655572200,6.910572265625,-0.8522188866376876,-0.17539251500219105,0.28873406762508674
1789552337665541000,6.920541015625,-1.9995295576304195,0.5669695741221309,-0.14817379655120894
1789552337675510300,6.93051025390625,-0.14987082799375057,0.1639575132742524,-0.16709365587551145
1789552337685479200,6.940479248046875,0.7543518021255731,-0.250964473336935,-0.6746624715998768
1789552337695448000,6.950447998046875,1.0962217042684554,0.015173603734374045,-0.36265491601824756
1789552337705418000,6.96041796875,1.048248823738098,0.40058717178851366,-0.008087764526112005
1789552337715387100,6.97038720703125,0.9571025719135999,-1.1249120844408869,-0.9222853063587099
1789552337725356000,6.98035595703125,-0.41042204484343525,0.120947515848279,-0.26632400983115656
1789552337735325200,6.9903251953125,-0.9933481897711753,1.8232620133593678,-0.04328037533257156
1789552337745294000,7.000294189453125,0.4243979632258415,-0.22160715368837117,-0.9082109691031277
1789552337755263000,7.010262939453125,0.4425356774628162,-0.9296198139652609,-0.6197648333076388
1789552337765232000,7.020232177734375,0.16834405779540537,-0.05335574261248111,-0.31076062426045536
1789552337775202300,7.030202392578125,-0.7964607590585947,1.0832511635363102,0.6990303854633122
1789552337785171200,7.040171142578125,-1.3045184177458287,1.2659887806043029,1.0086160476602613
1789552337795140400,7.050140380859375,-0.39652445239424705,-0.353789764778316,1.4216241634741424
1789552337805109200,7.060109130859375,-1.028957263290882,-0.6246577929809689,0.6778156749337911
1789552337815078100,7.070078125,-0.8871651123344898,-0.5027084066137671,1.0731673572216183
1789552337825047300,7.08004736328125,0.2749257791608572,-0.33240736953169103,1.5242551013872025
1789552337835016200,7.09001611328125,1.787427606651187,-0.8777148546829819,0.5402327391702682
1789552337844986000,7.099986083984375,1.5006307724326848,-0.8942746520787477,0.19895402611987664
1789552337854955300,7.109955322265625,0.5563695619136094,-0.7996911192819476,0.015600843569962306
1789552337864924200,7.119924072265625,-2.368342996278405,0.8104261560469865,0.1900768921812065
1789552337874893300,7.129893310546875,-0.6441688413977623,0.019526830507814882,-0.060600708772055804
1789552337884862200,7.1398623046875,-1.0409534060329197,0.157460552470386,-1.554392027106136
1789552337894831000,7.1498310546875,0.6731137808531522,-0.4119359565377235,-0.9468108950018882
1789552337904800300,7.15980029296875,0.47841889174878593,0.3234767518401146,-0.37707806671150024
1789552337914770200,7.169770263671875,1.6452531783789395,-0.5304308185368776,-0.033505187442479656
1789552337924739000,7.179739013671875,1.2951818496018648,0.14459405663460492,-0.7049648900788277
1789552337934708200,7.189708251953125,1.0463830298662185,-0.5201908718124032,0.40974557035397735
1789552337944677000,7.199677001953125,0.0765706139832735,0.212157480558753,0.5884273726925253
1789552337954646000,7.20964599609375,-1.6549866368860005,1.4681988676443696,-0.21625428488571197
1789552337964615200,7.219615234375,-0.6666828710228204,0.7435396084710956,1.4987771073900162
1789552337974584000,7.229583984375,0.7567898429274559,0.15025632017999888,0.8378555763728917
1789552337984554200,7.23955419921875,1.7971230712354183,-0.3315387700036168,1.1828027670692651
1789552337994523400,7.2495234375,0.5337298600822686,1.1574287449032068,0.16803358534043653
1789552338004492300,7.2594921875,-0.12065759299099445,1.0622580598682165,0.5178936277206987
1789552338014461200,7.269461181640625,-1.2103379127919673,0.7208145664438604,0.3941897989016026
1789552338024430300,7.279430419921875,-0.07259644965529441,-0.2005830703601241,-0.331714893755503
1789552338034399200,7.289399169921875,-0.9427151501208543,1.5724579912811516,1.3442840264230966
1789552338044368400,7.299368408203125,-0.12585106998085974,0.5914440901651978,0.6695548462625592
1789552338054338300,7.30933837890625,0.008676642930507659,0.12293372122943401,1.7361172522611914
1789552338064307200,7.31930712890625,0.11928922724723816,-0.1527314781218767,-0.05241041545323096
1789552338074276000,7.329276123046875,0.6093558866918086,-1.7731275708809493,-0.3854568957392126
1789552338084244200,7.339244140625,-0.8895943853080273,0.08791355351358651,0.05648680261324625
1789552338094213000,7.349213134765625,-0.39592356389164923,-0.23908026653677222,-0.8737205974150448
1789552338104182300,7.359182373046875,0.7010451593518257,-0.7898758277103305,1.2166092481464146
1789552338114151200,7.369151123046875,1.5199018746137618,-0.6085647363141179,1.029182231153175
1789552338124121000,7.37912109375,1.5681787065267563,-0.06855506531000137,1.3289292209029198
1789552338134090200,7.38909033203125,1.3198223698616027,-0.029378070175647735,1.1109693376757204
1789552338144059100,7.39905908203125,0.6067939272493124,0.01802197890281677,0.6230171861670911
1789552338154028300,7.4090283203125,-1.424762169238925,0.5269149193704128,1.2130066205445675
1789552338163997200,7.4189970703125,-1.8469436254590748,-0.2634048527151346,0.21089456621715796
1789552338173966000,7.428966064453125,-2.3097230495274066,0.3992588457942009,0.9826746008697896
1789552338183935200,7.438935302734375,-1.2552782937586306,0.8991822978645563,0.20015677123945205
1789552338193905400,7.448905517578125,-0.11568097362220287,0.5076297886639833,0.11972018427671864
1789552338203874300,7.458874267578125,0.8162748820751905,0.48901744265258307,0.6169409349933266
1789552338213843500,7.468843505859375,1.8126339441001413,-0.2893085247784853,0.2927068619798869
1789552338223812400,7.478812255859375,1.0306044459760189,0.3492620582208037,0.7541196008048952
1789552338233781200,7.48878125,-0.26456103701293465,0.5526943805322051,-0.24088099581580608
1789552338243750400,7.49875048828125,-0.9616022214204072,0.028269232150912284,0.21953480439372358
1789552338253719300,7.50871923828125,-0.7206704817980527,-0.4176072801724076,-0.7531805663891136
1789552338263688400,7.5186884765625,-1.0391320358246565,0.5559969292089343,-0.8211781439468264
1789552338273658400,7.528658447265625,0.6489397090613842,-0.8791150768697261,-0.372105721659027
1789552338283627300,7.538627197265625,0.06515256339013577,-0.32094957145005465,-1.1746689257785676
1789552338293596200,7.54859619140625,-0.12353636329770087,0.5427388037070632,-1.8560270956248044
1789552338303565300,7.5585654296875,-0.41876083412170406,0.3035065614789724,-2.702798238250613
1789552338313534200,7.5685341796875,-0.5414630846828222,0.5329208817869424,-1.7009145675852895
1789552338323503400,7.57850341796875,-0.07786299188137054,0.3500973400011658,-1.8584432168558238
1789552338333472300,7.58847216796875,0.7964905696749687,-0.6821177560418844,-1.8676297090046106
1789552338343442200,7.598442138671875,-0.16302900025248526,0.41060733828246593,-1.2988956094279884
1789552338353411000,7.6084111328125,0.6411486167937517,-0.25540947004705666,-0.5210956020997837
1789552338363380200,7.618380126953125,1.8766285696268081,-1.4856629204034804,-0.08437873958409764
1789552338373349000,7.62834912109375,0.9331260685205459,-0.6105950730979443,-0.2897268780547194
1789552338383318300,7.638318359375,0.12051496964991092,-0.20373685821592807,0.8596424607671797
1789552338393287200,7.648287109375,-0.985512089318037,0.713176326650381,-0.14717218176061286
1789552338403256000,7.658256103515625,-2.2794506608605385,1.0902627958640456,-0.18531081029055638
1789552338413226200,7.668226318359375,-1.6772814708024262,1.1089330095425247,-0.10380880431970581
1789552338423195400,7.6781953125,-0.9972200627684593,0.11720394540578126,-1.8027260058090089
1789552338433164300,7.688164306640625,-0.23690087667107582,-0.09713117145299911,-1.315151747702062
1789552338443133400,7.698133544921875,1.3784364713937043,-0.020761925260722635,-1.5892590500868855
1789552338453102300,7.708102294921875,1.4748983652830123,-0.10182546674907207,-0.8090496069967746
1789552338463071200,7.7180712890625,1.405013512673974,-0.15243454100191592,-0.5182615842502564
1789552338473040400,7.728040283203125,2.04283444634974,-0.6255100258961319,0.12501790709234772
1789552338483009300,7.73800927734375,-0.36293197939395905,0.8768301808029413,-1.5784966869235038
1789552338492979200,7.747979248046875,-0.9360685517132282,0.6856257641628384,-0.25077227523308243
1789552338502948400,7.7579482421875,-2.110169614475965,0.672509969741106,0.6711779904849827
1789552338512917200,7.767917236328125,-1.7029039878368377,0.42382922342717644,-0.715830713616684
1789552338522886400,7.777886474609375,0.0026350246787071228,-0.39432109713107344,0.3061286536108702
1789552338532855300,7.787855224609375,1.170399285635352,-0.33606706108301876,-0.3312972528653219
1789552338542824200,7.79782421875,1.3756453793704508,-0.41793432016968723,-0.2878976533335633
1789552338552793300,7.80779345703125,1.3583394397825002,-1.229169454512,0.023635507935658096
1789552338562763300,7.81776318359375,0.7714134115636349,-0.5131935602709651,-0.8206823232538998
1789552338572732200,7.827732177734375,-0.3588935176581144,-0.2481491236552596,-0.8250344540487975
1789552338582701300,7.837701416015625,-1.6068296319603919,0.1428460439234972,-1.3227718673169613
1789552338592670200,7.847670166015625,-0.7939952457278966,0.23483137692064046,-0.8228587174449116
1789552338602639000,7.85763916015625,0.799873197850585,-1.1782242801725864,-0.8500156775049865
1789552338612608300,7.867608154296875,0.5246452208727598,-0.4553177098855376,-0.3332872211061418
1789552338622577200,7.8775771484375,-0.32686697880029675,0.7653434440001845,-0.6569849222205579
1789552338632547000,7.887547119140625,0.03942483241558075,0.8850295616105198,-0.37953784442115573
1789552338642516200,7.89751611328125,0.34293314746022224,0.17714345032274723,-0.04177963364711031
1789552338652485000,7.907485107421875,0.27574118719697,0.0022989245921373365,-0.8779713867273181
1789552338662454000,7.9174541015625,0.4711357490032911,0.31781244246810675,0.625664631935954
1789552338672423400,7.92742333984375,0.49670507454574103,0.7041726437225937,-0.9355573142554611
1789552338682392300,7.937392333984375,-0.07933890965282916,0.5273030419051646,-0.6344345061078668
1789552338692361500,7.947361572265625,-0.7895008569180965,-0.01385930626541376,0.2514495534401387
1789552338702330400,7.957330322265625,-2.4033961894810196,1.0206441929757595,0.5541171068117022
1789552338712300300,7.96730029296875,0.9877057999700307,-0.3354743558868766,0.9967869320482015
1789552338722269200,7.977269287109375,-0.396944139111042,0.7262354224488139,-0.1502339074187912
1789552338732238300,7.98723828125,-0.8629863643676042,-0.16074556549042462,0.5150149670118466
1789552338742207200,7.997207275390625,-0.7850742726475,0.2203556923225522,1.2113905636500566
1789552338752176400,8.00717626953125,0.3391477837026119,-0.7831967883378267,1.4258720301769674
1789552338762145300,8.017145263671875,1.1504203274458646,-1.2716761785909532,1.4578243347547948
1789552338772114200,8.0271142578125,1.1185247214913367,-0.35039106225073335,2.6722932098716496
1789552338782083300,8.037083251953124,1.0914964293122291,-0.23594430659860371,0.9720558108955621
1789552338792053200,8.04705322265625,0.4833662850230932,-0.6891524769842624,2.689519362221658
1789552338802022100,8.057022216796875,-0.3472825748413801,-0.6578276566550135,2.854132124534249
1789552338811991300,8.0669912109375,-0.6569833147853612,-0.38015959304869174,0.9059694007214159
1789552338821960200,8.076960205078125,-1.1444564506053925,0.46438510569930075,1.641478774406761
1789552338831929000,8.08692919921875,-1.4090133959650992,0.4515203634291887,-0.2794753322239965
1789552338841898200,8.096898193359374,-0.9822475345641374,0.18235884688347576,0.38089634635802355
1789552338851867100,8.1068671875,-0.030695582515001294,-0.7988052763581276,-0.0020618769913387947
1789552338861837000,8.116837158203126,0.12958558033406734,0.2785030531257391,0.4756102640688419
1789552338871806200,8.12680615234375,0.5965273847788573,0.06900193229466677,0.37411841318830846
1789552338881775000,8.136775146484375,0.19296996500790117,0.6127250708639621,0.9929674468252807
1789552338891744300,8.146744140625,0.432972314825654,-0.22796908993571996,0.4449590321522206
1789552338901713200,8.156713134765624,0.10484393778741359,-1.2441785153344274,-0.44143016390632833
1789552338911682000,8.16668212890625,-1.2734499102652073,0.9044295508682727,0.41246147824916984
1789552338921651500,8.1766513671875,0.09793839618265628,-0.11916384730190038,-0.345839755621925
1789552338931620400,8.186620361328124,2.450377136364579,-1.3094240177050231,0.5645466578241437
1789552338941590300,8.19659033203125,1.1142676485687493,1.6938246093243359,1.8521153290085492
1789552338951559400,8.206559326171876,0.8882909014940261,1.1485334907859563,1.1236496632896362
1789552338961528300,8.2165283203125,1.3369266493976115,0.172412330147624,0.3844892928160727
1789552338971497200,8.226497314453125,-0.40402620632648467,1.88663967603147,-0.4712085585111752
1789552338981466400,8.23646630859375,1.2468559178501366,-0.9515388003066182,-0.32495760151501746
1789552338991435300,8.246435302734374,0.01598433559536934,-0.009086100514233112,0.4947061192808673
1789552339001404200,8.256404052734375,-1.9741455255270004,2.791057828722894,-0.35928332069329916
1789552339011373300,8.266373291015626,-1.0201087709248065,0.04350450294464826,-0.8441076225049793
1789552339021343200,8.27634326171875,-0.8477396953970193,0.0945414472207427,-0.39246450947895645
1789552339031312100,8.28631201171875,-0.08621230255365371,-0.2302700603544712,0.07982978017600252
1789552339041281300,8.29628125,0.820280026063323,-0.18999211824089288,-0.1297824180804193
1789552339051250200,8.306250244140625,0.6041670858770608,0.6131541099309921,0.45655864985734224
1789552339061219300,8.31621923828125,0.0667021309196949,-0.16574439669102428,0.6778547648351639
1789552339071188200,8.326188232421876,-1.506488266289234,-0.33416678041964765,-0.05750310808289796
1789552339081157400,8.336157470703125,-1.704031530562043,-0.6812155465051531,1.1449077015042304
1789552339091127300,8.346127197265625,-0.4988128604799509,-0.43542409189194436,0.7987197900317609
1789552339101096400,8.356096435546876,2.021590582790971,-0.20806611959189175,1.773544334988296
1789552339111065300,8.3660654296875,2.3191396971702574,-0.5115680048957467,1.8943037809185683
1789552339121034500,8.376034423828125,1.0641261918276548,0.1431707458332181,-0.22484602601174264
1789552339131003400,8.38600341796875,-2.3853414773523807,2.684752586211264,-1.1118178442638367
1789552339140972300,8.39597216796875,-1.5811673674374818,0.00571077886223793,-0.02028476360249333
1789552339150941400,8.40594140625,-0.920667568963766,0.22197452569603918,1.106353222182393
1789552339160910300,8.415910400390626,-0.3753998313009739,0.3665171444043517,0.42018801738061007
1789552339170880300,8.42588037109375,1.0095581508159637,-1.2294088162258268,1.6325499102808534
1789552339180849400,8.435849365234375,0.629896570417285,0.37929011673778296,0.9136006993174552
1789552339190818300,8.445818359375,0.4347761493772268,0.8149407108619808,1.4351872632719576
1789552339200787200,8.455787109375,0.39962183388769623,0.03582476209700108,0.11241784364040941
1789552339210756400,8.46575634765625,1.2721890965491534,-0.9340402607560158,-0.04016942197149619
1789552339220725200,8.475725341796876,-1.3024141389429569,1.5456602929875254,0.38968255061022933
1789552339230694400,8.4856943359375,1.0217916094452142,0.15587357553988695,-0.8398530338004231
1789552339240663300,8.495663330078125,0.9708598791092634,-1.2817255711793898,-1.3220078972071407
1789552339250633200,8.50563330078125,-2.0330489653944968,1.6510127648189663,-2.027455675432086
1789552339260602000,8.51560205078125,-0.5049252058804035,-0.8201204515874385,-3.0056293846860527
1789552339270571300,8.5255712890625,-0.36936172018051144,-0.3494941134110093,-2.8090222322195766
1789552339280540200,8.5355400390625,0.8557365393698215,-0.6865139451742172,-2.3974070320688186
1789552339290509300,8.54550927734375,0.5621534060120582,-0.1267769526541233,-2.66261352737844
1789552339300478200,8.555478271484375,1.277930270549655,-0.7121276943802833,-2.136744171538204
1789552339310447000,8.565447021484376,1.4053028510093688,-0.17388824791908264,-3.199906632900238
1789552339320417300,8.575417236328125,0.474781996551156,0.14315759409070014,-2.274828407887369
1789552339330386400,8.585386474609376,-1.8271131358295678,0.9729033676356077,-1.0157264641873538
1789552339340355300,8.595355224609374,-1.2274281638026237,0.2955734303921461,-0.9033478931114077
1789552339350324500,8.605324462890625,-1.6904560096740722,0.383282985766232,0.1733701423291117
1789552339360293400,8.61529345703125,1.673594891244173,-0.9471183535158634,-0.9827293267317115
1789552339370262300,8.62526220703125,1.6153016922295094,0.3738561089903116,-0.2230567679747939
1789552339380231400,8.6352314453125,1.274024495282769,0.6784525115326047,-0.262074846220389
1789552339390200300,8.645200439453125,0.46963469679057596,0.5099900880545377,-1.7451583445899188
1789552339400169500,8.65516943359375,-0.06565408317148685,-0.4012804147496819,-1.4365332710534333
1789552339410139400,8.665139404296875,-0.8007441354662179,-0.05504442635178566,-1.16367509194687
1789552339420108300,8.6751083984375,-1.6487649858921765,1.488104760597646,-0.9134299458604306
1789552339430077400,8.685077392578124,-1.8090175071686505,2.026023012280464,-0.1536805955402553
1789552339440046300,8.69504638671875,-0.9760475108802318,0.9708262691006064,-0.0686829294733703
1789552339450015200,8.70501513671875,-0.21857377734184263,0.16022709457427262,-0.43190114193018525
1789552339459984400,8.714984375,0.9225666805833578,-0.23771949957758187,0.5147700158074497
1789552339469953300,8.724953369140625,1.1779846261978149,-0.29019319865852594,1.1534985658474266
1789552339479923200,8.734923095703126,0.9106997171789407,-0.6177490365058184,0.5078144610485061
1789552339489892400,8.744892333984374,0.04157587296962738,-0.59853638651371,0.3612782573701814
1789552339499861200,8.754861328125,-0.29202129086852074,-0.3018719460144639,0.020584997791238128
1789552339509830100,8.764830078125,-0.7602607339084148,-0.10034282697588205,0.8057027807869017
1789552339519799300,8.77479931640625,1.1908493684679269,-1.2629513126045464,0.9078519265323877
1789552339529768200,8.784768310546875,0.4378378750354051,-0.22689912261664866,0.8975560118369758
1789552339539737300,8.7947373046875,0.5617670370429754,-0.21246698489934204,0.5350298367649317
1789552339549706200,8.804706298828124,-0.007650222492218017,-0.9136892543837427,-0.27778924230057744
1789552339559675100,8.814675048828125,-1.208602467301488,-0.03073971391767263,0.5879343284785747
1789552339569645300,8.824645263671876,-1.0041296960264443,0.3607902911901474,-0.16553055301094427
1789552339579614500,8.834614501953125,-0.004653963285684585,-0.5035711609229445,0.03178803566051647
1789552339589583400,8.844583251953125,0.32393092534840107,-1.3807929713919758,-1.2950795582711696
1789552339599552500,8.854552490234376,-0.9624667292952537,0.08949936140030622,-0.35555604379847644
1789552339609521400,8.864521484375,-0.16848960374593733,0.17192250080406665,1.4273504321664572
1789552339619490300,8.874490234375,0.8637672856122255,-1.392887021550536,-0.5563523185178637
1789552339629459500,8.88445947265625,0.8295394373178482,0.1504988967642188,1.8535279722854494
1789552339639428400,8.894428466796874,0.7431921102076768,0.5873334399759769,0.8400375965870917
1789552339649398300,8.904398193359375,-0.36562194913029666,0.6568722556263208,1.3289602005630732
1789552339659367400,8.914367431640626,-1.1993792964041232,0.821897105871141,0.5220529028246179
1789552339669336300,8.92433642578125,-1.1945447158545255,0.6767506760507822,0.8449349401745945
1789552339679305200,8.93430517578125,-0.8101134368360042,0.866925749643147,0.08915275818603113
1789552339689274400,8.9442744140625,0.531506338813901,0.06606734014749527,-0.3431573481375351
1789552339699243300,8.9542431640625,0.9460428332388401,0.26316490647941826,-0.10215942054432817
1789552339709212400,8.96421240234375,0.7661141361117363,-0.238515618391335,0.1573652754023671
1789552339719181300,8.974181396484376,0.7645400186628103,-0.3833727098762989,0.6555963174063711
1789552339729151200,8.984151123046875,-0.7335954298228025,0.7588491135448217,0.2659996001823805
1789552339739120000,8.9941201171875,-1.0333861856490374,0.22562398811429737,-0.005063439135719091
1789552339749089300,9.00408935546875,-1.4478168816119432,0.40035453207641836,1.69177922110185
1789552339759058200,9.01405810546875,-0.9761363582074641,-0.008524082717299462,1.4449186759524046
1789552339769027300,9.02402734375,0.0397013112694025,-1.2628557432755827,1.5221502380624412
1789552339778996200,9.033996337890626,1.2714841631501912,-1.1140461147725582,0.5185037589756771
1789552339788965000,9.043965087890625,1.3425567642390728,-0.00855418559461832,1.0725509058237075
1789552339798934300,9.053934326171875,1.7061837401598692,-0.9330740460723638,-0.459616028133966
1789552339808903200,9.063903076171876,0.4146908082038164,-1.1030120950609446,0.4452784368323162
1789552339818873300,9.073873291015625,-1.9200252282828092,0.44498044026643035,-0.8571720520656555
1789552339828842500,9.083842529296875,-0.6101549281150103,0.5081070507869124,-0.8795393666964024
1789552339838811400,9.093811279296874,-0.46791327982544895,0.918246771557629,-0.8212492364216596
1789552339848780300,9.1037802734375,-0.22530980759859084,1.073184235291183,-0.5468568700177595
1789552339858749400,9.11374951171875,-0.871938901630044,0.4976654440104961,-0.12212687095911241
1789552339868718300,9.12371826171875,-0.5210521648168563,0.10209317777454853,0.5951624896338209
1789552339878687500,9.1336875,-0.48098611188828944,-0.0888882437646389,0.604466214954108
1789552339888656400,9.143656494140625,0.35116730732023715,-0.3224123374789953,-0.3378618720779195
1789552339898626300,9.153626220703124,-0.5549614486813544,0.715705552867055,0.2046400723996572
1789552339908595200,9.16359521484375,-0.7457201673805713,0.32049276759326456,0.279486602536682
1789552339918564400,9.173564453125,0.1148474454075098,-0.6857698488086461,-0.7290067137930542
1789552339928533200,9.183533203125,1.3925520905077458,-0.006097440092265606,0.781711152889952
1789552339938502400,9.19350244140625,4.083194027018547,-0.6365814550086856,-0.604023987611942
1789552339948471300,9.20347119140625,3.1447143225103615,-0.03480740174800157,-0.24378785970583558
1789552339958440200,9.213440185546874,0.06696282768249512,1.3515236222878098,0.10935805421099067
1789552339968409300,9.223409423828125,-1.2832049960821865,1.976880211187899,0.2231440078668296
1789552339978378200,9.233378173828125,-0.5864449667036533,0.770213972645998,-0.44469424373619254
1789552339988348200,9.24334814453125,1.0987351483941077,-1.0026488098189235,0.0285384729797719
1789552339998317300,9.2533173828125,1.0908031863510608,-0.05546177498102188,0.4415983966127038
1789552340008286200,9.2632861328125,0.04357143070101738,0.8631412626683711,0.6718073744297027
1789552340018255400,9.27325537109375,-0.48839141970872874,0.5107280469402671,0.36427060758657753
1789552340028224300,9.283224365234375,-1.73331783080101,0.5369999677941203,-0.42821733885090796
1789552340038193200,9.293193115234375,-1.5784984404891729,0.5373693856284022,0.20731858916021884
1789552340048162300,9.303162353515624,-0.746121733918786,0.3755287183776498,-0.29709970837766303
1789552340058131200,9.313131103515625,-0.3497714690476656,0.6947860989570618,0.7229776627618819
1789552340068100000,9.32310009765625,0.539618918120861,-0.39426644433438773,-0.4607318438887596
1789552340078070500,9.333070556640624,0.5488935269445181,-0.616233371245861,0.6967278076093644
1789552340088039700,9.343039794921875,0.5505670131146907,-0.6219450268909335,0.6934954015593975
1789552340098009900,9.353009765625,-0.14986615181863308,0.12280249606519937,0.8584666949860751
1789552340107978800,9.362978759765625,-0.8560942667663097,1.0202031712099908,0.7421029997967183
1789552340117948000,9.372947998046875,0.24761574743092057,-1.137105211059749,0.6041617155821993
1789552340127916800,9.382916748046876,-0.6640308952093124,-0.17738953403830526,1.4553586752936243
1789552340137885700,9.3928857421875,-1.4454220954298973,0.8119497123524546,-0.014357741323823574
1789552340147854800,9.402854736328125,-1.426533855086565,0.6414364938244224,0.6119238009510561
1789552340157823700,9.41282373046875,-1.6878671622246504,1.1732424001067876,0.3673744188208133
1789552340167793000,9.42279296875,0.20938918488919733,-0.5608896696865558,0.12846053096004761
1789552340177761800,9.43276171875,1.237539223450422,-1.5802540519848465,0.0008556681229092645
1789552340187731700,9.442731689453124,1.2792179722726345,-0.5332125582098961,0.196100828645844
1789552340197700900,9.452700927734375,2.1369319491952656,-0.29943448973447084,0.032294523877929894
1789552340207669800,9.462669677734375,2.250519165408611,-1.3736185497179627,-1.1730671166051179
1789552340217638700,9.472638671875,1.3408043676137924,-1.3190145606100558,-1.2389175260663032
1789552340227607800,9.48260791015625,0.15275485899746416,-0.8674930281370877,-1.862319619897753
1789552340237576700,9.49257666015625,-0.37846331052482124,-0.23128128322362898,-1.015078083281219
1789552340247545600,9.502545654296876,-1.3629139080911874,0.6446627623945475,-1.506216171349585
1789552340257514800,9.5125146484375,-0.8622288239985704,0.5124766441732644,-1.6121078646242617
1789552340267483600,9.522483642578125,-0.4682511334776878,0.5926704170897603,-1.1528636289447545
1789552340277453600,9.53245361328125,0.04356909261345863,0.34960517257004975,-1.5829994051702319
1789552340287422700,9.542422607421875,0.5226671987980603,0.25952947258651254,-0.603465659609437
1789552340297391600,9.5523916015625,0.10012333900630474,-0.1571209452524781,-0.9070894907925278
1789552340307360800,9.56236083984375,-0.18218670518696306,0.033548633858561515,-0.7533226782735437
1789552340317329700,9.57232958984375,0.14235212292671204,-0.4763333176463842,-1.2411445544660091
1789552340327298600,9.582298583984375,0.6399538540512323,-0.3274661137372255,-0.9773455878667533
1789552340337267700,9.592267822265624,0.2625643102377653,0.5754676456153393,-0.4848696753233671
1789552340347236600,9.602236572265625,0.2079097599864006,1.3953446438357233,0.06014519269005395
1789552340357205500,9.61220556640625,-1.0235253013700247,1.0948267427787184,-0.19042667373325675
1789552340367174700,9.622174560546876,-1.639976114758849,1.2671049251526594,-0.39380803304240103
1789552340377144800,9.632144775390625,-1.3015139752328395,0.9388841936558484,0.007114818707574158
1789552340387113700,9.64211376953125,-0.9342904361248016,-0.07589724476635455,-0.5765354575099423
1789552340397083000,9.652082763671874,-0.845390501922369,0.4795364976018667,0.34821751760393377
1789552340407051800,9.6620517578125,0.5991559797167778,-0.16679565930962562,-2.100065569090843
1789552340417020700,9.672020751953125,1.5809072551965713,-1.1894254731446503,-0.49145541038922963
1789552340426989800,9.68198974609375,-0.3250841870367527,0.3954533160313964,-0.8181682946063578
1789552340436958700,9.691958740234375,0.1682990496098995,-0.6659688775345682,0.03539133911579847
1789552340446928000,9.701927978515625,0.4449982681840658,-0.4834925417512655,0.20527029659459367
1789552340456896800,9.711896728515624,0.45291795526742934,-0.7921943337857723,-1.2165857211403548
1789552340466866700,9.72186669921875,-0.8181511973410844,-0.26773966704905033,0.05477903514755889
1789552340476835800,9.7318359375,-0.9041782064557075,-0.37867256936132904,-1.0389284760765731
1789552340486804700,9.7418046875,-0.07024141096174717,-0.9293038798838853,0.3849903011407703
1789552340496773600,9.751773681640625,1.0210650487363337,-1.197400982068479,-0.3382811204032972
1789552340506742800,9.76174267578125,2.00225167607069,-0.5946344106391072,0.23587926027206702
1789552340516711700,9.771711669921874,1.8640075729846952,-0.42056583771705625,-0.5542246588394045
1789552340526680800,9.781680908203125,1.9813643708646296,-0.6135021927163005,0.12524113965528086
1789552340536649700,9.791649658203125,0.3855757728785276,-0.0709741091504693,0.3379590488420799
1789552340546619600,9.80161962890625,-1.1109276904910803,1.0070087585940957,0.2868926227431744
1789552340556588500,9.811588623046875,-1.3370903155267237,0.9713508774966001,0.3981222064470872
1789552340566557700,9.8215576171875,-1.262827393963933,1.0122305848956108,0.3121757882880047
1789552340576526600,9.831526611328124,-0.17661913418769834,0.28597148931026456,0.25162838060576465
1789552340586495700,9.841495849609375,0.9300906463474035,-0.7908730220541358,0.5151442559473216
1789552340596464600,9.851464599609375,1.03078857037127,0.5448293462455273,0.8864385516256094
1789552340606433500,9.86143359375,1.476551393187046,0.22140227876603602,-0.41477907100915906
1789552340616402700,9.871402587890625,1.1872791087657213,0.08426964405328034,0.43321375889871266
1789552340626371800,9.881371826171875,0.0681879855632782,0.8661492123126983,-0.8020630360450595
1789552340636341800,9.891341796875,-1.0617103628575801,0.2479372344702482,0.4728806199092418
1789552340646311000,9.901310791015625,-2.2359826905339957,1.7330916208297014,1.5125006584465504
1789552340656279800,9.91127978515625,-2.650803847119212,1.820137743858993,0.30199345350228246
1789552340666248700,9.921248779296874,-1.4331740237534045,-0.260222423286736,1.1552742702830583
1789552340676217900,9.9312177734375,-0.6507996577143669,-1.303435883206129,1.231459611275792
1789552340686186800,9.941186767578126,-0.5643962165027856,-0.8159110171988606,1.1000183200724423
1789552340696156000,9.951156005859374,0.4858282912224531,-0.4396212513208389,1.7875901037365196
1789552340706124800,9.961124755859375,0.809140207889676,-1.0878817459464072,1.5250634951606392
1789552340716093700,9.97109375,0.9699357500016689,-1.175412729883194,1.6289815502747893
1789552340726063600,9.981063720703125,0.0018558569997549055,-0.8703513401776551,0.33929409683812406
1789552340736032800,9.99103271484375,0.3924433205604553,-0.7129071543201804,0.9995248325794934
1789552340746001700,10.001001708984376,0.4340338065773248,0.21495061840862034,0.5317371153624728
1789552340755970800,10.010970703125,0.30781565684974194,0.03191898683011531,-0.6540603400107473
1789552340765939700,10.020939697265625,-0.6451742190480232,0.39064123957455155,-0.9223951234087348
1789552340775908600,10.03090869140625,-0.5478408030211925,0.18816051889955995,-1.1729309230048208
1789552340785877800,10.040877685546874,0.05609481218755245,0.14778291580379008,-0.7829710898231714
1789552340795846700,10.0508466796875,1.0855208620339631,-0.2460617959871888,-0.6300878552056849
1789552340805815800,10.06081591796875,2.0581974351763725,-0.44651071857362984,-0.5247566088253632
1789552340815785700,10.07078564453125,1.4002882377177477,0.16059563562572002,-0.3416258642539382
1789552340825754600,10.080754638671875,0.11892507010996341,1.0924220197245478,-0.28681223271703343
1789552340835723500,10.0907236328125,0.2936602902472019,0.4592468660280108,-0.2756397726491093
1789552340845692700,10.100692626953125,-0.4248544748216867,1.0862491763085127,-0.5393616554241627
1789552340855661600,10.11066162109375,-1.769931697449088,1.3985524999663232,0.01734440386823844
1789552340865630700,10.120630615234376,-0.9059066376835108,0.21684359254837035,0.2840488872172311
1789552340875600000,10.130599853515625,-0.4306248749166727,0.294891001085937,0.28624829695764925
1789552340885568800,10.14056884765625,-0.8972750029385089,1.1033481951475144,-0.44046362042911347
1789552340895538000,10.150537841796876,-0.2835486460775137,0.6150941380828618,-0.017448967071122024
1789552340905507800,10.1605078125,1.4053531198918818,-0.42215749082267284,-0.4204365487815812
1789552340915476700,10.170476806640625,1.2596709757596254,-0.14694646497964858,-1.376967567884922
1789552340925446000,10.18044580078125,1.5537971299529074,-0.7280392570003866,-0.3769817301975563
1789552340935414800,10.190414794921875,0.2652028420478105,-0.24029402624070642,-0.388141568245925
1789552340945383700,10.2003837890625,-0.2878314379632473,-0.49702831515073775,-1.2924736135564743
1789552340955352800,10.210352783203126,-1.6668857489943503,0.3140089585319161,-0.2644957532243803
1789552340965321700,10.22032177734375,-1.9993214678376912,0.31257600311934947,1.4876923804044722
1789552340975291000,10.230290771484375,0.009210895937681197,-0.9870838686794042,-0.027657507160468955
1789552340985259800,10.240259765625,1.8642805447071789,-1.7027172330930829,0.4083715420544147
1789552340995229700,10.250229736328125,1.4307196163386107,-0.7708560699418187,1.3084585336737333
1789552341005198600,10.260198486328125,1.3868097474634646,-0.9583335750132799,0.5814572779515758
1789552341015167700,10.270167724609376,0.1836842502683401,-0.6170251061454415,1.1591544727172702
1789552341025136600,10.28013671875,0.32271511981785295,-0.6123576988562941,0.32628585444409397
1789552341035105800,10.290105712890625,1.1653045928448438,-1.1536416275799273,1.022656555711478
1789552341045074700,10.30007470703125,-1.6240835491001604,1.3186989187896252,1.1753553006075321
1789552341055043600,10.310043701171875,-3.024720746386051,2.264805757175386,0.806410271469131
1789552341065012700,10.3200126953125,-1.2434288660109043,0.9615054830476641,0.7984054633855819
1789552341074981600,10.329981689453126,0.590906622287631,-0.32149317680746314,1.415779382968694
1789552341084951600,10.33995166015625,0.35106560051143165,0.16030162111520765,0.11437677742214873
1789552341094920400,10.34992041015625,0.35303660832345485,1.2884671543940902,0.015222584842098876
1789552341104889300,10.359889404296876,-0.6429834310054778,1.376257081528008,-1.0393174753941594
1789552341114858500,10.3698583984375,-0.4784656534999609,0.1695411586254835,-0.6477555407781154
1789552341124827400,10.379827392578125,-0.18875030148625374,-0.25191578271239995,-0.627562063055113
1789552341134796300,10.38979638671875,0.48723348184525966,0.7340960728213191,-0.08202275104247965
1789552341144765400,10.399765380859375,1.1433277388364076,1.049798975789547,0.6029896761281416
1789552341154734300,10.409734375,1.4444593878775833,-0.6601856179580092,-1.1977675503585488
1789552341164703500,10.419703369140626,-1.5669582248210907,1.343960493557155,-0.9609501872524618
1789552341174673400,10.42967333984375,0.6215402454823256,-0.5928457736566662,-0.8279533371701836
1789552341184642300,10.439642333984375,-2.003946789550781,0.7690224247738718,-0.6803025233134627
1789552341194611200,10.449611083984376,0.08502280050814151,-0.8976984890475869,-0.6183984403252601
1789552341204580400,10.459580322265625,1.4432219550371168,-1.2067524555206297,-0.46803500650897617
1789552341214549200,10.46954931640625,1.3652064029425381,-1.1779556923642753,-1.6816763447605072
1789552341224518400,10.479518310546876,0.3204734783709049,-0.5799763552114368,-1.4287291731737553
1789552341234487300,10.4894873046875,-0.08632219266891479,0.11972586509883403,-1.021023547682166
1789552341244456200,10.499456298828125,-0.4285363782048225,0.21330752737671135,-0.7859496672425419
1789552341254425300,10.50942529296875,-0.2428700142085552,-0.2244061367571354,0.6528326248466968
1789552341264394200,10.519394287109375,-0.4042161759406328,-0.8020563871085643,-1.2186398041259496
1789552341274364200,10.5293642578125,-0.45640813547074793,-0.06865881794542074,-0.8507525404121726
1789552341284333300,10.539333251953124,-1.1470131493508815,0.7996291599616407,-0.5816182406669482
1789552341294302200,10.54930224609375,-0.9533756603449582,0.6310992242053151,-1.4941335193678735
1789552341304271000,10.55927099609375,1.203109715104103,-0.6648194152384996,-1.7121812270089982
1789552341314240300,10.569240234375,2.2821160806775094,-1.3379165372177957,-3.0409552573502063
1789552341324209200,10.579209228515625,1.8671102151751517,-0.052288697902858255,-1.5972082555256784
1789552341334178300,10.58917822265625,0.6807470522105693,1.4862483190760016,-0.9949293214827776
1789552341344147500,10.5991474609375,0.15358195747137068,0.1321931324839592,-2.810588166362047
1789552341354116400,10.609116455078125,-1.5790993289917707,0.8761813615053892,-2.2570846614040434
1789552341364085500,10.61908544921875,-2.1261118644952774,0.9940548767358064,0.4394962732343003
1789552341374055400,10.629055419921874,-1.0097966357469559,0.3589224514916539,-0.041845301028154785
1789552341384024300,10.6390244140625,0.7952449535280466,-1.279813600078225,-0.5653851544748991
1789552341393993500,10.648993408203125,1.5780501121997832,-1.386499658600986,-0.47922308427114035
1789552341403962400,10.65896240234375,1.2461048072218894,-1.5050386520028114,-1.069847784344852
1789552341413931300,10.66893115234375,0.5375181464493274,-1.299325233016908,-0.8913210629701613
1789552341423900400,10.678900390625,-0.39391690024435516,-0.12944471055865286,-1.3196563656449316
1789552341433869300,10.688869384765624,0.17620120103657244,-0.6243447815090417,-0.9585254443235695
1789552341443838500,10.69883837890625,0.06318623175323008,-0.6009630291387439,-0.05506481155268848
1789552341453807400,10.708807373046875,-0.24435703789591787,-0.3911237623944878,-1.5702208798788486
1789552341463776300,10.7187763671875,-0.299171162623167,-0.4036734473660588,-0.6049556789714843
1789552341473746200,10.72874609375,-0.6063654727041721,-0.7398354932561516,-0.37203846510909494
1789552341483715300,10.73871533203125,-0.3629126901715994,-1.132138820824027,-0.08769497885946184
1789552341493684200,10.748684326171874,0.515211622095108,-1.276417527899146,-1.371969321206212
1789552341503653400,10.7586533203125,-0.06825637462437152,-0.30977029804885386,-1.3561828462705015
1789552341513622300,10.768622314453125,-0.31158816112577914,0.14090338542312383,-0.9726907477982342
1789552341523591200,10.778591064453124,-1.2880880919486284,1.0522416927665472,-0.6277773863062263
1789552341533560300,10.788560302734375,-0.41452831111848354,0.8213681135609745,-1.0495555224224924
1789552341543529200,10.798529296875,-0.6876385652899741,1.7705422305628655,-0.07776588818244635
1789552341553498400,10.808498291015624,-0.11946049216091632,1.3175436112746595,0.11156626831237226
1789552341563467300,10.81846728515625,-0.34458734440803523,1.3589023343622684,-0.4108750493079424
1789552341573436200,10.828436279296875,-0.9044529317438602,1.608793040987849,-0.4160036809006706
1789552341583406300,10.83840625,0.21758067465126513,0.8806956240594387,2.174878525751829
1789552341593375500,10.84837548828125,1.4503145436465739,-0.03938070101290941,1.5784965407930314
1789552341603344400,10.858344482421876,-0.17600947785675525,0.7929182641461491,0.3960849649984389
1789552341613313500,10.8683134765625,-1.1965239069730043,1.770854949773848,1.540661607917398
1789552341623282400,10.878282470703125,0.7114706917762756,-0.058193245771527284,2.769379373139143
1789552341633251300,10.888251220703125,-0.49127486619055266,0.46869916950613255,1.6614894429087639
1789552341643220500,10.898220458984374,-1.6466449249982833,1.0094242953032255,0.26461419197227803
1789552341653189400,10.908189453125,-0.9836112241327762,0.08494944301098585,0.5937899591716006
1789552341663158500,10.918158447265625,0.08394085049033165,-0.5279039304077625,2.841340447500348
1789552341673127400,10.92812744140625,0.4120072682082653,-0.3395239235386252,0.8997839900847524
1789552341683097300,10.938097412109375,1.6170763006865978,-0.7126312599882483,-0.11681154855471104
1789552341693066200,10.948066162109376,2.1610785484582182,-0.9532897356271743,-0.5878532260663807
1789552341703035400,10.958035400390624,0.6495207238197326,0.34305063636004923,-0.578456744428724
1789552341713004300,10.96800439453125,0.5608206961035728,-0.6043672846242785,-0.7271296678747982
1789552341722973400,10.977973388671876,-0.5538935271888971,0.21311288158744573,-0.8311029603075235
1789552341732942300,10.9879423828125,0.730879156601429,-0.9311530148819088,-0.522410593688488
1789552341742911200,10.9979111328125,1.333876614177227,-0.30333558882623907,-1.6852818219065666
1789552341752880400,11.00788037109375,-1.2700444857358932,1.617614645346999,-1.5874777196280658
1789552341762849300,11.017849365234374,-2.7322996425449846,2.19881440487355,-1.4417824237532912
1789552341772818400,11.027818359375,-1.890092446833849,0.8674667246520519,-0.6902300430878996
1789552341782787300,11.037787353515625,-0.14763094011247158,0.05191811102479696,-0.8727394043579697
1789552341792757200,11.04775732421875,2.5182757835924625,-1.471027369068563,-0.39474297580495477
1789552341802726100,11.05772607421875,1.9796376932024955,-0.7077195225492119,0.16024627419877796
1789552341812695300,11.0676953125,1.3685720799833536,0.3319762846380472,-1.3363942960865796
1789552341822664200,11.077664306640624,1.024212699112296,-0.05504530313462019,-2.4806094852820038
1789552341832633300,11.08763330078125,-0.6353858154833316,0.6575578998029231,-2.2780884325966237
1789552341842602200,11.097602294921876,-2.15770059645772,1.479399476094544,-1.2859057794734834
1789552341852571100,11.107571044921874,-2.048216723909974,1.2840943461373449,-0.653661696081981
1789552341862540300,11.117540283203125,-1.4228209720432758,0.7960451639950274,-0.8735711790069938
1789552341872509200,11.12750927734375,-0.8513187229275703,-0.03177957835942507,0.23386541796531526
1789552341882478300,11.137478271484374,0.44105332995057106,-0.7095952532932162,0.3090692736400291
1789552341892447200,11.147447265625,0.778393771970272,-0.5798252563029528,0.09596574440281838
1789552341902417400,11.15741748046875,1.6630197212159632,-1.6601812829196452,0.3387840284241363
1789552341912386300,11.16738623046875,1.3355536074787377,-1.8114029410004615,-0.003206321760639548
1789552341922355500,11.17735546875,0.018673136287927626,-1.690807015068829,-0.6129205934360623
1789552341932324400,11.187324462890626,-0.5271674328267574,-0.34361849937587974,0.5408770284231752
1789552341942293500,11.19729345703125,-0.7955898214429616,0.109712712867558,0.8687243234977126
1789552341952262400,11.207262451171875,0.5691074629336595,-0.672282298465073,1.5618426353730261
1789552341962231300,11.217231201171876,-0.5540770670622587,-0.48941959371268745,0.2842476611923426
1789552341972200400,11.227200439453124,-1.0688491286963224,-0.848596312226355,0.5039969120543449
1789552341982169300,11.23716943359375,-0.49057636253237724,-1.2821972803443669,1.2157140528723598
1789552341992138500,11.247138427734376,-0.43544893407225604,-0.05982669219225645,1.202582914751023
1789552342002107400,11.257107421875,1.3530688059031963,0.16599194171130657,2.0538643744081257
1789552342012076300,11.267076171875,1.4280284775584935,0.14584493347853422,0.9329533423021436
1789552342022046200,11.277046142578126,0.2577536950856447,0.4313163643121719,-0.5238553856693208
1789552342032015400,11.287015380859375,-1.6659376544892788,2.13838828548342,0.6597926000524312
1789552342041984300,11.296984375,-1.3999626590251921,1.725695373098552,2.048847423028946
1789552342051953400,11.306953369140626,0.2863222024440765,0.3196504715502262,-0.16180130335474385
1789552342061922300,11.31692236328125,0.1921685854971409,0.5096536957070231,-0.5710651728726923
1789552342071891200,11.32689111328125,0.32361236091852186,0.47952948333919043,0.999077600268647
1789552342081860400,11.3368603515625,-0.6875532250940799,1.295347561557591,-0.37450467255953696
1789552342091829500,11.34682958984375,-1.5250503434181213,1.67416918400079,-0.44555425809901206
1789552342101798700,11.356798583984375,-0.05969020633101463,-0.44644729794859883,-1.4270274838224053
1789552342111767600,11.366767578125,2.015341459268331,-1.26319651953727,0.2921885371942073
1789552342121736400,11.376736328125,2.2660621869772672,-0.7562383465245366,0.22678950649602336
1789552342131705600,11.38670556640625,1.499323196965456,-0.042185529300570485,-0.9475278110995888
1789552342141675800,11.39667578125,-1.5763620129823683,2.1883698754876852,-0.6959866338532418
1789552342151644700,11.406644775390625,-2.234499173977971,0.5295262709125876,-0.7229664107155055
1789552342161613800,11.41661376953125,-2.4750480517625806,-0.07003536699563265,0.0149305636425619
1789552342171582700,11.426582763671876,-0.1284416709959507,-0.5408958061888813,0.5635950927203521
1789552342181551600,11.436551513671875,2.7506857785850762,-1.6404992618501186,0.8619327636614441
1789552342191520800,11.446520751953125,2.7376322357445955,-2.574228556960821,-2.2614273667834697
1789552342201489700,11.45648974609375,0.7332090608537196,-0.002239303359389305,-1.4947570580936969
1789552342211458600,11.46645849609375,0.4931745623320341,0.13145955751240251,-0.3182384127952158
1789552342221427700,11.476427734375,0.12054302670061588,0.6524424564853311,0.3444918116116896
1789552342231396600,11.486396728515626,1.2154624161988496,-0.8129539209589361,-1.3676558419212699
1789552342241365800,11.49636572265625,-0.42085926770567894,0.9030889499142766,-1.3210605333544314
1789552342251334700,11.506334716796875,-0.6761147162348031,1.1011389946654437,-0.06182579358760267
1789552342261303600,11.516303466796876,-0.5189163218319416,0.18236556888520716,-0.5090380114940927
1789552342271273700,11.526273681640625,-0.3379705566167831,-0.05962094048708677,0.026454341915785332
1789552342281242600,11.53624267578125,1.0153256283015013,-1.1659908215433359,-0.2903388176742941
1789552342291211500,11.54621142578125,0.8493453770279884,-1.0583134138956665,-1.6612189554043113
1789552342301180700,11.5561806640625,-1.0568383729070425,0.9995037897914647,-0.47715175788979974
1789552342311149600,11.566149658203125,-1.2239356455117463,0.896043999838829,0.5487987248005345
1789552342321118700,11.57611865234375,0.198393743622303,-0.7206111528262495,-0.7775995528526604
1789552342331087600,11.586087646484375,0.8084440423190593,-1.218272505183518,-0.2205052385947667
1789552342341056500,11.596056396484375,0.7612684496462344,-0.5812696098923683,1.1856059148564935
1789552342351025700,11.606025634765626,-0.9605904140293597,0.7428668237760663,0.05948025337476283
1789552342360994600,11.61599462890625,-1.5563374620854853,-0.8800096876218915,-0.13580060065770522
1789552342370963500,11.62596337890625,-1.1291741257995367,-1.6150275514632462,1.4653219970338045
1789552342380932600,11.6359326171875,0.3764911336690187,-1.3991875829994678,0.8441521922990679
1789552342390901500,11.645901611328124,1.1147083780735731,-0.5501259913489223,1.127352317199856
1789552342400871400,11.655871337890625,1.7133429642647504,-0.9745940972015261,-0.4470115442352369
1789552342410840600,11.665840576171876,0.6824760679602623,-0.2719102307319641,0.7006011419113725
1789552342420809500,11.6758095703125,-1.3590589862287044,0.7947048553019762,0.01630198670979589
1789552342430778600,11.685778564453125,-1.8749328716248272,1.0321189421921968,0.16212229720372706
1789552342440747800,11.695747802734376,0.7374778242141008,0.2107128347083926,0.6767011378206312
1789552342450716700,11.705716552734375,1.0939292094171047,0.3748179397597909,0.43509770948179066
1789552342460685800,11.715685791015625,0.9805208569020032,0.22796967445760963,1.6353117762096225
1789552342470654700,11.72565478515625,-0.14421733227670192,1.1459291535064577,0.30318182303663344
1789552342480623600,11.73562353515625,-1.3421622119635344,1.8161708860546348,0.642087943470478
1789552342490592800,11.7455927734375,0.18195815712809563,0.9571256605282426,1.149329463469237
1789552342500561700,11.755561767578126,0.5439034635722637,0.8909788254037498,2.4326667076289654
1789552342510530800,11.76553076171875,0.7727887915700674,0.0936368995964527,1.7343910129904745
1789552342520499700,11.775499755859375,0.3721124801933765,0.5247954429984092,1.894290190784633
1789552342530468600,11.785468505859376,-1.3735031066447496,2.4483345246210693,2.982002425383031
1789552342540438500,11.7954384765625,-2.2146488106042144,1.9806486238107084,1.7117887205600737
1789552342550407700,11.80540771484375,-2.437408349198103,0.055175359255075454,2.289932161255926
1789552342560376600,11.81537646484375,-1.4754776264756917,0.049558396156132216,2.3748063470736143
1789552342570345700,11.825345703125,1.4101006066799162,-1.1300973781242967,2.321844864475727
1789552342580314600,11.835314697265625,1.8591952042669058,-0.8477852881044149,2.131437151171267
1789552342590283500,11.845283447265626,1.637305434244871,-0.9561994855940341,1.123054839201644
1789552342600252700,11.855252685546875,2.796047015312314,-1.7970640345245599,-0.003763882578164339
1789552342610221600,11.8652216796875,0.6065747315406799,-0.057175008639693256,0.43753027039095754
1789552342620190700,11.875190673828126,-1.0857406422644853,1.5511790564090013,-0.3935430254306644
1789552342630159600,11.88515966796875,-1.3058370991289614,0.762140264044702,0.634361148610711
1789552342640128500,11.89512841796875,-1.7481676094084977,0.39946109036803246,-0.5513154933944344
1789552342650097700,11.90509765625,-2.113044293129444,0.5162327818363904,-0.8466754271663725
1789552342660066600,11.915066650390624,0.040648236730694766,-0.1194333118930459,-1.3988332166038453
1789552342670036500,11.925036376953125,0.9770248314797878,-0.7460457460731268,-0.11803688909858465
1789552342680005600,11.935005615234376,0.24153905786573884,-0.5605807498678564,-1.8030527535453438
1789552342689974500,11.944974609375,0.24592706369161604,-0.6917272959083318,-1.850322746503353
1789552342699943400,11.954943359375,1.5545885725915431,-1.0188029490232466,-0.7739326278429478
1789552342709912600,11.96491259765625,1.4046452638834714,0.07592763990461826,-1.8307735580332576
1789552342719881500,11.974881591796875,1.394962658780813,-0.15147475605905056,-1.5103766520299016
1789552342729850600,11.9848505859375,1.2742968824833631,-0.30073154380768535,0.16468677739687262
1789552342739819500,11.994819580078126,-1.9749954203546045,1.4883099277809262,-1.8939486838705837
1789552342749788400,12.004788330078124,-3.7520156147599217,1.502036839838326,-2.3118095004126427
1789552342759757600,12.014757568359375,-2.156627414268255,0.3445329838722944,-1.514440978859365
1789552342769726500,12.0247265625,0.6454740787774325,-0.856308201777935,0.3125559467120096
1789552342779695600,12.034695556640624,2.1187071411967278,-0.5129302331596612,-0.9186107825644314
1789552342789664500,12.04466455078125,3.614140929508209,0.24647534522414205,-0.19663404047340152
1789552342799633400,12.05463330078125,2.735072614389658,1.1367334551379085,-2.022740045087039
1789552342809602800,12.064602783203124,-0.8630997616142034,1.9984131208211182,-1.832574177714437
1789552342819572700,12.07457275390625,-3.3665468093872066,1.2996283076167106,-1.9197098787233233
1789552342829541600,12.084541748046876,-2.443682022640109,-0.00003536357432603836,-0.7896441378463059
1789552342839510800,12.0945107421875,-1.5047732790648936,0.42694823223054407,-0.045374333670828486
1789552342849479700,12.104479736328125,0.8551578626990318,-1.0250082334041595,-0.32885844487845894
1789552342859448600,12.114448486328126,1.263690732795,-1.6403627759888768,-0.45360085949767376
1789552342869417700,12.124417724609375,-0.35408640963733196,0.19283260236382482,-0.8040164351351559
1789552342879386600,12.13438671875,-0.5201449868440627,-0.5460460285589098,-1.1916143614910542
1789552342889355800,12.144355712890626,1.0107032291978597,-0.41064767029285426,0.6664221742600203
1789552342899324700,12.15432470703125,3.491147002524137,-2.1043828477680684,0.7658484709128737
1789552342909293600,12.16429345703125,2.6113667397439477,-0.8060133080407976,1.2701518916331231
1789552342919262700,12.1742626953125,-0.16854104167222975,1.471980432009697,-0.07316855958797969
1789552342929231600,12.184231689453124,-1.2826532074183226,0.17622779678255318,-0.05757194923514034
1789552342939200500,12.194200439453125,-2.6707734529584646,-0.05856149456202984,2.073600756013393
1789552342949169700,12.204169677734376,-1.2106471248716115,-0.833861099909246,1.3674429298229516
1789552342959138600,12.214138671875,0.7256850950896739,-1.421891874499619,1.2706222856238483
1789552342969107700,12.224107666015625,2.089914761954546,-0.9048501143679022,-1.4457242932468652
1789552342979077600,12.23407763671875,1.1046364813923835,-0.02644903098642826,-0.898171951778233
1789552342989046500,12.244046630859375,-0.10964403154551983,1.0481988471165298,-0.23191022877693174
1789552342999015700,12.254015625,-0.7460071676284075,0.8953878740176558,0.0790299898341298
1789552343008984600,12.263984619140626,-0.42350598282217977,0.22058891655653715,-0.8757808178804815
1789552343018953500,12.273953369140624,-0.32977789781093597,-0.6901108006224036,-0.709201139409095
1789552343028922600,12.283922607421875,-0.6345838514506816,-0.6889426336258649,-0.38003340938575564
1789552343038891500,12.2938916015625,-0.6780231802046298,-0.30570290247946974,-0.28125485431822017
1789552343048860700,12.303860595703124,-0.03574818972945213,-0.2038902952119708,-0.05166548797059804
1789552343058829600,12.31382958984375,0.17620529268980026,0.08074117766618728,-1.5850335413463412
1789552343068798500,12.323798583984376,0.6218547182589769,-0.7047691483110189,-0.647157940211147
1789552343078767600,12.333767578125,-0.15786533387899399,0.2779644162043929,-0.8045164936117828
1789552343088736500,12.343736572265625,-0.2921820343881845,0.641377457113564,-0.6040858738670125
1789552343098706000,12.353705810546876,-0.7808096009403467,1.099443296663463,-0.7391209152460098
1789552343108675000,12.363675048828124,-0.496350854280591,0.6196455177769065,-0.29063255819017064
1789552343118644000,12.37364404296875,-0.08454115447103977,0.5919958788290619,0.7657727753281592
1789552343128613000,12.383613037109376,-0.8782061453312635,-0.005396306085586547,1.214659575383365
1789552343138583000,12.3935830078125,-1.061328085541725,0.16379969236403702,1.013971144952625
1789552343148552000,12.403552001953125,-0.41234862899184227,-0.0743982383802533,1.0628578523922712
1789552343158520800,12.413520751953126,0.49231356158852574,-0.5390516396269202,-0.13325844189422204
1789552343168490000,12.423489990234375,1.7273393409132956,-0.32062223919183014,-0.11522393230339512
1789552343178459000,12.433458984375,2.1082038673609493,-0.15884586934894324,-0.7912906629443168
1789552343188428000,12.443427978515626,0.8578753049641847,0.9918152811154722,-0.9811522866733372
1789552343198397000,12.45339697265625,-0.6647025108605623,1.1148974709048867,-1.0954681824874133
1789552343208365800,12.46336572265625,-0.8160264602720737,0.41459670017957684,-0.8533128193542361
