time,seconds_elapsed,z,y,x
1789552330795553800,0.0505537109375,0.03495212644338608,0.22202107310295105,-0.0038029940333217382
1789552330805522700,0.060522705078125,0.012122975662350655,0.2623109817504883,-0.04777151718735695
1789552330815492600,0.07049267578125,-0.01792147569358349,0.19748510420322418,-0.06013710796833038
1789552330825461500,0.08046142578125,-0.08996398001909256,0.17493319511413574,-0.0032690302468836308
1789552330835430700,0.0904306640625,-0.08469144999980927,0.15602129697799683,-0.027594875544309616
1789552330845399600,0.100399658203125,-0.15251363813877106,0.16651999950408936,-0.010213488712906837
1789552330855368700,0.11036865234375,-0.16169382631778717,0.14987604320049286,0.005510346498340368
1789552330865337600,0.120337646484375,-0.15490862727165222,0.16884388029575348,0.004037085920572281
1789552330875307500,0.1303076171875,-0.16709311306476593,0.17225006222724915,0.030612504109740257
1789552330885276700,0.140276611328125,-0.15928606688976288,0.2027168869972229,0.02130289189517498
1789552330895245600,0.15024560546875,-0.10709449648857117,0.2292552888393402,-0.0584087148308754
1789552330905214500,0.16021435546875,-0.08362485468387604,0.1752711534500122,0.015033011324703693
1789552330915183600,0.17018359375,-0.04976622387766838,0.1637955904006958,0.020623253658413887
1789552330925153500,0.180153564453125,-0.04891188070178032,0.1315242052078247,0.010214820504188538
1789552330935122400,0.190122314453125,-0.10986950993537903,0.12574434280395508,-0.018190188333392143
1789552330945091600,0.200091552734375,-0.16354525089263916,0.09831911325454712,0.024890435859560966
1789552330955060500,0.210060546875,-0.16727687418460846,0.08254601061344147,0.033251430839300156
1789552330965029400,0.220029296875,-0.10179667174816132,0.06605970859527588,0.02545582503080368
1789552330974999600,0.22999951171875,-0.01780855841934681,0.0599387027323246,0.013589845038950443
1789552330984968700,0.23996875,0.01792840100824833,0.0683170035481453,-0.018924422562122345
1789552330994937600,0.2499375,0.07839494198560715,0.09627886861562729,-0.012049738317728043
1789552331004906800,0.25990673828125,0.0549311600625515,0.08584459871053696,-0.019246665760874748
1789552331014875600,0.269875732421875,-0.03695429116487503,0.05561612546443939,0.05486351624131203
1789552331024844500,0.279844482421875,-0.06824243813753128,0.029736056923866272,0.02750486135482788
1789552331034814700,0.289814697265625,-0.10044325143098831,-0.0031044469214975834,0.024538099765777588
1789552331044783600,0.29978369140625,-0.07405984401702881,0.009562878869473934,-0.006050169467926025
1789552331054752500,0.30975244140625,-0.0014807175612077117,-0.026796460151672363,0.013141901232302189
1789552331064721700,0.3197216796875,0.010489658452570438,0.007278419099748135,0.008383897133171558
1789552331074690800,0.32969091796875,0.0028277444653213024,-0.002005360322073102,-0.03650740906596184
1789552331084660700,0.33966064453125,-0.03885551914572716,0.005251220893114805,-0.08203575015068054
1789552331094630000,0.3496298828125,-0.0881279930472374,-0.046716105192899704,-0.0389239639043808
1789552331104598800,0.359598876953125,-0.11231429129838943,-0.041257426142692566,-0.006954045966267586
1789552331114567700,0.369567626953125,-0.15686124563217163,-0.07649291306734085,0.0030466562602669
1789552331124536800,0.379536865234375,-0.13240943849086761,-0.08684754371643066,-0.015054849907755852
1789552331134505700,0.389505615234375,-0.18494348227977753,-0.0714491456747055,-0.01429265271872282
1789552331144476000,0.399475830078125,-0.15259087085723877,-0.09140661358833313,0.003358246060088277
1789552331154445000,0.409445068359375,-0.09693054109811783,-0.11451805382966995,0.008598282001912594
1789552331164414000,0.4194140625,-0.1326105147600174,-0.0808090940117836,0.01974254474043846
1789552331174382800,0.4293828125,-0.08880656957626343,-0.07067230343818665,0.014969894662499428
1789552331184352000,0.43935205078125,0.07700050622224808,-0.11204610764980316,0.003623230615630746
1789552331194322000,0.449322021484375,0.0932961255311966,-0.03664722666144371,-0.020599018782377243
1789552331204290800,0.459290771484375,0.04821280390024185,0.03104180470108986,-0.028734441846609116
1789552331214260000,0.469260009765625,0.1363237500190735,-0.009783654473721981,-0.024439295753836632
1789552331224228900,0.479228759765625,0.12312379479408264,0.004874649923294783,-0.00015206649550236762
1789552331234197800,0.48919775390625,0.16482970118522644,0.02526700682938099,-0.07786470651626587
1789552331244167000,0.4991669921875,0.15935690701007843,-0.12066356837749481,-0.02298760786652565
1789552331254136800,0.50913671875,0.12259622663259506,-0.09641309082508087,-0.02310904674232006
1789552331264105700,0.519105712890625,0.14474333822727203,-0.1255536675453186,0.013570137321949005
1789552331274075000,0.529074951171875,0.14074885845184326,-0.12779071927070618,0.08446108549833298
1789552331284043800,0.539043701171875,0.2602382302284241,-0.1202624961733818,0.045643117278814316
1789552331294012700,0.5490126953125,0.22490474581718445,-0.05729711055755615,0.016768859699368477
1789552331303982800,0.55898291015625,0.31956547498703003,-0.12357786297798157,0.006302370689809322
1789552331313951700,0.56895166015625,0.5680629014968872,-0.09845147281885147,-0.04349448159337044
1789552331323920600,0.578920654296875,0.633009135723114,-0.15778030455112457,0.0010381002211943269
1789552331333889800,0.588889892578125,0.5621211528778076,-0.0860680416226387,0.016210928559303284
1789552331343858700,0.598858642578125,0.6133949756622314,-0.04434429481625557,-0.05775411054491997
1789552331353827800,0.608827880859375,0.6011183261871338,-0.07335756719112396,-0.04099031165242195
1789552331363798000,0.618798095703125,0.49576714634895325,-0.04928286001086235,-0.009759952314198017
1789552331373767000,0.628766845703125,0.37398451566696167,-0.03736574947834015,-0.011642275378108025
1789552331383735800,0.63873583984375,0.3305360972881317,-0.08073718845844269,0.026865702122449875
1789552331393705000,0.648705078125,0.2773309350013733,-0.042811378836631775,-0.001014398061670363
1789552331403673900,0.658673828125,0.17154112458229065,-0.0200424175709486,-0.003756654914468527
1789552331413643800,0.668643798828125,0.1631963849067688,-0.04746578633785248,0.0347268208861351
1789552331423613000,0.678613037109375,0.28914472460746765,-0.04584791511297226,-0.0018426411552354693
1789552331433581800,0.688581787109375,0.3077186644077301,-0.01918993890285492,-0.03171877935528755
1789552331443550700,0.69855078125,0.4171713888645172,-0.05709337815642357,0.04830361530184746
1789552331453520000,0.708519775390625,0.5456510782241821,-0.07998085021972656,0.03960892930626869
1789552331463488800,0.71848876953125,0.5994852781295776,-0.06806586682796478,0.0057007623836398125
1789552331473458700,0.728458740234375,0.5628926753997803,-0.044435109943151474,-0.021920744329690933
1789552331483427800,0.738427734375,0.5262824296951294,-0.01979660801589489,-0.038183070719242096
1789552331493396700,0.748396728515625,0.5288872718811035,-0.06798277795314789,-0.04418610408902168
1789552331503365600,0.75836572265625,0.4311490058898926,-0.020131632685661316,-0.04000706970691681
1789552331513334800,0.768334716796875,0.35913339257240295,-0.0013052152935415506,-0.01938541606068611
1789552331523303700,0.7783037109375,0.3494799733161926,0.002989398315548897,-0.03818893060088158
1789552331533273900,0.78827392578125,0.30633196234703064,0.03900918364524841,-0.020901819691061974
1789552331543243000,0.798242919921875,0.24877972900867462,0.009375392459332943,0.07327714562416077
1789552331553212000,0.8082119140625,0.3051220774650574,0.001475657569244504,0.02003576047718525
1789552331563180800,0.818180908203125,0.286393404006958,0.0735652968287468,0.010361027903854847
1789552331573150000,0.82814990234375,0.2095596194267273,0.09333474189043045,0.06071580946445465
1789552331583120000,0.838119873046875,0.22283095121383667,0.12274988740682602,0.011352523230016232
1789552331593088800,0.8480888671875,0.2128765881061554,0.1311553567647934,0.02082725055515766
1789552331603058000,0.858057861328125,0.24096547067165375,0.12965066730976105,0.00016884441720321774
1789552331613026800,0.86802685546875,0.22471965849399567,0.14758679270744324,0.02089063450694084
1789552331622996000,0.877995849609375,0.29337194561958313,0.07893609255552292,0.04989725351333618
1789552331632964900,0.88796484375,0.3156817853450775,0.14803393185138702,0.0021257351618260145
1789552331642934800,0.897934814453125,0.35497647523880005,0.15032532811164856,-0.025836125016212463
1789552331652903700,0.907903564453125,0.35125550627708435,0.2068469226360321,-0.05047595873475075
1789552331662872800,0.917872802734375,0.4008278548717499,0.17495210468769073,-0.0193736981600523
1789552331672841700,0.927841796875,0.42307615280151367,0.2108057141304016,-0.05716395378112793
1789552331682811000,0.937810791015625,0.43304944038391113,0.1691804975271225,0.02490588277578354
1789552331692779800,0.94777978515625,0.42510494589805603,0.18765804171562195,0.055990297347307205
1789552331702749700,0.957749755859375,0.41033053398132324,0.1962805688381195,0.05102190375328064
1789552331712718800,0.96771875,0.3484346866607666,0.199905127286911,0.0687021017074585
1789552331722687700,0.977687744140625,0.2658447325229645,0.2300797998905182,0.039872050285339355
1789552331732656600,0.98765673828125,0.21815016865730286,0.22715511918067932,0.009878729470074177
1789552331742625800,0.997625732421875,0.16412076354026794,0.23239009082317352,0.03196991607546806
1789552331752594700,1.0075947265625,0.11693380773067474,0.2301114946603775,0.03566718474030495
1789552331762564900,1.01756494140625,0.05651387572288513,0.20780405402183533,0.027820179238915443
1789552331772534000,1.027533935546875,0.04529664292931557,0.22831971943378448,-0.018934808671474457
1789552331782503000,1.0375029296875,0.006358829792588949,0.24670885503292084,0.013076120987534523
1789552331792471800,1.047471923828125,-0.02100009098649025,0.23313018679618835,0.08714022487401962
1789552331802441000,1.05744091796875,-0.04964078962802887,0.29452377557754517,0.05090738832950592
1789552331812409900,1.067409912109375,-0.06281251460313797,0.2733050286769867,0.03906457871198654
1789552331822379800,1.0773798828125,-0.09405166655778885,0.2392866164445877,0.05796157196164131
1789552331832349000,1.087348876953125,-0.10162409394979477,0.2622542679309845,0.05073801055550575
1789552331842317800,1.09731787109375,-0.09733880311250687,0.2804622948169708,0.046781618148088455
1789552331852286700,1.10728662109375,-0.0941304937005043,0.28703975677490234,-0.022012358531355858
1789552331862255900,1.117255859375,-0.13266536593437195,0.2625291049480438,0.025958096608519554
1789552331872224800,1.127224853515625,-0.11500381678342819,0.2472982108592987,0.07342814654111862
1789552331882194700,1.137194580078125,-0.0762162059545517,0.24732351303100586,0.0408981628715992
1789552331892163800,1.147163818359375,-0.14735695719718933,0.32255834341049194,0.0726236030459404
1789552331902132700,1.1571328125,-0.11397210508584976,0.2830556631088257,0.10399111360311508
1789552331912101600,1.1671015625,-0.09682188183069229,0.3047598898410797,-0.007645668927580118
1789552331922070800,1.17707080078125,-0.14673244953155518,0.28744375705718994,0.042865440249443054
1789552331932039700,1.187039794921875,-0.19840151071548462,0.27942392230033875,0.062319301068782806
1789552331942009900,1.197009765625,-0.14873194694519043,0.23200713098049164,-0.0011203918838873506
1789552331951979000,1.20697900390625,-0.16673386096954346,0.2017240673303604,-0.061759237200021744
1789552331961948000,1.216947998046875,-0.317215234041214,0.2182588279247284,0.005677326582372189
1789552331971916800,1.226916748046875,-0.34725382924079895,0.1991405338048935,0.03526104986667633
1789552331981886000,1.236885986328125,-0.30025729537010193,0.18409846723079681,-0.014541924931108952
1789552331991854800,1.246854736328125,-0.3294188976287842,0.19162455201148987,0.03755589574575424
1789552332001824800,1.25682470703125,-0.262188196182251,0.1692502796649933,0.010065151378512383
1789552332011794000,1.2667939453125,-0.1754077672958374,0.1777433604001999,-0.11319446563720703
1789552332021762800,1.2767626953125,-0.29745617508888245,0.19564886391162872,-0.013590909540653229
1789552332031732000,1.28673193359375,-0.2914379835128784,0.1650475412607193,0.03229668736457825
1789552332041700900,1.296700927734375,-0.1752525120973587,0.1251789629459381,-0.05666967108845711
1789552332051669800,1.306669677734375,-0.19153906404972076,0.17300879955291748,-0.08294522017240524
1789552332061639700,1.3166396484375,-0.18146193027496338,0.1407454013824463,-0.011354653164744377
1789552332071608800,1.32660888671875,-0.08025781810283661,0.14213822782039642,-0.03947390615940094
1789552332081577500,1.336577392578125,-0.0494152195751667,0.15634699165821075,0.05002641677856445
1789552332091546600,1.346546630859375,0.03713671490550041,0.17057360708713531,0.042209237813949585
1789552332101515500,1.356515625,0.15322576463222504,0.14838974177837372,0.02202647179365158
1789552332111484400,1.366484375,0.14347566664218903,0.18383029103279114,-0.019885290414094925
1789552332121454600,1.37645458984375,0.13459615409374237,0.13825002312660217,0.07766284048557281
1789552332131423500,1.386423583984375,0.19478146731853485,0.1471412479877472,-0.00023968449386302382
1789552332141392400,1.396392333984375,0.15783490240573883,0.1322011798620224,-0.05333193019032478
1789552332151361500,1.406361572265625,0.07786603271961212,0.1104239821434021,0.01907861977815628
1789552332161330400,1.416330322265625,0.1078748032450676,0.10247204452753067,0.00022077605535741895
1789552332171299600,1.426299560546875,0.12980219721794128,0.13829049468040466,-0.04035940766334534
1789552332181269500,1.43626953125,0.058581020683050156,0.1816568821668625,-0.10321853309869766
1789552332191238400,1.44623828125,0.04376372694969177,0.10246991366147995,-0.05151831731200218
1789552332201207300,1.456207275390625,0.060810886323451996,0.062075886875391006,-0.021820077672600746
1789552332211176400,1.466176513671875,0.030980819836258888,0.11389381438493729,-0.054657917469739914
1789552332221145300,1.476145263671875,-0.023252857849001884,0.14151372015476227,-0.02570110186934471
1789552332231114500,1.486114501953125,-0.052686914801597595,0.10106056928634644,-0.011807125061750412
1789552332241084700,1.496084716796875,-0.10033512860536575,0.11073583364486694,0.019272230565547943
1789552332251053600,1.506053466796875,-0.10921543836593628,0.10937229543924332,0.0002537992550060153
1789552332261022500,1.5160224609375,-0.0970035120844841,0.11945049464702606,-0.05156359076499939
1789552332270991600,1.52599169921875,-0.1504182666540146,0.12167850136756897,-0.028966670855879784
1789552332280960500,1.53596044921875,-0.24543212354183197,0.13913019001483917,-0.0033127060160040855
1789552332290929700,1.5459296875,-0.2148744910955429,0.10447873920202255,-0.06990105658769608
1789552332300899600,1.555899658203125,-0.3229010999202728,0.1321290135383606,0.010898187756538391
1789552332310868500,1.565868408203125,-0.3946509063243866,0.13770434260368347,0.04419196397066116
1789552332320837400,1.57583740234375,-0.3986280858516693,0.1138453409075737,-0.004796885885298252
1789552332330806500,1.585806640625,-0.5031446218490601,0.1738378405570984,0.0020956413354724646
1789552332340775400,1.595775390625,-0.5763991475105286,0.1593228131532669,0.042163167148828506
1789552332350744600,1.60574462890625,-0.5986199975013733,0.10945086181163788,0.06408151239156723
1789552332360714500,1.615714599609375,-0.664012610912323,0.1464988887310028,-0.0073204971849918365
1789552332370683400,1.625683349609375,-0.7241420149803162,0.09280210733413696,0.017058879137039185
1789552332380652500,1.635652587890625,-0.7198337912559509,0.035959597676992416,0.05879727005958557
1789552332390621400,1.645621337890625,-0.6742655038833618,0.03916418179869652,-0.026383936405181885
1789552332400590300,1.65559033203125,-0.6871432065963745,0.03387114778161049,-0.021738318726420403
1789552332410559500,1.6655595703125,-0.6316618323326111,-0.011507784947752953,0.09502584487199783
1789552332420529700,1.67552978515625,-0.5070996880531311,0.0247892364859581,0.03080744668841362
1789552332430498600,1.68549853515625,-0.4731118977069855,0.07410485297441483,-0.04698002710938454
1789552332440467700,1.6954677734375,-0.4777556359767914,0.022482939064502716,0.03965713083744049
1789552332450436600,1.7054365234375,-0.3968658745288849,-0.00746004655957222,0.0134465666487813
1789552332460405500,1.715405517578125,-0.3888569474220276,0.03230467811226845,-0.017613081261515617
1789552332470374700,1.725374755859375,-0.40981948375701904,0.004906075540930033,-0.0006737797521054745
1789552332480343600,1.735343505859375,-0.4366718530654907,-0.04193306714296341,0.04987328499555588
1789552332490313500,1.7453134765625,-0.44203734397888184,-0.0703684389591217,0.042630016803741455
1789552332500282600,1.75528271484375,-0.38890913128852844,-0.0821012631058693,0.018000571057200432
1789552332510251500,1.76525146484375,-0.3631129562854767,-0.11647334694862366,-0.013319799676537514
1789552332520220400,1.775220458984375,-0.42313021421432495,-0.10347605496644974,0.05169728398323059
1789552332530189600,1.785189453125,-0.35375380516052246,-0.13610005378723145,0.030487600713968277
1789552332540158500,1.795158447265625,-0.26860031485557556,-0.14735722541809082,-0.026735473424196243
1789552332550128400,1.80512841796875,-0.23624396324157715,-0.1939990371465683,0.0020325244404375553
1789552332560097500,1.81509765625,-0.2807605564594269,-0.17286498844623566,0.03663817048072815
1789552332570066400,1.82506640625,-0.250002920627594,-0.15359115600585938,-0.015211976133286953
1789552332580035300,1.835035400390625,-0.20955269038677216,-0.15384042263031006,-0.04296956956386566
1789552332590004500,1.84500439453125,-0.2048088014125824,-0.1722750961780548,0.005898635368794203
1789552332599973400,1.854973388671875,-0.18109069764614105,-0.1509852558374405,0.03603949397802353
1789552332609943300,1.864943359375,0.019601663574576378,-0.22437983751296997,-0.04420953989028931
1789552332619912400,1.874912353515625,0.028672125190496445,-0.21792779862880707,0.08171962946653366
1789552332629881300,1.88488134765625,0.06827226281166077,-0.23754730820655823,0.1354992389678955
1789552332639850500,1.8948505859375,0.19041602313518524,-0.2344423234462738,0.04508225619792938
1789552332649819600,1.904819580078125,0.20108437538146973,-0.15866102278232574,-0.018639463931322098
1789552332659788500,1.91478857421875,0.09979689866304398,-0.13469043374061584,0.05873708426952362
1789552332669757700,1.9247578125,0.19031640887260437,-0.15023930370807648,0.056221459060907364
1789552332679727600,1.9347275390625,0.28150439262390137,-0.16141632199287415,-0.03177151083946228
1789552332689696500,1.944696533203125,0.15092693269252777,-0.09894655644893646,-0.023438479751348495
1789552332699665700,1.954665771484375,0.15918272733688354,-0.1149124726653099,-0.013606889173388481
1789552332709634600,1.964634521484375,0.20576727390289307,-0.10495118051767349,-0.04747430980205536
1789552332719603500,1.974603515625,0.18465960025787354,-0.10363797843456268,-0.019462114199995995
1789552332729572600,1.984572509765625,0.15956489741802216,-0.12635020911693573,0.029713952913880348
1789552332739542500,1.99454248046875,0.25103995203971863,-0.1300586611032486,0.022954318672418594
1789552332749511400,2.004511474609375,0.3375016152858734,-0.0956980288028717,-0.007421164773404598
1789552332759480600,2.01448046875,0.25690263509750366,-0.026980750262737274,-0.0020937772933393717
1789552332769449500,2.024449462890625,0.24774162471294403,-0.08762332797050476,0.04264999181032181
1789552332779418400,2.03441845703125,0.2966125011444092,-0.11823529750108719,0.02833949588239193
1789552332789387500,2.044387451171875,0.25250309705734253,-0.04175330698490143,-0.05258091911673546
1789552332799357400,2.054357421875,0.23823653161525726,-0.08930511027574539,-0.004535097163170576
1789552332809326300,2.064326416015625,0.28168120980262756,-0.12644103169441223,0.0025814019609242678
1789552332819295500,2.07429541015625,0.29497092962265015,-0.06728662550449371,-0.04442818462848663
1789552332829264400,2.084264404296875,0.26026487350463867,-0.07901119440793991,-0.04372910410165787
1789552332839233300,2.0942333984375,0.19038991630077362,-0.1322251409292221,0.03990613669157028
1789552332849202400,2.104202392578125,0.24416978657245636,-0.12315655499696732,0.007664843928068876
1789552332859171300,2.11417138671875,0.2973323464393616,-0.09427589923143387,-0.0027896612882614136
1789552332869141500,2.1241416015625,0.22322748601436615,-0.0636303722858429,0.006472280248999596
1789552332879110700,2.134110595703125,0.23835504055023193,-0.10897548496723175,0.014319817535579205
1789552332889079600,2.14407958984375,0.2839702069759369,-0.0566725991666317,-0.0361819714307785
1789552332899048400,2.15404833984375,0.24705958366394043,-0.006044310517609119,-0.08053958415985107
1789552332909017600,2.164017578125,0.2184188961982727,-0.06280026584863663,0.013471334241330624
1789552332918986500,2.173986572265625,0.3080723285675049,-0.0736079066991806,-0.011053450405597687
1789552332928956400,2.183956298828125,0.3061745762825012,0.053400106728076935,-0.07052503526210785
1789552332938925600,2.193925537109375,0.24199558794498444,0.07230561971664429,-0.04036792740225792
1789552332948894500,2.20389453125,0.16523262858390808,0.0852200910449028,0.0023244069889187813
1789552332958863600,2.213863525390625,0.19013744592666626,0.06633694469928741,0.00433003343641758
1789552332968832500,2.22383251953125,0.15375813841819763,0.05312100797891617,0.012693424709141254
1789552332978801400,2.233801513671875,0.08314868062734604,0.030491063371300697,0.05463847890496254
1789552332988770600,2.2437705078125,0.0674634650349617,0.05637485906481743,0.04237888380885124
1789552332998740500,2.253740478515625,0.05175613984465599,0.09899129718542099,-0.005583849735558033
1789552333008709400,2.26370947265625,0.024936774745583534,0.05434739589691162,0.018321482464671135
1789552333018678500,2.273678466796875,0.022527413442730904,0.04440075531601906,-0.0028610338922590017
1789552333028647400,2.2836474609375,-0.02388775534927845,0.037400636821985245,0.07595548778772354
1789552333038616300,2.2936162109375,-0.00833809096366167,0.03759105131030083,0.03351082280278206
1789552333048585500,2.30358544921875,-0.004351072479039431,0.07219643145799637,-0.11356064677238464
1789552333058554400,2.313554443359375,-0.09014347195625305,0.11973332613706589,-0.09027077257633209
1789552333068524500,2.323524658203125,-0.14004258811473846,0.04031413421034813,0.04821519926190376
1789552333078493700,2.33349365234375,-0.11976075172424316,0.02478231117129326,-0.038290929049253464
1789552333088462600,2.343462646484375,-0.1406407356262207,0.06843498349189758,-0.062430087476968765
1789552333098431500,2.353431396484375,-0.1970621943473816,0.07038548588752747,-0.01781335100531578
1789552333108401000,2.36340087890625,-0.13958506286144257,0.037999846041202545,0.017237043008208275
1789552333118369800,2.373369873046875,-0.07849587500095367,0.0343148298561573,0.009318932890892029
1789552333128339700,2.383339599609375,-0.11135395616292953,0.07136286050081253,-0.005794506054371595
1789552333138308900,2.393308837890625,-0.13134470582008362,0.0733937919139862,-0.016392555087804794
1789552333148277800,2.40327783203125,-0.14345063269138336,0.04814249649643898,0.03849972039461136
1789552333158246700,2.41324658203125,-0.12705329060554504,0.014948856085538864,0.05883269011974335
1789552333168215800,2.4232158203125,-0.12817181646823883,0.07661115378141403,-0.06866481155157089
1789552333178184700,2.433184814453125,-0.18243665993213654,0.056284043937921524,-0.03953755646944046
1789552333188153900,2.44315380859375,-0.18831105530261993,0.03889333829283714,-0.034745197743177414
1789552333198123800,2.453123779296875,-0.13587740063667297,0.02015560120344162,-0.09122445434331894
1789552333208092700,2.4630927734375,-0.20577499270439148,0.042509377002716064,-0.07015138864517212
1789552333218061600,2.4730615234375,-0.15578027069568634,-0.024803882464766502,0.020787037909030914
1789552333228030700,2.48303076171875,-0.08009803295135498,-0.020054934546351433,0.016377640888094902
1789552333237999600,2.49299951171875,-0.07735231518745422,0.008110923692584038,0.003495931625366211
1789552333247968800,2.50296875,-0.08901269733905792,-0.018454374745488167,0.017351293936371803
1789552333257937700,2.512937744140625,-0.06905656307935715,-0.052988648414611816,0.043472908437252045
1789552333267907600,2.522907470703125,-0.03400164097547531,-0.04075568541884422,0.006776946131139994
1789552333277876700,2.532876708984375,-0.05239689350128174,-0.039500270038843155,-0.047691889107227325
1789552333287845600,2.542845703125,-0.08259288221597672,-0.056110139936208725,-0.011020692996680737
1789552333297814500,2.552814453125,-0.03886697068810463,-0.010804977267980576,-0.0412377193570137
1789552333307783700,2.56278369140625,0.0367249920964241,-0.06794576346874237,-0.0279751755297184
1789552333317752600,2.572752685546875,0.006164418999105692,-0.061289723962545395,-0.004933505784720182
1789552333327721500,2.582721435546875,0.03171398863196373,-0.0154956029728055,-0.031692683696746826
1789552333337692000,2.59269189453125,0.011648666113615036,0.005803294479846954,0.04360979422926903
1789552333347660800,2.602660888671875,0.018154235556721687,-0.06362079083919525,0.0932505875825882
1789552333357629700,2.612629638671875,0.04252269119024277,-0.03201599046587944,0.031183751299977303
1789552333367598800,2.622598876953125,-0.018317222595214844,0.004887433256953955,0.005798234138637781
1789552333377567700,2.632567626953125,-0.0434473417699337,-0.03951811417937279,0.017530789598822594
1789552333387536600,2.64253662109375,-0.0056392434053123,-0.028307005763053894,-0.03359631076455116
1789552333397506800,2.6525068359375,-0.053827546536922455,0.03635694086551666,-0.04930390045046806
1789552333407475700,2.662475830078125,-0.09189236909151077,0.0070613715797662735,-0.04710625857114792
1789552333417444600,2.672444580078125,-0.132174551486969,-0.0038488004356622696,0.047083623707294464
1789552333427413800,2.682413818359375,-0.0829864963889122,0.012710202485322952,-0.020795825868844986
1789552333437382700,2.692382568359375,-0.12799657881259918,0.03219468891620636,0.002695385366678238
1789552333447351800,2.702351806640625,-0.14831995964050293,0.029774673283100128,-0.006624347064644098
1789552333457320700,2.71232080078125,-0.1461167335510254,-0.014521684497594833,0.04464283585548401
1789552333467290600,2.72229052734375,-0.15046167373657227,-0.020355071872472763,0.008504805155098438
1789552333477259500,2.732259521484375,-0.20561787486076355,0.01744184084236622,-0.008353803306818008
1789552333487228700,2.742228759765625,-0.17483305931091309,0.015592541545629501,-0.06992262601852417
1789552333497197600,2.752197509765625,-0.19728323817253113,-0.005606220569461584,-0.031673774123191833
1789552333507166700,2.762166748046875,-0.21057908236980438,-0.019121229648590088,0.029200496152043343
1789552333517135600,2.772135498046875,-0.1475526988506317,-0.029529662802815437,-0.05371356010437012
1789552333527104500,2.7821044921875,-0.15095676481723785,-0.05688032507896423,-0.06450042873620987
1789552333537074700,2.79207470703125,-0.18529155850410461,-0.03652578592300415,-0.005330583080649376
1789552333547043800,2.8020439453125,-0.14481550455093384,-0.048041027039289474,-0.046233806759119034
1789552333557012700,2.8120126953125,-0.13140329718589783,-0.04642954841256142,-0.012418853119015694
1789552333566982000,2.82198193359375,-0.054551925510168076,-0.046549391001462936,-0.045645780861377716
1789552333576950800,2.83195068359375,-0.0608455054461956,-0.03188150003552437,-0.01293417438864708
1789552333586919700,2.841919677734375,0.011055580340325832,-0.059416987001895905,0.017723336815834045
1789552333596888800,2.851888916015625,0.05728752538561821,-0.053828876465559006,-0.0059756007976830006
1789552333606858800,2.861858642578125,0.07727454602718353,-0.010304835624992847,-0.007230482529848814
1789552333616827600,2.87182763671875,0.06327510625123978,0.05126478523015976,-0.02407124824821949
1789552333626796800,2.881796875,0.1091560497879982,0.004893824923783541,-0.012348279356956482
1789552333636765700,2.891765625,0.08983028680086136,0.055810000747442245,-0.009294698014855385
1789552333646734600,2.901734619140625,0.14302507042884827,0.028691565617918968,-0.03358699008822441
1789552333656703700,2.911703857421875,0.09219091385602951,0.031675636768341064,-0.05836770310997963
1789552333666672600,2.921672607421875,0.07285476475954056,0.01812174543738365,-0.026215357705950737
1789552333676642600,2.931642578125,0.0691833347082138,0.006157760974019766,-0.08064637333154678
1789552333686611700,2.94161181640625,0.016349945217370987,0.04188566282391548,-0.09539443254470825
1789552333696580600,2.95158056640625,-0.00512685114517808,0.055578041821718216,-0.07794087380170822
1789552333706549800,2.9615498046875,-0.057256363332271576,0.026006033644080162,-0.01799577847123146
1789552333716518700,2.9715185546875,-0.051246676594018936,0.035474903881549835,-0.005606220569461584
1789552333726487600,2.981487548828125,-0.037702370434999466,0.02997361123561859,-0.001657018787227571
1789552333736456700,2.991456787109375,-0.10770702362060547,0.07644470781087875,0.044328849762678146
1789552333746427000,3.001427001953125,-0.10927189886569977,0.03729410842061043,0.044311538338661194
1789552333756395800,3.011395751953125,-0.14256274700164795,0.09243912249803543,0.00447064870968461
1789552333766365000,3.021364990234375,-0.18837150931358337,0.08567681908607483,-0.05845212563872337
1789552333776333800,3.031333740234375,-0.21513521671295166,0.0973111093044281,-0.03815404325723648
1789552333786302700,3.041302734375,-0.19012653827667236,0.05703345686197281,-0.029196767136454582
1789552333796271900,3.05127197265625,-0.21274343132972717,0.05210714414715767,-0.01949433982372284
1789552333806240800,3.06124072265625,-0.19428318738937378,0.10001102089881897,-0.00851599033921957
1789552333816210700,3.071210693359375,-0.14381496608257294,0.12177570164203644,-0.006429669912904501
1789552333826179800,3.081179931640625,-0.12422075122594833,0.08225865662097931,-0.0342855341732502
1789552333836148700,3.091148681640625,-0.16239476203918457,0.11468743532896042,0.06842885911464691
1789552333846117600,3.10111767578125,-0.14553269743919373,0.11742063611745834,0.04562767222523689
1789552333856086800,3.111086669921875,-0.11203945428133011,0.11191774904727936,-0.019712718203663826
1789552333866055700,3.1210556640625,-0.16077956557273865,0.11640703678131104,0.061956312507390976
1789552333876024800,3.13102490234375,-0.1686105877161026,0.09328653663396835,0.02953525446355343
1789552333885994800,3.140994873046875,-0.12192883342504501,0.05596499890089035,0.039751142263412476
1789552333895963600,3.150963623046875,-0.10858479887247086,0.08951283991336823,0.019423766061663628
1789552333905932500,3.1609326171875,-0.1686718463897705,0.08462566882371902,0.03517822548747063
1789552333915901700,3.170901611328125,-0.11273400485515594,0.06332357972860336,0.0177592895925045
1789552333925870600,3.18087060546875,-0.06752791255712509,0.012575446628034115,0.04812704771757126
1789552333935839700,3.19083984375,-0.1110953614115715,-0.01546524278819561,0.06933034211397171
1789552333945808600,3.20080859375,-0.10883992910385132,0.04658667743206024,0.05877916142344475
1789552333955777500,3.210777587890625,-0.05384166166186333,0.016894293949007988,0.003811516100540757
1789552333965747700,3.220747802734375,-0.07892917096614838,0.006291984114795923,0.02604757994413376
1789552333975716600,3.230716552734375,-0.036136165261268616,-0.02443104051053524,0.06692630052566528
1789552333985685500,3.240685546875,0.019120430573821068,-0.032041288912296295,0.028067853301763535
1789552333995655000,3.250655029296875,0.03211319446563721,0.03242851421236992,-0.027825772762298584
1789552334005623800,3.260623779296875,0.0011171960504725575,0.053770288825035095,-0.001088433898985386
1789552334015592700,3.2705927734375,0.02732137031853199,0.08672690391540527,-0.005709550809115171
1789552334025561900,3.280561767578125,0.0315704420208931,0.026083000004291534,0.04802744835615158
1789552334035531800,3.29053173828125,-0.02238786406815052,0.12000256776809692,0.0480269156396389
1789552334045500700,3.300500732421875,-0.04188992455601692,0.08844517916440964,0.041370343416929245
1789552334055469800,3.3104697265625,-0.029585588723421097,0.044562142342329025,0.000818123109638691
1789552334065438700,3.320438720703125,-0.10595466196537018,0.05871418118476868,-0.04523885250091553
1789552334075407400,3.330407470703125,-0.21392187476158142,0.07783860713243484,0.009199091233313084
1789552334085376300,3.340376220703125,-0.20582586526870728,0.024344487115740776,-0.012357067316770554
1789552334095345200,3.35034521484375,-0.22103410959243774,0.08222056925296783,-0.058942679315805435
1789552334105315300,3.3603154296875,-0.2356458157300949,0.06102127581834793,-0.10598715394735336
1789552334115284500,3.370284423828125,-0.2647016942501068,0.005869340617209673,-0.020296216011047363
1789552334125253400,3.38025341796875,-0.2620864808559418,0.004132693167775869,-0.0328061506152153
1789552334135222500,3.390222412109375,-0.2575945258140564,0.007814779877662659,-0.06296645104885101
1789552334145191400,3.40019140625,-0.2860485315322876,-0.0179987084120512,-0.0981750339269638
1789552334155160300,3.410160400390625,-0.3306189179420471,-0.01852814480662346,-0.017375262454152107
1789552334165129500,3.42012939453125,-0.31685304641723633,-0.09466845542192459,0.05205148458480835
1789552334175098400,3.430098388671875,-0.28008386492729187,-0.02287282608449459,0.0038983351550996304
1789552334185068300,3.440068359375,-0.2586959898471832,-0.04681570827960968,-0.006827545817941427
1789552334195037400,3.450037353515625,-0.28645944595336914,-0.08298463374376297,-0.0030682277865707874
1789552334205006300,3.46000634765625,-0.31849169731140137,-0.06721951812505722,-0.028604745864868164
1789552334214975200,3.469975341796875,-0.26502659916877747,-0.13458764553070068,-0.020922591909766197
1789552334224944400,3.4799443359375,-0.2876834571361542,-0.08492208272218704,-0.08997037261724472
1789552334234913300,3.489913330078125,-0.29092317819595337,-0.08938394486904144,-0.05140699818730354
1789552334244882400,3.49988232421875,-0.27365151047706604,-0.15888099372386932,-0.04831773042678833
1789552334254852400,3.509852294921875,-0.23927490413188934,-0.1561105102300644,0.0032679650466889143
1789552334264821200,3.5198212890625,-0.18450087308883667,-0.13923698663711548,-0.009736250154674053
1789552334274790400,3.529790283203125,-0.18032050132751465,-0.13600178062915802,0.04586522653698921
1789552334284759300,3.53975927734375,-0.14631779491901398,-0.11362776160240173,0.03231240063905716
1789552334294728200,3.549728271484375,-0.08340780436992645,-0.15119270980358124,-0.014997324906289577
1789552334304697300,3.559697265625,-0.11597134172916412,-0.1449017971754074,0.02334846556186676
1789552334314666200,3.569666259765625,-0.17838332056999207,-0.17551963031291962,0.08498945832252502
1789552334324635400,3.579635498046875,-0.10211944580078125,-0.21452933549880981,0.08224054425954819
1789552334334605300,3.589605224609375,-0.09385459125041962,-0.1494576632976532,0.006247776094824076
1789552334344574200,3.59957421875,-0.05564035847783089,-0.1400793492794037,-0.028299814090132713
1789552334354543000,3.609543212890625,-0.059838298708200455,-0.11532366275787354,0.018932677805423737
1789552334364512500,3.619512451171875,-0.027334151789546013,-0.1869371235370636,0.0577692911028862
1789552334374481400,3.6294814453125,0.001847434788942337,-0.13835041224956512,-0.011955995112657547
1789552334384450600,3.639450439453125,-0.030357640236616135,-0.13423849642276764,0.015856994315981865
1789552334394419500,3.64941943359375,0.019103920087218285,-0.1874532550573349,0.003224289044737816
1789552334404389400,3.659389404296875,0.01587696745991707,-0.14249642193317413,0.0022008363157510757
1789552334414358300,3.669358154296875,-0.010689129121601582,-0.16024266183376312,0.011036139912903309
1789552334424327400,3.679327392578125,-0.0035206989850848913,-0.13622096180915833,0.047215450555086136
1789552334434296300,3.68929638671875,0.06770554184913635,-0.1162073016166687,0.0371665433049202
1789552334444265500,3.699265380859375,0.0737016499042511,-0.12129287421703339,0.07250775396823883
1789552334454234400,3.709234375,0.038667235523462296,-0.046362172812223434,0.09179703146219254
1789552334464203300,3.719203369140625,0.05289170891046524,-0.07494082301855087,0.060143765062093735
1789552334474172400,3.72917236328125,0.029831131920218468,-0.032879918813705444,0.007633951026946306
1789552334484142300,3.739142333984375,-0.010706440545618534,-0.08075716346502304,0.05199741944670677
1789552334494111200,3.749111328125,-0.10283077508211136,-0.16672000288963318,0.12471263855695724
1789552334504080400,3.759080322265625,-0.0899738296866417,-0.19918127357959747,0.08453672379255295
1789552334514049300,3.76904931640625,-0.12669989466667175,-0.0609472393989563,-0.04260817915201187
1789552334524018200,3.77901806640625,-0.07859920710325241,-0.06370041519403458,-0.03687306120991707
1789552334533987300,3.7889873046875,-0.0751807689666748,-0.12023106962442398,0.05398174375295639
1789552334543956200,3.798956298828125,-0.0749935507774353,-0.10364090651273727,0.034629084169864655
1789552334553926100,3.808926025390625,-0.08788271993398666,-0.12406308948993683,-0.005513542331755161
1789552334563895300,3.818895263671875,-0.1918935328722,-0.11957273632287979,0.014434599317610264
1789552334573864200,3.8288642578125,-0.10736241191625595,-0.15461434423923492,0.04476187750697136
1789552334583833300,3.838833251953125,0.01540372334420681,-0.14370577037334442,-0.060870274901390076
1789552334593802200,3.84880224609375,-0.036385972052812576,-0.05446856841444969,-0.0977364107966423
1789552334603771100,3.858771240234375,-0.0010628675809130073,-0.09384606778621674,-0.018998192623257637
1789552334613740500,3.868740478515625,0.08606298267841339,-0.13532693684101105,0.0030245520174503326
1789552334623709400,3.87870947265625,0.04396719112992287,-0.04074423387646675,-0.0003904194163624197
1789552334633679400,3.888679443359375,0.038122083991765976,-0.08188341557979584,-0.006149771623313427
1789552334643648500,3.8986484375,0.1195056214928627,-0.09035146981477737,0.03160080313682556
1789552334653617400,3.908617431640625,0.07973451167345047,-0.09629324823617935,-0.001327053178101778
1789552334663586300,3.91858642578125,0.009884322062134743,-0.060028716921806335,-0.01011175662279129
1789552334673555500,3.928555419921875,0.05640149116516113,-0.07695230841636658,-0.02159317582845688
1789552334683524400,3.9385244140625,0.06537554413080215,-0.0771871954202652,-0.0711791068315506
1789552334693493200,3.9484931640625,0.06993487477302551,-0.05531758442521095,-0.0563114769756794
1789552334703462400,3.95846240234375,0.07328859716653824,-0.10848519951105118,-0.03309829905629158
1789552334713432300,3.968432373046875,0.09010858833789825,-0.07233092188835144,-0.07204703241586685
1789552334723401200,3.978401123046875,0.06272409856319427,-0.04847698658704758,-0.06330201029777527
1789552334733370400,3.988370361328125,0.0657835379242897,-0.08758417516946793,0.0010189254535362124
1789552334743339300,3.99833935546875,0.15356053411960602,-0.09725891053676605,-0.07400525361299515
1789552334753308400,4.008308349609375,0.1131419986486435,-0.08142375200986862,-0.034083135426044464
1789552334763277300,4.01827734375,0.17227669060230255,-0.09807010740041733,-0.011038269847631454
1789552334773246200,4.02824609375,0.1879483312368393,-0.06179092824459076,-0.038611575961112976
1789552334783215400,4.03821533203125,0.17662882804870605,-0.028258536010980606,-0.04392404854297638
1789552334793185300,4.048185302734375,0.24821646511554718,-0.07804500311613083,-0.011766910552978516
1789552334803154200,4.058154296875,0.2064218819141388,-0.06075708940625191,-0.03594202175736427
1789552334813123300,4.068123291015625,0.1073158010840416,-0.023275228217244148,-0.01014185044914484
1789552334823092200,4.07809228515625,0.14888349175453186,-0.10093220323324203,0.04176129400730133
1789552334833061000,4.08806103515625,0.21867455542087555,-0.11245863139629364,0.01350435707718134
1789552334843030300,4.0980302734375,0.15814410150051117,-0.0662730261683464,-0.00954104121774435
1789552334852999200,4.107999267578125,0.14427915215492249,-0.04755713418126106,0.021323930472135544
1789552334862968300,4.11796826171875,0.24136841297149658,-0.09229344129562378,0.02983752451837063
1789552334872938500,4.1279384765625,0.21266911923885345,-0.05545526742935181,-0.03346182033419609
1789552334882907400,4.137907470703125,0.0669819638133049,0.09253259748220444,-0.010942928493022919
1789552334892876300,4.147876220703125,0.21574534475803375,-0.05604089796543121,0.04807804524898529
1789552334902845400,4.157845458984375,0.24727636575698853,-0.04687616229057312,0.04830921068787575
1789552334912814300,4.167814453125,0.16661454737186432,0.027637487277388573,-0.01290168333798647
1789552334922783500,4.177783447265625,0.24328641593456268,0.006642456166446209,-0.0466868132352829
1789552334932752400,4.18775244140625,0.32495731115341187,-0.04065448418259621,-0.009939449839293957
1789552334942721300,4.19772119140625,0.21678104996681213,0.04133332520723343,0.02375992387533188
1789552334952691200,4.207691162109375,0.17018024623394012,0.04565669968724251,0.00015153386630117893
1789552334962660400,4.217660400390625,0.18112318217754364,0.00007110639853635803,-0.004748149774968624
1789552334972629200,4.227629150390625,0.1855248510837555,0.013998373411595821,-0.008608401753008366
1789552334982598400,4.237598388671875,0.11544403433799744,0.009676063433289528,0.03425091505050659
1789552334992567300,4.2475673828125,0.09900381416082382,0.009978597983717918,0.013231915421783924
1789552335002536200,4.2575361328125,0.10468699783086777,0.03247618302702904,-0.003531884169206023
1789552335012505300,4.26750537109375,0.0976962000131607,-0.0005760417552664876,0.008730906993150711
1789552335022474200,4.27747412109375,0.07917311787605286,0.04012451693415642,0.005489307455718517
1789552335032444200,4.287444091796875,0.09253579378128052,0.023692013695836067,-0.05493035912513733
1789552335042413300,4.297413330078125,0.059537895023822784,0.04026992619037628,-0.03946138918399811
1789552335052382200,4.30738232421875,0.0382499173283577,0.06836973875761032,-0.07902344316244125
1789552335062351000,4.31735107421875,0.01654515415430069,0.059050802141427994,-0.0043473439291119576
1789552335072320300,4.3273203125,0.07128217071294785,0.024685638025403023,0.03229295834898949
1789552335082290200,4.337290283203125,0.08117181807756424,0.037816088646650314,0.025007082149386406
1789552335092259000,4.347259033203125,0.0639270544052124,0.08268635720014572,0.03254808858036995
1789552335102228200,4.357228271484375,0.10450377315282822,0.06946083158254623,0.0095684714615345
1789552335112198100,4.3671982421875,0.0991915613412857,0.08964066952466965,-0.04951828345656395
1789552335122167000,4.3771669921875,0.06586769968271255,0.0748598575592041,-0.0434366911649704
1789552335132136200,4.38713623046875,0.021348165348172188,0.05678977817296982,-0.029708627611398697
1789552335142105000,4.39710498046875,0.06473372131586075,0.0713689848780632,-0.11616256088018417
1789552335152074000,4.407073974609375,-0.023139141499996185,0.12427587807178497,-0.06575611233711243
1789552335162043100,4.417043212890625,-0.06079064682126045,0.10438872128725052,0.02575569786131382
1789552335172012000,4.427011962890625,-0.045935001224279404,0.07406970113515854,-0.057861968874931335
1789552335181981200,4.436981201171875,-0.18129734694957733,0.02906760387122631,-0.06197015941143036
1789552335191951000,4.446951171875,-0.22881506383419037,0.03569434955716133,-0.05408773571252823
1789552335201920000,4.456919921875,-0.05956505984067917,-0.04743143171072006,-0.05883828178048134
1789552335211889200,4.46688916015625,-0.10846894979476929,0.046616505831480026,-0.05999755859375
1789552335221858000,4.476858154296875,-0.1630682796239853,0.026983946561813354,-0.12761707603931427
1789552335231827000,4.486826904296875,-0.1809074729681015,0.03947097808122635,0.017960891127586365
1789552335241796000,4.496796142578125,-0.12248117476701736,-0.013364274986088276,-0.05126238986849785
1789552335251765000,4.506764892578125,-0.19636179506778717,0.017377657815814018,-0.08040615916252136
1789552335261734000,4.51673388671875,-0.25933757424354553,-0.02124643325805664,0.03766641765832901
1789552335271704300,4.526704345703125,-0.2100033015012741,-0.029037244617938995,0.08299847692251205
1789552335281673200,4.536673095703125,-0.1456621289253235,0.058398328721523285,-0.013830594718456268
1789552335291642000,4.54664208984375,-0.10176204890012741,0.03838946670293808,-0.0047119311057031155
1789552335301611300,4.556611328125,-0.13034921884536743,0.06922540813684464,0.01588096283376217
1789552335311580200,4.566580078125,-0.19107887148857117,0.09829940646886826,0.04719441011548042
1789552335321549000,4.576549072265625,-0.1482565850019455,0.08269114792346954,0.037524472922086716
1789552335331518200,4.586518310546875,-0.19466403126716614,0.10275407880544662,0.03355476260185242
1789552335341487000,4.596487060546875,-0.2199411541223526,0.12549826502799988,0.011736816726624966
1789552335351456300,4.606456298828125,-0.24373649060726166,0.1055234968662262,-0.007470166776329279
1789552335361426200,4.61642626953125,-0.28429296612739563,0.09764453768730164,0.011592740193009377
1789552335371395000,4.62639501953125,-0.3143640458583832,0.056942377239465714,0.04428038001060486
1789552335381364200,4.6363642578125,-0.3365849554538727,-0.003549461020156741,0.013729128055274487
1789552335391333000,4.6463330078125,-0.33648985624313354,-0.020479975268244743,0.027727501466870308
1789552335401302000,4.656302001953125,-0.3723466694355011,-0.023478960618376732,0.0010780475568026304
1789552335411271200,4.666271240234375,-0.35402917861938477,-0.0341678224503994,0.049615222960710526
1789552335421240000,4.676239990234375,-0.3346096873283386,0.00020532972121145576,0.004739627707749605
1789552335431209000,4.686208984375,-0.2907186448574066,-0.00839641410857439,0.008540491573512554
1789552335441179100,4.69617919921875,-0.288972944021225,-0.03263251110911369,0.028850557282567024
1789552335451148000,4.70614794921875,-0.2692362666130066,-0.03819425776600838,0.047320909798145294
1789552335461117000,4.716116943359375,-0.22002556920051575,-0.034925758838653564,0.049744121730327606
1789552335471086000,4.726086181640625,-0.23409585654735565,-0.018853049725294113,0.04060814529657364
1789552335481055000,4.736054931640625,-0.2329975664615631,0.0015560849569737911,0.007703459821641445
1789552335491024100,4.746024169921875,-0.2208666056394577,-0.03343678638339043,0.033723074942827225
1789552335500993000,4.755992919921875,-0.22377930581569672,0.008359395898878574,-0.029872411862015724
1789552335510962000,4.7659619140625,-0.16175134479999542,-0.04310645908117294,-0.029341377317905426
1789552335520931000,4.77593115234375,-0.24576902389526367,-0.06786692887544632,0.10566943883895874
1789552335530901200,4.7859013671875,-0.21626731753349304,-0.07460233569145203,0.0974048525094986
1789552335540870100,4.7958701171875,-0.13075588643550873,-0.044389303773641586,-0.014816496521234512
1789552335550839300,4.80583935546875,-0.16734717786312103,-0.014507037587463856,0.010044111870229244
1789552335560808200,4.81580810546875,-0.12346228212118149,-0.1038166731595993,0.062369901686906815
1789552335570777000,4.825777099609375,-0.16069620847702026,-0.03249216452240944,-0.009905361570417881
1789552335580746200,4.835746337890625,-0.1646973341703415,-0.08345015347003937,-0.04092293232679367
1789552335590715100,4.845715087890625,-0.22198326885700226,-0.08141496777534485,0.03170120343565941
1789552335600684300,4.855684326171875,-0.14642591774463654,-0.12566392123699188,-0.04351924732327461
1789552335610654200,4.865654296875,-0.16438308358192444,-0.06430788338184357,-0.025784991681575775
1789552335620623000,4.875623046875,-0.06963393837213516,-0.1397525668144226,-0.01188329141587019
1789552335630592000,4.885592041015625,-0.0681644082069397,-0.12041615694761276,-0.03298244997859001
1789552335640561200,4.89556103515625,-0.08900710195302963,-0.1088806763291359,-0.06580990552902222
1789552335650530000,4.905530029296875,-0.048878058791160583,-0.1450360119342804,-0.021954301744699478
1789552335660499200,4.915499267578125,-0.005400358233600855,-0.15880216658115387,-0.025403892621397972
1789552335670468000,4.925468017578125,0.0246635340154171,-0.09523144364356995,-0.08577003329992294
1789552335680437000,4.93543701171875,0.05242485925555229,-0.09791750460863113,-0.07264410704374313
1789552335690407000,4.945406982421875,0.07659384608268738,-0.13218866288661957,0.03903475031256676
1789552335700376000,4.9553759765625,0.10162302851676941,-0.10096736252307892,0.003239469137042761
1789552335710345000,4.965344970703125,0.1373022049665451,-0.12986931204795837,-0.0008612662786617875
1789552335720314000,4.975314208984375,0.18450193107128143,-0.1160573661327362,-0.007186274044215679
1789552335730283000,4.985282958984375,0.23570360243320465,-0.17083752155303955,0.012301673181355
1789552335740252000,4.995251953125,0.18889695405960083,-0.11841559410095215,0.02321956865489483
1789552335750221000,5.005220947265625,0.19042932987213135,-0.14266979694366455,-0.030301712453365326
1789552335760190000,5.01518994140625,0.21493254601955414,-0.16977252066135406,0.02136334590613842
1789552335770159000,5.0251591796875,0.2826319634914398,-0.18852490186691284,0.016040218994021416
1789552335780129300,5.03512939453125,0.27092525362968445,-0.10739836096763611,0.012780776247382164
1789552335790098200,5.04509814453125,0.34055519104003906,-0.09799793362617493,-0.014569088816642761
1789552335800067000,5.055067138671875,0.3588881194591522,-0.14972957968711853,0.04754780977964401
1789552335810036200,5.0650361328125,0.3732052743434906,-0.1327306181192398,0.06790048629045486
1789552335820005000,5.075005126953125,0.3575621247291565,-0.15413470566272736,0.0698869377374649
1789552335829974300,5.084974365234375,0.3804653286933899,-0.09039647877216339,0.03730875626206398
1789552335839943200,5.094943115234375,0.41857409477233887,-0.0893344059586525,0.024020913988351822
1789552335849912000,5.104912109375,0.45479467511177063,-0.11471086740493774,0.00015233281010296196
1789552335859882200,5.11488232421875,0.40064141154289246,-0.10096975415945053,0.08245066553354263
1789552335869851100,5.12485107421875,0.46558019518852234,-0.12240740656852722,0.06896575540304184
1789552335879820000,5.134820068359375,0.4096362590789795,-0.061277471482753754,-0.015823969617486
1789552335889789200,5.1447890625,0.3714531660079956,-0.008078432641923428,0.0032692966051399708
1789552335899758000,5.154758056640625,0.40119534730911255,-0.04849936068058014,0.026036661118268967
1789552335909727000,5.16472705078125,0.3882795572280884,0.035714589059352875,-0.043102994561195374
1789552335919696100,5.174696044921875,0.36664271354675293,0.038963112980127335,-0.012862002477049828
1789552335929665000,5.1846650390625,0.3255400061607361,0.05775251239538193,-0.02714400365948677
1789552335939634200,5.19463427734375,0.25184181332588196,0.04549877345561981,-0.051782771944999695
1789552335949604000,5.20460400390625,0.17562589049339294,0.03580433502793312,0.03587677329778671
1789552335959573000,5.214572998046875,0.1950211524963379,0.01703091524541378,0.014041783288121223
1789552335969542100,5.224542236328125,0.23141804337501526,-0.017117999494075775,0.016028501093387604
1789552335979511000,5.234510986328125,0.09898623824119568,0.06388257443904877,0.010388991795480251
1789552335989480000,5.24447998046875,0.10395649075508118,0.09032829850912094,-0.05897144228219986
1789552335999449000,5.254448974609375,0.14413507282733917,-0.003171025775372982,0.005365204066038132
1789552336009418000,5.26441796875,-0.009463276714086533,0.06463439017534256,-0.025139974430203438
1789552336019387000,5.274386962890625,-0.04532061144709587,0.0572744756937027,-0.008392153307795525
1789552336029357300,5.284357421875,0.004878378473222256,0.0364173948764801,-0.0711040049791336
1789552336039326200,5.294326171875,0.002141980454325676,0.06812871992588043,-0.04796699434518814
1789552336049295000,5.304295166015625,0.01341753825545311,0.03627464920282364,-0.060808490961790085
1789552336059264300,5.31426416015625,0.01894333027303219,0.043848149478435516,0.016227439045906067
1789552336069233200,5.324233154296875,0.10468459874391556,0.027295803651213646,0.049726277589797974
1789552336079201000,5.334200927734375,0.10770462453365326,0.09415499120950699,-0.04887433350086212
1789552336089171000,5.3441708984375,0.060259610414505005,0.05395271256566048,-0.045348040759563446
1789552336099139800,5.354139892578125,0.03158216178417206,0.05981326475739479,-0.026793530210852623
1789552336109109000,5.36410888671875,0.10064804553985596,0.00885101594030857,-0.027582624927163124
1789552336119078000,5.374077880859375,0.10186857730150223,0.000059921123465755954,-0.040045686066150665
1789552336129047000,5.384047119140625,0.036506347358226776,0.012772253714501858,0.05107250437140465
1789552336139016000,5.394015869140625,0.13307549059391022,-0.05871284753084183,0.04644472897052765
1789552336148985900,5.40398583984375,0.16849447786808014,0.008887235075235367,-0.005944442003965378
1789552336158954800,5.413954833984375,0.15648068487644196,-0.00310497940517962,-0.044980525970458984
1789552336168924000,5.423923828125,0.2093478888273239,-0.040896035730838776,-0.035113777965307236
1789552336178892800,5.433892822265625,0.19274547696113586,-0.0509534627199173,-0.037220072001218796
1789552336188862000,5.443862060546875,0.16279104351997375,-0.01047554425895214,-0.032706812024116516
1789552336198830800,5.453830810546875,0.16619031131267548,-0.02448749914765358,-0.03894766420125961
1789552336208799700,5.4637998046875,0.17694495618343353,-0.02208186686038971,-0.057807907462120056
1789552336218769000,5.473768798828125,0.14212757349014282,-0.06341412663459778,0.0027334685437381268
1789552336228739000,5.483739013671875,0.14857135713100433,-0.01912549138069153,-0.01107502169907093
1789552336238708000,5.4937080078125,0.163108229637146,-0.041187651455402374,0.0026913906913250685
1789552336248677000,5.503677001953125,0.15013091266155243,-0.019957195967435837,0.05140646547079086
1789552336258646000,5.51364599609375,0.1788586974143982,-0.014886537566781044,-0.0165408942848444
1789552336268615000,5.523614990234375,0.1684550642967224,0.037627268582582474,-0.0036487970501184464
1789552336278584000,5.533583984375,0.16892457008361816,0.006923153530806303,0.028924591839313507
1789552336288553000,5.543552978515625,0.11477424949407578,0.05566566064953804,0.015990950167179108
1789552336298522000,5.553522216796875,0.0696730837225914,0.04163293167948723,0.03280295431613922
1789552336308492000,5.563491943359375,0.0035180358681827784,0.07551419734954834,0.04020600765943527
1789552336318461000,5.5734609375,-0.031496141105890274,0.10669848322868347,-0.0088187912479043
1789552336328429800,5.583429931640625,-0.08486322313547134,0.08761133998632431,0.019940152764320374
1789552336338399000,5.59339892578125,-0.12039671838283539,0.1221940889954567,-0.010602843016386032
1789552336348368000,5.603367919921875,-0.09021244943141937,0.1132647693157196,-0.07139109075069427
1789552336358337000,5.6133369140625,-0.14872956275939941,0.13517886400222778,-0.07921945303678513
1789552336368306000,5.623305908203125,-0.28093260526657104,0.12796622514724731,-0.023968715220689774
1789552336378274800,5.63327490234375,-0.29925835132598877,0.06889837235212326,0.03123461827635765
1789552336388245000,5.643244873046875,-0.3388635516166687,0.0707351565361023,0.030785609036684036
1789552336398214000,5.6532138671875,-0.3388307988643646,0.1058843582868576,0.048162735998630524
1789552336408182800,5.663182861328125,-0.2833313047885895,0.06331904977560043,0.08913759887218475
1789552336418152000,5.67315185546875,-0.19764889776706696,0.09751909971237183,0.005604356061667204
1789552336428120800,5.683120849609375,-0.20333102345466614,0.08934612572193146,-0.009161806665360928
1789552336438089700,5.69308984375,-0.26398077607154846,0.09020659327507019,0.002435727044939995
1789552336448059000,5.703058837890625,-0.20540349185466766,-0.010900584980845451,0.031264178454875946
1789552336458027800,5.71302783203125,-0.22785553336143494,0.06561283022165298,-0.03480059280991554
1789552336467998000,5.722998046875,-0.23460878431797028,0.0920252650976181,-0.0363558754324913
1789552336477967000,5.732967041015625,-0.1821727305650711,0.11386717855930328,-0.07749772071838379
1789552336487936000,5.74293603515625,-0.18593472242355347,0.04306944087147713,0.0008937568636611104
1789552336497905000,5.75290478515625,-0.18672753870487213,0.08338277041912079,0.031986162066459656
1789552336507873000,5.762873046875,-0.1281539797782898,0.09199250489473343,-0.017008811235427856
1789552336517843000,5.772843017578125,-0.08022665977478027,0.06082526594400406,-0.01465670671314001
1789552336527812000,5.78281201171875,-0.11582726985216141,0.06351079791784286,-0.01146677229553461
1789552336537781000,5.792781005859375,-0.13068237900733948,0.06473745405673981,-0.012596485204994678
1789552336547750000,5.80275,-0.079835444688797,0.05861297994852066,-0.06167561560869217
1789552336557719000,5.812718994140625,-0.11784088611602783,0.03760569915175438,0.013971209526062012
1789552336567688000,5.82268798828125,-0.12294429540634155,0.035118039697408676,0.001874332781881094
1789552336577657000,5.832656982421875,-0.12825597822666168,0.02058517001569271,-0.03370443359017372
1789552336587627000,5.842626953125,-0.06730500608682632,-0.0013235911028459668,-0.017038637772202492
1789552336597596000,5.852595947265625,-0.03825577720999718,-0.017895376309752464,-0.03158082813024521
1789552336607564800,5.862564697265625,-0.10770648717880249,0.039737824350595474,-0.019223762676119804
1789552336617534000,5.872533935546875,-0.07542365044355392,-0.0010950918076559901,-0.035359323024749756
1789552336627502800,5.8825029296875,-0.09765225648880005,0.04201136529445648,0.022542061284184456
1789552336637472000,5.892471923828125,-0.05651867017149925,-0.0022160164080560207,-0.00920388475060463
1789552336647441000,5.90244091796875,-0.08483020216226578,0.03150679171085358,-0.04027178883552551
1789552336657409800,5.912409912109375,-0.06198880076408386,0.004125502891838551,-0.0449935719370842
1789552336667380000,5.9223798828125,-0.06457419693470001,0.008993228897452354,-0.03684696555137634
1789552336677348900,5.932348876953125,-0.03555373474955559,-0.008025435730814934,-0.02900661714375019
1789552336687317800,5.94231787109375,-0.042152512818574905,0.016521984711289406,-0.041202299296855927
1789552336697287000,5.952286865234375,-0.0916644036769867,0.040529850870370865,-0.04327423870563507
1789552336707255800,5.962255859375,-0.04229685664176941,-0.0065436530858278275,-0.030778152868151665
1789552336717225000,5.972224853515625,-0.05355830118060112,-0.006102633662521839,-0.015594406053423882
1789552336727194000,5.982194091796875,-0.027336016297340393,0.005757754202932119,-0.015456187538802624
1789552336737164000,5.9921640625,-0.03161012381315231,0.029981069266796112,-0.010804444551467896
1789552336747133000,6.0021328125,-0.006841128226369619,0.03862275928258896,0.012506204657256603
1789552336757102000,6.01210205078125,-0.0010428938549011946,-0.007274424657225609,0.04556828364729881
1789552336767071000,6.022071044921875,0.01507216040045023,0.024291491135954857,-0.013495302759110928
1789552336777040100,6.0320400390625,-0.0028064390644431114,0.012211126275360584,-0.06973913311958313
1789552336787009000,6.042009033203125,-0.07921785861253738,0.0013305152533575892,-0.004856273997575045
1789552336796978000,6.05197802734375,-0.05760390684008598,-0.07717014849185944,0.04060494899749756
1789552336806947800,6.06194775390625,-0.016213323920965195,-0.08115024864673615,0.030059365555644035
1789552336816917000,6.0719169921875,-0.0008229167433455586,-0.02052764594554901,-0.07649770379066467
1789552336826886000,6.081885986328125,-0.015294267795979977,-0.05079047754406929,0.032943036407232285
1789552336836855000,6.09185498046875,-0.028549352660775185,-0.09137385338544846,0.07747774571180344
1789552336846824000,6.101823974609375,-0.032345954328775406,-0.038788940757513046,0.0024916534312069416
1789552336856792800,6.111792724609375,0.0022234732750803232,-0.06961263716220856,-0.001555552356876433
1789552336866762000,6.121761962890625,0.057072605937719345,-0.03136245161294937,-0.0592058002948761
1789552336876732000,6.13173193359375,0.05790084972977638,-0.03453480824828148,0.010305101983249187
1789552336886700800,6.14170068359375,0.07508250325918198,-0.044679585844278336,0.05379398912191391
1789552336896670000,6.151669921875,0.061280667781829834,-0.06315313279628754,0.06467299908399582
1789552336906638800,6.161638916015625,0.06210704520344734,0.006234992761164904,0.04350007325410843
1789552336916607700,6.171607666015625,0.11359606683254242,-0.03286980092525482,-0.024759674444794655
1789552336926577000,6.181576904296875,0.06806134432554245,-0.013510482385754585,-0.017435714602470398
1789552336936545800,6.1915458984375,0.06670526415109634,-0.03939720615744591,0.008451808243989944
1789552336946516000,6.201515869140625,0.09633105993270874,-0.056770872324705124,-0.012345882132649422
1789552336956485000,6.211485107421875,0.05222085863351822,-0.03602617606520653,-0.029643112793564796
1789552336966454000,6.2214541015625,0.07331229746341705,-0.04745886102318764,-0.033177126199007034
1789552336976423000,6.2314228515625,0.10639861226081848,-0.10174473375082016,0.007921839132905006
1789552336986392000,6.24139208984375,0.06427779048681259,-0.03202264755964279,0.0034027209039777517
1789552336996361000,6.25136083984375,0.05956026539206505,-0.03777241334319115,0.027699004858732224
1789552337006330000,6.261330078125,0.15462446212768555,-0.05939967557787895,-0.052799031138420105
1789552337016300000,6.271300048828125,0.13456526398658752,-0.07945115119218826,-0.039935432374477386
1789552337026269000,6.28126904296875,0.11119762808084488,-0.07438342273235321,0.02322755753993988
1789552337036238000,6.291238037109375,0.13788436353206635,-0.08784649521112442,-0.03549274802207947
1789552337046207000,6.30120703125,0.1683213710784912,-0.0587804913520813,0.012321647256612778
1789552337056175900,6.31117578125,0.10969293862581253,-0.03490684926509857,0.0015073491958901286
1789552337066145000,6.32114501953125,0.17235659062862396,-0.04417145624756813,0.005071990191936493
1789552337076114000,6.331114013671875,0.17122527956962585,-0.082151859998703,0.009382316842675209
1789552337086085400,6.34108544921875,0.1818278580904007,-0.03478647768497467,-0.014097975566983223
1789552337096054300,6.35105419921875,0.1954192966222763,-0.051240283995866776,-0.043174900114536285
1789552337106023400,6.3610234375,0.17155897617340088,-0.014621553011238575,-0.03922649845480919
1789552337115992300,6.370992431640625,0.18011650443077087,-0.04663141816854477,-0.03287086263298988
1789552337125961200,6.380961181640625,0.18025259673595428,-0.04003610089421272,-0.02888810634613037
1789552337135930400,6.390930419921875,0.14111824333667755,-0.06263062357902527,-0.0682658702135086
1789552337145899300,6.400899169921875,0.13260331749916077,-0.051719918847084045,-0.05769898369908333
1789552337155869200,6.410869140625,0.13585317134857178,-0.08311805874109268,-0.04048377647995949
1789552337165838300,6.42083837890625,0.10591977834701538,-0.0149238221347332,-0.015909191220998764
1789552337175807200,6.43080712890625,0.12609641253948212,-0.04055594652891159,-0.016939036548137665
1789552337185776000,6.440776123046875,0.1368372142314911,-0.04339301213622093,0.01299356296658516
1789552337195745300,6.450745361328125,0.11297981441020966,-0.010339722968637943,0.002927080262452364
1789552337205714200,6.460714111328125,0.2068415880203247,-0.053773749619722366,-0.04729907214641571
1789552337215683300,6.470683349609375,0.15457358956336975,-0.011448130942881107,-0.049675676971673965
1789552337225653200,6.4806533203125,0.10746201127767563,-0.005032575689256191,-0.027219103649258614
1789552337235622100,6.4906220703125,0.0995154082775116,-0.021690648049116135,-0.00016884441720321774
1789552337245591000,6.500591064453125,0.1634477823972702,-0.03177816793322563,-0.010466755367815495
1789552337255560200,6.510560302734375,0.1820869743824005,-0.02931048348546028,-0.009468070231378078
1789552337265529000,6.520529052734375,0.1554279327392578,0.03965260460972786,-0.03209269046783447
1789552337275498200,6.530498291015625,0.16543050110340118,-0.017886055633425713,-0.01245267502963543
1789552337285468200,6.54046826171875,0.09949143975973129,0.054725829511880875,-0.05103761702775955
1789552337295437000,6.55043701171875,0.09662827104330063,0.019872773438692093,-0.025055818259716034
1789552337305406200,6.56040625,0.10879785567522049,-0.0065013086423277855,-0.010910172015428543
1789552337315375000,6.570375,0.024155404418706894,0.06322503834962845,0.003724697045981884
1789552337325344000,6.580343994140625,0.04731025919318199,0.07854088395833969,-0.03447515144944191
1789552337335313400,6.5903134765625,-0.010067281313240528,0.10273410379886627,-0.038244858384132385
1789552337345282300,6.6002822265625,-0.051832038909196854,0.09731829911470413,0.02130475640296936
1789552337355251200,6.610251220703125,-0.02178252674639225,0.060378123074769974,0.008077899925410748
1789552337365221400,6.620221435546875,-0.10878666490316391,0.12352380156517029,-0.008566856384277344
1789552337375190300,6.630190185546875,-0.13953685760498047,0.09476672112941742,0.023133281618356705
1789552337385159200,6.6401591796875,-0.1151668056845665,0.0543961301445961,0.03062661923468113
1789552337395128300,6.65012841796875,-0.16520893573760986,0.07793235033750534,0.020121512934565544
1789552337405097200,6.66009716796875,-0.15672676265239716,0.09190888702869415,0.00968378596007824
1789552337415066400,6.67006640625,-0.1652265042066574,0.05361955240368843,0.0012333098566159606
1789552337425036300,6.680036376953125,-0.20158052444458008,0.059902217239141464,0.009066465310752392
1789552337435005200,6.690005126953125,-0.17660459876060486,0.025072863325476646,0.04538985341787338
1789552337444974000,6.69997412109375,-0.12808339297771454,0.023491743952035904,0.06181623041629791
1789552337454943200,6.709943115234375,-0.09565568715333939,0.09085480868816376,0.0009185242815874517
1789552337464912100,6.719912109375,-0.06465116143226624,0.06453745067119598,0.004120176658034325
1789552337474881300,6.72988134765625,-0.08867234736680984,0.047872450202703476,0.042038265615701675
1789552337484850200,6.73985009765625,-0.10206351429224014,0.042514704167842865,0.049379799515008926
1789552337494820000,6.749820068359375,-0.06671085208654404,0.04415388032793999,-0.06269560754299164
1789552337504789000,6.7597890625,-0.08649014681577682,0.04986955597996712,-0.01130911335349083
1789552337514758100,6.769758056640625,-0.063547283411026,-0.02551787719130516,0.028116855770349503
1789552337524727000,6.77972705078125,-0.019358251243829727,0.028131237253546715,-0.02117399498820305
1789552337534696200,6.7896962890625,-0.038186535239219666,0.02269625850021839,-0.001466602785512805
1789552337544665000,6.7996650390625,0.004495415836572647,0.08721452951431274,-0.06101221963763237
1789552337554634000,6.809634033203125,-0.02052764594554901,0.03567810356616974,-0.060515277087688446
1789552337564604200,6.819604248046875,-0.09154829382896423,0.04134504124522209,-0.06029103696346283
1789552337574573300,6.8295732421875,-0.061583470553159714,-0.0017004283145070076,-0.06885123252868652
1789552337584542200,6.839542236328125,-0.014341921545565128,-0.033363282680511475,-0.028073446825146675
1789552337594511400,6.849511474609375,-0.10769584029912949,-0.01047581061720848,-0.0326538160443306
1789552337604480300,6.859480224609375,-0.1184062734246254,0.04950869828462601,0.0018612833227962255
1789552337614449200,6.86944921875,-0.033076461404561996,-0.011276090517640114,-0.042447324842214584
1789552337624418300,6.879418212890625,-0.10355089604854584,0.07104381918907166,-0.04860695078969002
1789552337634388200,6.88938818359375,-0.05221660062670708,-0.004299673717468977,-0.06024602800607681
1789552337644357000,6.899357177734375,-0.1191658079624176,0.04909803718328476,-0.02069622278213501
1789552337654326300,6.909326171875,-0.09170115739107132,0.04295545816421509,-0.09532704949378967
1789552337664295200,6.919295166015625,-0.08816953748464584,0.04306624457240105,-0.012385562993586063
1789552337674264300,6.929264404296875,-0.0737469270825386,-0.04194824770092964,0.059895023703575134
1789552337684233200,6.939233154296875,-0.1119542345404625,0.08606164902448654,-0.048235438764095306
1789552337694202000,6.9492021484375,-0.08802812546491623,0.008549279533326626,-0.0293112825602293
1789552337704172000,6.959172119140625,-0.07951053977012634,0.002573146251961589,0.02954777143895626
1789552337714141200,6.96914111328125,-0.05203790217638016,-0.00765925133600831,-0.038305845111608505
1789552337724110000,6.979110107421875,-0.08767552673816681,0.019747605547308922,-0.08292710781097412
1789552337734079200,6.989079345703125,-0.0993279218673706,-0.013644971884787083,0.006405168678611517
1789552337744048000,6.999048095703125,-0.029982931911945343,-0.007690143771469593,0.02263393998146057
1789552337754017000,7.00901708984375,0.0005281048361212015,0.02298867329955101,-0.04346225783228874
1789552337763986200,7.018986083984375,-0.049849580973386765,0.0895136371254921,-0.0927128940820694
1789552337773956400,7.028956298828125,-0.04879283905029297,0.03326181694865227,-0.05578230693936348
1789552337783925200,7.03892529296875,-0.0563301183283329,-0.016167251393198967,0.022156434133648872
1789552337793894400,7.048894287109375,-0.04777657613158226,-0.04698588326573372,0.07655362784862518
1789552337803863300,7.05886328125,-0.02966388501226902,-0.027940554544329643,0.03834792226552963
1789552337813832200,7.068832275390625,-0.03551032394170761,-0.01859685406088829,0.041428398340940475
1789552337823801300,7.07880126953125,-0.02004321664571762,-0.047740090638399124,0.07068268954753876
1789552337833770200,7.088770263671875,-0.00968698225915432,-0.04394082725048065,0.013678262010216713
1789552337843740200,7.098740234375,-0.032293226569890976,-0.06933113932609558,0.026264626532793045
1789552337853709300,7.108709228515625,-0.0133890425786376,-0.06429137289524078,-0.02725905179977417
1789552337863678200,7.11867822265625,0.013200757093727589,-0.07843568921089172,0.034078873693943024
1789552337873647000,7.128647216796875,0.10419750958681107,-0.10458926111459732,0.08578574657440186
1789552337883616300,7.1386162109375,0.12007953226566315,-0.014177338220179081,-0.03428367152810097
1789552337893585200,7.148585205078125,0.10434504598379135,0.012583170086145401,0.004637096077203751
1789552337903554300,7.15855419921875,0.08538254350423813,-0.02815280854701996,0.07688732445240021
1789552337913524200,7.168524169921875,0.1575201153755188,-0.03211532533168793,0.03623843193054199
1789552337923493000,7.1784931640625,0.080153688788414,0.02220756746828556,-0.027057183906435966
1789552337933462000,7.1884619140625,0.01774970255792141,0.029345372691750526,-0.014688132330775261
1789552337943431200,7.19843115234375,0.10058999061584473,-0.0582963302731514,0.045936066657304764
1789552337953400000,7.208400146484375,0.10097881406545639,0.007240868639200926,-0.02232368104159832
1789552337963369200,7.218369140625,0.06412892043590546,0.005952431354671717,-0.08064477890729904
1789552337973338000,7.228338134765625,0.013708354905247688,-0.031553130596876144,0.019185412675142288
1789552337983308300,7.238308349609375,0.08963720500469208,-0.13665957748889923,-0.013204218819737434
1789552337993277200,7.248277099609375,0.033613353967666626,-0.050882887095212936,-0.06870795786380768
1789552338003246300,7.258246337890625,0.003233610186725855,-0.06030648201704025,-0.05184641852974892
1789552338013215200,7.26821533203125,0.07997845858335495,-0.060258813202381134,-0.06286098808050156
1789552338023184400,7.278184326171875,0.059309396892786026,-0.04827165976166725,-0.05252605676651001
1789552338033153300,7.2881533203125,0.05427921563386917,-0.018988339230418205,-0.015560584142804146
1789552338043122200,7.2981220703125,0.08117315173149109,-0.06036267802119255,-0.02461879327893257
1789552338053092400,7.30809228515625,0.14270788431167603,-0.10044431686401367,-0.015170430764555931
1789552338063061200,7.318061279296875,0.12923814356327057,-0.08778471499681473,-0.0005320995696820319
1789552338073030100,7.328030029296875,0.12696780264377594,-0.06411826610565186,-0.05188130587339401
1789552338082998300,7.337998291015625,0.16906119883060455,-0.05349065363407135,-0.03557077795267105
1789552338092967200,7.34796728515625,0.1625332534313202,-0.031751006841659546,0.006912234704941511
1789552338102936300,7.357936279296875,0.19872480630874634,-0.035574771463871,-0.03459819033741951
1789552338112905200,7.3679052734375,0.20660564303398132,-0.04210431128740311,-0.03608530014753342
1789552338122875100,7.377875244140625,0.2240498811006546,-0.01498241163790226,-0.08506216108798981
1789552338132844300,7.38784423828125,0.20999744534492493,-0.05155906453728676,-0.05312473699450493
1789552338142813200,7.397813232421875,0.17833618819713593,-0.022696789354085922,-0.08612130582332611
1789552338152782000,7.407781982421875,0.19889232516288757,-0.06355766952037811,-0.056406550109386444
1789552338162751200,7.417751220703125,0.14675535261631012,-0.032339297235012054,-0.03343651816248894
1789552338172720000,7.42772021484375,0.16602572798728943,-0.06835296005010605,-0.03959720954298973
1789552338182689300,7.437689208984375,0.16948916018009186,-0.041557297110557556,-0.012665728107094765
1789552338192659200,7.4476591796875,0.1333966702222824,-0.04857099801301956,0.00857271533459425
1789552338202628000,7.457628173828125,0.12805090844631195,0.01618429645895958,0.03864140063524246
1789552338212597200,7.46759716796875,0.15047872066497803,-0.0017896442441269755,-0.048540372401475906
1789552338222566100,7.477566162109375,0.12167023867368698,0.010991930961608887,-0.02089116722345352
1789552338232535300,7.487535400390625,0.07499940693378448,-0.022774022072553635,0.029146699234843254
1789552338242504400,7.49750439453125,0.10463719815015793,-0.024715466424822807,0.01549320574849844
1789552338252473300,7.507473388671875,0.08706379681825638,0.001172323478385806,-0.05085625499486923
1789552338262442200,7.517442138671875,0.03333159163594246,0.02527979016304016,0.062379755079746246
1789552338272412400,7.527412353515625,0.09683200716972351,0.022401979193091393,0.004739361349493265
1789552338282381300,7.53738134765625,0.14516039192676544,0.04001825675368309,-0.008956210687756538
1789552338292350200,7.54735009765625,0.10759729892015457,0.09099302440881729,-0.052690908312797546
1789552338302319400,7.5573193359375,0.011874768882989883,0.10107095539569855,0.06889038532972336
1789552338312288300,7.567288330078125,0.04139324650168419,0.06776173412799835,0.10108906775712967
1789552338322257400,7.57725732421875,0.019346799701452255,0.10700075328350067,0.06173234060406685
1789552338332226300,7.587226318359375,-0.05366029962897301,0.14927390217781067,0.004373443312942982
1789552338342196200,7.5971962890625,-0.08946143835783005,0.11412949860095978,0.09724905341863632
1789552338352165000,7.6071650390625,-0.08162029087543488,0.07484681159257889,0.09617367386817932
1789552338362134300,7.61713427734375,-0.1462717205286026,0.11692022532224655,0.006350839976221323
1789552338372103200,7.627103271484375,-0.21221984922885895,0.1198265329003334,-0.041252098977565765
1789552338382072300,7.637072265625,-0.2110978662967682,0.05722334235906601,-0.021988390013575554
1789552338392041200,7.647041259765625,-0.23573662340641022,0.08392126858234406,-0.023239808157086372
1789552338402010000,7.657010009765625,-0.26007285714149475,0.035045068711042404,0.018223479390144348
1789552338411980000,7.66697998046875,-0.21084699034690857,0.03435024991631508,0.06621257215738297
1789552338421949200,7.67694921875,-0.20278772711753845,0.05813787132501602,0.08073879033327103
1789552338431918000,7.68691796875,-0.17897213995456696,0.11429701745510101,0.06995005905628204
1789552338441887200,7.69688720703125,-0.11849521845579147,0.10087494552135468,0.07884261757135391
1789552338451856100,7.706856201171875,-0.07549981772899628,0.10886017233133316,-0.024406272917985916
1789552338461825000,7.716824951171875,-0.18221135437488556,0.09952472895383835,-0.019823240116238594
1789552338471794200,7.726794189453125,-0.12995852530002594,0.03730423003435135,0.06448684632778168
1789552338481763300,7.736763427734375,-0.07648305594921112,0.04950789734721184,-0.07011251151561737
1789552338491733200,7.746733154296875,-0.18279138207435608,0.11235743761062622,-0.061941929161548615
1789552338501702400,7.756702392578125,-0.1461193859577179,0.03738385811448097,0.004798749927431345
1789552338511671300,7.76667138671875,-0.12272138893604279,0.0037939392495900393,-0.018918031826615334
1789552338521640200,7.77664013671875,-0.19119232892990112,0.03887895494699478,0.04963359981775284
1789552338531609300,7.786609375,-0.21237671375274658,0.0062946476973593235,0.021379323676228523
1789552338541578200,7.796578125,-0.21373198926448822,0.013233247213065624,0.016652746126055717
1789552338551547400,7.80654736328125,-0.20958837866783142,-0.015601863153278828,0.01636006496846676
1789552338561517300,7.816517333984375,-0.21352826058864594,-0.01636246219277382,0.04300765320658684
1789552338571486200,7.826486328125,-0.160286083817482,0.05951818823814392,-0.09241434931755066
1789552338581455000,7.836455078125,-0.1687120497226715,0.02274659089744091,-0.09759712964296341
1789552338591424300,7.84642431640625,-0.3180442750453949,-0.006869623903185129,0.01943095587193966
1789552338601393200,7.85639306640625,-0.2781163156032562,-0.026756778359413147,-0.05414605885744095
1789552338611362300,7.8663623046875,-0.23554354906082153,-0.06222395971417427,-0.09408335387706757
1789552338621331200,7.876331298828125,-0.26318609714508057,-0.005690642632544041,-0.05890699103474617
1789552338631301000,7.886301025390625,-0.23549561202526093,-0.04129018262028694,0.0012064119800925255
1789552338641270300,7.896270263671875,-0.1569264978170395,-0.03865205496549606,-0.008523181080818176
1789552338651239200,7.9062392578125,-0.17061567306518555,0.020474115386605263,-0.08466508984565735
1789552338661208000,7.9162080078125,-0.15431393682956696,-0.018493790179491043,-0.06870396435260773
1789552338671177200,7.92617724609375,-0.13877998292446136,-0.057308029383420944,-0.006509298458695412
1789552338681146000,7.93614599609375,-0.12354084849357605,-0.04590250924229622,-0.04320046678185463
1789552338691115300,7.946115234375,-0.11496173590421677,-0.06821820139884949,-0.0823071226477623
1789552338701084200,7.956084228515625,-0.11629918217658997,-0.042080074548721313,-0.010238522663712502
1789552338711054300,7.966054443359375,0.0003352919884491712,-0.1150331124663353,0.020854948088526726
1789552338721023200,7.976023193359375,-0.008243282325565815,-0.10353491455316544,0.02008689194917679
1789552338730992400,7.985992431640625,-0.022714899852871895,-0.05409466102719307,0.010128001682460308
1789552338740961300,7.995961181640625,0.027467576786875725,-0.09577446430921555,0.03579048812389374
1789552338750930400,8.005930419921874,0.11020053923130035,-0.12980645895004272,0.07858189195394516
1789552338760899300,8.0158994140625,0.106855608522892,-0.1272897720336914,0.028962142765522003
1789552338770868200,8.0258681640625,0.14809651672840118,-0.0889732837677002,-0.017189105972647667
1789552338780837400,8.03583740234375,0.16399160027503967,-0.11034461855888367,-0.008464591577649117
1789552338790807300,8.045807373046875,0.1943545639514923,-0.15349581837654114,-0.005042695440351963
1789552338800776200,8.055776123046876,0.2591703236103058,-0.2002292275428772,-0.008071241900324821
1789552338810745300,8.065745361328124,0.24494343996047974,-0.19052654504776,-0.012665461748838425
1789552338820714200,8.07571435546875,0.2915556728839874,-0.1836039125919342,-0.01504180021584034
1789552338830683100,8.08568310546875,0.38836053013801575,-0.1550377905368805,-0.02250264585018158
1789552338840652300,8.09565234375,0.38489121198654175,-0.1536625325679779,0.06939052790403366
1789552338850621200,8.10562109375,0.34822243452072144,-0.10651818662881851,0.05255242437124252
1789552338860591000,8.115591064453126,0.40637972950935364,-0.11214597523212433,0.036505281925201416
1789552338870560300,8.125560302734375,0.37610092759132385,-0.07220602035522461,0.0031904669012874365
1789552338880529200,8.135529052734375,0.39518114924430847,-0.06390814483165741,0.06843578070402145
1789552338890498000,8.145498046875,0.42171287536621094,-0.06460695713758469,0.003500725142657757
1789552338900467200,8.15546728515625,0.38702839612960815,-0.057308029383420944,0.059772785753011703
1789552338910436000,8.16543603515625,0.3869391977787018,-0.010790595784783363,0.010718956589698792
1789552338920405200,8.1754052734375,0.344483345746994,0.025730663910508156,-0.04537094384431839
1789552338930374100,8.1853740234375,0.33288660645484924,-0.029320338740944862,-0.027484621852636337
1789552338940344300,8.19534423828125,0.3158831298351288,-0.023741548880934715,-0.0682980939745903
1789552338950313200,8.205313232421876,0.25634655356407166,-0.048947568982839584,0.02461879327893257
1789552338960282400,8.215282470703125,0.28650951385498047,-0.05331941321492195,0.010124805383384228
1789552338970251300,8.225251220703125,0.2528002858161926,0.03232385218143463,-0.02052125334739685
1789552338980220400,8.235220458984376,0.20741231739521027,0.06173287332057953,-0.10956617444753647
1789552338990189300,8.245189208984375,0.2214580923318863,0.04637868329882622,-0.039437685161828995
1789552339000158200,8.255158203125,0.22485361993312836,0.03428420424461365,-0.014370949938893318
1789552339010127400,8.26512744140625,0.17825043201446533,0.07277300953865051,-0.012528308667242527
1789552339020097300,8.27509716796875,0.15990976989269257,0.061833541840314865,0.05714930593967438
1789552339030066200,8.285066162109375,0.17825309932231903,0.0734047070145607,0.00740358792245388
1789552339040035300,8.295035400390624,0.11819614470005035,0.0786716416478157,-0.009813481941819191
1789552339050004200,8.305004150390625,0.06055255979299545,0.0814562439918518,0.09267667680978775
1789552339059973000,8.31497314453125,0.15317437052726746,0.0494687482714653,0.024394555017352104
1789552339069942300,8.3249423828125,0.10783165693283081,0.11219604313373566,-0.066358782351017
1789552339079911200,8.3349111328125,0.05794479325413704,0.06920330226421356,0.11145355552434921
1789552339089881300,8.34488134765625,0.14720915257930756,0.07619037479162216,-0.004002464935183525
1789552339099850500,8.3548505859375,0.22453376650810242,0.0324583426117897,-0.010598315857350826
1789552339109819400,8.3648193359375,0.1827210783958435,0.03983663022518158,-0.025531725957989693
1789552339119788300,8.374788330078125,0.22625257074832916,0.07092291116714478,-0.03771568834781647
1789552339129757400,8.38475732421875,0.24221555888652802,0.12932629883289337,-0.10312878340482712
1789552339139726300,8.394726318359375,0.12703651189804077,0.12585513293743134,-0.022715166211128235
1789552339149695500,8.404695556640625,0.1689876914024353,0.06710979342460632,0.0512235052883625
1789552339159664400,8.414664306640624,0.22010627388954163,0.07147764414548874,-0.004643221385776997
1789552339169634300,8.42463427734375,0.18954409658908844,0.08292391151189804,-0.07268352806568146
1789552339179603500,8.434603515625,0.14365462958812714,0.0893450602889061,-0.024169784039258957
1789552339189572400,8.444572265625,0.1570705771446228,0.06670499593019485,-0.0623033232986927
1789552339199541200,8.454541259765625,0.12218502908945084,0.09686582535505295,-0.04687562957406044
1789552339209510400,8.464510498046875,0.07047762721776962,0.1303074061870575,-0.2267114371061325
1789552339219479300,8.474479248046874,0.006155097857117653,0.05759964510798454,-0.10234981030225754
1789552339229448200,8.4844482421875,-0.08824437111616135,0.027353860437870026,0.04855342209339142
1789552339239417300,8.494417236328125,-0.010252637788653374,0.060390904545784,-0.15073145925998688
1789552339249387300,8.50438720703125,-0.09317042678594589,0.1280684918165207,-0.0889463871717453
1789552339259356200,8.514356201171875,-0.1883653849363327,0.12639948725700378,0.027341343462467194
1789552339269325300,8.5243251953125,-0.17742910981178284,0.13890542089939117,0.06601709872484207
1789552339279294200,8.534294189453124,-0.17677849531173706,0.15528972446918488,0.0051841093227267265
1789552339289263400,8.544263427734375,-0.28598859906196594,0.1664334535598755,0.0571085587143898
1789552339299232300,8.554232177734375,-0.2800936996936798,0.16523928940296173,0.037881601601839066
1789552339309201200,8.564201171875,-0.27376097440719604,0.2255268692970276,-0.08359582722187042
1789552339319171300,8.57417138671875,-0.41067755222320557,0.21563774347305298,-0.030825823545455933
1789552339329140500,8.584140380859376,-0.46862927079200745,0.15780960023403168,0.06424689292907715
1789552339339109400,8.594109375,-0.43576398491859436,0.17760434746742249,-0.020834974944591522
1789552339349078500,8.60407861328125,-0.4669693112373352,0.08035635948181152,0.02960263378918171
1789552339359047400,8.61404736328125,-0.5213577151298523,0.1275337189435959,-0.01672704890370369
1789552339369016300,8.624016357421874,-0.528035581111908,0.05865718796849251,0.009812682867050171
1789552339378985500,8.6339853515625,-0.46536555886268616,0.060929663479328156,-0.015223694033920765
1789552339388954400,8.643954345703126,-0.5015951991081238,0.0719868391752243,-0.03680381923913956
1789552339398923500,8.653923583984374,-0.5219928622245789,0.07523190230131149,-0.0076001291163265705
1789552339408893400,8.6638935546875,-0.4602179229259491,0.028859345242381096,-0.028475049883127213
1789552339418862300,8.6738623046875,-0.4386971890926361,0.04848897084593773,-0.06130330637097359
1789552339428831200,8.683831298828125,-0.46774590015411377,0.027901405468583107,0.03266952931880951
1789552339438800400,8.69380029296875,-0.38630643486976624,-0.010293117724359035,0.0013512879377231002
1789552339448769300,8.703769287109376,-0.39507222175598145,0.022968165576457977,0.039808932691812515
1789552339458738400,8.713738525390625,-0.3068382441997528,-0.022892266511917114,0.004372910596430302
1789552339468707300,8.723707275390625,-0.2553926110267639,-0.03615134581923485,0.010978881269693375
1789552339478677200,8.73367724609375,-0.242609441280365,-0.09158557653427124,0.052086371928453445
1789552339488646100,8.743646240234375,-0.21426808834075928,-0.11641822010278702,0.015910789370536804
1789552339498615300,8.753615234375,-0.2530016303062439,-0.08619267493486404,-0.0160005372017622
1789552339508584200,8.763584228515626,-0.21152342855930328,-0.11250656843185425,0.07822476327419281
1789552339518553300,8.77355322265625,-0.07587878406047821,-0.15868818759918213,0.003486610483378172
1789552339528522200,8.783522216796875,-0.0902838259935379,-0.10322518646717072,-0.0628572627902031
1789552339538491100,8.7934912109375,-0.08255533128976822,-0.19296173751354218,0.08052333444356918
1789552339548460300,8.803460205078125,-0.00743208359926939,-0.15856434404850006,0.01224335003644228
1789552339558429200,8.81342919921875,0.09790951758623123,-0.156923308968544,0.005981992464512587
1789552339568399400,8.8233994140625,0.0973326787352562,-0.09355578571557999,0.04174504801630974
1789552339578368500,8.833368408203125,0.18912091851234436,-0.15389661490917206,0.04104037582874298
1789552339588337400,8.84333740234375,0.1451856940984726,-0.12840910255908966,-0.032155539840459824
1789552339598306300,8.853306396484374,0.12061456590890884,-0.1017196998000145,0.07576240599155426
1789552339608275500,8.863275390625,0.2597261071205139,-0.14320988953113556,0.05501611530780792
1789552339618244400,8.873244384765625,0.23091630637645721,-0.06955511122941971,-0.05679430812597275
1789552339628213500,8.883213623046874,0.17345701158046722,-0.06124817579984665,-0.03280641511082649
1789552339638182400,8.893182373046875,0.17874178290367126,-0.08005275577306747,-0.015562181361019611
1789552339648152300,8.90315234375,0.27212631702423096,-0.09434940665960312,-0.015283082611858845
1789552339658121500,8.91312158203125,0.23158769309520721,-0.05295003205537796,-0.029561620205640793
1789552339668090400,8.92309033203125,0.2441181242465973,-0.07292427122592926,0.02239079214632511
1789552339678059300,8.933059326171875,0.27814215421676636,-0.09903710335493088,0.00592633243650198
1789552339688028400,8.9430283203125,0.24519456923007965,-0.04404495656490326,-0.00152332813013345
1789552339697997300,8.952997314453125,0.24201422929763794,-0.049431730061769485,-0.01062121894210577
1789552339707966200,8.96296630859375,0.23996812105178833,-0.049610961228609085,-0.027634557336568832
1789552339717935400,8.972935302734374,0.21124140918254852,-0.08583687990903854,-0.015401060692965984
1789552339727905300,8.9829052734375,0.1980915069580078,-0.06783656775951385,-0.04434243217110634
1789552339737874200,8.992874267578125,0.17604613304138184,-0.04467053338885307,-0.04339674115180969
1789552339747843300,9.00284326171875,0.1905995011329651,-0.06392279267311096,0.0036365464329719543
1789552339757812200,9.012812255859375,0.2022646814584732,-0.07746869325637817,0.04686577618122101
1789552339767781400,9.022781494140625,0.20218345522880554,-0.08636365085840225,0.015974972397089005
1789552339777750300,9.032750244140624,0.1819024235010147,-0.03981585428118706,-0.019108446314930916
1789552339787719200,9.04271923828125,0.16146771609783173,-0.08837620168924332,0.03489859402179718
1789552339797688300,9.052688232421875,0.13011272251605988,-0.01571265049278736,0.009651828557252884
1789552339807657200,9.0626572265625,0.20113258063793182,-0.034152377396821976,-0.09280797094106674
1789552339817627400,9.07262744140625,0.14823980629444122,-0.009513876400887966,-0.08640412986278534
1789552339827596500,9.082596435546876,0.1469753384590149,-0.029223665595054626,0.010897122323513031
1789552339837565400,9.0925654296875,0.1701195389032364,-0.022826751694083214,-0.03666453808546066
1789552339847534300,9.102534423828125,0.16923962533473969,0.015445268712937832,-0.04405028373003006
1789552339857503500,9.11250341796875,0.11872132122516632,0.018704712390899658,-0.021446969360113144
1789552339867472400,9.122472412109374,0.09055866301059723,-0.0005113269435241818,0.06553240120410919
1789552339877441300,9.132441162109375,0.13893817365169525,-0.03434891998767853,0.08149538934230804
1789552339887410400,9.142410400390625,0.11873730272054672,0.051411792635917664,0.03630021587014198
1789552339897380400,9.15238037109375,0.12192030996084213,0.06141755357384682,0.02558259107172489
1789552339907349200,9.162349365234375,0.10561617463827133,0.03033606708049774,0.07902291417121887
1789552339917318400,9.172318359375,0.06157974153757095,0.05768300220370293,0.020290091633796692
1789552339927287300,9.182287353515624,0.06553293764591217,0.02852698229253292,0.01053226925432682
1789552339937256400,9.19225634765625,0.06049263849854469,0.03664110228419304,-0.00983425509184599
1789552339947225300,9.202225341796876,0.05462063476443291,0.04078897461295128,-0.09165455400943756
1789552339957194200,9.2121943359375,0.02009514905512333,0.05170287564396858,-0.07698852568864822
1789552339967163400,9.222163330078125,0.0191382747143507,0.012632970698177814,0.010357832536101341
1789552339977132300,9.23213232421875,0.04101587459445,0.05086797475814819,-0.03808693215250969
1789552339987102200,9.242102294921875,0.04139111563563347,0.03467275947332382,-0.09897824376821518
1789552339997071400,9.2520712890625,0.008199340663850307,0.05507203936576843,-0.09880886971950531
1789552340007040300,9.262040283203126,0.051234424114227295,-0.021954035386443138,-0.04722956195473671
1789552340017009200,9.272009033203124,0.08659694343805313,-0.005534048657864332,-0.08428531885147095
1789552340026978300,9.281978271484375,0.04586789011955261,0.0927155539393425,-0.10957043617963791
1789552340036947200,9.291947265625,0.05838554725050926,0.04099803417921066,-0.09200502187013626
1789552340046916400,9.301916259765624,0.019471701234579086,0.04965730011463165,-0.05864866450428963
1789552340056885200,9.31188525390625,0.062422364950180054,0.0025537051260471344,-0.015916116535663605
1789552340066854100,9.321854248046876,0.07087284326553345,0.036021918058395386,-0.06582401692867279
1789552340076824600,9.331824462890625,0.03128042444586754,0.039454732090234756,-0.026025742292404175
1789552340088039700,9.343039794921875,0.033884197473526,0.05679936707019806,-0.0598076730966568
1789552340098009900,9.353009765625,0.043652936816215515,0.018430938944220543,-0.07003927230834961
1789552340107978800,9.362978759765625,0.01782107539474964,0.05289117619395256,-0.03880491852760315
1789552340117948000,9.372947998046875,0.024767665192484856,0.023456590250134468,-0.07648385316133499
1789552340127916800,9.382916748046876,0.010543454438447952,-0.011333614587783813,-0.0597381666302681
1789552340137885700,9.3928857421875,0.004070641472935677,0.008589759469032288,-0.08032200485467911
1789552340147854800,9.402854736328125,0.026094185188412666,-0.011553059332072735,-0.02256576344370842
1789552340157823700,9.41282373046875,0.022962840273976326,-0.004590757191181183,0.04549717903137207
1789552340167793000,9.42279296875,0.03537263721227646,0.01643516682088375,0.05221393704414368
1789552340177761800,9.43276171875,0.04445135220885277,0.043295543640851974,-0.04242921620607376
1789552340187731700,9.442731689453124,0.014142717234790325,0.028294488787651062,0.012677978724241257
1789552340197700900,9.452700927734375,0.006468818057328463,-0.02382783405482769,0.05443447828292847
1789552340207669800,9.462669677734375,0.002144643571227789,-0.0041217743419110775,-0.0028250813484191895
1789552340217638700,9.472638671875,-0.03148335590958595,0.00896579772233963,-0.06375660747289658
1789552340227607800,9.48260791015625,-0.09700484573841095,0.035906337201595306,-0.007383613847196102
1789552340237576700,9.49257666015625,-0.029409021139144897,0.04561329260468483,-0.02364860475063324
1789552340247545600,9.502545654296876,-0.045106757432222366,0.07227446138858795,-0.05548589676618576
1789552340257514800,9.5125146484375,-0.13389015197753906,0.07655709236860275,0.008815329521894455
1789552340267483600,9.522483642578125,-0.15745007991790771,0.05782867968082428,0.0246073417365551
1789552340277453600,9.53245361328125,-0.1569126546382904,0.06564825028181076,0.028986910358071327
1789552340287422700,9.542422607421875,-0.2003972828388214,0.06143619492650032,0.040050212293863297
1789552340297391600,9.5523916015625,-0.2011411041021347,0.051647480577230453,0.036252278834581375
1789552340307360800,9.56236083984375,-0.21386462450027466,0.024648088961839676,0.09038688987493515
1789552340317329700,9.57232958984375,-0.24411199986934662,0.0463845431804657,0.033731330186128616
1789552340327298600,9.582298583984375,-0.2722054123878479,0.056723468005657196,0.0032722260802984238
1789552340337267700,9.592267822265624,-0.30338865518569946,0.028677716851234436,-0.04012797772884369
1789552340347236600,9.602236572265625,-0.31245723366737366,0.009734652936458588,0.04159591346979141
1789552340357205500,9.61220556640625,-0.2654505670070648,-0.015174957923591137,0.02203233167529106
1789552340367174700,9.622174560546876,-0.2548448145389557,0.00038456046604551375,-0.007582818623632193
1789552340377144800,9.632144775390625,-0.25480058789253235,-0.005490106530487537,0.06968586891889572
1789552340387113700,9.64211376953125,-0.19875171780586243,-0.016641560941934586,0.0021696772892028093
1789552340397083000,9.652082763671874,-0.1316850632429123,-0.04291391000151634,0.009693107567727566
1789552340407051800,9.6620517578125,-0.1939425766468048,0.0002545981842558831,0.08750774711370468
1789552340417020700,9.672020751953125,-0.08860203623771667,-0.026917101815342903,0.010061422362923622
1789552340426989800,9.68198974609375,-0.09813375771045685,0.01255014631897211,-0.02917972393333912
1789552340436958700,9.691958740234375,-0.10540471971035004,-0.0010812433902174234,0.015847405418753624
1789552340446928000,9.701927978515625,-0.055757805705070496,-0.048296160995960236,-0.006462426856160164
1789552340456896800,9.711896728515624,-0.08659294992685318,-0.0009105347562581301,-0.02491600252687931
1789552340466866700,9.72186669921875,-0.03886617347598076,-0.02941754274070263,0.012867595069110394
1789552340476835800,9.7318359375,-0.032707612961530685,-0.04840348660945892,0.058340005576610565
1789552340486804700,9.7418046875,-0.011463310569524765,0.008332764729857445,-0.0329587496817112
1789552340496773600,9.751773681640625,-0.062429290264844894,-0.025551965460181236,0.05397322028875351
1789552340506742800,9.76174267578125,-0.023081351071596146,-0.03185193985700607,0.07204223424196243
1789552340516711700,9.771711669921874,-0.01948847994208336,0.022706111893057823,-0.03305115923285484
1789552340526680800,9.781680908203125,-0.012724583968520164,0.014857509173452854,-0.08038885146379471
1789552340536649700,9.791649658203125,-0.046057239174842834,-0.044019121676683426,-0.04183666408061981
1789552340546619600,9.80161962890625,-0.056838516145944595,-0.08132095634937286,-0.009886186569929123
1789552340556588500,9.811588623046875,-0.018858643248677254,-0.06887174397706985,0.02346298098564148
1789552340566557700,9.8215576171875,0.01619308441877365,-0.050644535571336746,-0.01483513880521059
1789552340576526600,9.831526611328124,0.007931426167488098,-0.025583656504750252,-0.02003283053636551
1789552340586495700,9.841495849609375,0.0316372886300087,-0.08857087790966034,-0.021320734173059464
1789552340596464600,9.851464599609375,0.04589665308594704,-0.09386737644672394,0.017412014305591583
1789552340606433500,9.86143359375,0.0881224051117897,-0.03504480421543121,-0.06124178692698479
1789552340616402700,9.871402587890625,0.15723170340061188,-0.06798118352890015,-0.14266712963581085
1789552340626371800,9.881371826171875,0.09061139076948166,-0.008809470571577549,-0.08915916830301285
1789552340636341800,9.891341796875,0.10118414461612701,-0.024748755618929863,-0.06302130967378616
1789552340646311000,9.901310791015625,0.19366933405399323,-0.06406447291374207,-0.09537126123905182
1789552340656279800,9.91127978515625,0.1510627567768097,-0.028787972405552864,-0.05634423345327377
1789552340666248700,9.921248779296874,0.11954104155302048,-0.056296829134225845,0.06045988202095032
1789552340676217900,9.9312177734375,0.17161649465560913,-0.08253695070743561,0.0451352521777153
1789552340686186800,9.941186767578126,0.12591558694839478,-0.061170678585767746,-0.01961364783346653
1789552340696156000,9.951156005859374,0.07354293018579483,-0.06550443917512894,-0.017797905951738358
1789552340706124800,9.961124755859375,0.0767456442117691,-0.12564846873283386,0.04610278084874153
1789552340716093700,9.97109375,0.1395277976989746,-0.1312781274318695,0.02268107794225216
1789552340726063600,9.981063720703125,0.12055703997612,-0.06018078327178955,-0.08170551806688309
1789552340736032800,9.99103271484375,0.1075669378042221,-0.05973763391375542,-0.022042185068130493
1789552340746001700,10.001001708984376,0.20655743777751923,-0.11082558333873749,0.03593989089131355
1789552340755970800,10.010970703125,0.25714579224586487,-0.0743088498711586,0.028964007273316383
1789552340765939700,10.020939697265625,0.2739521861076355,-0.028190093114972115,0.015673767775297165
1789552340775908600,10.03090869140625,0.28992342948913574,0.009213205426931381,0.010234794579446316
1789552340785877800,10.040877685546874,0.3187015652656555,-0.015173093415796757,0.06500429660081863
1789552340795846700,10.0508466796875,0.27977892756462097,0.0032519858796149492,0.08207143098115921
1789552340805815800,10.06081591796875,0.3025851547718048,0.0456596314907074,-0.012315521948039532
1789552340815785700,10.07078564453125,0.3010844588279724,0.02466326765716076,-0.03773805871605873
1789552340825754600,10.080754638671875,0.18264225125312805,0.030488399788737297,0.03928136080503464
1789552340835723500,10.0907236328125,0.18982239067554474,0.0724310576915741,0.056235574185848236
1789552340845692700,10.100692626953125,0.24678075313568115,0.08050096780061722,-0.07345397770404816
1789552340855661600,10.11066162109375,0.16748620569705963,0.11676709353923798,-0.024829182773828506
1789552340865630700,10.120630615234376,0.15982401371002197,0.0789153203368187,0.04362497478723526
1789552340875600000,10.130599853515625,0.19656658172607422,0.04951348900794983,-0.013401293195784092
1789552340885568800,10.14056884765625,0.15220844745635986,0.09376031160354614,-0.0022120214998722076
1789552340895538000,10.150537841796876,0.07841065526008606,0.1133265569806099,0.05167357996106148
1789552340905507800,10.1605078125,0.10007093846797943,0.09752336144447327,0.025616679340600967
1789552340915476700,10.170476806640625,0.08475163578987122,0.14298512041568756,-0.003578489413484931
1789552340925446000,10.18044580078125,0.04073943942785263,0.1528467983007431,-0.015978965908288956
1789552340935414800,10.190414794921875,0.07002861797809601,0.13297615945339203,-0.01955665647983551
1789552340945383700,10.2003837890625,0.028300879523158073,0.14659343659877777,-0.023065105080604553
1789552340955352800,10.210352783203126,-0.0625360831618309,0.1670750081539154,0.009440373629331589
1789552340965321700,10.22032177734375,0.00018615495355334133,0.12322499603033066,0.01895265281200409
1789552340975291000,10.230290771484375,-0.022037656977772713,0.09895214438438416,0.019107647240161896
1789552340985259800,10.240259765625,-0.06864750385284424,0.1062430813908577,-0.05156385898590088
1789552340995229700,10.250229736328125,-0.07151786237955093,0.05720975995063782,0.056653693318367004
1789552341005198600,10.260198486328125,-0.11977167427539825,0.10511550307273865,0.010408432222902775
1789552341015167700,10.270167724609376,-0.16553837060928345,0.075539231300354,-0.06690819561481476
1789552341025136600,10.28013671875,-0.27263766527175903,0.037158820778131485,-0.006494651082903147
1789552341035105800,10.290105712890625,-0.32722872495651245,0.06088252365589142,-0.06557101756334305
1789552341045074700,10.30007470703125,-0.2334415167570114,-0.05488348752260208,-0.10340069234371185
1789552341055043600,10.310043701171875,-0.28237149119377136,-0.027663318440318108,0.019178487360477448
1789552341065012700,10.3200126953125,-0.22377237677574158,-0.04951295629143715,-0.009191101416945457
1789552341074981600,10.329981689453126,-0.03412041813135147,-0.08871442079544067,-0.07272826880216599
1789552341084951600,10.33995166015625,0.015528093092143536,-0.015781892463564873,-0.0022690133191645145
1789552341094920400,10.34992041015625,0.08675486594438553,-0.04246276989579201,-0.010462494567036629
1789552341104889300,10.359889404296876,0.1423417031764984,0.01230620127171278,0.044381577521562576
1789552341114858500,10.3698583984375,0.16677141189575195,0.007918110117316246,0.021631525829434395
1789552341124827400,10.379827392578125,0.1977359801530838,0.03605067729949951,-0.041784998029470444
1789552341134796300,10.38979638671875,0.174934521317482,0.05278704687952995,0.04283561557531357
1789552341144765400,10.399765380859375,0.29115328192710876,0.010118946433067322,0.015935556963086128
1789552341154734300,10.409734375,0.2645549476146698,0.07725457102060318,-0.019448265433311462
1789552341164703500,10.419703369140626,0.18183664977550507,0.13553333282470703,0.13352423906326294
1789552341174673400,10.42967333984375,0.2518559396266937,0.17020022869110107,0.03501284494996071
1789552341184642300,10.439642333984375,0.2570112943649292,0.13373009860515594,-0.0057226005010306835
1789552341194611200,10.449611083984376,0.041425205767154694,0.14057070016860962,0.09827011078596115
1789552341204580400,10.459580322265625,0.013422331772744656,0.08023252338171005,0.13144084811210632
1789552341214549200,10.46954931640625,0.05100858956575394,0.0819057822227478,-0.00007084008393576369
1789552341224518400,10.479518310546876,-0.09535181522369385,0.1207655668258667,-0.036674391478300095
1789552341234487300,10.4894873046875,-0.23944027721881866,0.1700311154127121,0.008718123659491539
1789552341244456200,10.499456298828125,-0.2510703206062317,0.10841275751590729,0.026463830843567848
1789552341254425300,10.50942529296875,-0.2028159648180008,0.08475936204195023,-0.010452641174197197
1789552341264394200,10.519394287109375,-0.37083345651626587,0.12236399203538895,-0.0028338697738945484
1789552341274364200,10.5293642578125,-0.41989341378211975,0.077901192009449,0.03123408555984497
1789552341284333300,10.539333251953124,-0.2857111096382141,0.04782851040363312,0.03135978803038597
1789552341294302200,10.54930224609375,-0.3480179011821747,0.04730359837412834,0.11017923802137375
1789552341304271000,10.55927099609375,-0.39135870337486267,0.07783088088035583,0.021994514390826225
1789552341314240300,10.569240234375,-0.3811508119106293,0.09581254422664642,-0.09588578343391418
1789552341324209200,10.579209228515625,-0.46188241243362427,0.06678728759288788,0.02208293229341507
1789552341334178300,10.58917822265625,-0.43568381667137146,0.01077062264084816,0.06292810291051865
1789552341344147500,10.5991474609375,-0.4165056049823761,0.06330040842294693,-0.058098457753658295
1789552341354116400,10.609116455078125,-0.49833521246910095,0.11857058852910995,-0.02014814503490925
1789552341364085500,10.61908544921875,-0.4312632381916046,0.03864326700568199,0.04941069334745407
1789552341374055400,10.629055419921874,-0.2725505530834198,0.02984471432864666,0.03020264394581318
1789552341384024300,10.6390244140625,-0.26528945565223694,-0.0005531385540962219,-0.009410279802978039
1789552341393993500,10.648993408203125,-0.2499041110277176,0.019945478066802025,0.003194727934896946
1789552341403962400,10.65896240234375,-0.27909502387046814,-0.01623569428920746,0.05065865069627762
1789552341413931300,10.66893115234375,-0.27536338567733765,-0.02003788948059082,-0.011839881539344788
1789552341423900400,10.678900390625,-0.34105533361434937,-0.00350392097607255,-0.05450638383626938
1789552341433869300,10.688869384765624,-0.45955294370651245,0.005616606678813696,0.009289904497563839
1789552341443838500,10.69883837890625,-0.37331312894821167,-0.06623122096061707,-0.03849785774946213
1789552341453807400,10.708807373046875,-0.3518320620059967,-0.037946317344903946,-0.031317975372076035
1789552341463776300,10.7187763671875,-0.42479708790779114,-0.02167067490518093,-0.0035116442013531923
1789552341473746200,10.72874609375,-0.3407543897628784,-0.06226417422294617,-0.0308053158223629
1789552341483715300,10.73871533203125,-0.3288378119468689,-0.12038233876228333,0.015837552025914192
1789552341493684200,10.748684326171874,-0.3707548975944519,-0.11964810639619827,0.014956844970583916
1789552341503653400,10.7586533203125,-0.3295544683933258,-0.10016760975122452,-0.03184421733021736
1789552341513622300,10.768622314453125,-0.28671911358833313,-0.12557975947856903,-0.08201470971107483
1789552341523591200,10.778591064453124,-0.3167281448841095,-0.12078021466732025,0.0718182623386383
1789552341533560300,10.788560302734375,-0.24080462753772736,-0.10781993716955185,0.03086630254983902
1789552341543529200,10.798529296875,-0.04204145818948746,-0.12991484999656677,-0.029923010617494583
1789552341553498400,10.808498291015624,0.05095399543642998,-0.10973315685987473,0.023815317079424858
1789552341563467300,10.81846728515625,0.09256455302238464,-0.07503536343574524,0.027595141902565956
1789552341573436200,10.828436279296875,0.18918457627296448,-0.07492830604314804,-0.03946751356124878
1789552341583406300,10.83840625,0.26881495118141174,-0.15096421539783478,0.03224555402994156
1789552341593375500,10.84837548828125,0.2862807512283325,-0.13913364708423615,0.020982246845960617
1789552341603344400,10.858344482421876,0.2910102605819702,-0.07818561792373657,-0.06726478785276413
1789552341613313500,10.8683134765625,0.25763633847236633,-0.09888104349374771,0.007831557653844357
1789552341623282400,10.878282470703125,0.3146500885486603,-0.08060775697231293,-0.01635820046067238
1789552341633251300,10.888251220703125,0.4357354938983917,-0.10136736929416656,-0.06700459867715836
1789552341643220500,10.898220458984374,0.38870328664779663,-0.08041521161794662,0.004859469830989838
1789552341653189400,10.908189453125,0.3564734160900116,-0.03419658541679382,0.07547371834516525
1789552341663158500,10.918158447265625,0.5681513547897339,-0.10894113034009933,0.007223558146506548
1789552341673127400,10.92812744140625,0.5897735357284546,-0.07015245407819748,0.01756461337208748
1789552341683097300,10.938097412109375,0.44618040323257446,0.004192081745713949,0.043358657509088516
1789552341693066200,10.948066162109376,0.44981348514556885,0.0028581044171005487,-0.010207629762589931
1789552341703035400,10.958035400390624,0.39585092663764954,0.0418316014111042,-0.0422891341149807
1789552341713004300,10.96800439453125,0.2794231176376343,0.036371856927871704,0.0027710190042853355
1789552341722973400,10.977973388671876,0.22033317387104034,0.04683062061667442,0.060197826474905014
1789552341732942300,10.9879423828125,0.26994574069976807,0.035349734127521515,-0.04199911653995514
1789552341742911200,10.9979111328125,0.18561381101608276,0.041976477950811386,-0.09350597858428955
1789552341752880400,11.00788037109375,-0.003765443339943886,0.08906090259552002,0.006463491823524237
1789552341762849300,11.017849365234374,-0.002064482541754842,0.04619918763637543,0.023666447028517723
1789552341772818400,11.027818359375,-0.01269981637597084,0.07622126489877701,-0.00026019083452410996
1789552341782787300,11.037787353515625,-0.10466942191123962,0.08494977653026581,0.020865334197878838
1789552341792757200,11.04775732421875,-0.189949169754982,0.0524219274520874,-0.026626551523804665
1789552341802726100,11.05772607421875,-0.17637449502944946,0.016683371737599373,-0.09246841073036194
1789552341812695300,11.0676953125,-0.30710455775260925,0.03702326491475105,-0.07113063335418701
1789552341822664200,11.077664306640624,-0.4598466753959656,0.07230695337057114,-0.08334735780954361
1789552341832633300,11.08763330078125,-0.4685666859149933,0.10911210626363754,-0.15277543663978577
1789552341842602200,11.097602294921876,-0.4901318848133087,0.043289415538311005,-0.0038695731200277805
1789552341852571100,11.107571044921874,-0.3744519054889679,0.05854986235499382,0.025288045406341553
1789552341862540300,11.117540283203125,-0.33651942014694214,0.022603845223784447,-0.0137253999710083
1789552341872509200,11.12750927734375,-0.30339476466178894,0.01589028351008892,0.05668937787413597
1789552341882478300,11.137478271484374,-0.28499552607536316,-0.0365726575255394,0.07485266774892807
1789552341892447200,11.147447265625,-0.28463679552078247,-0.05091297999024391,0.059246279299259186
1789552341902417400,11.15741748046875,-0.3217657804489136,-0.05717993155121803,0.004740959499031305
1789552341912386300,11.16738623046875,-0.3554057776927948,-0.10443080216646194,-0.05489201098680496
1789552341922355500,11.17735546875,-0.47229111194610596,-0.06275898963212967,-0.04953160136938095
1789552341932324400,11.187324462890626,-0.433432400226593,-0.1414671093225479,0.00034700988908298314
1789552341942293500,11.19729345703125,-0.32771289348602295,-0.17112940549850464,0.04480661824345589
1789552341952262400,11.207262451171875,-0.27518123388290405,-0.14907070994377136,0.004991296678781509
1789552341962231300,11.217231201171876,-0.17081168293952942,-0.23043161630630493,0.07721143215894699
1789552341972200400,11.227200439453124,-0.12640880048274994,-0.1747869849205017,0.054493602365255356
1789552341982169300,11.23716943359375,-0.05046716704964638,-0.20074748992919922,-0.05270875245332718
1789552341992138500,11.247138427734376,-0.042035069316625595,-0.1874559074640274,-0.014561898075044155
1789552342002107400,11.257107421875,0.009752762503921986,-0.28531375527381897,0.07047522813081741
1789552342012076300,11.267076171875,0.0973539799451828,-0.22984305024147034,-0.035479165613651276
1789552342022046200,11.277046142578126,0.07423614710569382,-0.1776653379201889,-0.16388320922851562
1789552342032015400,11.287015380859375,0.028433239087462425,-0.15362444519996643,0.018621355295181274
1789552342041984300,11.296984375,0.2033909410238266,-0.29682207107543945,0.10391388088464737
1789552342051953400,11.306953369140626,0.3977676033973694,-0.20066572725772858,-0.1099158450961113
1789552342061922300,11.31692236328125,0.26677045226097107,-0.15165530145168304,-0.04120096564292908
1789552342071891200,11.32689111328125,0.2962596118450165,-0.18414507806301117,0.030413299798965454
1789552342081860400,11.3368603515625,0.3956538438796997,-0.1735243797302246,0.0009462211164645851
1789552342091829500,11.34682958984375,0.4073837399482727,-0.10119639337062836,-0.014683072455227375
1789552342101798700,11.356798583984375,0.25957244634628296,-0.07410618662834167,-0.004089283756911755
1789552342111767600,11.366767578125,0.2176646888256073,-0.10523959994316101,0.05696528032422066
1789552342121736400,11.376736328125,0.3132239580154419,-0.13950330018997192,-0.018317222595214844
1789552342131705600,11.38670556640625,0.18794700503349304,-0.09433156251907349,-0.09253712743520737
1789552342141675800,11.39667578125,-0.02244831807911396,-0.04628121107816696,0.07298659533262253
1789552342151644700,11.406644775390625,-0.013560550287365913,-0.12068833410739899,0.08096808940172195
1789552342161613800,11.41661376953125,0.05055398866534233,-0.13107067346572876,0.06866321712732315
1789552342171582700,11.426582763671876,-0.06904404610395432,-0.09507005661725998,0.12909673154354095
1789552342181551600,11.436551513671875,0.04495522379875183,-0.1373639851808548,-0.09267747402191162
1789552342191520800,11.446520751953125,0.0006498112925328314,-0.07269977033138275,-0.186923548579216
1789552342201489700,11.45648974609375,-0.23129421472549438,-0.11533112078905106,0.06939771771430969
1789552342211458600,11.46645849609375,-0.2724139392375946,-0.08608854562044144,-0.00663446681573987
1789552342221427700,11.476427734375,-0.15480342507362366,-0.18004299700260162,-0.09495794028043747
1789552342231396600,11.486396728515626,-0.32854485511779785,-0.13803057372570038,-0.021589981392025948
1789552342241365800,11.49636572265625,-0.4412197470664978,-0.1086021140217781,0.009888051077723503
1789552342251334700,11.506334716796875,-0.278213769197464,-0.15507373213768005,0.024956747889518738
1789552342261303600,11.516303466796876,-0.2414778620004654,-0.19855996966362,0.02522146701812744
1789552342271273700,11.526273681640625,-0.23046116530895233,-0.12826529145240784,0.02377430535852909
1789552342281242600,11.53624267578125,-0.1350497007369995,-0.19021281599998474,0.026200978085398674
1789552342291211500,11.54621142578125,-0.07263106107711792,-0.23270674049854279,-0.012105132453143597
1789552342301180700,11.5561806640625,-0.12912122905254364,-0.11021971702575684,0.02304406650364399
1789552342311149600,11.566149658203125,-0.061105698347091675,-0.2288142740726471,0.03199441730976105
1789552342321118700,11.57611865234375,-0.0275083240121603,-0.18928736448287964,0.024159131571650505
1789552342331087600,11.586087646484375,-0.04625324904918671,-0.14461684226989746,-0.00022450447431765497
1789552342341056500,11.596056396484375,0.08598707616329193,-0.1808249056339264,-0.02768062986433506
1789552342351025700,11.606025634765626,0.13372956216335297,-0.20036904513835907,0.08702971041202545
1789552342360994600,11.61599462890625,0.130288228392601,-0.138636976480484,0.04723995178937912
1789552342370963500,11.62596337890625,0.21334956586360931,-0.22891759872436523,0.02985456772148609
1789552342380932600,11.6359326171875,0.1703895777463913,-0.17573347687721252,0.06306924670934677
1789552342390901500,11.645901611328124,0.17593161761760712,-0.22979751229286194,-0.01684342883527279
1789552342400871400,11.655871337890625,0.1431984305381775,-0.18278951942920685,-0.0451861210167408
1789552342410840600,11.665840576171876,0.10933714359998703,-0.18180601298809052,-0.01290647778660059
1789552342420809500,11.6758095703125,0.20173205435276031,-0.21165978908538818,-0.008065382950007915
1789552342430778600,11.685778564453125,0.19760441780090332,-0.17221809923648834,-0.0029137644451111555
1789552342440747800,11.695747802734376,0.25553056597709656,-0.1720239669084549,-0.044912878423929214
1789552342450716700,11.705716552734375,0.2824018597602844,-0.18730570375919342,-0.02713787741959095
1789552342460685800,11.715685791015625,0.3579578697681427,-0.20989571511745453,-0.023317307233810425
1789552342470654700,11.72565478515625,0.3975641429424286,-0.15586869418621063,-0.019512448459863663
1789552342480623600,11.73562353515625,0.42588844895362854,-0.14916391670703888,0.052975866943597794
1789552342490592800,11.7455927734375,0.48173946142196655,-0.11684539169073105,-0.020322315394878387
1789552342500561700,11.755561767578126,0.5254805684089661,-0.11350978165864944,-0.06085269898176193
1789552342510530800,11.76553076171875,0.5536357760429382,-0.1161726787686348,-0.04777977243065834
1789552342520499700,11.775499755859375,0.5588678121566772,-0.12128754705190659,0.017473265528678894
1789552342530468600,11.785468505859376,0.649451494216919,-0.10327472537755966,-0.000176301269675605
1789552342540438500,11.7954384765625,0.6889869570732117,-0.03461842983961105,-0.04779069125652313
1789552342550407700,11.80540771484375,0.7453298568725586,-0.05471011623740196,0.012092881835997105
1789552342560376600,11.81537646484375,0.8028826117515564,-0.07782182842493057,0.12797607481479645
1789552342570345700,11.825345703125,0.8651435971260071,-0.03501497581601143,-0.010126137174665928
1789552342580314600,11.835314697265625,0.888541042804718,-0.030792800709605217,-0.09951407462358475
1789552342590283500,11.845283447265626,0.7050418257713318,-0.008539692498743534,-0.0496855303645134
1789552342600252700,11.855252685546875,0.5833638310432434,0.04274347051978111,-0.053703706711530685
1789552342610221600,11.8652216796875,0.603858470916748,0.05962471291422844,-0.1633114218711853
1789552342620190700,11.875190673828126,0.4631902873516083,0.11979990452528,-0.022770293056964874
1789552342630159600,11.88515966796875,0.4334654211997986,0.10908414423465729,0.00848589651286602
1789552342640128500,11.89512841796875,0.5355672836303711,0.12001615017652512,0.017405621707439423
1789552342650097700,11.90509765625,0.5661156177520752,0.10713018476963043,0.10280920565128326
1789552342660066600,11.915066650390624,0.41627976298332214,0.22375532984733582,0.20718593895435333
1789552342670036500,11.925036376953125,0.6042113304138184,0.2136576920747757,-0.005031243897974491
1789552342680005600,11.935005615234376,0.5750380158424377,0.24926255643367767,-0.0658048465847969
1789552342689974500,11.944974609375,0.20078982412815094,0.3129328787326813,0.14119920134544373
1789552342699943400,11.954943359375,0.14808587729930878,0.32003605365753174,0.06439577043056488
1789552342709912600,11.96491259765625,0.1143750473856926,0.31365326046943665,-0.10150451958179474
1789552342719881500,11.974881591796875,-0.20305964350700378,0.3364163637161255,0.09301675856113434
1789552342729850600,11.9848505859375,-0.20094536244869232,0.32628464698791504,0.007404120173305273
1789552342739819500,11.994819580078126,-0.12308277934789658,0.3069506287574768,-0.08281365782022476
1789552342749788400,12.004788330078124,-0.2271742969751358,0.29628998041152954,0.14646506309509277
1789552342759757600,12.014757568359375,-0.22672395408153534,0.3575645387172699,0.15575258433818817
1789552342769726500,12.0247265625,-0.08413218706846237,0.311866819858551,-0.06991250813007355
1789552342779695600,12.034695556640624,-0.1906903237104416,0.27898821234703064,-0.003867708845064044
1789552342789664500,12.04466455078125,-0.3346182107925415,0.30486562848091125,0.044856686145067215
1789552342799633400,12.05463330078125,-0.34763121604919434,0.29277995228767395,-0.17286072671413422
1789552342809602800,12.064602783203124,-0.3595120906829834,0.34658512473106384,-0.18853315711021423
1789552342819572700,12.07457275390625,-0.5222546458244324,0.2891516387462616,0.06453318893909454
1789552342829541600,12.084541748046876,-0.37327077984809875,0.24904631078243256,0.0862392783164978
1789552342839510800,12.0945107421875,-0.1853616088628769,0.27524781227111816,-0.04657842218875885
1789552342849479700,12.104479736328125,-0.23627431690692902,0.28668344020843506,0.011359979398548603
