time,seconds_elapsed,z,y,x
1789552330805522700,0.060522705078125,0.010442088358104229,0.26529818773269653,-0.04180006682872772
1789552330815492600,0.07049267578125,-0.01960236206650734,0.20047229528427124,-0.05416565760970116
1789552330825461500,0.08046142578125,-0.09164465963840485,0.17792096734046936,0.0027025993913412094
1789552330835430700,0.0904306640625,-0.08637212961912155,0.15900906920433044,-0.021623246371746063
1789552330845399600,0.100399658203125,-0.15419363975524902,0.1695096641778946,-0.0042412662878632545
1789552330855368700,0.11036865234375,-0.16337382793426514,0.1528657078742981,0.011482568457722664
1789552330865337600,0.120337646484375,-0.1565897911787033,0.17183031141757965,0.01000830065459013
1789552330875307500,0.1303076171875,-0.16877427697181702,0.17523649334907532,0.03658371791243553
1789552330885276700,0.140276611328125,-0.16096723079681396,0.20570331811904907,0.027274105697870255
1789552330895245600,0.15024560546875,-0.10877566039562225,0.23224171996116638,-0.05243749916553497
1789552330905214500,0.16021435546875,-0.08530628681182861,0.1782568246126175,0.02100398950278759
1789552330915183600,0.17018359375,-0.051447659730911255,0.1667812615633011,0.02659423276782036
1789552330925153500,0.180153564453125,-0.050592973828315735,0.1345108300447464,0.016186093911528587
1789552330935122400,0.190122314453125,-0.11155059933662415,0.12873096764087677,-0.012218914926052094
1789552330945091600,0.200091552734375,-0.16522490978240967,0.10130973905324936,0.030862955376505852
1789552330955060500,0.210060546875,-0.16895653307437897,0.08553663641214371,0.03922395035624504
1789552330965029400,0.220029296875,-0.10347803682088852,0.06904557347297668,0.03142686188220978
1789552330974999600,0.22999951171875,-0.019489925354719162,0.0629245713353157,0.019560882821679115
1789552330984968700,0.23996875,0.016246004030108452,0.07130001485347748,-0.012954273261129856
1789552330994937600,0.2499375,0.07671254873275757,0.09926187992095947,-0.006079589016735554
1789552331004906800,0.25990673828125,0.05324917659163475,0.08882875740528107,-0.013276161625981331
1789552331014875600,0.269875732421875,-0.03863627463579178,0.058600280433893204,0.060834020376205444
1789552331024844500,0.279844482421875,-0.06992346048355103,0.032722875475883484,0.033476196229457855
1789552331034814700,0.289814697265625,-0.10212427377700806,-0.00011762953363358974,0.030509432777762413
1789552331044783600,0.29978369140625,-0.07574086636304855,0.012549696490168571,-0.00007883599027991295
1789552331054752500,0.30975244140625,-0.0031617414206266403,-0.0238096434623003,0.01911323517560959
1789552331064721700,0.3197216796875,0.008807811886072159,0.010262954980134964,0.014354519546031952
1789552331074690800,0.32969091796875,0.0011458978988230228,0.00097917509265244,-0.03053678572177887
1789552331084660700,0.33966064453125,-0.040537916123867035,0.008234235458076,-0.07606559991836548
1789552331094630000,0.3496298828125,-0.08981038630008698,-0.04373309016227722,-0.032953813672065735
1789552331104598800,0.359598876953125,-0.1139959990978241,-0.03827251121401787,-0.0009833048097789288
1789552331114567700,0.369567626953125,-0.1585429608821869,-0.07350799441337585,0.0090173976495862
1789552331124536800,0.379536865234375,-0.13409081101417542,-0.08386167883872986,-0.009083813056349754
1789552331134505700,0.389505615234375,-0.18662485480308533,-0.0684632807970047,-0.008321614935994148
1789552331144476000,0.399475830078125,-0.15427285432815552,-0.08842245489358902,0.00932874996215105
1789552331154445000,0.409445068359375,-0.09861252456903458,-0.11153389513492584,0.014568786136806011
1789552331164414000,0.4194140625,-0.13429181277751923,-0.07782303541898727,0.025713641196489334
1789552331174382800,0.4293828125,-0.09048786759376526,-0.06768624484539032,0.0209409911185503
1789552331184352000,0.43935205078125,0.0753171443939209,-0.10906575620174408,0.009592551738023758
1789552331194322000,0.449322021484375,0.09161276370286942,-0.03366687148809433,-0.014629697427153587
1789552331204290800,0.459290771484375,0.046529993414878845,0.03402367979288101,-0.022764647379517555
1789552331214260000,0.469260009765625,0.13464093208312988,-0.006801780313253403,-0.01846950128674507
1789552331224228900,0.479228759765625,0.12144201993942261,0.007859375327825546,0.005818615667521954
1789552331234197800,0.48919775390625,0.1631479263305664,0.028251731768250465,-0.07189402729272842
1789552331244167000,0.4991669921875,0.15767444670200348,-0.11768074333667755,-0.017017517238855362
1789552331254136800,0.50913671875,0.12091375887393951,-0.09343026578426361,-0.017138956114649773
1789552331264105700,0.519105712890625,0.1430617719888687,-0.12256836891174316,0.019540997222065926
1789552331274075000,0.529074951171875,0.13906729221343994,-0.12480542063713074,0.09043194353580475
1789552331284043800,0.539043701171875,0.25855666399002075,-0.11727719753980637,0.051613979041576385
1789552331294012700,0.5490126953125,0.2232230305671692,-0.054312195628881454,0.022739600390195847
1789552331303982800,0.55898291015625,0.3178825378417969,-0.12059637159109116,0.012272046878933907
1789552331313951700,0.56895166015625,0.566379964351654,-0.09546998143196106,-0.03752480447292328
1789552331323920600,0.578920654296875,0.6313279271125793,-0.15479405224323273,0.007009256165474653
1789552331333889800,0.588889892578125,0.560439944267273,-0.08308179676532745,0.022182084619998932
1789552331343858700,0.598858642578125,0.6117138862609863,-0.04135766625404358,-0.05178283527493477
1789552331353827800,0.608827880859375,0.5994372367858887,-0.07037094235420227,-0.03501903638243675
1789552331363798000,0.618798095703125,0.49408605694770813,-0.04629623144865036,-0.00378867844119668
1789552331373767000,0.628766845703125,0.37230342626571655,-0.03437912091612816,-0.0056710015051066875
1789552331383735800,0.63873583984375,0.3288534879684448,-0.07775474339723587,0.03283567354083061
1789552331393705000,0.648705078125,0.2756483256816864,-0.03982893377542496,0.0049555739387869835
1789552331403673900,0.658673828125,0.16985872387886047,-0.01705940254032612,0.002213494386523962
1789552331413643800,0.668643798828125,0.16151398420333862,-0.044482771307229996,0.040696971118450165
1789552331423613000,0.678613037109375,0.28746238350868225,-0.042864710092544556,0.004127567168325186
1789552331433581800,0.688581787109375,0.3060363233089447,-0.016206733882427216,-0.025748571380972862
1789552331443550700,0.69855078125,0.4154895544052124,-0.054108843207359314,0.054274238646030426
1789552331453520000,0.708519775390625,0.5439692139625549,-0.07699631154537201,0.04557955265045166
1789552331463488800,0.71848876953125,0.5978032946586609,-0.06508170813322067,0.01167126651853323
1789552331473458700,0.728458740234375,0.5612106919288635,-0.04145095497369766,-0.015950240194797516
1789552331483427800,0.738427734375,0.5245994329452515,-0.01681530475616455,-0.03221345320343971
1789552331493396700,0.748396728515625,0.5272042751312256,-0.0650014728307724,-0.0382164865732193
1789552331503365600,0.75836572265625,0.4294663965702057,-0.0171491876244545,-0.03403709828853607
1789552331513334800,0.768334716796875,0.35745078325271606,0.001677229069173336,-0.013415444642305374
1789552331523303700,0.7783037109375,0.34779682755470276,0.00597032206133008,-0.032219432294368744
1789552331533273900,0.78827392578125,0.30464881658554077,0.04199010878801346,-0.014932321384549141
1789552331543243000,0.798242919921875,0.24709801375865936,0.012360308319330215,0.07924788445234299
1789552331553212000,0.8082119140625,0.3034403622150421,0.004460573196411133,0.02600650116801262
1789552331563180800,0.818180908203125,0.28471025824546814,0.07654622197151184,0.016330527141690254
1789552331573150000,0.82814990234375,0.20787645876407623,0.0963156670331955,0.06668531149625778
1789552331583120000,0.838119873046875,0.22114773094654083,0.12573061883449554,0.017321962863206863
1789552331593088800,0.8480888671875,0.21119336783885956,0.13413609564304352,0.026796691119670868
1789552331603058000,0.858057861328125,0.23928259313106537,0.13263234496116638,0.00613858038559556
1789552331613026800,0.86802685546875,0.2230367809534073,0.15056847035884857,0.026860371232032776
1789552331622996000,0.877995849609375,0.29168829321861267,0.08191568404436111,0.055866338312625885
1789552331632964900,0.88796484375,0.31399813294410706,0.15101352334022522,0.008094820193946362
1789552331642934800,0.897934814453125,0.35329312086105347,0.15330567955970764,-0.019866803660988808
1789552331652903700,0.907903564453125,0.34957215189933777,0.2098272740840912,-0.04450663924217224
1789552331662872800,0.917872802734375,0.3991459310054779,0.17793644964694977,-0.013403134420514107
1789552331672841700,0.927841796875,0.4213942289352417,0.21379005908966064,-0.05119339004158974
1789552331682811000,0.937810791015625,0.43136635422706604,0.17216160893440247,0.030875440686941147
1789552331692779800,0.94777978515625,0.42342185974121094,0.19063915312290192,0.06195985525846481
1789552331702749700,0.957749755859375,0.40864840149879456,0.19926434755325317,0.056992288678884506
1789552331712718800,0.96771875,0.3467525541782379,0.20288890600204468,0.07467249035835266
1789552331722687700,0.977687744140625,0.26416295766830444,0.23306453227996826,0.0458427332341671
1789552331732656600,0.98765673828125,0.21646839380264282,0.2301398515701294,0.015849411487579346
1789552331742625800,0.997625732421875,0.1624389886856079,0.2353748232126236,0.03794059902429581
1789552331752594700,1.0075947265625,0.11525203287601471,0.23309622704982758,0.04163786768913269
1789552331762564900,1.01756494140625,0.054829955101013184,0.21078288555145264,0.033789027482271194
1789552331772534000,1.027533935546875,0.04361272230744362,0.2312985509634018,-0.012965960428118706
1789552331782503000,1.0375029296875,0.004676776938140392,0.24969281256198883,0.019046567380428314
1789552331792471800,1.047471923828125,-0.02268214337527752,0.23611414432525635,0.09311067312955856
1789552331802441000,1.05744091796875,-0.05132443085312843,0.29750338196754456,0.056876473128795624
1789552331812409900,1.067409912109375,-0.06449615955352783,0.2762846350669861,0.045033663511276245
1789552331822379800,1.0773798828125,-0.09573475271463394,0.24226772785186768,0.06393112987279892
1789552331832349000,1.087348876953125,-0.10330718010663986,0.26523539423942566,0.05670756846666336
1789552331842317800,1.09731787109375,-0.09902230650186539,0.28344225883483887,0.05275082215666771
1789552331852286700,1.10728662109375,-0.09581399708986282,0.2900197207927704,-0.016043154522776604
1789552331862255900,1.117255859375,-0.1343483179807663,0.26551058888435364,0.031927771866321564
1789552331872224800,1.127224853515625,-0.11668676882982254,0.2502796947956085,0.07939781993627548
1789552331882194700,1.137194580078125,-0.07789867371320724,0.2503063380718231,0.046868253499269485
1789552331892163800,1.147163818359375,-0.14903941750526428,0.3255411684513092,0.07859369367361069
1789552331902132700,1.1571328125,-0.11565519124269485,0.28603678941726685,0.10996067523956299
1789552331912101600,1.1671015625,-0.09850496798753738,0.3077410161495209,-0.0016761110164225101
1789552331922070800,1.17707080078125,-0.14841602742671967,0.29042354226112366,0.04883458465337753
1789552331932039700,1.187039794921875,-0.2000850886106491,0.28240370750427246,0.06828844547271729
1789552331942009900,1.197009765625,-0.15041552484035492,0.23498691618442535,0.004848752170801163
1789552331951979000,1.20697900390625,-0.16841743886470795,0.20470385253429413,-0.055790092796087265
1789552331961948000,1.216947998046875,-0.318898469209671,0.22123956680297852,0.01164676621556282
1789552331971916800,1.226916748046875,-0.348937064409256,0.20212127268314362,0.04123048856854439
1789552331981886000,1.236885986328125,-0.30194225907325745,0.1870744526386261,-0.00857396237552166
1789552331991854800,1.246854736328125,-0.3311038613319397,0.19460053741931915,0.04352385923266411
1789552332001824800,1.25682470703125,-0.26387134194374084,0.17223119735717773,0.016034649685025215
1789552332011794000,1.2667939453125,-0.17709092795848846,0.18072427809238434,-0.1072249636054039
1789552332021762800,1.2767626953125,-0.29913973808288574,0.19862864911556244,-0.007621765602380037
1789552332031732000,1.28673193359375,-0.2931215465068817,0.16802732646465302,0.038265831768512726
1789552332041700900,1.296700927734375,-0.17693457007408142,0.1281629204750061,-0.050699226558208466
1789552332051669800,1.306669677734375,-0.19322112202644348,0.17599275708198547,-0.0769747719168663
1789552332061639700,1.3166396484375,-0.18314501643180847,0.14372651278972626,-0.005385095253586769
1789552332071608800,1.32660888671875,-0.0819409042596817,0.1451193392276764,-0.03350434824824333
1789552332081577500,1.336577392578125,-0.05110018327832222,0.15932297706604004,0.05599438026547432
1789552332091546600,1.346546630859375,0.035451751202344894,0.1735495924949646,0.04817720130085945
1789552332101515500,1.356515625,0.15154212713241577,0.15136933326721191,0.027995556592941284
1789552332111484400,1.366484375,0.14179202914237976,0.18680988252162933,-0.013916205614805222
1789552332121454600,1.37645458984375,0.132913276553154,0.1412317007780075,0.08363257348537445
1789552332131423500,1.386423583984375,0.19309858977794647,0.15012292563915253,0.005730051081627607
1789552332141392400,1.396392333984375,0.15615063905715942,0.1351790577173233,-0.04736337810754776
1789552332151361500,1.406361572265625,0.07618176937103271,0.1134018674492836,0.025047171860933304
1789552332161330400,1.416330322265625,0.10619281977415085,0.10545620322227478,0.0061912802048027515
1789552332171299600,1.426299560546875,0.12812021374702454,0.14127464592456818,-0.03438890352845192
1789552332181269500,1.43626953125,0.056896962225437164,0.18463534116744995,-0.09724980592727661
1789552332191238400,1.44623828125,0.04207966849207878,0.10544836521148682,-0.04554958641529083
1789552332201207300,1.456207275390625,0.05912620201706886,0.06505263596773148,-0.015851879492402077
1789552332211176400,1.466176513671875,0.029296135529875755,0.11687055975198746,-0.048689719289541245
1789552332221145300,1.476145263671875,-0.024936430156230927,0.14449350535869598,-0.019731957465410233
1789552332231114500,1.486114501953125,-0.05437048524618149,0.10404035449028015,-0.0058379811234772205
1789552332241084700,1.496084716796875,-0.10201877355575562,0.11371542513370514,0.025241315364837646
1789552332251053600,1.506053466796875,-0.11089908331632614,0.11235188692808151,0.0062228841707110405
1789552332261022500,1.5160224609375,-0.09868770837783813,0.12242856621742249,-0.04559497907757759
1789552332270991600,1.52599169921875,-0.15210247039794922,0.1246565729379654,-0.022998059168457985
1789552332280960500,1.53596044921875,-0.24711494147777557,0.14211206138134003,0.0026570879854261875
1789552332290929700,1.5459296875,-0.2165573090314865,0.10746061056852341,-0.06393126398324966
1789552332300899600,1.555899658203125,-0.3245845437049866,0.13510917127132416,0.01686744950711727
1789552332310868500,1.565868408203125,-0.39633435010910034,0.14068450033664703,0.05016122758388519
1789552332320837400,1.57583740234375,-0.4003111720085144,0.11682645231485367,0.001172672025859356
1789552332330806500,1.585806640625,-0.5048277378082275,0.17681895196437836,0.008065199479460716
1789552332340775400,1.595775390625,-0.5780833959579468,0.1623006910085678,0.04813171923160553
1789552332350744600,1.60574462890625,-0.6003042459487915,0.11242874711751938,0.07005006819963455
1789552332360714500,1.615714599609375,-0.6656976342201233,0.14947468042373657,-0.001352593768388033
1789552332370683400,1.625683349609375,-0.7258270382881165,0.09577790647745132,0.023026783019304276
1789552332380652500,1.635652587890625,-0.7215171456336975,0.0389399528503418,0.06476659327745438
1789552332390621400,1.645621337890625,-0.6759488582611084,0.0421445369720459,-0.02041461504995823
1789552332400590300,1.65559033203125,-0.6888256669044495,0.03685397282242775,-0.015768228098750114
1789552332410559500,1.6655595703125,-0.633344292640686,-0.008524960838258266,0.10099593549966812
1789552332420529700,1.67552978515625,-0.5087851285934448,0.02776389569044113,0.03677499666810036
1789552332430498600,1.68549853515625,-0.4747973382472992,0.07707951217889786,-0.0410124771296978
1789552332440467700,1.6954677734375,-0.4794408082962036,0.025458356365561485,0.04562491551041603
1789552332450436600,1.7054365234375,-0.3985510468482971,-0.004484629258513451,0.019414352253079414
1789552332460405500,1.715405517578125,-0.39054059982299805,0.03528427332639694,-0.011643996462225914
1789552332470374700,1.725374755859375,-0.4115031361579895,0.00788567028939724,0.005295305047184229
1789552332480343600,1.735343505859375,-0.4383566081523895,-0.03895651176571846,0.05584142357110977
1789552332490313500,1.7453134765625,-0.44372209906578064,-0.06739187985658646,0.04859815537929535
1789552332500282600,1.75528271484375,-0.3905940353870392,-0.07912508398294449,0.023968592286109924
1789552332510251500,1.76525146484375,-0.3647978603839874,-0.11349716782569885,-0.007351778447628021
1789552332520220400,1.775220458984375,-0.42481356859207153,-0.10049570351839066,0.057666607201099396
1789552332530189600,1.785189453125,-0.35543715953826904,-0.13311970233917236,0.03645692020654678
1789552332540158500,1.795158447265625,-0.2702847123146057,-0.14437972009181976,-0.02076703868806362
1789552332550128400,1.80512841796875,-0.2379283756017685,-0.19102153182029724,0.008000959642231464
1789552332560097500,1.81509765625,-0.28244656324386597,-0.1698918491601944,0.04260524734854698
1789552332570066400,1.82506640625,-0.2516889274120331,-0.15061801671981812,-0.00924489926546812
1789552332580035300,1.835035400390625,-0.21123626828193665,-0.15086063742637634,-0.03700042515993118
1789552332590004500,1.84500439453125,-0.2064923793077469,-0.1692953109741211,0.011867779307067394
1789552332599973400,1.854973388671875,-0.18277600407600403,-0.1480102241039276,0.04200715944170952
1789552332609943300,1.864943359375,0.017916351556777954,-0.2214048057794571,-0.03824187442660332
1789552332619912400,1.874912353515625,0.026986323297023773,-0.21495409309864044,0.08768688142299652
1789552332629881300,1.88488134765625,0.0665864571928978,-0.2345736026763916,0.14146649837493896
1789552332639850500,1.8948505859375,0.18873140215873718,-0.2314653843641281,0.05105051398277283
1789552332649819600,1.904819580078125,0.19939975440502167,-0.15568408370018005,-0.012671206146478653
1789552332659788500,1.91478857421875,0.09811137616634369,-0.13171596825122833,0.06470457464456558
1789552332669757700,1.9247578125,0.18863089382648468,-0.14726483821868896,0.062188949435949326
1789552332679727600,1.9347275390625,0.27981963753700256,-0.1584397703409195,-0.025803372263908386
1789552332689696500,1.944696533203125,0.14924217760562897,-0.09596999734640121,-0.0174703411757946
1789552332699665700,1.954665771484375,0.15749713778495789,-0.11193819344043732,-0.007639458402991295
1789552332709634600,1.964634521484375,0.2040816843509674,-0.1019769012928009,-0.04150687903165817
1789552332719603500,1.974603515625,0.18297414481639862,-0.10066331923007965,-0.013494564220309258
1789552332729572600,1.984572509765625,0.15787944197654724,-0.1233755499124527,0.035681501030921936
1789552332739542500,1.99454248046875,0.24935443699359894,-0.12708419561386108,0.028921809047460556
1789552332749511400,2.004511474609375,0.33581608533859253,-0.09272356331348419,-0.0014536743983626366
1789552332759480600,2.01448046875,0.2552172541618347,-0.02400590293109417,0.0038738304283469915
1789552332769449500,2.024449462890625,0.24605624377727509,-0.0846484825015068,0.04861760139465332
1789552332779418400,2.03441845703125,0.2949277460575104,-0.11525873839855194,0.03430763632059097
1789552332789387500,2.044387451171875,0.2508183419704437,-0.03877675160765648,-0.046612780541181564
1789552332799357400,2.054357421875,0.23655086755752563,-0.08633102476596832,0.001432274468243122
1789552332809326300,2.064326416015625,0.27999556064605713,-0.12346694618463516,0.00854877382516861
1789552332819295500,2.07429541015625,0.2932851314544678,-0.06431291997432709,-0.038460928946733475
1789552332829264400,2.084264404296875,0.2585790753364563,-0.07603748887777328,-0.03776184841990471
1789552332839233300,2.0942333984375,0.18870557844638824,-0.12924744188785553,0.04587463289499283
1789552332849202400,2.104202392578125,0.24248544871807098,-0.12017886340618134,0.01363333873450756
1789552332859171300,2.11417138671875,0.29564690589904785,-0.09130124002695084,0.003177888225764036
1789552332869141500,2.1241416015625,0.22154203057289124,-0.06065571308135986,0.012439830228686333
1789552332879110700,2.134110595703125,0.23667049407958984,-0.10599835962057114,0.02028813399374485
1789552332889079600,2.14407958984375,0.2822856605052948,-0.053695473819971085,-0.030213654041290283
1789552332899048400,2.15404833984375,0.2453739196062088,-0.003070221981033683,-0.07457221299409866
1789552332909017600,2.164017578125,0.21673323214054108,-0.05982617661356926,0.01943870633840561
1789552332918986500,2.173986572265625,0.30638742446899414,-0.0706317275762558,-0.005085429176688194
1789552332928956400,2.183956298828125,0.3044896721839905,0.05637628212571144,-0.0645570158958435
1789552332938925600,2.193925537109375,0.24031153321266174,0.07528407126665115,-0.03439919650554657
1789552332948894500,2.20389453125,0.1635485738515854,0.08819854259490967,0.008293136954307556
1789552332958863600,2.213863525390625,0.1884518563747406,0.06931122392416,0.010297464206814766
1789552332968832500,2.22383251953125,0.15207254886627197,0.05609528720378876,0.018660854548215866
1789552332978801400,2.233801513671875,0.08146357536315918,0.03346667066216469,0.060606323182582855
1789552332988770600,2.2437705078125,0.06577835977077484,0.05935046449303627,0.04834672808647156
1789552332998740500,2.253740478515625,0.050070758908987045,0.10196614265441895,0.00038375798612833023
1789552333008709400,2.26370947265625,0.02325139194726944,0.057322245091199875,0.024289090186357498
1789552333018678500,2.273678466796875,0.02084272913634777,0.04737750068306923,0.003107164753600955
1789552333028647400,2.2836474609375,-0.025572439655661583,0.040377382189035416,0.08192368596792221
1789552333038616300,2.2936162109375,-0.010022983886301517,0.04056722670793533,0.0394788458943367
1789552333048585500,2.30358544921875,-0.006035965867340565,0.07517261058092117,-0.1075926274061203
1789552333058554400,2.313554443359375,-0.09182990342378616,0.12270532548427582,-0.08430404961109161
1789552333068524500,2.323524658203125,-0.14172902703285217,0.04328613728284836,0.05418192222714424
1789552333078493700,2.33349365234375,-0.12144697457551956,0.027754882350564003,-0.03232403099536896
1789552333088462600,2.343462646484375,-0.1423269510269165,0.07140755653381348,-0.05646318942308426
1789552333098431500,2.353431396484375,-0.1987486332654953,0.0733574852347374,-0.011846628040075302
1789552333108401000,2.36340087890625,-0.14127150177955627,0.040971849113702774,0.023203765973448753
1789552333118369800,2.373369873046875,-0.08018098026514053,0.037290435284376144,0.015286777168512344
1789552333128339700,2.383339599609375,-0.1130390614271164,0.07433846592903137,0.00017333822324872017
1789552333138308900,2.393308837890625,-0.1330316960811615,0.07636427879333496,-0.01042630523443222
1789552333148277800,2.40327783203125,-0.14513762295246124,0.051112979650497437,0.04446597024798393
1789552333158246700,2.41324658203125,-0.12873846292495728,0.017924273386597633,0.06480047851800919
1789552333168215800,2.4232158203125,-0.12985698878765106,0.07958657294511795,-0.06269702315330505
1789552333178184700,2.433184814453125,-0.1841222494840622,0.05925832316279411,-0.033570125699043274
1789552333188153900,2.44315380859375,-0.1899966448545456,0.04186761751770973,-0.028777766972780228
1789552333198123800,2.453123779296875,-0.1375618726015091,0.023132916539907455,-0.08525607734918594
1789552333208092700,2.4630927734375,-0.2074594646692276,0.0454866923391819,-0.06418301165103912
1789552333218061600,2.4730615234375,-0.1574668437242508,-0.021832259371876717,0.026753641664981842
1789552333228030700,2.48303076171875,-0.08178460597991943,-0.017083311453461647,0.02234424650669098
1789552333237999600,2.49299951171875,-0.07903909683227539,0.011081976816058159,0.009462359361350536
1789552333247968800,2.50296875,-0.09069947898387909,-0.015483321622014046,0.023317720741033554
1789552333257937700,2.512937744140625,-0.07074180245399475,-0.05001341924071312,0.04944063350558281
1789552333267907600,2.522907470703125,-0.035686884075403214,-0.037780456244945526,0.01274467259645462
1789552333277876700,2.532876708984375,-0.05408269539475441,-0.03652656078338623,-0.04172463342547417
1789552333287845600,2.542845703125,-0.08427868783473969,-0.0531364306807518,-0.00505343871191144
1789552333297814500,2.552814453125,-0.040553051978349686,-0.007832027040421963,-0.035270702093839645
1789552333307783700,2.56278369140625,0.03503891080617905,-0.06497281044721603,-0.022008158266544342
1789552333317752600,2.572752685546875,0.004477422684431076,-0.05831924080848694,0.0010327445343136787
1789552333327721500,2.582721435546875,0.0300269927829504,-0.012525118887424469,-0.025726433843374252
1789552333337692000,2.59269189453125,0.009962372481822968,0.008775675669312477,0.04957663640379906
1789552333347660800,2.602660888671875,0.01646794192492962,-0.06064841151237488,0.09921742975711823
1789552333357629700,2.612629638671875,0.0408363975584507,-0.029043609276413918,0.03715059161186218
1789552333367598800,2.622598876953125,-0.020003516227006912,0.007859814912080765,0.011765074916183949
1789552333377567700,2.632567626953125,-0.04513419792056084,-0.03654725104570389,0.02349715866148472
1789552333387536600,2.64253662109375,-0.007326099090278149,-0.025336142629384995,-0.027629941701889038
1789552333397506800,2.6525068359375,-0.05551376938819885,0.03932951018214226,-0.04333700239658356
1789552333407475700,2.662475830078125,-0.09357859194278717,0.010033942759037018,-0.04113936051726341
1789552333417444600,2.672444580078125,-0.13386006653308868,-0.0008743319194763899,0.053051114082336426
1789552333427413800,2.682413818359375,-0.08467201888561249,0.015684671700000763,-0.014828335493803024
1789552333437382700,2.692382568359375,-0.1296827346086502,0.035167448222637177,0.008662343956530094
1789552333447351800,2.702351806640625,-0.15000611543655396,0.032747432589530945,-0.000657388474792242
1789552333457320700,2.71232080078125,-0.14780345559120178,-0.01155044138431549,0.050609324127435684
1789552333467290600,2.72229052734375,-0.15214839577674866,-0.01738382875919342,0.014471292495727539
1789552333477259500,2.732259521484375,-0.207304447889328,0.020413463935256004,-0.002387198619544506
1789552333487228700,2.742228759765625,-0.17651963233947754,0.018564164638519287,-0.06395602226257324
1789552333497197600,2.752197509765625,-0.19896918535232544,-0.0026328908279538155,-0.025706637650728226
1789552333507166700,2.762166748046875,-0.2122650295495987,-0.016147900372743607,0.0351676307618618
1789552333517135600,2.772135498046875,-0.14923828840255737,-0.026555385440587997,-0.04774612933397293
1789552333527104500,2.7821044921875,-0.1526423543691635,-0.053906045854091644,-0.05853299796581268
1789552333537074700,2.79207470703125,-0.18697784841060638,-0.03355340659618378,0.0006362576968967915
1789552333547043800,2.8020439453125,-0.1465017944574356,-0.0450686439871788,-0.040266964584589005
1789552333557012700,2.8120126953125,-0.13308846950531006,-0.0434541329741478,-0.006451067980378866
1789552333566982000,2.82198193359375,-0.05623709782958031,-0.043573975563049316,-0.039677996188402176
1789552333576950800,2.83195068359375,-0.06253208220005035,-0.028909876942634583,-0.006967569701373577
1789552333586919700,2.841919677734375,0.009369006380438805,-0.05644536390900612,0.023689940571784973
1789552333596888800,2.851888916015625,0.055600669234991074,-0.050858013331890106,-0.000009232200682163239
1789552333606858800,2.861858642578125,0.0755876898765564,-0.007333971560001373,-0.0012641139328479767
1789552333616827600,2.87182763671875,0.06158888339996338,0.054237354546785355,-0.018104348331689835
1789552333626796800,2.881796875,0.1074698269367218,0.007866395637392998,-0.006381379906088114
1789552333636765700,2.891765625,0.08814490586519241,0.0587848499417305,-0.0033270902931690216
1789552333646734600,2.901734619140625,0.14133968949317932,0.03166641294956207,-0.027619382366538048
1789552333656703700,2.911703857421875,0.09050434082746506,0.03464725986123085,-0.0524010993540287
1789552333666672600,2.921672607421875,0.0711681917309761,0.021093368530273438,-0.02024875208735466
1789552333676642600,2.931642578125,0.06749717891216278,0.009130521677434444,-0.0746794119477272
1789552333686611700,2.94161181640625,0.014663792215287685,0.0448584221303463,-0.08942747116088867
1789552333696580600,2.95158056640625,-0.006813636049628258,0.05854909494519234,-0.07197444885969162
1789552333706549800,2.9615498046875,-0.05894314870238304,0.028977086767554283,-0.012029350735247135
1789552333716518700,2.9715185546875,-0.052934590727090836,0.03844292461872101,0.0003592628054320812
1789552333726487600,2.981487548828125,-0.039390284568071365,0.032941631972789764,0.0043084644712507725
1789552333736456700,2.991456787109375,-0.10939402133226395,0.07941519469022751,0.05029509961605072
1789552333746427000,3.001427001953125,-0.11095889657735825,0.040264591574668884,0.05027778819203377
1789552333756395800,3.011395751953125,-0.14425037801265717,0.09540790319442749,0.010436369106173515
1789552333766365000,3.021364990234375,-0.1900591403245926,0.08864559978246689,-0.05248640477657318
1789552333776333800,3.031333740234375,-0.21682214736938477,0.10028178244829178,-0.03218773379921913
1789552333786302700,3.041302734375,-0.19181346893310547,0.06000413000583649,-0.023230457678437233
1789552333796271900,3.05127197265625,-0.21443070471286774,0.05507687106728554,-0.013528324663639069
1789552333806240800,3.06124072265625,-0.19597046077251434,0.10298074781894684,-0.0025499751791357994
1789552333816210700,3.071210693359375,-0.14550182223320007,0.12474656850099564,-0.00046330131590366364
1789552333826179800,3.081179931640625,-0.12590759992599487,0.08522952347993851,-0.028319165110588074
1789552333836148700,3.091148681640625,-0.1640816181898117,0.11765830218791962,0.07439522445201874
1789552333846117600,3.10111767578125,-0.14721927046775818,0.12039225548505783,0.05159427598118782
1789552333856086800,3.111086669921875,-0.11372602730989456,0.11488936841487885,-0.013746113516390324
1789552333866055700,3.1210556640625,-0.1624661386013031,0.11937865614891052,0.0679229199886322
1789552333876024800,3.13102490234375,-0.17029617726802826,0.09626081585884094,0.035502687096595764
1789552333885994800,3.140994873046875,-0.12361442297697067,0.05893927812576294,0.04571857303380966
1789552333895963600,3.150963623046875,-0.1102711632847786,0.09248503297567368,0.02539054863154888
1789552333905932500,3.1609326171875,-0.17035821080207825,0.08759786188602448,0.04114500805735588
1789552333915901700,3.170901611328125,-0.11442142724990845,0.06629292666912079,0.02372518554329872
1789552333925870600,3.18087060546875,-0.0692153349518776,0.01554479356855154,0.05409294366836548
1789552333935839700,3.19083984375,-0.1127815842628479,-0.012492671608924866,0.07529724389314651
1789552333945808600,3.20080859375,-0.11052615195512772,0.04955924674868584,0.06474605947732925
1789552333955777500,3.210777587890625,-0.055528588593006134,0.019864968955516815,0.009777826257050037
1789552333965747700,3.220747802734375,-0.08061609417200089,0.009262658655643463,0.03201388940215111
1789552333975716600,3.230716552734375,-0.03782337158918381,-0.0214611254632473,0.07289237529039383
1789552333985685500,3.240685546875,0.017433222383260727,-0.029071373865008354,0.03403392806649208
1789552333995655000,3.250655029296875,0.030425067991018295,0.03539596498012543,-0.02186046540737152
1789552334005623800,3.260623779296875,-0.0005709296092391014,0.056737739592790604,0.0048768725246191025
1789552334015592700,3.2705927734375,0.025634726509451866,0.08969833701848984,0.00025699473917484283
1789552334025561900,3.280561767578125,0.029883798211812973,0.0290544331073761,0.05399399250745773
1789552334035531800,3.29053173828125,-0.02407422661781311,0.12297476083040237,0.053993698209524155
1789552334045500700,3.300500732421875,-0.04357628896832466,0.09141737222671509,0.0473371259868145
1789552334055469800,3.3104697265625,-0.03127279505133629,0.047532059252262115,0.0067841969430446625
1789552334065438700,3.320438720703125,-0.10764186829328537,0.06168409809470177,-0.03927277773618698
1789552334075407400,3.330407470703125,-0.2156083732843399,0.08081042021512985,0.015165754593908787
1789552334085376300,3.340376220703125,-0.20751236379146576,0.027316300198435783,-0.0063904039561748505
1789552334095345200,3.35034521484375,-0.2227220982313156,0.08518839627504349,-0.05297725275158882
1789552334105315300,3.3603154296875,-0.23733380436897278,0.06398910284042358,-0.10002172738313675
1789552334115284500,3.370284423828125,-0.2663901746273041,0.008835844695568085,-0.014331203885376453
1789552334125253400,3.38025341796875,-0.26377496123313904,0.007099196780472994,-0.026841137558221817
1789552334135222500,3.390222412109375,-0.25928160548210144,0.010785074904561043,-0.057000260800123215
1789552334145191400,3.40019140625,-0.28773561120033264,-0.015028413385152817,-0.09220883995294571
1789552334155160300,3.410160400390625,-0.33230599761009216,-0.015557849779725075,-0.011409071274101734
1789552334165129500,3.42012939453125,-0.31854012608528137,-0.09169816225767136,0.05801767483353615
1789552334175098400,3.430098388671875,-0.2817714214324951,-0.01990385726094246,0.009864114224910736
1789552334185068300,3.440068359375,-0.2603835463523865,-0.0438467413187027,-0.0008617672137916088
1789552334195037400,3.450037353515625,-0.2881462275981903,-0.08001358062028885,0.002898199949413538
1789552334205006300,3.46000634765625,-0.32017847895622253,-0.0642484650015831,-0.022638317197561264
1789552334214975200,3.469975341796875,-0.2667140066623688,-0.13161829113960266,-0.014956695958971977
1789552334224944400,3.4799443359375,-0.2893708646297455,-0.08195273578166962,-0.0840044766664505
1789552334234913300,3.489913330078125,-0.29261186718940735,-0.08641801029443741,-0.045442163944244385
1789552334244882400,3.49988232421875,-0.27534019947052,-0.1559150516986847,-0.04235289618372917
1789552334254852400,3.509852294921875,-0.24096232652664185,-0.15314117074012756,0.009233861230313778
1789552334264821200,3.5198212890625,-0.18618829548358917,-0.13626763224601746,-0.003770353738218546
1789552334274790400,3.529790283203125,-0.18200962245464325,-0.13303698599338531,0.051829706877470016
1789552334284759300,3.53975927734375,-0.14800691604614258,-0.11066296696662903,0.038276880979537964
1789552334294728200,3.549728271484375,-0.08509621024131775,-0.14822602272033691,-0.009032253175973892
1789552334304697300,3.559697265625,-0.11765974760055542,-0.14193511009216309,0.02931353636085987
1789552334314666200,3.569666259765625,-0.18007144331932068,-0.1725521832704544,0.09095476567745209
1789552334324635400,3.579635498046875,-0.10380756855010986,-0.2115618884563446,0.08820585161447525
1789552334334605300,3.589605224609375,-0.09554307162761688,-0.1464911550283432,0.012212788686156273
1789552334344574200,3.59957421875,-0.05732883885502815,-0.1371128410100937,-0.022334802895784378
1789552334354543000,3.609543212890625,-0.061526354402303696,-0.1123560220003128,0.024898044764995575
1789552334364512500,3.619512451171875,-0.029022207483649254,-0.18396948277950287,0.06373465806245804
1789552334374481400,3.6294814453125,0.0001602977281436324,-0.1353803128004074,-0.005989862140268087
1789552334384450600,3.639450439453125,-0.032044775784015656,-0.13126839697360992,0.021823126822710037
1789552334394419500,3.64941943359375,0.017416782677173615,-0.18448315560817719,0.009190421551465988
1789552334404389400,3.659389404296875,0.014189830049872398,-0.13952632248401642,0.008166968822479248
1789552334414358300,3.669358154296875,-0.012377537786960602,-0.1572759747505188,0.017001211643218994
1789552334424327400,3.679327392578125,-0.005209107883274555,-0.133254274725914,0.053180523216724396
1789552334434296300,3.68929638671875,0.06601826101541519,-0.11323757469654083,0.04313255846500397
1789552334444265500,3.699265380859375,0.07201436907052994,-0.11832314729690552,0.0784737691283226
1789552334454234400,3.709234375,0.03698023781180382,-0.04339168965816498,0.09776328504085541
1789552334464203300,3.719203369140625,0.05120471119880676,-0.07197033613920212,0.06611001491546631
1789552334474172400,3.72917236328125,0.028143005445599556,-0.029912468045949936,0.013599257916212082
1789552334484142300,3.739142333984375,-0.012394566088914871,-0.07778970897197723,0.057962726801633835
1789552334494111200,3.749111328125,-0.10451854765415192,-0.16375160217285156,0.1306782364845276
1789552334504080400,3.759080322265625,-0.09166160225868225,-0.19621287286281586,0.09050232172012329
1789552334514049300,3.76904931640625,-0.12838837504386902,-0.0579807348549366,-0.03664316609501839
1789552334524018200,3.77901806640625,-0.08028768748044968,-0.06073391065001488,-0.030908048152923584
1789552334533987300,3.7889873046875,-0.07686882466077805,-0.11726342886686325,0.05994711071252823
1789552334543956200,3.798956298828125,-0.07668160647153854,-0.10067326575517654,0.04059445112943649
1789552334553926100,3.808926025390625,-0.08957233279943466,-0.12109962105751038,0.0004505258984863758
1789552334563895300,3.818895263671875,-0.193583145737648,-0.11660926043987274,0.020398667082190514
1789552334573864200,3.8288642578125,-0.10905032604932785,-0.15164633095264435,0.05072735995054245
1789552334583833300,3.838833251953125,0.013715810142457485,-0.14073775708675385,-0.054904792457818985
1789552334593802200,3.84880224609375,-0.03807501867413521,-0.05150358006358147,-0.09177187085151672
1789552334603771100,3.858771240234375,-0.0027519145514816046,-0.09088107943534851,-0.013033652678132057
1789552334613740500,3.868740478515625,0.08437450230121613,-0.13236042857170105,0.008989564143121243
1789552334623709400,3.87870947265625,0.0422787107527256,-0.03777772933244705,0.0055745928548276424
1789552334633679400,3.888679443359375,0.03643416985869408,-0.07891539484262466,-0.00018428824841976166
1789552334643648500,3.8986484375,0.1178177073597908,-0.0873834490776062,0.03756628558039665
1789552334653617400,3.908617431640625,0.07804659754037857,-0.09332522749900818,0.004638430196791887
1789552334663586300,3.91858642578125,0.008196408860385418,-0.05706069618463516,-0.004146273247897625
1789552334673555500,3.928555419921875,0.054712869226932526,-0.07398618757724762,-0.015628281980752945
1789552334683524400,3.9385244140625,0.06368692219257355,-0.07422107458114624,-0.06521420925855637
1789552334693493200,3.9484931640625,0.06824667751789093,-0.052350323647260666,-0.05034622922539711
1789552334703462400,3.95846240234375,0.07160039991140366,-0.10551793873310089,-0.027133051306009293
1789552334713432300,3.968432373046875,0.08841940015554428,-0.06936631351709366,-0.06608261168003082
1789552334723401200,3.978401123046875,0.0610349103808403,-0.045512378215789795,-0.05733758956193924
1789552334733370400,3.988370361328125,0.06409625709056854,-0.08461444824934006,0.006984940730035305
1789552334743339300,3.99833935546875,0.15187326073646545,-0.09428918361663818,-0.06803923845291138
1789552334753308400,4.008308349609375,0.11145195364952087,-0.0784614160656929,-0.028119420632719994
1789552334763277300,4.01827734375,0.17058664560317993,-0.09510777145624161,-0.005074555054306984
1789552334773246200,4.02824609375,0.18625999987125397,-0.05882404372096062,-0.03264644742012024
1789552334783215400,4.03821533203125,0.17494049668312073,-0.025291653349995613,-0.03795892000198364
1789552334793185300,4.048185302734375,0.24652834236621857,-0.07507754862308502,-0.005801604129374027
1789552334803154200,4.058154296875,0.20473375916481018,-0.0577896386384964,-0.02997671440243721
1789552334813123300,4.068123291015625,0.1056278869509697,-0.020307207480072975,-0.004176367074251175
1789552334823092200,4.07809228515625,0.14719557762145996,-0.09796418249607086,0.04772677645087242
1789552334833061000,4.08806103515625,0.21698394417762756,-0.1094978079199791,0.01946759968996048
1789552334843030300,4.0980302734375,0.15645349025726318,-0.06331220269203186,-0.0035777981393039227
1789552334852999200,4.107999267578125,0.14259059727191925,-0.044590819627046585,0.027288883924484253
1789552334862968300,4.11796826171875,0.23967985808849335,-0.0893271267414093,0.03580247610807419
1789552334872938500,4.1279384765625,0.2109798640012741,-0.052490849047899246,-0.02749745547771454
1789552334882907400,4.137907470703125,0.06529270112514496,0.0954970195889473,-0.004978564567863941
1789552334892876300,4.147876220703125,0.21405650675296783,-0.05307534337043762,0.0540427640080452
1789552334902845400,4.157845458984375,0.2455875277519226,-0.04391060769557953,0.054273929446935654
1789552334912814300,4.167814453125,0.16492564976215363,0.03060285374522209,-0.006937025114893913
1789552334922783500,4.177783447265625,0.241597518324852,0.009607822634279728,-0.04072215408086777
1789552334932752400,4.18775244140625,0.323268324136734,-0.03768930584192276,-0.0039748502895236015
1789552334942721300,4.19772119140625,0.21509207785129547,0.044298503547906876,0.029724523425102234
1789552334952691200,4.207691162109375,0.16849163174629211,0.048622824251651764,0.006116428412497044
1789552334962660400,4.217660400390625,0.17943456768989563,0.0030372310429811478,0.001216744538396597
1789552334972629200,4.227629150390625,0.18383467197418213,0.016960330307483673,-0.0026448043063282967
1789552334982598400,4.237598388671875,0.11375384777784348,0.01263802032917738,0.04021451249718666
1789552334992567300,4.2475673828125,0.09731533378362656,0.012945101596415043,0.019196927547454834
1789552335002536200,4.2575361328125,0.1029985174536705,0.03544268757104874,0.0024331279564648867
1789552335012505300,4.26750537109375,0.09600629657506943,0.0023866728879511356,0.014694739133119583
1789552335022474200,4.27747412109375,0.07748321443796158,0.04308723285794258,0.011453140527009964
1789552335032444200,4.287444091796875,0.0908476710319519,0.026659464463591576,-0.048965051770210266
1789552335042413300,4.297413330078125,0.05784976854920387,0.04323737695813179,-0.033496081829071045
1789552335052382200,4.30738232421875,0.03656072914600372,0.0713343471288681,-0.07305902242660522
1789552335062351000,4.31735107421875,0.014855965040624142,0.062015410512685776,0.0016170782037079334
1789552335072320300,4.3273203125,0.06959319114685059,0.02765081450343132,0.03825755789875984
1789552335082290200,4.337290283203125,0.07948283851146698,0.04078126698732376,0.03097168169915676
1789552335092259000,4.347259033203125,0.06223765388131142,0.08565039932727814,0.03851233422756195
1789552335102228200,4.357228271484375,0.10281436890363693,0.07242487370967865,0.015532717108726501
1789552335112198100,4.3671982421875,0.09750301390886307,0.09260698407888412,-0.04355333000421524
1789552335122167000,4.3771669921875,0.06417915225028992,0.07782617211341858,-0.03747173771262169
1789552335132136200,4.38713623046875,0.019659189507365227,0.059754956513643265,-0.02374402806162834
1789552335142105000,4.39710498046875,0.06304474174976349,0.07433415949344635,-0.11019796133041382
1789552335152074000,4.407073974609375,-0.024829041212797165,0.12723858654499054,-0.059792280197143555
1789552335162043100,4.417043212890625,-0.06248054653406143,0.10735143721103668,0.03171953186392784
1789552335172012000,4.427011962890625,-0.04762440174818039,0.07703374326229095,-0.051897723227739334
1789552335181981200,4.436981201171875,-0.18298675119876862,0.03203164413571358,-0.05600591376423836
1789552335191951000,4.446951171875,-0.23050475120544434,0.03865763172507286,-0.04812372475862503
1789552335201920000,4.456919921875,-0.061254747211933136,-0.04446814954280853,-0.05287427455186844
1789552335211889200,4.46688916015625,-0.11015813797712326,0.04958111420273781,-0.05403313785791397
1789552335221858000,4.476858154296875,-0.16475747525691986,0.029948554933071136,-0.12165265530347824
1789552335231827000,4.486826904296875,-0.18259651958942413,0.042435966432094574,0.023925431072711945
1789552335241796000,4.496796142578125,-0.12417022138834,-0.010399287566542625,-0.04529784992337227
1789552335251765000,4.506764892578125,-0.19805163145065308,0.020340561866760254,-0.07444226741790771
1789552335261734000,4.51673388671875,-0.26102739572525024,-0.018283529207110405,0.04363030940294266
1789552335271704300,4.526704345703125,-0.21169313788414001,-0.02607434056699276,0.0889623686671257
1789552335281673200,4.536673095703125,-0.14735189080238342,0.06136142089962959,-0.007866643369197845
1789552335291642000,4.54664208984375,-0.10345087945461273,0.04135502129793167,0.0012527862563729286
1789552335301611300,4.556611328125,-0.13203805685043335,0.07219096273183823,0.021845679730176926
1789552335311580200,4.566580078125,-0.19276678562164307,0.10126742720603943,0.053159892559051514
1789552335321549000,4.576549072265625,-0.1499444991350174,0.08565916866064072,0.043489955365657806
1789552335331518200,4.586518310546875,-0.19635328650474548,0.10571850091218948,0.03951912745833397
1789552335341487000,4.596487060546875,-0.22163040935993195,0.12846268713474274,0.017701180651783943
1789552335351456300,4.606456298828125,-0.2454260289669037,0.10848715901374817,-0.0015060394071042538
1789552335361426200,4.61642626953125,-0.28598251938819885,0.10060819983482361,0.017556868493556976
1789552335371395000,4.62639501953125,-0.3160530924797058,0.05990736559033394,0.05024491995573044
1789552335381364200,4.6363642578125,-0.3382740020751953,-0.0005844731349498034,0.01969366893172264
1789552335391333000,4.6463330078125,-0.33817896246910095,-0.01751517690718174,0.03369198366999626
1789552335401302000,4.656302001953125,-0.3740357756614685,-0.02051416225731373,0.007042529061436653
1789552335411271200,4.666271240234375,-0.35571858286857605,-0.031203782185912132,0.05557946860790253
1789552335421240000,4.676239990234375,-0.3362990915775299,0.0031693701166659594,0.01070387288928032
1789552335431209000,4.686208984375,-0.29240819811820984,-0.005432752426713705,0.01450461894273758
1789552335441179100,4.69617919921875,-0.2906624972820282,-0.02966884896159172,0.034814685583114624
1789552335451148000,4.70614794921875,-0.2709258794784546,-0.035230785608291626,0.05328497663140297
1789552335461117000,4.716116943359375,-0.22171518206596375,-0.03196228668093681,0.05570818856358528
1789552335471086000,4.726086181640625,-0.23578539490699768,-0.01588938757777214,0.04657227173447609
1789552335481055000,4.736054931640625,-0.23468710482120514,0.0045197466388344765,0.01366758719086647
1789552335491024100,4.746024169921875,-0.2225557267665863,-0.030471988022327423,0.03968755528330803
1789552335500993000,4.755992919921875,-0.22546842694282532,0.011324194259941578,-0.02390792965888977
1789552335510962000,4.7659619140625,-0.1634410321712494,-0.040143176913261414,-0.023377368226647377
1789552335520931000,4.77593115234375,-0.24745871126651764,-0.06490364670753479,0.11163344979286194
1789552335530901200,4.7859013671875,-0.2179565131664276,-0.07163772732019424,0.10336927324533463
1789552335540870100,4.7958701171875,-0.1324450820684433,-0.041424695402383804,-0.008852073922753334
1789552335550839300,4.80583935546875,-0.1690366566181183,-0.011543186381459236,0.016008298844099045
1789552335560808200,4.81580810546875,-0.12515175342559814,-0.10085282474756241,0.06833408772945404
1789552335570777000,4.825777099609375,-0.1623857468366623,-0.029528502374887466,-0.003941234201192856
1789552335580746200,4.835746337890625,-0.16638687252998352,-0.0804864913225174,-0.03495880588889122
1789552335590715100,4.845715087890625,-0.22367316484451294,-0.07845225185155869,0.03766503557562828
1789552335600684300,4.855684326171875,-0.14811581373214722,-0.12270120531320572,-0.03755541518330574
1789552335610654200,4.865654296875,-0.16607169806957245,-0.06134175881743431,-0.01982009783387184
1789552335620623000,4.875623046875,-0.07132256031036377,-0.13678644597530365,-0.005918397102504969
1789552335630592000,4.885592041015625,-0.06985373795032501,-0.11745192855596542,-0.027018144726753235
1789552335640561200,4.89556103515625,-0.09069643169641495,-0.10591644793748856,-0.05984560027718544
1789552335650530000,4.905530029296875,-0.05056795850396156,-0.14207330346107483,-0.015990469604730606
1789552335660499200,4.915499267578125,-0.007090258412063122,-0.1558394581079483,-0.0194400604814291
1789552335670468000,4.925468017578125,0.022974558174610138,-0.0922662690281868,-0.07980543375015259
1789552335680437000,4.93543701171875,0.05073588341474533,-0.09495232999324799,-0.06667950749397278
1789552335690407000,4.945406982421875,0.07490401715040207,-0.12922576069831848,0.044998642057180405
1789552335700376000,4.9553759765625,0.0999331995844841,-0.09800446033477783,0.009203361347317696
1789552335710345000,4.965344970703125,0.13561251759529114,-0.12690602242946625,0.005102742929011583
1789552335720314000,4.975314208984375,0.18281224370002747,-0.11309408396482468,-0.0012222649529576302
1789552335730283000,4.985282958984375,0.23401406407356262,-0.16787385940551758,0.018265800550580025
1789552335740252000,4.995251953125,0.1872074156999588,-0.11545193195343018,0.02918369695544243
1789552335750221000,5.005220947265625,0.18874064087867737,-0.13970385491847992,-0.024336878210306168
1789552335760190000,5.01518994140625,0.21324385702610016,-0.16680657863616943,0.027328182011842728
1789552335770159000,5.0251591796875,0.28094249963760376,-0.18556104600429535,0.02200440503656864
1789552335780129300,5.03512939453125,0.2692357897758484,-0.10443451255559921,0.01874496228992939
1789552335790098200,5.04509814453125,0.3388665020465851,-0.09503199905157089,-0.008604253642261028
1789552335800067000,5.055067138671875,0.35719943046569824,-0.1467636376619339,0.05351264402270317
1789552335810036200,5.0650361328125,0.37151622772216797,-0.12976562976837158,0.07386502623558044
1789552335820005000,5.075005126953125,0.35587307810783386,-0.15116971731185913,0.07585147768259048
1789552335829974300,5.084974365234375,0.3787757158279419,-0.08743301033973694,0.043272823095321655
1789552335839943200,5.094943115234375,0.41688448190689087,-0.08637093007564545,0.029984982684254646
1789552335849912000,5.104912109375,0.45310670137405396,-0.11174304038286209,0.006117757875472307
1789552335859882200,5.11488232421875,0.3989534378051758,-0.09800192713737488,0.08841609209775925
1789552335869851100,5.12485107421875,0.46389099955558777,-0.11944279819726944,0.07493017613887787
1789552335879820000,5.134820068359375,0.4079470634460449,-0.05831286311149597,-0.009859547019004822
1789552335889789200,5.1447890625,0.3697620630264282,-0.005118937231600285,0.009232127107679844
1789552335899758000,5.154758056640625,0.39950424432754517,-0.04553986340761185,0.03199949115514755
1789552335909727000,5.16472705078125,0.38659021258354187,0.038678817451000214,-0.0371386893093586
1789552335919696100,5.174696044921875,0.3649533689022064,0.04192734137177467,-0.0068976981565356255
1789552335929665000,5.1846650390625,0.3238518238067627,0.060719773173332214,-0.021178755909204483
1789552335939634200,5.19463427734375,0.25015363097190857,0.0484660342335701,-0.04581752419471741
1789552335949604000,5.20460400390625,0.17393648624420166,0.038768377155065536,0.041841018944978714
1789552335959573000,5.214572998046875,0.1933317482471466,0.019994955509901047,0.020006028935313225
1789552335969542100,5.224542236328125,0.22972892224788666,-0.014153201133012772,0.021992981433868408
1789552335979511000,5.234510986328125,0.09729711711406708,0.06684736907482147,0.01635347306728363
1789552335989480000,5.24447998046875,0.10226708650588989,0.09329234063625336,-0.05300719663500786
1789552335999449000,5.254448974609375,0.1424456685781479,-0.00020698527805507183,0.011329449713230133
1789552336009418000,5.26441796875,-0.011152821592986584,0.06759805232286453,-0.019175846129655838
1789552336019387000,5.274386962890625,-0.0470101572573185,0.06023813784122467,-0.0024280259385704994
1789552336029357300,5.284357421875,0.003188762813806534,0.039380867034196854,-0.06513993442058563
1789552336039326200,5.294326171875,0.0004523649113252759,0.07109218835830688,-0.042002927511930466
1789552336049295000,5.304295166015625,0.01172870397567749,0.03924020379781723,-0.05484377220273018
1789552336059264300,5.31426416015625,0.01725449599325657,0.04681370407342911,0.022192155942320824
1789552336069233200,5.324233154296875,0.10299555212259293,0.03026079200208187,0.05569081753492355
1789552336079201000,5.334200927734375,0.10601557791233063,0.09711997956037521,-0.04290979355573654
1789552336090417000,5.3454169921875,0.07493675500154495,0.05078044906258583,-0.013878673315048218
1789552336100385800,5.3553857421875,0.02888198010623455,0.07609673589468002,-0.004327272064983845
1789552336110355000,5.36535498046875,0.09689286351203918,-0.00975174829363823,0.005683401599526405
1789552336120323800,5.37532373046875,0.1272137612104416,0.00627968180924654,-0.02827323228120804
1789552336130293000,5.38529296875,0.03991042822599411,0.02796250395476818,0.02001652680337429
1789552336140263000,5.395262939453125,0.10842344164848328,-0.034280627965927124,0.054590482264757156
1789552336150231800,5.405231689453125,0.17485551536083221,-0.029253290966153145,0.01375546958297491
1789552336160201000,5.415200927734375,0.15880383551120758,-0.010080660693347454,-0.05269545689225197
1789552336170170000,5.425170166015625,0.1822359412908554,-0.04181697219610214,-0.04766912758350372
1789552336180139000,5.435138916015625,0.1926843225955963,-0.04998728260397911,-0.03878668695688248
1789552336190108200,5.445108154296875,0.1624402403831482,-0.022927548736333847,-0.026497110724449158
1789552336200077000,5.4550771484375,0.14623171091079712,-0.006764025427401066,-0.009695494547486305
1789552336210046000,5.4650458984375,0.19588463008403778,-0.02524762973189354,-0.04982243850827217
1789552336220016000,5.47501611328125,0.15714947879314423,-0.03848939761519432,0.0038623588625341654
1789552336229985000,5.484985107421875,0.14610226452350616,-0.008244344964623451,-0.0021127411164343357
1789552336239954000,5.494953857421875,0.15331411361694336,-0.03745841979980469,-0.006100026424974203
1789552336249923000,5.504923095703125,0.141668900847435,-0.02885095588862896,0.053194932639598846
1789552336259892000,5.51489208984375,0.16693617403507233,-0.035452403128147125,0.018938692286610603
1789552336269860900,5.52486083984375,0.15279118716716766,0.043245717883110046,-0.0011262441985309124
1789552336279830000,5.534830078125,0.15727542340755463,0.0087314173579216,0.01962430775165558
1789552336289799000,5.544798828125,0.11614343523979187,0.07715335488319397,0.014026876538991928
1789552336299768800,5.554768798828125,0.07558535784482956,0.04758960008621216,0.034644268453121185
1789552336309738000,5.564738037109375,-0.0013127613347023726,0.09019545465707779,0.0817883163690567
1789552336319707000,5.574706787109375,-0.03745611757040024,0.08842232078313828,0.010565532371401787
1789552336329676000,5.584676025390625,-0.08835407346487045,0.11279016733169556,0.012225394137203693
1789552336339645000,5.59464501953125,-0.1319231241941452,0.10481080412864685,-0.006184771656990051
1789552336349613800,5.60461376953125,-0.11697537451982498,0.11357792466878891,-0.04046376794576645
1789552336359583000,5.6145830078125,-0.15070511400699615,0.1258055716753006,-0.07008051872253418
1789552336369552000,5.6245517578125,-0.27795037627220154,0.12799623608589172,-0.005730999168008566
1789552336379521800,5.634521728515625,-0.3107985854148865,0.08034004271030426,0.028421377763152122
1789552336389491000,5.644490966796875,-0.3277221918106079,0.08609993010759354,0.05386548489332199
1789552336399459800,5.6544599609375,-0.3366911709308624,0.09379992634057999,0.039099857211112976
1789552336409428700,5.6644287109375,-0.302536278963089,0.07835153490304947,0.09436440467834473
1789552336419398100,5.674398193359375,-0.19756965339183807,0.0939217060804367,0.008120334707200527
1789552336429367000,5.684366943359375,-0.18416716158390045,0.10320457071065903,-0.014400006271898746
1789552336439336000,5.6943359375,-0.2542208135128021,0.09813977032899857,-0.030766461044549942
1789552336449305000,5.70430517578125,-0.2083871066570282,0.006017415784299374,0.025871489197015762
1789552336459275000,5.71427490234375,-0.231135293841362,0.04623167961835861,-0.02733341045677662
1789552336469244000,5.724243896484375,-0.2605843245983124,0.08477728813886642,-0.016187608242034912
1789552336479213000,5.734213134765625,-0.19511689245700836,0.13390354812145233,-0.08585669845342636
1789552336489182000,5.744181884765625,-0.15576937794685364,0.04751342162489891,-0.01657840982079506
1789552336499151000,5.754151123046875,-0.17886005342006683,0.07953287661075592,0.04931138828396797
1789552336509119000,5.764118896484375,-0.15378782153129578,0.09053176641464233,0.01271269004791975
1789552336519089000,5.7740888671875,-0.08266542851924896,0.04814302548766136,-0.003486253786832094
1789552336529058000,5.78405810546875,-0.10713746398687363,0.04834245890378952,-0.01179268304258585
1789552336539027000,5.79402685546875,-0.1384384036064148,0.0764385387301445,0.015263169072568417
1789552336548996000,5.80399609375,-0.0821269229054451,0.057988427579402924,-0.03758619725704193
1789552336558965000,5.813965087890625,-0.10394273698329926,0.07157027721405029,0.017048818990588188
1789552336568934000,5.823933837890625,-0.10552371293306351,0.03501797467470169,0.029895760118961334
1789552336578903000,5.833903076171875,-0.1150895208120346,0.03995547443628311,-0.015855219215154648
1789552336588873000,5.843873046875,-0.08114136755466461,-0.0053496817126870155,0.016996324062347412
1789552336598841900,5.853841796875,-0.0335882343351841,0.00004188762977719307,-0.00458566565066576
1789552336608811000,5.86381103515625,-0.10465789586305618,0.013616200536489487,-0.014057645574212074
1789552336618780000,5.87377978515625,-0.07713945209980011,0.01803092285990715,-0.03186194226145744
1789552336628748800,5.883748779296875,-0.10811430960893631,0.0340024009346962,0.014127597212791443
1789552336638718000,5.893718017578125,-0.05678960680961609,0.018412254750728607,0.005071251653134823
1789552336648686800,5.903686767578125,-0.07020693272352219,0.016862330958247185,-0.03207381069660187
1789552336658656000,5.913656005859375,-0.0595867820084095,0.032384034246206284,-0.03022850677371025
1789552336668626200,5.923626220703125,-0.051799315959215164,-0.004285495262593031,-0.026598382741212845
1789552336678595000,5.933594970703125,-0.04694943130016327,0.02297089248895645,-0.0063916477374732494
1789552336688564000,5.94356396484375,-0.036793988198041916,0.001099908840842545,-0.028229864314198494
1789552336698533000,5.953533203125,-0.1010155901312828,0.05650964006781578,-0.044346779584884644
1789552336708502000,5.963501953125,-0.03036419115960598,-0.013496724888682365,-0.031663063913583755
1789552336718471200,5.97347119140625,-0.05237948149442673,0.019887864589691162,-0.011439550668001175
1789552336728440000,5.983440185546875,-0.036093421280384064,-0.001690743723884225,0.0005249055102467537
1789552336738410000,5.993409912109375,-0.03819838538765907,0.049916259944438934,0.01205825712531805
1789552336748379000,6.00337890625,0.0008548250189051032,0.04070785269141197,0.012251310050487518
1789552336758348000,6.01334814453125,0.0032804319635033607,-0.00017060479149222374,0.057182565331459045
1789552336768317000,6.02331689453125,-0.004058666527271271,0.02937983348965645,0.03731150925159454
1789552336778286000,6.0332861328125,0.01899685151875019,0.03214259818196297,-0.04208983853459358
1789552336788255000,6.0432548828125,-0.04441971331834793,0.020566364750266075,-0.03400513529777527
1789552336798224000,6.053223876953125,-0.05712965130805969,-0.03447158634662628,0.04837789013981819
1789552336808194000,6.063194091796875,-0.01230660080909729,-0.08809487521648407,0.07575547695159912
1789552336818163000,6.073162841796875,0.004308061674237251,-0.01519217062741518,-0.04066247493028641
1789552336828131800,6.0831318359375,-0.011070795357227325,-0.03456270694732666,0.016137363389134407
1789552336838101000,6.09310107421875,-0.029011446982622147,-0.07839939743280411,0.06373337656259537
1789552336848070000,6.10306982421875,-0.035150397568941116,-0.04766888543963432,0.0020644788164645433
1789552336858038800,6.113038818359375,-0.01730136014521122,-0.08021831512451172,0.026725083589553833
1789552336868008000,6.123008056640625,0.05491930991411209,-0.023752637207508087,-0.03226339817047119
1789552336877977900,6.132977783203125,0.06876348704099655,-0.011028318665921688,-0.003003516234457493
1789552336887946800,6.14294677734375,0.08009345084428787,-0.023410821333527565,0.04896586015820503
1789552336897916000,6.152916015625,0.07734080404043198,-0.049094878137111664,0.07710561156272888
1789552336907884800,6.162884765625,0.062387607991695404,0.0021189081016927958,0.06842991709709167
1789552336917854000,6.17285400390625,0.1124529093503952,-0.022583775222301483,0.007638208568096161
1789552336927823000,6.182822998046875,0.08315414190292358,-0.025746013969182968,-0.025745579972863197
1789552336937792000,6.1927919921875,0.053495850414037704,-0.015584454871714115,0.016033291816711426
1789552336947762000,6.202761962890625,0.09442289918661118,-0.05793829262256622,-0.003977608401328325
1789552336957731000,6.21273095703125,0.06118318438529968,-0.03035753220319748,-0.01344168372452259
1789552336967700000,6.222699951171875,0.07541143149137497,-0.052060816437006,-0.028263330459594727
1789552336977669000,6.232669189453125,0.10029201209545135,-0.08407174795866013,0.019262108951807022
1789552336987638000,6.242637939453125,0.06648557633161545,-0.04032476246356964,0.019051749259233475
1789552336997607000,6.25260693359375,0.05029008910059929,-0.030844969674944878,0.04485112428665161
1789552337007576000,6.262576171875,0.1466943919658661,-0.06573877483606339,-0.018920931965112686
1789552337017546000,6.2725458984375,0.1508081704378128,-0.06745118647813797,-0.03354674577713013
1789552337027515000,6.282514892578125,0.11715338379144669,-0.06454680860042572,0.030072089284658432
1789552337037484000,6.292484130859375,0.12952351570129395,-0.07789963483810425,-0.03064611926674843
1789552337047453000,6.302452880859375,0.16628696024417877,-0.050390180200338364,0.006162730511277914
1789552337057421800,6.312421875,0.11843074858188629,-0.0376536101102829,-0.009759245440363884
1789552337067391000,6.322390869140625,0.15828466415405273,-0.03567852824926376,-0.008658234030008316
1789552337077359900,6.33235986328125,0.16962040960788727,-0.08307401090860367,0.004406702239066362
1789552337087331300,6.342331298828125,0.17399278283119202,-0.04289409890770912,-0.006957805249840021
1789552337097300200,6.35230029296875,0.18914324045181274,-0.04094253480434418,-0.028439927846193314
1789552337107269400,6.362269287109375,0.17399734258651733,-0.017976580187678337,-0.021932020783424377
1789552337117238300,6.37223828125,0.18174448609352112,-0.0318460576236248,-0.017110634595155716
1789552337127207200,6.382207275390625,0.18530727922916412,-0.039940156042575836,-0.0062634302303195
1789552337137176300,6.39217626953125,0.15232430398464203,-0.06027738377451897,-0.05430898815393448
1789552337147145200,6.402145263671875,0.12584714591503143,-0.03642064705491066,-0.050898488610982895
1789552337157115100,6.412115234375,0.14331135153770447,-0.0848933756351471,-0.0187956765294075
1789552337167084300,6.422084228515625,0.09512832760810852,-0.03408901393413544,0.002958531491458416
1789552337177053200,6.43205322265625,0.0937538743019104,-0.051952701061964035,-0.018083635717630386
1789552337187022300,6.442022216796875,0.1322871595621109,-0.048502881079912186,0.01422074344009161
1789552337196991200,6.4519912109375,0.10316336154937744,-0.03349197283387184,0.006829405669122934
1789552337206960000,6.461960205078125,0.19218876957893372,-0.037840984761714935,-0.03886735811829567
1789552337216929300,6.47192919921875,0.16903658211231232,-0.013689571991562843,-0.06652455031871796
1789552337226899200,6.481899169921875,0.117775097489357,0.02251780964434147,-0.048521850258111954
1789552337236868000,6.4918681640625,0.1004943773150444,-0.011670786887407303,0.003774909768253565
1789552337246837200,6.501837158203125,0.16333486139774323,-0.03133556619286537,0.0073624541983008385
1789552337256806100,6.51180615234375,0.1815551519393921,-0.04299968108534813,-0.004230019636452198
1789552337266775000,6.521775146484375,0.13713505864143372,0.04756343364715576,-0.03404233232140541
1789552337276744200,6.531744140625,0.16052453219890594,-0.015185168012976646,-0.01880478858947754
1789552337286714400,6.54171435546875,0.10499071329832077,0.05217119678854942,-0.051466092467308044
1789552337296683300,6.551683349609375,0.08379089087247849,0.026985948905348778,-0.046537380665540695
1789552337306652400,6.56165234375,0.1067139208316803,0.01867552474141121,-0.02053234912455082
1789552337316621300,6.571621337890625,0.01393418200314045,0.05268941819667816,0.020097101107239723
1789552337326590200,6.581590087890625,0.03545616939663887,0.06858102232217789,-0.013083461672067642
1789552337336559400,6.591559326171875,-0.015166526660323143,0.08982212841510773,-0.04454125091433525
1789552337346528300,6.6015283203125,-0.07716599851846695,0.0966678261756897,0.0008235955610871315
1789552337356497400,6.611497314453125,-0.04122184216976166,0.07421471178531647,0.02587275579571724
1789552337366467300,6.62146728515625,-0.08400677889585495,0.11981217563152313,0.0017498722299933434
1789552337376436200,6.631436279296875,-0.1463598906993866,0.09727384150028229,0.02463334985077381
1789552337386405000,6.641405029296875,-0.134539395570755,0.061451856046915054,0.041412387043237686
1789552337396374300,6.651374267578125,-0.16650131344795227,0.04698343575000763,0.06272699683904648
1789552337406343200,6.66134326171875,-0.16871631145477295,0.09690690040588379,0.04268227517604828
1789552337416312300,6.671312255859375,-0.1604626327753067,0.04350333660840988,0.012835163623094559
1789552337426282200,6.6812822265625,-0.19239793717861176,0.07227151095867157,0.00954118650406599
1789552337436251100,6.691251220703125,-0.1777268499135971,0.01855689100921154,0.04651598259806633
1789552337446220000,6.701219970703125,-0.14002013206481934,-0.006839273497462273,0.0766323134303093
1789552337456189200,6.711189208984375,-0.12850835919380188,0.0784820169210434,0.016698136925697327
1789552337466158000,6.721157958984375,-0.05845988169312477,0.08072314411401749,-0.006384723354130983
1789552337476127200,6.731127197265625,-0.06642140448093414,0.06104876846075058,0.02223174087703228
1789552337486096100,6.74109619140625,-0.09503781050443649,0.05607368052005768,0.0690683126449585
1789552337496066000,6.751066162109375,-0.061960019171237946,0.05508218705654144,-0.023895718157291412
1789552337506035200,6.76103515625,-0.06419692188501358,0.058531180024147034,-0.021887660026550293
1789552337516004000,6.771004150390625,-0.06221739575266838,-0.008032933808863163,0.04288893938064575
1789552337525973200,6.78097314453125,-0.03736220672726631,0.02465926483273506,-0.008660482242703438
1789552337535942400,6.7909423828125,-0.05266126990318298,0.012453198432922363,0.018379125744104385
1789552337545911300,6.800911376953125,-0.010875922627747059,0.06827773153781891,-0.026867154985666275
1789552337555880200,6.810880126953125,-0.004373548552393913,0.05829087644815445,-0.04034008830785751
1789552337565850400,6.820850341796875,-0.061042577028274536,0.05389327183365822,-0.06565213203430176
1789552337575819300,6.8308193359375,-0.06646743416786194,0.028167398646473885,-0.03610862046480179
1789552337585788200,6.8407880859375,-0.0031353470403701067,-0.020636584609746933,-0.00734112411737442
1789552337595757300,6.85075732421875,-0.07780559360980988,-0.008512810803949833,-0.007935541681945324
1789552337605726200,6.860726318359375,-0.1417151689529419,0.058314576745033264,0.013974817469716072
1789552337615695400,6.8706953125,-0.04130519926548004,-0.020567985251545906,-0.02545115351676941
1789552337625664300,6.880664306640625,-0.10679249465465546,0.04482119530439377,-0.046721696853637695
1789552337635634200,6.89063427734375,-0.07069574296474457,0.00920008309185505,-0.06686744093894958
1789552337645603000,6.90060302734375,-0.12680144608020782,0.025079088285565376,-0.022909993305802345
1789552337655572200,6.910572265625,-0.10078422725200653,0.0403113029897213,-0.08136824518442154
1789552337665541000,6.920541015625,-0.09754481911659241,0.057839058339595795,-0.05634346231818199
1789552337675510300,6.93051025390625,-0.06870544701814651,-0.02782125025987625,0.06829993426799774
1789552337685479200,6.940479248046875,-0.11510580778121948,0.06654872745275497,-0.035332098603248596
1789552337695448000,6.950447998046875,-0.08243734389543533,0.03604275733232498,-0.04896189272403717
1789552337705418000,6.96041796875,-0.08284646272659302,0.01729067787528038,0.0079002371057868
1789552337715387100,6.97038720703125,-0.04657820612192154,0.0020169157069176435,-0.02259029448032379
1789552337725356000,6.98035595703125,-0.06704837083816528,0.011046092957258224,-0.07858018577098846
1789552337735325200,6.9903251953125,-0.10224710404872894,0.017139673233032227,-0.00718642445281148
1789552337745294000,7.000294189453125,-0.05023869127035141,-0.016572169959545135,0.023723823949694633
1789552337755263000,7.010262939453125,-0.006932498887181282,0.01222538948059082,-0.017175406217575073
1789552337765232000,7.020232177734375,-0.053560830652713776,0.06344364583492279,-0.08805321902036667
1789552337775202300,7.030202392578125,-0.05003666877746582,0.043784186244010925,-0.05227205157279968
1789552337785171200,7.040171142578125,-0.05235125496983528,-0.011870739050209522,-0.008922919631004333
1789552337795140400,7.050140380859375,-0.059400107711553574,-0.031182117760181427,0.07726016640663147
1789552337805109200,7.060109130859375,-0.03481739014387131,-0.044906605035066605,0.05636672303080559
1789552337815078100,7.070078125,-0.032883405685424805,-0.02508576400578022,0.04632660746574402
1789552337825047300,7.08004736328125,-0.03396200016140938,-0.04283755645155907,0.07061067223548889
1789552337835016200,7.09001611328125,-0.017866920679807663,-0.02563966065645218,0.0034832977689802647
1789552337844986000,7.099986083984375,-0.014539356343448162,-0.0669521763920784,-0.0015376489609479904
1789552337854955300,7.109955322265625,0.003508086781948805,-0.05436847358942032,-0.029063813388347626
1789552337864924200,7.119924072265625,0.00917624868452549,-0.06825998425483704,-0.015915434807538986
1789552337874893300,7.129893310546875,0.07816118001937866,-0.1205679252743721,0.1026357114315033
1789552337884862200,7.1398623046875,0.11310011893510818,-0.025488704442977905,-0.015291871502995491
1789552337894831000,7.1498310546875,0.10712479054927826,0.020146159455180168,-0.005516739096492529
1789552337904800300,7.15980029296875,0.07962317764759064,-0.02091263234615326,0.07396192848682404
1789552337914770200,7.169770263671875,0.13954536616802216,-0.028045909479260445,0.08475571870803833
1789552337924739000,7.179739013671875,0.09652914851903915,0.011233316734433174,0.0003613606095314026
1789552337934708200,7.189708251953125,0.02027459628880024,0.04094620794057846,-0.049087148159742355
1789552337944677000,7.199677001953125,0.06927981227636337,-0.026766907423734665,0.05053839087486267
1789552337954646000,7.20964599609375,0.1057739108800888,-0.014899329282343388,0.02942192181944847
1789552337964615200,7.219615234375,0.08901900798082352,0.020339544862508774,-0.07441774010658264
1789552337974584000,7.229583984375,0.012483754195272923,-0.004131710156798363,-0.02808966115117073
1789552337984554200,7.23955419921875,0.08932288736104965,-0.10452546924352646,0.00817883387207985
1789552337994523400,7.2495234375,0.053126271814107895,-0.07302000373601913,-0.05255535617470741
1789552338004492300,7.2594921875,-0.005885414779186249,-0.05821407958865166,-0.026366297155618668
1789552338014461200,7.269461181640625,0.055703114718198776,-0.057469192892313004,-0.070420041680336
1789552338024430300,7.279430419921875,0.05890408158302307,-0.047666825354099274,-0.05578440800309181
1789552338034399200,7.289399169921875,0.041475825011730194,-0.03428604453802109,-0.031487323343753815
1789552338044368400,7.299368408203125,0.08049128949642181,-0.057467326521873474,-0.01504440326243639
1789552338054338300,7.30933837890625,0.15291354060173035,-0.1032119169831276,0.00242114020511508
1789552338064307200,7.31930712890625,0.1350654512643814,-0.06454616785049438,0.012416900135576725
1789552338074276000,7.329276123046875,0.13183371722698212,-0.07768114656209946,-0.023950960487127304
1789552338084244200,7.339244140625,0.16563928127288818,-0.030454203486442566,-0.03136422485113144
1789552338094213000,7.349213134765625,0.15755179524421692,-0.05792630836367607,0.014588085934519768
1789552338104182300,7.359182373046875,0.18412040174007416,-0.03812524676322937,-0.029746707528829575
1789552338114151200,7.369151123046875,0.19299966096878052,-0.058310143649578094,-0.011961054056882858
1789552338124121000,7.37912109375,0.21978454291820526,-0.011743366718292236,-0.08308415114879608
1789552338134090200,7.38909033203125,0.2136227935552597,-0.05340160056948662,-0.05563361197710037
1789552338144059100,7.39905908203125,0.1763087660074234,-0.0013770489022135735,-0.06510026007890701
1789552338154028300,7.4090283203125,0.20760037004947662,-0.04020673781633377,-0.06653863191604614
1789552338163997200,7.4189970703125,0.15684965252876282,-0.041867297142744064,-0.0095748919993639
1789552338173966000,7.428966064453125,0.1594180017709732,-0.05725663900375366,-0.003722861874848604
1789552338183935200,7.438935302734375,0.1608051359653473,-0.042583346366882324,0.01368524506688118
1789552338193905400,7.448905517578125,0.13256150484085083,-0.06254000961780548,0.04544956609606743
1789552338203874300,7.458874267578125,0.08933915942907333,-0.0060744816437363625,0.08356987684965134
1789552338213843500,7.468843505859375,0.1364976167678833,-0.01668344996869564,-0.0028257309459149837
1789552338223812400,7.478812255859375,0.14517009258270264,0.023966580629348755,-0.013104647397994995
1789552338233781200,7.48878125,0.08876486867666245,0.009885115548968315,0.02513648197054863
1789552338243750400,7.49875048828125,0.10530299693346024,-0.009089034050703049,0.022991660982370377
1789552338253719300,7.50871923828125,0.10139107704162598,0.002920489991083741,-0.05949948728084564
1789552338263688400,7.5186884765625,0.027528373524546623,0.0174277164041996,0.049353551119565964
1789552338273658400,7.528658447265625,0.06338783353567123,0.01616963930428028,0.024450331926345825
1789552338283627300,7.538627197265625,0.12798115611076355,0.0021473339293152094,0.03315665200352669
1789552338293596200,7.54859619140625,0.11199287325143814,0.08911632001399994,-0.05680226534605026
1789552338303565300,7.5585654296875,0.0028914553113281727,0.11812453716993332,0.036198630928993225
1789552338313534200,7.5685341796875,0.021361809223890305,0.0903613492846489,0.10845338553190231
1789552338323503400,7.57850341796875,0.026131724938750267,0.08732729405164719,0.09112866222858429
1789552338333472300,7.58847216796875,-0.04363803565502167,0.15421098470687866,0.012736923061311245
1789552338343442200,7.598442138671875,-0.11200453341007233,0.11956965178251266,0.08113127946853638
1789552338353411000,7.6084111328125,-0.08853862434625626,0.07871169596910477,0.09453204274177551
1789552338363380200,7.618380126953125,-0.1507255584001541,0.09571598470211029,0.02392684668302536
1789552338373349000,7.62834912109375,-0.22021010518074036,0.12767018377780914,-0.04008995369076729
1789552338383318300,7.638318359375,-0.22283205389976501,0.06875528395175934,-0.01847047172486782
1789552338393287200,7.648287109375,-0.23137547075748444,0.07801269739866257,-0.025793366134166718
1789552338403256000,7.658256103515625,-0.2514590919017792,0.03982133790850639,0.008719281293451786
1789552338413226200,7.668226318359375,-0.22312277555465698,0.0414743646979332,0.05791532248258591
1789552338423195400,7.6781953125,-0.20456914603710175,0.034550219774246216,0.08544488996267319
1789552338433164300,7.688164306640625,-0.2101881355047226,0.07914325594902039,0.05767957493662834
1789552338443133400,7.698133544921875,-0.15415889024734497,0.09903530776500702,0.0889231264591217
1789552338453102300,7.708102294921875,-0.06326920539140701,0.09330391883850098,-0.002555125392973423
1789552338463071200,7.7180712890625,-0.13495124876499176,0.11457163095474243,-0.0730350911617279
1789552338473040400,7.728040283203125,-0.164669468998909,0.063720703125,0.07727718353271484
1789552338483009300,7.73800927734375,-0.07648755609989166,0.04529915004968643,-0.026169877499341965
1789552338492979200,7.747979248046875,-0.15649902820587158,0.08315012603998184,-0.061073265969753265
1789552338502948400,7.7579482421875,-0.1711503565311432,0.05968258157372475,0.01892205700278282
1789552338512917200,7.767917236328125,-0.1208387166261673,0.008325915783643723,-0.02550479583442211
1789552338522886400,7.777886474609375,-0.1871887594461441,0.040421392768621445,0.025598693639039993
1789552338532855300,7.787855224609375,-0.22100265324115753,0.0043400852009654045,0.006850039586424828
1789552338542824200,7.79782421875,-0.21091187000274658,0.010705004446208477,-0.009604478254914284
1789552338552793300,7.80779345703125,-0.22334058582782745,-0.01800094172358513,-0.020217707380652428
1789552338562763300,7.81776318359375,-0.23300470411777496,-0.040078818798065186,0.056399185210466385
1789552338572732200,7.827732177734375,-0.193699911236763,0.0523616299033165,-0.04893708974123001
1789552338582701300,7.837701416015625,-0.14376337826251984,0.023792600259184837,-0.11803393065929413
1789552338592670200,7.847670166015625,-0.2929227650165558,0.031537603586912155,0.005806520115584135
1789552338602639000,7.85763916015625,-0.28424304723739624,-0.0061692181043326855,-0.027289442718029022
1789552338612608300,7.867608154296875,-0.2172730714082718,-0.059082236140966415,-0.06775777041912079
1789552338622577200,7.8775771484375,-0.2631804347038269,-0.016400959342718124,-0.07372608780860901
1789552338632547000,7.887547119140625,-0.26690512895584106,-0.03985728323459625,-0.0061712805181741714
1789552338642516200,7.89751611328125,-0.19198982417583466,-0.07957552373409271,0.02220088057219982
1789552338652485000,7.907485107421875,-0.16743947565555573,-0.0045745172537863255,-0.05982048436999321
1789552338662454000,7.9174541015625,-0.15426139533519745,-0.012051752768456936,-0.08802060782909393
1789552338672423400,7.92742333984375,-0.13362962007522583,-0.03176633268594742,-0.002800517715513706
1789552338682392300,7.937392333984375,-0.11476604640483856,-0.04678032547235489,-0.02415469102561474
1789552338692361500,7.947361572265625,-0.08728834986686707,-0.07235386222600937,-0.04901929199695587
1789552338702330400,7.957330322265625,-0.11985734105110168,-0.03814677894115448,-0.03769195079803467
1789552338712300300,7.96730029296875,-0.03337598219513893,-0.10171642899513245,0.010478771291673183
1789552338722269200,7.977269287109375,0.0020142006687819958,-0.12732504308223724,0.019026778638362885
1789552338732238300,7.98723828125,-0.02226504124701023,-0.06954935938119888,0.004793781787157059
1789552338742207200,7.997207275390625,0.005116415210068226,-0.08926425874233246,0.016510503366589546
1789552338752176400,8.00717626953125,0.1002541184425354,-0.12545476853847504,0.06517896801233292
1789552338762145300,8.017145263671875,0.12574507296085358,-0.1481817364692688,0.05702754482626915
1789552338772114200,8.0271142578125,0.13673166930675507,-0.09505967050790787,-0.011486003175377846
1789552338782083300,8.037083251953124,0.16087588667869568,-0.08357904851436615,-0.028231961652636528
1789552338792053200,8.04705322265625,0.2154107689857483,-0.16073933243751526,-0.033862147480249405
1789552338802022100,8.057022216796875,0.2754923403263092,-0.1726047247648239,-0.021064892411231995
1789552338811991300,8.0669912109375,0.2641502022743225,-0.1928442120552063,-0.008619142696261406
1789552338821960200,8.076960205078125,0.2874182164669037,-0.16994395852088928,0.004641801118850708
1789552338831929000,8.08692919921875,0.3860055208206177,-0.1406683623790741,-0.03289651870727539
1789552338841898200,8.096898193359374,0.3936215341091156,-0.13504622876644135,0.03767408803105354
1789552338851867100,8.1068671875,0.33712178468704224,-0.11543897539377213,0.05522884801030159
1789552338861837000,8.116837158203126,0.3993237018585205,-0.10588864237070084,0.05157306417822838
1789552338871806200,8.12680615234375,0.38385260105133057,-0.0634908527135849,0.015750354155898094
1789552338881775000,8.136775146484375,0.3899308741092682,-0.06330733001232147,0.09193401038646698
1789552338891744300,8.146744140625,0.4151611328125,-0.03224528953433037,0.024012750014662743
1789552338901713200,8.156713134765624,0.4030587375164032,-0.05544682592153549,0.11310406774282455
1789552338911682000,8.16668212890625,0.3923432528972626,-0.006714971736073494,0.09007012099027634
1789552338921651500,8.1766513671875,0.35247984528541565,0.054981034249067307,-0.020463963970541954
1789552338931620400,8.186620361328124,0.34921029210090637,0.0011217993451282382,0.03998792916536331
1789552338941590300,8.19659033203125,0.34160640835762024,-0.005981650203466415,-0.031121669337153435
1789552338951559400,8.206559326171876,0.26781904697418213,-0.004393070004880428,0.026576634496450424
1789552338961528300,8.2165283203125,0.2734147310256958,-0.04751238226890564,0.0728825256228447
1789552338971497200,8.226497314453125,0.24779725074768066,0.032368600368499756,0.03380889445543289
1789552338981466400,8.23646630859375,0.22396324574947357,0.07330883294343948,-0.09277793020009995
1789552338991435300,8.246435302734374,0.20996034145355225,0.05499667674303055,-0.01771540381014347
1789552339001404200,8.256404052734375,0.21823978424072266,0.05050160363316536,-0.004004710353910923
1789552339011373300,8.266373291015626,0.18634337186813354,0.07660111784934998,-0.019146379083395004
1789552339021343200,8.27634326171875,0.15762612223625183,0.08511921763420105,0.07382955402135849
1789552339031312100,8.28631201171875,0.16382889449596405,0.07027635723352432,0.03796662390232086
1789552339041281300,8.29628125,0.1352151483297348,0.09489680081605911,-0.028097886592149734
1789552339051250200,8.306250244140625,0.04624985530972481,0.07968961447477341,0.08991184830665588
1789552339061219300,8.31621923828125,0.12831801176071167,0.06842589378356934,0.09574093669652939
1789552339071188200,8.326188232421876,0.14482320845127106,0.09551743417978287,-0.0853409618139267
1789552339081157400,8.336157470703125,0.0672973021864891,0.09289991110563278,0.0910458192229271
1789552339091127300,8.346127197265625,0.11212682723999023,0.07867064327001572,0.030048782005906105
1789552339101096400,8.356096435546876,0.24453479051589966,0.01556488499045372,-0.003467314876616001
1789552339111065300,8.3660654296875,0.20046134293079376,0.049179572612047195,-0.044499438256025314
1789552339121034500,8.376034423828125,0.19646605849266052,0.0946786105632782,0.020614318549633026
1789552339131003400,8.38600341796875,0.2457965910434723,0.13409818708896637,-0.08860485255718231
1789552339140972300,8.39597216796875,0.17261742055416107,0.14142729341983795,-0.05603832006454468
1789552339150941400,8.40594140625,0.1579146385192871,0.1094704195857048,0.06455148011445999
1789552339160910300,8.415910400390626,0.21346016228199005,0.04226510226726532,0.03751459717750549
1789552339170880300,8.42588037109375,0.19349364936351776,0.07117318361997604,-0.03481525927782059
1789552339180849400,8.435849365234375,0.13469475507736206,0.07495056837797165,0.01983877643942833
1789552339190818300,8.445818359375,0.14004769921302795,0.08172351866960526,-0.03443244844675064
1789552339200787200,8.455787109375,0.1173042505979538,0.10076124221086502,-0.013880211859941483
1789552339210756400,8.46575634765625,0.08382219076156616,0.14391325414180756,-0.17020750045776367
1789552339220725200,8.475725341796876,0.04234887659549713,0.09166190028190613,-0.15785254538059235
1789552339230694400,8.4856943359375,-0.09158389270305634,0.05670871585607529,0.031969331204891205
1789552339240663300,8.495663330078125,-0.042606282979249954,0.04056467115879059,-0.0795799270272255
1789552339250633200,8.50563330078125,-0.09813185781240463,0.12060917168855667,-0.12727580964565277
1789552339260602000,8.51560205078125,-0.20818200707435608,0.14370524883270264,-0.00790286622941494
1789552339270571300,8.5255712890625,-0.20882675051689148,0.1277364045381546,0.05346541851758957
1789552339280540200,8.5355400390625,-0.18183517456054688,0.14083661139011383,0.0004644906148314476
1789552339290509300,8.54550927734375,-0.28350135684013367,0.13446499407291412,0.012319818139076233
1789552339300478200,8.555478271484375,-0.32834288477897644,0.1632273942232132,0.04838848486542702
1789552339310447000,8.565447021484376,-0.3112448453903198,0.20644544064998627,-0.07900328934192657
1789552339320417300,8.575417236328125,-0.39022207260131836,0.21769532561302185,-0.0633913055062294
1789552339330386400,8.585386474609376,-0.46954432129859924,0.17127110064029694,0.062215354293584824
1789552339340355300,8.595355224609374,-0.45078930258750916,0.17131397128105164,0.004620914813131094
1789552339350324500,8.605324462890625,-0.4564562439918518,0.08455643802881241,0.02157539688050747
1789552339360293400,8.61529345703125,-0.5123827457427979,0.12916716933250427,-0.021492207422852516
1789552339370262300,8.62526220703125,-0.5352486371994019,0.08185131847858429,0.001430152915418148
1789552339380231400,8.6352314453125,-0.4880114495754242,0.07038435339927673,0.008804267272353172
1789552339390200300,8.645200439453125,-0.4836025834083557,0.0546053871512413,-0.04878339543938637
1789552339400169500,8.65516943359375,-0.5245204567909241,0.08141520619392395,-0.021392101421952248
1789552339410139400,8.665139404296875,-0.4885168969631195,0.033856745809316635,0.0005456884391605854
1789552339420108300,8.6751083984375,-0.42350533604621887,0.028905585408210754,-0.05000903829932213
1789552339430077400,8.685077392578124,-0.4649382531642914,0.026486102491617203,0.04763229936361313
1789552339440046300,8.69504638671875,-0.38720279932022095,-0.021939676254987717,0.02040781080722809
1789552339450015200,8.70501513671875,-0.4012054204940796,0.008894935250282288,0.0505547933280468
1789552339459984400,8.714984375,-0.3051154613494873,-0.02416285127401352,0.020355667918920517
1789552339469953300,8.724953369140625,-0.24250535666942596,-0.023662708699703217,-0.007838684134185314
1789552339479923200,8.734923095703126,-0.2378137856721878,-0.07928609102964401,0.0393616184592247
1789552339489892400,8.744892333984374,-0.20779170095920563,-0.10058818012475967,0.031437914818525314
1789552339499861200,8.754861328125,-0.23991598188877106,-0.07656574249267578,-0.026849713176488876
1789552339509830100,8.764830078125,-0.22336523234844208,-0.07215768098831177,0.049935609102249146
1789552339519799300,8.77479931640625,-0.06719970703125,-0.15969517827033997,0.04326900839805603
1789552339529768200,8.784768310546875,-0.047170065343379974,-0.10318876057863235,-0.07532501965761185
1789552339539737300,8.7947373046875,-0.07050624489784241,-0.1570318341255188,0.04059646651148796
1789552339549706200,8.804706298828124,-0.025261005386710167,-0.1562267690896988,0.018348149955272675
1789552339559675100,8.814675048828125,0.0996289774775505,-0.15749944746494293,0.015113238245248795
1789552339569645300,8.824645263671876,0.10028837621212006,-0.08834674209356308,0.04782724007964134
1789552339579614500,8.834614501953125,0.20482860505580902,-0.1365639865398407,0.03866896033287048
1789552339589583400,8.844583251953125,0.17872802913188934,-0.12102444469928741,-0.049660637974739075
1789552339599552500,8.854552490234376,0.10234846919775009,-0.10329779237508774,0.04911012202501297
1789552339609521400,8.864521484375,0.1993999183177948,-0.1338045597076416,0.07726159691810608
1789552339619490300,8.874490234375,0.24423037469387054,-0.11590965837240219,-0.038026146590709686
1789552339629459500,8.88445947265625,0.1878930628299713,-0.05927087739109993,-0.041810497641563416
1789552339639428400,8.894428466796874,0.15173391997814178,-0.06993942707777023,-0.017228513956069946
1789552339649398300,8.904398193359375,0.2485843002796173,-0.08757541328668594,0.000015452969819307327
1789552339659367400,8.914367431640626,0.2509262263774872,-0.06384017318487167,-0.03478013351559639
1789552339669336300,8.92433642578125,0.2478417456150055,-0.06105663999915123,0.027594558894634247
1789552339679305200,8.93430517578125,0.27842241525650024,-0.07858870178461075,0.032019633799791336
1789552339689274400,8.9442744140625,0.25773391127586365,-0.03284117951989174,0.022751035168766975
1789552339699243300,8.9542431640625,0.24868503212928772,-0.030413221567869186,0.022400807589292526
1789552339709212400,8.96421240234375,0.2531183958053589,-0.041283443570137024,-0.040131278336048126
1789552339719181300,8.974181396484376,0.21558579802513123,-0.0795450210571289,-0.015576700679957867
1789552339729151200,8.984151123046875,0.18535146117210388,-0.07566319406032562,-0.03863834589719772
1789552339739120000,8.9941201171875,0.17319220304489136,-0.03433334082365036,-0.03699514642357826
1789552339749089300,9.00408935546875,0.18459798395633698,-0.04915330186486244,0.012564150616526604
1789552339759058200,9.01405810546875,0.20537792146205902,-0.09106136113405228,0.06036357581615448
1789552339769027300,9.02402734375,0.19434630870819092,-0.09502121806144714,0.04406929016113281
1789552339778996200,9.033996337890626,0.17134228348731995,-0.050918277353048325,-0.005846693646162748
1789552339788965000,9.043965087890625,0.15611885488033295,-0.06497577577829361,0.020396361127495766
1789552339798934300,9.053934326171875,0.11796057969331741,-0.025007091462612152,0.016814114525914192
1789552339808903200,9.063903076171876,0.19938114285469055,-0.043746694922447205,-0.06321761012077332
1789552339818873300,9.073873291015625,0.1693730652332306,0.002641649916768074,-0.126180499792099
1789552339828842500,9.083842529296875,0.1451478898525238,-0.0055339885875582695,-0.01246032863855362
1789552339838811400,9.093811279296874,0.163204163312912,-0.012737300246953964,-0.0057828668504953384
1789552339848780300,9.1037802734375,0.17755752801895142,0.011556054465472698,-0.009179995395243168
1789552339858749400,9.11374951171875,0.1348744034767151,0.030225418508052826,-0.02694585546851158
1789552339868718300,9.12371826171875,0.0700000673532486,-0.006455099210143089,0.04129951074719429
1789552339878687500,9.1336875,0.1162925511598587,-0.028218481689691544,0.07982660830020905
1789552339888656400,9.143656494140625,0.10379380732774734,0.01233267318457365,0.053402457386255264
1789552339898626300,9.153626220703124,0.11600003391504288,0.0662713497877121,0.03000640869140625
1789552339908595200,9.16359521484375,0.09335225075483322,0.04821724072098732,0.0866483822464943
1789552339918564400,9.173564453125,0.07662597298622131,0.04446036368608475,0.04981343075633049
1789552339928533200,9.183533203125,0.07082241028547287,0.04688091203570366,0.0042022718116641045
1789552339938502400,9.19350244140625,0.04853227362036705,0.05218401551246643,-0.005624144803732634
1789552339948471300,9.20347119140625,0.053379759192466736,0.045412130653858185,-0.06933121383190155
1789552339958440200,9.213440185546874,0.03399188444018364,0.04486958682537079,-0.08562976121902466
1789552339968409300,9.223409423828125,0.009121422655880451,0.027631748467683792,0.020915593951940536
1789552339978378200,9.233378173828125,0.024827351793646812,0.050536252558231354,-0.005763927940279245
1789552339988348200,9.24334814453125,0.07057806104421616,0.04052596166729927,-0.07714303582906723
1789552339998317300,9.2533173828125,0.021208224818110466,0.05118457227945328,-0.11753173917531967
1789552340008286200,9.2632861328125,0.03700902685523033,-0.007779944222420454,-0.05559034273028374
1789552340018255400,9.27325537109375,0.07039957493543625,-0.013930587098002434,-0.05527111515402794
1789552340028224300,9.283224365234375,0.03667517006397247,0.0820864886045456,-0.08850257098674774
1789552340038193200,9.293193115234375,0.05961734056472778,0.07154696434736252,-0.0840567797422409
1789552340048162300,9.303162353515624,0.043147820979356766,0.04256564378738403,-0.06252831965684891
1789552340058131200,9.313131103515625,0.0686451718211174,0.029987839981913567,-0.007900994271039963
1789552340068100000,9.32310009765625,0.06809522956609726,0.01749974489212036,-0.07015079259872437
1789552340078070500,9.333070556640624,0.019529173150658607,0.045139916241168976,-0.042366091161966324
1789552340088039700,9.343039794921875,0.03219436854124069,0.059762269258499146,-0.05384378135204315
1789552340098009900,9.353009765625,0.04196182265877724,0.021390434354543686,-0.06407643854618073
1789552340107978800,9.362978759765625,0.016129961237311363,0.055850669741630554,-0.032842088490724564
1789552340117948000,9.372947998046875,0.02307712286710739,0.026417599990963936,-0.0705205500125885
1789552340127916800,9.382916748046876,0.008852912113070488,-0.008372604846954346,-0.053774863481521606
1789552340137885700,9.3928857421875,0.00238059856928885,0.011552095413208008,-0.07435829192399979
1789552340147854800,9.402854736328125,0.024404142051935196,-0.008590723387897015,-0.01660204865038395
1789552340157823700,9.41282373046875,0.021272797137498856,-0.0016284214798361063,0.05146089196205139
1789552340167793000,9.42279296875,0.03368259593844414,0.01939750276505947,0.058177649974823
1789552340177761800,9.43276171875,0.04275988042354584,0.04625409096479416,-0.036466680467128754
1789552340187731700,9.442731689453124,0.012451245449483395,0.031253036111593246,0.018640514463186264
1789552340197700900,9.452700927734375,0.004778917878866196,-0.020865119993686676,0.06039831042289734
1789552340207669800,9.462669677734375,0.00045474315993487835,-0.001159059815108776,0.00313875125721097
1789552340217638700,9.472638671875,-0.03317389637231827,0.011926807463169098,-0.057793304324150085
1789552340227607800,9.48260791015625,-0.09869538992643356,0.038867346942424774,-0.0014203120954334736
1789552340237576700,9.49257666015625,-0.031099921092391014,0.04857335612177849,-0.017685597762465477
1789552340247545600,9.502545654296876,-0.046797655522823334,0.07523452490568161,-0.04952289164066315
1789552340257514800,9.5125146484375,-0.1355816274881363,0.07951564341783524,0.014777865260839462
1789552340267483600,9.522483642578125,-0.15914155542850494,0.060787227004766464,0.030569877475500107
1789552340277453600,9.53245361328125,-0.15860405564308167,0.06860698759555817,0.03494950383901596
1789552340287422700,9.542422607421875,-0.20208868384361267,0.06439493596553802,0.04601280763745308
1789552340297391600,9.5523916015625,-0.20283250510692596,0.05460621789097786,0.04221487417817116
1789552340307360800,9.56236083984375,-0.21555480360984802,0.027610046789050102,0.09635049104690552
1789552340317329700,9.57232958984375,-0.24580276012420654,0.0493449866771698,0.03969445452094078
1789552340327298600,9.582298583984375,-0.27389615774154663,0.0596839115023613,0.009235351346433163
1789552340337267700,9.592267822265624,-0.3050791323184967,0.031638916581869125,-0.03416461870074272
1789552340347236600,9.602236572265625,-0.3141477108001709,0.012695852667093277,0.04755927249789238
1789552340357205500,9.61220556640625,-0.26714155077934265,-0.012215083464980125,0.027995280921459198
1789552340367174700,9.622174560546876,-0.2565357983112335,0.0033444345463067293,-0.0016198703087866306
1789552340377144800,9.632144775390625,-0.25649163126945496,-0.0025304218288511038,0.07564875483512878
1789552340387113700,9.64211376953125,-0.20044276118278503,-0.013681876473128796,0.008132566697895527
1789552340397083000,9.652082763671874,-0.13337618112564087,-0.03995441645383835,0.015655938535928726
1789552340407051800,9.6620517578125,-0.1956336945295334,0.0032140936236828566,0.09347058087587357
1789552340417020700,9.672020751953125,-0.09029264748096466,-0.023956280201673508,0.016024665907025337
1789552340426989800,9.68198974609375,-0.09982436895370483,0.015510967001318932,-0.023216480389237404
1789552340436958700,9.691958740234375,-0.10709518939256668,0.0018799561075866222,0.02181076630949974
1789552340446928000,9.701927978515625,-0.05744827538728714,-0.045334961265325546,-0.0004990664310753345
1789552340456896800,9.711896728515624,-0.08828391879796982,0.002049339236691594,-0.018953055143356323
1789552340466866700,9.72186669921875,-0.040557146072387695,-0.026457669213414192,0.018830543383955956
1789552340476835800,9.7318359375,-0.03439708799123764,-0.04543963447213173,0.06430419534444809
1789552340486804700,9.7418046875,-0.01315278373658657,0.011296615935862064,-0.02699456363916397
1789552340496773600,9.751773681640625,-0.06411983072757721,-0.02259095571935177,0.0599365234375
1789552340506742800,9.76174267578125,-0.02477189339697361,-0.028890930116176605,0.07800553739070892
1789552340516711700,9.771711669921874,-0.021179022267460823,0.02566712163388729,-0.027087857946753502
1789552340526680800,9.781680908203125,-0.014416055753827095,0.017816057428717613,-0.0744263157248497
1789552340536649700,9.791649658203125,-0.047748710960149765,-0.04106057435274124,-0.035874128341674805
1789552340546619600,9.80161962890625,-0.05852913111448288,-0.07836013287305832,-0.003922943491488695
1789552340556588500,9.811588623046875,-0.02054818719625473,-0.06590808182954788,0.02942710742354393
1789552340566557700,9.8215576171875,0.0145035395398736,-0.047680873423814774,-0.008871011435985565
1789552340576526600,9.831526611328124,0.006241881754249334,-0.02261999435722828,-0.014068703167140484
1789552340586495700,9.841495849609375,0.02994653210043907,-0.08561043441295624,-0.015357608906924725
1789552340596464600,9.851464599609375,0.04420589655637741,-0.09090693295001984,0.023375138640403748
1789552340606433500,9.86143359375,0.08643243461847305,-0.03208227828145027,-0.05527801439166069
1789552340616402700,9.871402587890625,0.15554173290729523,-0.0650186613202095,-0.13670335710048676
1789552340626371800,9.881371826171875,0.08892113715410233,-0.005847702734172344,-0.08319562673568726
1789552340636341800,9.891341796875,0.09949389100074768,-0.021786987781524658,-0.05705777183175087
1789552340646311000,9.901310791015625,0.1919790804386139,-0.06110270693898201,-0.08940772712230682
1789552340656279800,9.91127978515625,0.14937250316143036,-0.02582620456814766,-0.05038069561123848
1789552340666248700,9.921248779296874,0.1178511381149292,-0.05333411321043968,0.06642371416091919
1789552340676217900,9.9312177734375,0.16992659866809845,-0.07957423478364944,0.051099084317684174
1789552340686186800,9.941186767578126,0.12422461807727814,-0.05821080505847931,-0.013650699518620968
1789552340696156000,9.951156005859374,0.07185196131467819,-0.0625445619225502,-0.011834957636892796
1789552340706124800,9.961124755859375,0.07505574077367783,-0.1226857528090477,0.0520666129887104
1789552340716093700,9.97109375,0.13783790171146393,-0.12831541895866394,0.02864491008222103
1789552340726063600,9.981063720703125,0.11886749416589737,-0.05721712112426758,-0.07574138790369034
1789552340736032800,9.99103271484375,0.10587739199399948,-0.056773971766233444,-0.016078058630228043
1789552340746001700,10.001001708984376,0.20486582815647125,-0.10786741226911545,0.04190230742096901
1789552340755970800,10.010970703125,0.2554541826248169,-0.07135067880153656,0.03492642566561699
1789552340765939700,10.020939697265625,0.2722621560096741,-0.025227757170796394,0.021637482568621635
1789552340775908600,10.03090869140625,0.2882333993911743,0.012175541371107101,0.01619850844144821
1789552340785877800,10.040877685546874,0.31700974702835083,-0.012215491384267807,0.07096653431653976
1789552340795846700,10.0508466796875,0.2780871093273163,0.006209588143974543,0.08803366869688034
1789552340805815800,10.06081591796875,0.3008951246738434,0.04862196743488312,-0.006351807154715061
1789552340815785700,10.07078564453125,0.299394428730011,0.02762560360133648,-0.03177434206008911
1789552340825754600,10.080754638671875,0.18095120787620544,0.03344808518886566,0.045244250446558
1789552340835723500,10.0907236328125,0.18813134729862213,0.07539074122905731,0.0621984638273716
1789552340845692700,10.100692626953125,0.24508805572986603,0.08345630019903183,-0.06749244779348373
1789552340855661600,10.11066162109375,0.1657935082912445,0.11972242593765259,-0.018867649137973785
1789552340865630700,10.120630615234376,0.15813304483890533,0.08187519758939743,0.0495879240334034
1789552340875600000,10.130599853515625,0.19487561285495758,0.052473362535238266,-0.00743834488093853
1789552340885568800,10.14056884765625,0.15051747858524323,0.09672018885612488,0.0037509268149733543
1789552340895538000,10.150537841796876,0.07671968638896942,0.11628643423318863,0.057636529207229614
1789552340905507800,10.1605078125,0.0983801782131195,0.10048380494117737,0.03157980367541313
1789552340915476700,10.170476806640625,0.08306087553501129,0.14594556391239166,0.002384635852649808
1789552340925446000,10.18044580078125,0.039048969745635986,0.1558080017566681,-0.010015605017542839
1789552340935414800,10.190414794921875,0.06833814829587936,0.13593736290931702,-0.013593295589089394
1789552340945383700,10.2003837890625,0.026610052213072777,0.14955368638038635,-0.017102038487792015
1789552340955352800,10.210352783203126,-0.0642269104719162,0.170035257935524,0.015403440222144127
1789552340965321700,10.22032177734375,-0.001504173269495368,0.1261865794658661,0.024916131049394608
1789552340975291000,10.230290771484375,-0.023727985098958015,0.10191372036933899,0.025071125477552414
1789552340985259800,10.240259765625,-0.07033983618021011,0.10919936001300812,-0.04560203105211258
1789552340995229700,10.250229736328125,-0.07321019470691681,0.06016603857278824,0.0626155212521553
1789552341005198600,10.260198486328125,-0.12146271765232086,0.10807518661022186,0.01637132093310356
1789552341015167700,10.270167724609376,-0.16722941398620605,0.07849891483783722,-0.0609453059732914
1789552341025136600,10.28013671875,-0.2743288576602936,0.040118128061294556,-0.0005318797193467617
1789552341035105800,10.290105712890625,-0.328919917345047,0.06384182721376419,-0.05960824713110924
1789552341045074700,10.30007470703125,-0.23513442277908325,-0.051928725093603134,-0.09743933379650116
1789552341055043600,10.310043701171875,-0.2840644121170044,-0.02470855414867401,0.02513984404504299
1789552341065012700,10.3200126953125,-0.22546306252479553,-0.046552326530218124,-0.0032279170118272305
1789552341074981600,10.329981689453126,-0.035811103880405426,-0.08575379103422165,-0.06676508486270905
1789552341084951600,10.33995166015625,0.013837479054927826,-0.012821071781218052,0.0036942297592759132
1789552341094920400,10.34992041015625,0.08506425470113754,-0.03950195014476776,-0.004499251488596201
1789552341104889300,10.359889404296876,0.1406506597995758,0.01526588574051857,0.05034446716308594
1789552341114858500,10.3698583984375,0.16507937014102936,0.010875144973397255,0.027593590319156647
1789552341124827400,10.379827392578125,0.1960439383983612,0.03900771215558052,-0.03582293540239334
1789552341134796300,10.38979638671875,0.1732424795627594,0.05574408173561096,0.04879767820239067
1789552341144765400,10.399765380859375,0.28946244716644287,0.013079199008643627,0.021898623555898666
1789552341154734300,10.409734375,0.2628641128540039,0.08021482080221176,-0.013485198840498924
1789552341164703500,10.419703369140626,0.18014417588710785,0.138489231467247,0.13948595523834229
1789552341174673400,10.42967333984375,0.2501648962497711,0.1731599122285843,0.04097573459148407
1789552341184642300,10.439642333984375,0.2553202509880066,0.13668978214263916,0.00024028867483139038
1789552341194611200,10.449611083984376,0.039734162390232086,0.14353038370609283,0.10423299670219421
1789552341204580400,10.459580322265625,0.011731074191629887,0.0831916406750679,0.13740356266498566
1789552341214549200,10.46954931640625,0.04931797459721565,0.08486660569906235,0.005892402958124876
1789552341224518400,10.479518310546876,-0.09704242646694183,0.12372639030218124,-0.03071114793419838
1789552341234487300,10.4894873046875,-0.24113088846206665,0.17299193143844604,0.014681367203593254
1789552341244456200,10.499456298828125,-0.2527614235877991,0.11137225478887558,0.03242666274309158
1789552341254425300,10.50942529296875,-0.20450708270072937,0.08771885931491852,-0.004489810671657324
1789552341264394200,10.519394287109375,-0.3725256323814392,0.1253206431865692,0.0031280764378607273
1789552341274364200,10.5293642578125,-0.4215855896472931,0.08085785061120987,0.03719603270292282
1789552341284333300,10.539333251953124,-0.2874031662940979,0.05078554525971413,0.037321850657463074
1789552341294302200,10.54930224609375,-0.34970995783805847,0.05026063323020935,0.11614130437374115
1789552341304271000,10.55927099609375,-0.3930497467517853,0.08079056441783905,0.027957404032349586
1789552341314240300,10.569240234375,-0.3828418552875519,0.09877222776412964,-0.08992289751768112
1789552341324209200,10.579209228515625,-0.4635736644268036,0.06974640488624573,0.028045644983649254
1789552341334178300,10.58917822265625,-0.4373750686645508,0.013729739002883434,0.06889081746339798
1789552341344147500,10.5991474609375,-0.4181968569755554,0.06625952571630478,-0.05213574320077896
1789552341354116400,10.609116455078125,-0.5000264644622803,0.1215297058224678,-0.014185432344675064
1789552341364085500,10.61908544921875,-0.4329545795917511,0.04160219430923462,0.05537334829568863
1789552341374055400,10.629055419921874,-0.2742418944835663,0.03280363976955414,0.03616529703140259
1789552341384024300,10.6390244140625,-0.2669818699359894,0.0024029496125876904,-0.00344851054251194
1789552341393993500,10.648993408203125,-0.25159651041030884,0.022901566699147224,0.009156497195363045
1789552341403962400,10.65896240234375,-0.2807874381542206,-0.013279605656862259,0.05662041902542114
1789552341413931300,10.66893115234375,-0.2770557999610901,-0.01708180084824562,-0.005878112278878689
1789552341423900400,10.678900390625,-0.34274810552597046,-0.0005487788002938032,-0.04854490980505943
1789552341433869300,10.688869384765624,-0.4612455666065216,0.008572127670049667,0.01525149680674076
1789552341443838500,10.69883837890625,-0.3750057518482208,-0.06327570229768753,-0.03253626450896263
1789552341453807400,10.708807373046875,-0.35352468490600586,-0.03499079495668411,-0.025356382131576538
1789552341463776300,10.7187763671875,-0.42648977041244507,-0.01871534436941147,0.0024498889688402414
1789552341473746200,10.72874609375,-0.34244707226753235,-0.059308841824531555,-0.02484378218650818
1789552341483715300,10.73871533203125,-0.33053043484687805,-0.11742682009935379,0.02179914340376854
1789552341493684200,10.748684326171874,-0.37244752049446106,-0.11669258773326874,0.020918436348438263
1789552341503653400,10.7586533203125,-0.33124709129333496,-0.09721209108829498,-0.025882624089717865
1789552341513622300,10.768622314453125,-0.2884117364883423,-0.1226242408156395,-0.07605312019586563
1789552341523591200,10.778591064453124,-0.31842041015625,-0.11782374978065491,0.07778014987707138
1789552341533560300,10.788560302734375,-0.24249689280986786,-0.1048634722828865,0.036828190088272095
1789552341543529200,10.798529296875,-0.04373479634523392,-0.12696121633052826,-0.023962007835507393
1789552341553498400,10.808498291015624,0.04926065355539322,-0.10677953064441681,0.02977631986141205
1789552341563467300,10.81846728515625,0.09087041765451431,-0.07208381593227386,0.033555496484041214
1789552341573436200,10.828436279296875,0.18749044835567474,-0.07197675853967667,-0.03350716084241867
1789552341583406300,10.83840625,0.2671206593513489,-0.14801304042339325,0.038205791264772415
1789552341593375500,10.84837548828125,0.2845876216888428,-0.13617944717407227,0.026943426579236984
1789552341603344400,10.858344482421876,0.28931713104248047,-0.07523142546415329,-0.06130360811948776
1789552341613313500,10.8683134765625,0.2559432089328766,-0.09592685103416443,0.013792736455798149
1789552341623282400,10.878282470703125,0.3129555284976959,-0.07765734195709229,-0.01039820071309805
1789552341633251300,10.888251220703125,0.43404093384742737,-0.09841695427894592,-0.0610445998609066
1789552341643220500,10.898220458984374,0.3870101571083069,-0.07746101915836334,0.010820649564266205
1789552341653189400,10.908189453125,0.35478028655052185,-0.031242389231920242,0.08143489807844162
1789552341663158500,10.918158447265625,0.5664581656455994,-0.10598712414503098,0.013184678740799427
1789552341673127400,10.92812744140625,0.5880803465843201,-0.06719844788312912,0.02352573350071907
1789552341683097300,10.938097412109375,0.4444875717163086,0.007147034630179405,0.049320071935653687
1789552341693066200,10.948066162109376,0.448120653629303,0.005813057068735361,-0.004246214404702187
1789552341703035400,10.958035400390624,0.3941570818424225,0.044783905148506165,-0.03632854297757149
1789552341713004300,10.96800439453125,0.2777292728424072,0.039324160665273666,0.008731609210371971
1789552341722973400,10.977973388671876,0.21863889694213867,0.049781788140535355,0.06615806370973587
1789552341732942300,10.9879423828125,0.2682514488697052,0.038300901651382446,-0.03603887930512428
1789552341742911200,10.9979111328125,0.1839199662208557,0.04492878168821335,-0.08754538744688034
1789552341752880400,11.00788037109375,-0.005459288135170937,0.09201321005821228,0.012424081563949585
1789552341762849300,11.017849365234374,-0.003757822560146451,0.04915281757712364,0.029627449810504913
1789552341772818400,11.027818359375,-0.01439315639436245,0.07917489111423492,0.005700811743736267
1789552341782787300,11.037787353515625,-0.10636283457279205,0.0879032164812088,0.026826277375221252
1789552341792757200,11.04775732421875,-0.19164258241653442,0.055375367403030396,-0.02066560834646225
1789552341802726100,11.05772607421875,-0.17806927859783173,0.01963321678340435,-0.08650858700275421
1789552341812695300,11.0676953125,-0.3087993562221527,0.03997310996055603,-0.06517080962657928
1789552341822664200,11.077664306640624,-0.46154123544692993,0.07525736838579178,-0.07738735526800156
1789552341832633300,11.08763330078125,-0.47026124596595764,0.11206252127885818,-0.1468154340982437
1789552341842602200,11.097602294921876,-0.49182644486427307,0.04623982682824135,0.002090426627546549
1789552341852571100,11.107571044921874,-0.37614646553993225,0.061500273644924164,0.031248044222593307
1789552341862540300,11.117540283203125,-0.338213711977005,0.025555014610290527,-0.007765163667500019
1789552341872509200,11.12750927734375,-0.3050890564918518,0.018841452896595,0.06264961510896683
1789552341882478300,11.137478271484374,-0.2866905927658081,-0.03362356871366501,0.0808122530579567
1789552341892447200,11.147447265625,-0.2863318622112274,-0.04796389117836952,0.06520586460828781
1789552341902417400,11.15741748046875,-0.3234608471393585,-0.05423084273934364,0.010700546205043793
1789552341912386300,11.16738623046875,-0.35710084438323975,-0.10148171335458755,-0.04893242567777634
1789552341922355500,11.17735546875,-0.4739845097064972,-0.059805549681186676,-0.04357065632939339
1789552341932324400,11.187324462890626,-0.43512579798698425,-0.13851366937160492,0.006307953502982855
1789552341942293500,11.19729345703125,-0.3294079005718231,-0.16818012297153473,0.05076626315712929
1789552341952262400,11.207262451171875,-0.2768762409687042,-0.14612142741680145,0.01095094345510006
1789552341962231300,11.217231201171876,-0.1725056767463684,-0.2274796962738037,0.08317190408706665
1789552341972200400,11.227200439453124,-0.12810279428958893,-0.1718350648880005,0.060454074293375015
1789552341982169300,11.23716943359375,-0.05216166377067566,-0.19779688119888306,-0.04674869403243065
1789552341992138500,11.247138427734376,-0.04372956603765488,-0.18450529873371124,-0.00860183872282505
1789552342002107400,11.257107421875,0.008058267645537853,-0.2823631465435028,0.07643529027700424
1789552342012076300,11.267076171875,0.09565948694944382,-0.22689244151115417,-0.029519107192754745
1789552342022046200,11.277046142578126,0.0725415050983429,-0.17471511662006378,-0.15792326629161835
1789552342032015400,11.287015380859375,0.026738598942756653,-0.1506742238998413,0.024581296369433403
1789552342041984300,11.296984375,0.2016969472169876,-0.29387015104293823,0.10987435281276703
1789552342051953400,11.306953369140626,0.3960736095905304,-0.19771380722522736,-0.10395537316799164
1789552342061922300,11.31692236328125,0.2650754451751709,-0.14870601892471313,-0.035241320729255676
1789552342071891200,11.32689111328125,0.2945646047592163,-0.18119579553604126,0.036372944712638855
1789552342081860400,11.3368603515625,0.393959641456604,-0.17057302594184875,0.006906515918672085
1789552342091829500,11.34682958984375,0.4056892395019531,-0.09824579209089279,-0.00872301310300827
1789552342101798700,11.356798583984375,0.2578779458999634,-0.07115558534860611,0.0018707755953073502
1789552342111767600,11.366767578125,0.21597056090831757,-0.10228805243968964,0.06292563676834106
1789552342121736400,11.376736328125,0.31152981519699097,-0.13655175268650055,-0.012356868013739586
1789552342131705600,11.38670556640625,0.1862526535987854,-0.09138058125972748,-0.08657695353031158
1789552342141675800,11.39667578125,-0.024142669513821602,-0.04333022981882095,0.07894676923751831
1789552342151644700,11.406644775390625,-0.015256857499480247,-0.11774245649576187,0.08692667633295059
1789552342161613800,11.41661376953125,0.048857681453228,-0.12812480330467224,0.07462180405855179
1789552342171582700,11.426582763671876,-0.07073839753866196,-0.09211907535791397,0.13505691289901733
1789552342181551600,11.436551513671875,0.04326087236404419,-0.1344130039215088,-0.08671730011701584
1789552342191520800,11.446520751953125,-0.0010445392690598965,-0.06974878907203674,-0.18096336722373962
1789552342201489700,11.45648974609375,-0.23298943042755127,-0.11238241195678711,0.07535718381404877
1789552342211458600,11.46645849609375,-0.2741104066371918,-0.08314304798841476,-0.0006760009564459324
1789552342221427700,11.476427734375,-0.15649987757205963,-0.17709749937057495,-0.08899947255849838
1789552342231396600,11.486396728515626,-0.3302396535873413,-0.1350807249546051,-0.01563015766441822
1789552342241365800,11.49636572265625,-0.44291454553604126,-0.10565227270126343,0.01584787480533123
1789552342251334700,11.506334716796875,-0.2799067497253418,-0.15211915969848633,0.030918044969439507
1789552342261303600,11.516303466796876,-0.2431708425283432,-0.19560539722442627,0.03118276409804821
1789552342271273700,11.526273681640625,-0.2321556657552719,-0.12531468272209167,0.02973436564207077
1789552342281242600,11.53624267578125,-0.1367442011833191,-0.18726220726966858,0.03216103836894035
1789552342291211500,11.54621142578125,-0.07432613521814346,-0.2297576516866684,-0.006145545281469822
1789552342301180700,11.5561806640625,-0.13081631064414978,-0.10727062821388245,0.029003653675317764
1789552342311149600,11.566149658203125,-0.06280077248811722,-0.2258651852607727,0.03795400261878967
1789552342321118700,11.57611865234375,-0.029203398153185844,-0.18633827567100525,0.03011871874332428
1789552342331087600,11.586087646484375,-0.04794832319021225,-0.14166775345802307,0.0057350825518369675
1789552342341056500,11.596056396484375,0.08429243415594101,-0.17787468433380127,-0.02172068879008293
1789552342351025700,11.606025634765626,0.1320342719554901,-0.19742052257061005,0.09298911690711975
1789552342360994600,11.61599462890625,0.12859293818473816,-0.13568845391273499,0.05319936200976372
1789552342370963500,11.62596337890625,0.21165435016155243,-0.2259688824415207,0.035814035683870316
1789552342380932600,11.6359326171875,0.1686943620443344,-0.17278476059436798,0.06902871280908585
1789552342390901500,11.645901611328124,0.1742362529039383,-0.22684918344020844,-0.010884078219532967
1789552342400871400,11.655871337890625,0.14150306582450867,-0.17984119057655334,-0.03922677040100098
1789552342410840600,11.665840576171876,0.10764069110155106,-0.17886051535606384,-0.006948011927306652
1789552342420809500,11.6758095703125,0.20003560185432434,-0.2087142914533615,-0.002106917090713978
1789552342430778600,11.685778564453125,0.195908322930336,-0.16927166283130646,0.003044996177777648
1789552342440747800,11.695747802734376,0.25383448600769043,-0.169077530503273,-0.03895411640405655
1789552342450716700,11.705716552734375,0.28070539236068726,-0.18436020612716675,-0.021179411560297012
1789552342460685800,11.715685791015625,0.35626140236854553,-0.20695021748542786,-0.017358841374516487
1789552342470654700,11.72565478515625,0.3958682715892792,-0.15292169153690338,-0.013553510420024395
1789552342480623600,11.73562353515625,0.4241925776004791,-0.14621691405773163,0.05893480405211449
1789552342490592800,11.7455927734375,0.4800436496734619,-0.11389819532632828,-0.014363318681716919
1789552342500561700,11.755561767578126,0.5237847566604614,-0.11056258529424667,-0.054893702268600464
1789552342510530800,11.76553076171875,0.5519395470619202,-0.11322661489248276,-0.041821129620075226
1789552342520499700,11.775499755859375,0.5571715831756592,-0.11834148317575455,0.02343190833926201
1789552342530468600,11.785468505859376,0.6477569341659546,-0.10032431036233902,0.00578369852155447
1789552342540438500,11.7954384765625,0.6872923970222473,-0.03166801854968071,-0.04183069244027138
1789552342550407700,11.80540771484375,0.7436339259147644,-0.051763296127319336,0.018051762133836746
1789552342560376600,11.81537646484375,0.8011866807937622,-0.07487501204013824,0.13393495976924896
1789552342570345700,11.825345703125,0.8634477853775024,-0.03206777945160866,-0.004167140461504459
1789552342580314600,11.835314697265625,0.8868452310562134,-0.027845602482557297,-0.09355507791042328
1789552342590283500,11.845283447265626,0.7033464908599854,-0.0055913603864610195,-0.043726179748773575
1789552342600252700,11.855252685546875,0.581668496131897,0.045691803097724915,-0.04774435609579086
1789552342610221600,11.8652216796875,0.6021625399589539,0.06257153302431107,-0.1573525369167328
1789552342620190700,11.875190673828126,0.4614943563938141,0.12274672091007233,-0.016811413690447807
1789552342630159600,11.88515966796875,0.4317687451839447,0.1120290756225586,0.014444185420870781
1789552342640128500,11.89512841796875,0.5338706374168396,0.12296108156442642,0.023363910615444183
1789552342650097700,11.90509765625,0.5644197463989258,0.11007719486951828,0.10876814275979996
1789552342660066600,11.915066650390624,0.41458389163017273,0.22670233249664307,0.21314488351345062
1789552342670036500,11.925036376953125,0.6025158166885376,0.21660564839839935,0.0009279893711209297
1789552342680005600,11.935005615234376,0.573342502117157,0.25221049785614014,-0.059845611453056335
1789552342689974500,11.944974609375,0.19909431040287018,0.31588083505630493,0.1471584290266037
1789552342699943400,11.954943359375,0.14639036357402802,0.3229840099811554,0.07035500556230545
1789552342709912600,11.96491259765625,0.11267764866352081,0.31659629940986633,-0.09554681926965714
1789552342719881500,11.974881591796875,-0.20475704967975616,0.3393594026565552,0.09897445887327194
1789552342729850600,11.9848505859375,-0.20264188945293427,0.3292299509048462,0.013362526893615723
1789552342739819500,11.994819580078126,-0.12477930635213852,0.30989593267440796,-0.07685524970293045
1789552342749788400,12.004788330078124,-0.2288702428340912,0.29923680424690247,0.1524239480495453
1789552342759757600,12.014757568359375,-0.22841989994049072,0.3605113625526428,0.16171146929264069
1789552342769726500,12.0247265625,-0.08582856506109238,0.3148125112056732,-0.06395398080348969
1789552342779695600,12.034695556640624,-0.1923867017030716,0.28193390369415283,0.0020908161532133818
1789552342789664500,12.04466455078125,-0.3363150954246521,0.307809978723526,0.05081479996442795
1789552342799633400,12.05463330078125,-0.34932810068130493,0.2957243025302887,-0.16690261662006378
1789552342809602800,12.064602783203124,-0.36120882630348206,0.34952986240386963,-0.18257492780685425
1789552342819572700,12.07457275390625,-0.5239514112472534,0.2920963764190674,0.07049141824245453
1789552342829541600,12.084541748046876,-0.37496745586395264,0.25199124217033386,0.09219756722450256
1789552342839510800,12.0945107421875,-0.18705828487873077,0.2781927287578583,-0.04062013328075409
1789552342849479700,12.104479736328125,-0.23797127604484558,0.2896276116371155,0.017318032681941986
1789552342859448600,12.114448486328126,-0.2400490790605545,0.23136402666568756,0.060635678470134735
