time,seconds_elapsed,z,y,x
1789761160419642600,0.049642578125,-0.5149993896484375,-0.71624755859375,0.0730438232421875
1789761160429692700,0.059692626953125,-0.3606719970703125,-0.867034912109375,-0.02392578125
1789761160439742500,0.069742431640625,-0.6059112548828125,-0.8753662109375,-0.1392364501953125
1789761160449791700,0.079791748046875,-0.8237762451171875,-0.7188568115234375,-0.15924072265625
1789761160459841800,0.089841796875,-0.9682159423828125,-0.541168212890625,-0.0904693603515625
1789761160469891800,0.099891845703125,-0.9453125,-0.44293212890625,-0.009735107421875
1789761160479940600,0.109940673828125,-0.742889404296875,-0.6358184814453125,0.0579833984375
1789761160489990700,0.11999072265625,-0.5112762451171875,-0.8673858642578125,0.082061767578125
1789761160500040700,0.130040771484375,-0.5048065185546875,-0.9479217529296875,0.085418701171875
1789761160510089700,0.14008984375,-0.486358642578125,-0.816253662109375,0.0663299560546875
1789761160520139800,0.150139892578125,-0.6832122802734375,-0.6403350830078125,-0.028839111328125
1789761160530189800,0.16018994140625,-0.828460693359375,-0.5564422607421875,-0.0894317626953125
1789761160540238600,0.170238525390625,-0.692047119140625,-0.62286376953125,-0.0829010009765625
1789761160550288600,0.18028857421875,-0.6439361572265625,-0.819580078125,-0.1169891357421875
1789761160560338700,0.190338623046875,-0.604888916015625,-0.920379638671875,-0.125701904296875
1789761160570387700,0.2003876953125,-0.7049560546875,-0.9043426513671875,-0.0380401611328125
1789761160580437800,0.210437744140625,-0.644317626953125,-0.6613006591796875,0.150634765625
1789761160590487800,0.22048779296875,-0.57891845703125,-0.569061279296875,0.2101898193359375
1789761160600536600,0.23053662109375,-0.69354248046875,-0.5443267822265625,-0.08099365234375
1789761160610586600,0.240586669921875,-0.6647186279296875,-0.8366241455078125,-0.337066650390625
1789761160620636700,0.25063671875,-0.8098602294921875,-1.059967041015625,-0.2399444580078125
1789761160630685400,0.260685546875,-0.7559356689453125,-0.7716827392578125,0.14630126953125
1789761160640735700,0.27073583984375,-0.5966644287109375,-0.4991912841796875,0.500030517578125
1789761160650785800,0.280785888671875,-0.7404022216796875,-0.42926025390625,0.416534423828125
1789761160660834800,0.290834716796875,-0.6888427734375,-0.696807861328125,0.0517578125
1789761160670884600,0.300884521484375,-0.621185302734375,-1.198333740234375,-0.1403656005859375
1789761160680934700,0.3109345703125,-0.4610595703125,-1.2273101806640625,-0.04620361328125
1789761160690983700,0.320983642578125,-0.5494537353515625,-0.854248046875,0.1864166259765625
1789761160701033500,0.331033447265625,-0.608978271484375,-0.4262237548828125,0.320220947265625
1789761160711083800,0.341083740234375,-0.8885040283203125,-0.4546356201171875,0.214996337890625
1789761160721132800,0.3511328125,-0.9036102294921875,-0.632415771484375,-0.0145721435546875
1789761160731182600,0.3611826171875,-0.637115478515625,-0.94366455078125,-0.209228515625
1789761160741232600,0.371232666015625,-0.5907440185546875,-1.052001953125,-0.325897216796875
1789761160751281700,0.38128173828125,-0.543701171875,-0.8561248779296875,-0.259368896484375
1789761160761331500,0.39133154296875,-0.5714569091796875,-0.70574951171875,-0.035125732421875
1789761160771381500,0.401381591796875,-0.59503173828125,-0.648406982421875,0.0886077880859375
1789761160781430800,0.4114306640625,-0.4999542236328125,-0.60675048828125,-0.0252532958984375
1789761160791480800,0.421480712890625,-0.7413787841796875,-0.842529296875,-0.220794677734375
1789761160801530600,0.431530517578125,-0.752899169921875,-0.8725128173828125,-0.2160797119140625
1789761160811579600,0.44157958984375,-0.741119384765625,-0.656707763671875,-0.009735107421875
1789761160821629700,0.451629638671875,-0.6929931640625,-0.656646728515625,0.172760009765625
1789761160831679500,0.461679443359375,-0.72906494140625,-0.702117919921875,0.1331939697265625
1789761160841728800,0.471728759765625,-0.759429931640625,-0.6423797607421875,-0.0882568359375
1789761160851778800,0.48177880859375,-0.9058380126953125,-0.694091796875,-0.258758544921875
1789761160861828600,0.49182861328125,-0.711273193359375,-0.692047119140625,-0.21148681640625
1789761160871877600,0.501877685546875,-0.652984619140625,-0.7257843017578125,-0.0917816162109375
1789761160881927700,0.511927734375,-0.4204864501953125,-0.707672119140625,0.0186767578125
1789761160891977500,0.5219775390625,-0.595855712890625,-0.732421875,-0.0133819580078125
1789761160902026800,0.53202685546875,-0.82147216796875,-0.77117919921875,-0.09356689453125
1789761160912076500,0.54207666015625,-0.7997894287109375,-0.747100830078125,-0.0756072998046875
1789761160922126600,0.552126708984375,-0.71807861328125,-0.64947509765625,-0.044891357421875
1789761160932175600,0.562175537109375,-0.606201171875,-0.6514892578125,-0.037872314453125
1789761160942225400,0.572225341796875,-0.5814361572265625,-0.881011962890625,0.026214599609375
1789761160952275500,0.582275390625,-0.6584930419921875,-0.952362060546875,0.09423828125
1789761160962324700,0.59232470703125,-0.8646697998046875,-0.7085113525390625,0.09539794921875
1789761160972374500,0.60237451171875,-0.679656982421875,-0.533294677734375,0.1030731201171875
1789761160982424600,0.612424560546875,-0.539581298828125,-0.61932373046875,0.037353515625
1789761160992473600,0.6224736328125,-0.4996490478515625,-0.67864990234375,-0.0580596923828125
1789761161002523600,0.632523681640625,-0.6312713623046875,-0.8426971435546875,-0.063140869140625
1789761161012573400,0.642573486328125,-0.9381866455078125,-0.9024658203125,-0.0489959716796875
1789761161022622500,0.65262255859375,-1.063140869140625,-0.623046875,-0.05645751953125
1789761161032672800,0.6626728515625,-0.9710845947265625,-0.489166259765625,-0.029144287109375
1789761161042722600,0.67272265625,-0.5972900390625,-0.545501708984375,0.034423828125
1789761161052771600,0.682771484375,-0.4706268310546875,-0.826080322265625,0.0181121826171875
1789761161062821600,0.692821533203125,-0.566314697265625,-0.9607696533203125,-0.06781005859375
1789761161072871400,0.702871337890625,-0.6667633056640625,-0.8409271240234375,-0.0928955078125
1789761161082920400,0.71292041015625,-0.8006439208984375,-0.6315765380859375,-0.0942535400390625
1789761161092970500,0.722970458984375,-0.72589111328125,-0.62042236328125,-0.0767669677734375
1789761161103020500,0.7330205078125,-0.707275390625,-0.67791748046875,-0.0771942138671875
1789761161113069600,0.743069580078125,-0.6970977783203125,-0.7994232177734375,-0.0511932373046875
1789761161123119600,0.75311962890625,-0.507415771484375,-0.7993927001953125,-0.00714111328125
1789761161133169700,0.763169677734375,-0.7104339599609375,-0.819488525390625,-0.007720947265625
1789761161143218400,0.773218505859375,-0.744384765625,-0.720794677734375,0.0337371826171875
1789761161153268500,0.7832685546875,-0.7921142578125,-0.66033935546875,0.0511627197265625
1789761161163318500,0.793318603515625,-0.701507568359375,-0.663055419921875,0.0265655517578125
1789761161173367600,0.803367431640625,-0.6108856201171875,-0.8148956298828125,-0.0078125
1789761161183417600,0.81341748046875,-0.4627838134765625,-0.8484039306640625,-0.000579833984375
1789761161193467600,0.823467529296875,-0.6197662353515625,-0.8978729248046875,-0.00238037109375
1789761161203516400,0.833516357421875,-0.765655517578125,-0.7545623779296875,-0.0353546142578125
1789761161213566500,0.84356640625,-0.83251953125,-0.62335205078125,-0.0897064208984375
1789761161223616500,0.853616455078125,-0.708251953125,-0.5599212646484375,-0.0970611572265625
1789761161233665500,0.86366552734375,-0.6453399658203125,-0.6014404296875,-0.054443359375
1789761161243715600,0.873715576171875,-0.658599853515625,-0.7286376953125,-0.0072479248046875
1789761161253765600,0.883765625,-0.5799407958984375,-0.8556060791015625,0.034393310546875
1789761161263814400,0.893814453125,-0.655609130859375,-0.7515869140625,-0.0014190673828125
1789761161273864400,0.903864501953125,-0.8316192626953125,-0.61932373046875,-0.080718994140625
1789761161283914500,0.91391455078125,-0.9031524658203125,-0.6404571533203125,-0.1053314208984375
1789761161293963500,0.923963623046875,-0.865570068359375,-0.790496826171875,-0.06915283203125
1789761161304013600,0.934013671875,-0.57330322265625,-0.8130645751953125,-0.00360107421875
1789761161314063600,0.944063720703125,-0.5538787841796875,-0.7993011474609375,-0.0131683349609375
1789761161324112600,0.954112548828125,-0.7548675537109375,-0.7186431884765625,-0.1490020751953125
1789761161334162400,0.964162353515625,-0.6640777587890625,-0.5755767822265625,-0.19561767578125
1789761161344212500,0.97421240234375,-0.804290771484375,-0.7014617919921875,-0.1119537353515625
1789761161354261800,0.98426171875,-0.6064300537109375,-0.718292236328125,-0.03985595703125
1789761161364311600,0.9943115234375,-0.6118621826171875,-0.8363800048828125,-0.0796051025390625
1789761161374361600,1.004361572265625,-0.6139068603515625,-0.799346923828125,-0.1216278076171875
1789761161384410600,1.01441064453125,-0.6180419921875,-0.748687744140625,-0.0861358642578125
1789761161394460400,1.02446044921875,-0.6260528564453125,-0.6863861083984375,-0.0365447998046875
1789761161404510500,1.034510498046875,-0.7366943359375,-0.7162628173828125,-0.0556640625
1789761161414559500,1.0445595703125,-0.9027252197265625,-0.7197113037109375,-0.091644287109375
1789761161424609500,1.054609619140625,-0.6824951171875,-0.6816864013671875,-0.029571533203125
1789761161434659600,1.06465966796875,-0.6901092529296875,-0.772613525390625,-0.0481414794921875
1789761161444708600,1.07470849609375,-0.5294036865234375,-0.80584716796875,-0.0988616943359375
1789761161454758700,1.084758544921875,-0.5947723388671875,-0.82269287109375,-0.11944580078125
1789761161464808400,1.094808349609375,-0.7795257568359375,-0.7325439453125,-0.0860595703125
1789761161474857500,1.104857421875,-0.7222137451171875,-0.5720367431640625,0.01885986328125
1789761161484907500,1.114907470703125,-0.77423095703125,-0.6876373291015625,0.0301513671875
1789761161494957600,1.12495751953125,-0.6756439208984375,-0.8789215087890625,-0.046844482421875
1789761161505006600,1.135006591796875,-0.5829925537109375,-0.8778839111328125,-0.1124267578125
1789761161515056600,1.145056640625,-0.6145172119140625,-0.72552490234375,-0.128509521484375
1789761161525106400,1.1551064453125,-0.67742919921875,-0.658447265625,-0.066253662109375
1789761161535155500,1.165155517578125,-0.6991729736328125,-0.58251953125,-0.0149078369140625
1789761161545205500,1.17520556640625,-0.9658660888671875,-0.6659393310546875,-0.0742340087890625
1789761161555255600,1.185255615234375,-0.7890167236328125,-0.71832275390625,-0.0662384033203125
1789761161565304600,1.1953046875,-0.8729705810546875,-0.7863922119140625,-0.1154937744140625
1789761161575354600,1.205354736328125,-0.742584228515625,-0.6807098388671875,-0.1586761474609375
1789761161585404700,1.21540478515625,-0.4566497802734375,-0.6219635009765625,-0.1752166748046875
1789761161595453400,1.225453369140625,-0.5097808837890625,-0.7420806884765625,-0.202484130859375
1789761161605503500,1.23550341796875,-0.574127197265625,-0.8317718505859375,-0.2062530517578125
1789761161615553500,1.245553466796875,-0.6943206787109375,-0.769989013671875,-0.20782470703125
1789761161625602600,1.2556025390625,-0.6842041015625,-0.7658843994140625,-0.063323974609375
1789761161635652600,1.265652587890625,-0.7143707275390625,-0.6862945556640625,-0.0338287353515625
1789761161645702700,1.27570263671875,-0.7624969482421875,-0.65435791015625,-0.0711212158203125
1789761161655751400,1.28575146484375,-0.825531005859375,-0.8077545166015625,-0.0339813232421875
1789761161665801500,1.295801513671875,-0.7378692626953125,-0.74029541015625,-0.0265045166015625
1789761161675851500,1.3058515625,-0.697662353515625,-0.58160400390625,-0.108734130859375
1789761161685900500,1.315900634765625,-0.6809844970703125,-0.669769287109375,-0.227447509765625
1789761161695950600,1.32595068359375,-0.6016387939453125,-0.8029022216796875,-0.2327423095703125
1789761161706000600,1.336000732421875,-0.5298614501953125,-0.8513946533203125,-0.111602783203125
1789761161716049400,1.34604931640625,-0.498870849609375,-0.779693603515625,-0.024688720703125
1789761161726099500,1.356099365234375,-0.7395782470703125,-0.7042388916015625,-0.109619140625
1789761161736149500,1.3661494140625,-1.0489654541015625,-0.650665283203125,-0.2158966064453125
1789761161746198500,1.376198486328125,-0.9737701416015625,-0.6207427978515625,-0.1848297119140625
1789761161756248600,1.38624853515625,-0.7167510986328125,-0.70452880859375,-0.090850830078125
1789761161766298600,1.396298583984375,-0.59271240234375,-0.7681121826171875,-0.08575439453125
1789761161776347600,1.40634765625,-0.3791046142578125,-0.77777099609375,-0.1443328857421875
1789761161786397400,1.4163974609375,-0.5526275634765625,-0.776824951171875,-0.250396728515625
1789761161796447500,1.426447509765625,-0.504791259765625,-0.6580657958984375,-0.2965087890625
1789761161806496500,1.43649658203125,-0.676116943359375,-0.6786651611328125,-0.2989501953125
1789761161816546600,1.446546630859375,-0.8280792236328125,-0.6745452880859375,-0.2764434814453125
1789761161826596600,1.4565966796875,-0.7868194580078125,-0.684722900390625,-0.2219085693359375
1789761161836645600,1.466645751953125,-0.8535308837890625,-0.7144317626953125,-0.199005126953125
1789761161846695700,1.47669580078125,-0.8405914306640625,-0.6480865478515625,-0.180938720703125
1789761161856745500,1.486745361328125,-0.6407928466796875,-0.5771331787109375,-0.140655517578125
1789761161866794500,1.49679443359375,-0.6916351318359375,-0.7009124755859375,-0.126617431640625
1789761161876844500,1.506844482421875,-0.540740966796875,-0.806182861328125,-0.105743408203125
1789761161886894800,1.516894775390625,-0.5831298828125,-0.847320556640625,-0.1262664794921875
1789761161896944000,1.526944091796875,-0.6710357666015625,-0.7519073486328125,-0.18353271484375
1789761161906994200,1.536994140625,-0.7281646728515625,-0.6841278076171875,-0.16790771484375
1789761161917044200,1.547044189453125,-0.8079986572265625,-0.610931396484375,-0.0911712646484375
1789761161927093000,1.557093017578125,-0.7931365966796875,-0.6289215087890625,-0.0071868896484375
1789761161937143000,1.56714306640625,-0.6201019287109375,-0.6994476318359375,0.0200653076171875
1789761161947193000,1.577193115234375,-0.70343017578125,-0.773529052734375,-0.018646240234375
1789761161957243000,1.587242919921875,-0.5420684814453125,-0.7390594482421875,-0.0072784423828125
1789761161967292200,1.597292236328125,-0.507415771484375,-0.7866363525390625,-0.001953125
1789761161977342200,1.60734228515625,-0.6597442626953125,-0.765472412109375,-0.0594940185546875
1789761161987391000,1.617390869140625,-0.914276123046875,-0.7262420654296875,-0.0875091552734375
1789761161997441000,1.62744091796875,-0.8215179443359375,-0.677032470703125,0.0045013427734375
1789761162007491000,1.637490966796875,-0.7613372802734375,-0.65374755859375,0.0727386474609375
1789761162017540900,1.647540771484375,-0.736602783203125,-0.71661376953125,0.0514068603515625
1789761162027590100,1.657590087890625,-0.5661773681640625,-0.77679443359375,0.02484130859375
1789761162037640200,1.66764013671875,-0.6643829345703125,-0.8260040283203125,-0.0251007080078125
1789761162047690200,1.677690185546875,-0.660003662109375,-0.683349609375,-0.02850341796875
1789761162057739000,1.687739013671875,-0.740020751953125,-0.6847686767578125,0.0075836181640625
1789761162067789000,1.6977890625,-0.797271728515625,-0.698272705078125,0.01800537109375
1789761162077837800,1.707837890625,-0.6363677978515625,-0.7326812744140625,0.010528564453125
1789761162087888100,1.71788818359375,-0.660552978515625,-0.8202056884765625,0.01324462890625
1789761162097938200,1.727938232421875,-0.568450927734375,-0.7783203125,0.06146240234375
1789761162107988200,1.73798828125,-0.6781158447265625,-0.7349853515625,0.1051177978515625
1789761162118037000,1.748037109375,-0.822479248046875,-0.736358642578125,0.161102294921875
1789761162128087000,1.758087158203125,-0.8371124267578125,-0.702880859375,0.210968017578125
1789761162138137000,1.76813720703125,-0.671600341796875,-0.65618896484375,0.160736083984375
1789761162148185900,1.778185791015625,-0.683441162109375,-0.712432861328125,0.033935546875
1789761162158236000,1.78823583984375,-0.6517486572265625,-0.795013427734375,-0.040283203125
1789761162168286200,1.7982861328125,-0.7640533447265625,-0.80084228515625,-0.02728271484375
1789761162178335000,1.8083349609375,-0.7498626708984375,-0.6876678466796875,0.0236358642578125
1789761162188385000,1.818385009765625,-0.67730712890625,-0.591552734375,0.0583953857421875
1789761162198435000,1.82843505859375,-0.67901611328125,-0.63372802734375,0.0625
1789761162208483800,1.83848388671875,-0.583099365234375,-0.719268798828125,0.04119873046875
1789761162218534000,1.848533935546875,-0.5154876708984375,-0.9044036865234375,-0.0433502197265625
1789761162228584000,1.858583984375,-0.5003204345703125,-0.9072418212890625,-0.205047607421875
1789761162238633200,1.86863330078125,-0.5513153076171875,-0.828094482421875,-0.3680267333984375
1789761162248683000,1.87868310546875,-0.6893463134765625,-0.80364990234375,-0.373504638671875
1789761162258733000,1.888733154296875,-0.6239776611328125,-0.7649078369140625,-0.1137237548828125
1789761162268782000,1.898781982421875,-0.5343475341796875,-0.7593231201171875,0.229522705078125
1789761162278831900,1.908831787109375,-0.5076751708984375,-0.7167510986328125,0.286285400390625
1789761162288882000,1.9188818359375,-0.781005859375,-0.7516632080078125,-0.0242156982421875
1789761162298931200,1.92893115234375,-0.854278564453125,-0.757659912109375,-0.32269287109375
1789761162308981000,1.93898095703125,-0.8286285400390625,-0.71173095703125,-0.3287353515625
1789761162319031000,1.949031005859375,-0.6867218017578125,-0.7793426513671875,-0.015899658203125
1789761162329080000,1.959080078125,-0.422637939453125,-0.8396759033203125,0.31500244140625
1789761162339130000,1.969130126953125,-0.6268310546875,-0.98260498046875,0.25311279296875
1789761162349180000,1.979179931640625,-0.6153106689453125,-0.807373046875,-0.1287994384765625
1789761162359229200,1.989229248046875,-0.8515167236328125,-0.703704833984375,-0.4713287353515625
1789761162369279200,1.999279296875,-0.7458343505859375,-0.6348114013671875,-0.413726806640625
1789761162379329000,2.0093291015625,-0.4827117919921875,-0.5863494873046875,-0.1122589111328125
1789761162389378000,2.0193779296875,-0.338897705078125,-0.8271026611328125,0.0429229736328125
1789761162399428000,2.029427978515625,-0.471893310546875,-1.0007781982421875,-0.1660003662109375
1789761162409478000,2.039477783203125,-0.7302703857421875,-0.9816741943359375,-0.5271759033203125
1789761162419527200,2.049527099609375,-0.55609130859375,-0.778778076171875,-0.5687713623046875
1789761162429577200,2.0595771484375,-0.71466064453125,-0.6549530029296875,-0.363067626953125
1789761162439627000,2.069626953125,-0.6827392578125,-0.6312103271484375,0.037078857421875
1789761162449676000,2.079676025390625,-0.6810760498046875,-0.7794036865234375,0.291412353515625
1789761162459726000,2.08972607421875,-0.7158966064453125,-0.887664794921875,0.1237945556640625
1789761162469776100,2.099776123046875,-0.7284393310546875,-0.7059326171875,-0.2777252197265625
1789761162479825000,2.109824951171875,-0.8473358154296875,-0.5609283447265625,-0.51080322265625
1789761162489875200,2.119875244140625,-0.693572998046875,-0.4624481201171875,-0.360076904296875
1789761162499925200,2.12992529296875,-0.6595001220703125,-0.59857177734375,-0.0708770751953125
1789761162509974000,2.13997412109375,-0.787567138671875,-0.6655426025390625,0.034332275390625
1789761162520024000,2.150024169921875,-0.9099578857421875,-0.64215087890625,-0.11041259765625
1789761162530074000,2.16007421875,-1.0780029296875,-0.656768798828125,-0.3243865966796875
1789761162540123000,2.170122802734375,-0.883941650390625,-0.6718902587890625,-0.29412841796875
1789761162550173000,2.1801728515625,-0.6309661865234375,-0.688262939453125,0.017059326171875
1789761162560223000,2.190222900390625,-0.4305572509765625,-0.8008270263671875,0.352752685546875
1789761162570272000,2.20027197265625,-0.3415679931640625,-0.891510009765625,0.4151153564453125
1789761162580322000,2.210322021484375,-0.5958404541015625,-0.88739013671875,0.2061614990234375
1789761162590372000,2.2203720703125,-0.7720947265625,-0.770599365234375,-0.01470947265625
1789761162600420900,2.2304208984375,-0.763427734375,-0.6311492919921875,-0.0802459716796875
1789761162610471000,2.240470947265625,-0.6319732666015625,-0.603790283203125,0.0097808837890625
1789761162620521000,2.25052099609375,-0.4911041259765625,-0.7159881591796875,0.1089324951171875
1789761162630570000,2.260570068359375,-0.420440673828125,-0.8892364501953125,0.0430755615234375
1789761162640620000,2.2706201171875,-0.5621490478515625,-0.9865875244140625,-0.1885986328125
1789761162650670000,2.280670166015625,-0.7430572509765625,-0.973541259765625,-0.3613433837890625
1789761162660719000,2.290718994140625,-0.80718994140625,-0.700592041015625,-0.365509033203125
1789761162670769000,2.300768798828125,-0.901458740234375,-0.509185791015625,-0.2613067626953125
1789761162680819000,2.31081884765625,-0.789581298828125,-0.5657806396484375,-0.1063232421875
1789761162690868200,2.3208681640625,-0.5536041259765625,-0.6973724365234375,0.03680419921875
1789761162700918000,2.33091796875,-0.4964599609375,-0.915802001953125,0.101959228515625
1789761162710968000,2.340968017578125,-0.40704345703125,-0.948394775390625,0.126953125
1789761162721017000,2.35101708984375,-0.57135009765625,-0.8654327392578125,0.0749969482421875
1789761162731067000,2.36106689453125,-0.8066558837890625,-0.678802490234375,-0.006988525390625
1789761162741117000,2.371116943359375,-1.0397796630859375,-0.5770111083984375,-0.027252197265625
1789761162751166200,2.381166259765625,-0.9134063720703125,-0.5578765869140625,0.029022216796875
1789761162761216300,2.39121630859375,-0.7307586669921875,-0.677978515625,0.1019134521484375
1789761162771266000,2.40126611328125,-0.3889312744140625,-0.7852783203125,0.1418609619140625
1789761162781315000,2.411315185546875,-0.2804412841796875,-0.88360595703125,0.157958984375
1789761162791365000,2.421365234375,-0.3328094482421875,-0.9178619384765625,0.1559600830078125
1789761162801415000,2.431414794921875,-0.6764984130859375,-0.8782501220703125,0.120513916015625
1789761162811464200,2.441464111328125,-0.92041015625,-0.701385498046875,0.0532073974609375
1789761162821514200,2.45151416015625,-0.981536865234375,-0.610565185546875,-0.0371856689453125
1789761162831564000,2.46156396484375,-0.7484588623046875,-0.6449127197265625,-0.1228179931640625
1789761162841613000,2.471613037109375,-0.4474945068359375,-0.87017822265625,-0.156707763671875
1789761162851663000,2.4816630859375,-0.3731689453125,-1.0525970458984375,-0.0615386962890625
1789761162861713000,2.491712890625,-0.440277099609375,-1.0006256103515625,0.1243743896484375
1789761162871762000,2.501761962890625,-0.69818115234375,-0.760955810546875,0.1740875244140625
1789761162881812000,2.51181201171875,-0.8663482666015625,-0.51239013671875,0.02691650390625
1789761162891862000,2.521862060546875,-0.8500823974609375,-0.537353515625,-0.150390625
1789761162901911000,2.5319111328125,-0.652374267578125,-0.8165740966796875,-0.1989288330078125
1789761162911961000,2.541961181640625,-0.3887939453125,-1.078399658203125,-0.069183349609375
1789761162922011000,2.552010986328125,-0.3087005615234375,-1.0982666015625,0.1304779052734375
1789761162932060000,2.562059814453125,-0.4636993408203125,-0.87176513671875,0.260406494140625
1789761162942110000,2.57210986328125,-0.7847747802734375,-0.4814300537109375,0.2174224853515625
1789761162952160000,2.582159912109375,-0.906829833984375,-0.3614501953125,0.0370025634765625
1789761162962209000,2.592208984375,-0.9393157958984375,-0.610504150390625,-0.1646575927734375
1789761162972259000,2.602259033203125,-0.9480438232421875,-0.925323486328125,-0.23724365234375
1789761162982308900,2.612308837890625,-0.7520294189453125,-0.9743499755859375,-0.096771240234375
1789761162992359000,2.62235888671875,-0.3680572509765625,-0.76361083984375,0.1164703369140625
1789761163002408000,2.632407958984375,-0.4187469482421875,-0.6686248779296875,0.153961181640625
1789761163012457700,2.642457763671875,-0.603118896484375,-0.6644287109375,0.0366363525390625
1789761163022508000,2.652508056640625,-0.6871490478515625,-0.688568115234375,-0.05084228515625
1789761163032557000,2.66255712890625,-0.85174560546875,-0.7440185546875,-0.0683135986328125
1789761163042607000,2.672607177734375,-0.9260406494140625,-0.7363128662109375,-0.0345916748046875
1789761163052657000,2.682656982421875,-0.8195037841796875,-0.6936798095703125,0.0335540771484375
1789761163062706000,2.692705810546875,-0.724822998046875,-0.71990966796875,0.032501220703125
1789761163072756000,2.702755859375,-0.531890869140625,-0.7136077880859375,-0.05279541015625
1789761163082805800,2.7128056640625,-0.606292724609375,-0.840118408203125,-0.108551025390625
1789761163092855000,2.72285498046875,-0.628143310546875,-0.837066650390625,-0.0718231201171875
1789761163102905000,2.732905029296875,-0.6698760986328125,-0.702362060546875,-0.0432586669921875
1789761163112955000,2.742954833984375,-0.81829833984375,-0.614776611328125,-0.0811767578125
1789761163123004000,2.75300390625,-0.7417449951171875,-0.6640167236328125,-0.122314453125
1789761163133054000,2.763053955078125,-0.479705810546875,-0.6966552734375,-0.1677398681640625
1789761163143104000,2.77310400390625,-0.4654998779296875,-0.7834320068359375,-0.208343505859375
1789761163153153000,2.783153076171875,-0.6934814453125,-0.82989501953125,-0.157318115234375
1789761163163203000,2.793203125,-0.7098236083984375,-0.675811767578125,-0.0181732177734375
1789761163173253000,2.803253173828125,-0.83538818359375,-0.535858154296875,0.0306396484375
1789761163183302000,2.813302001953125,-0.856597900390625,-0.4990234375,-0.0238800048828125
1789761163193352000,2.82335205078125,-0.7204132080078125,-0.66802978515625,-0.0857391357421875
1789761163203402000,2.833402099609375,-0.6473541259765625,-0.8260955810546875,-0.113922119140625
1789761163213451000,2.843450927734375,-0.6952972412109375,-0.8878631591796875,-0.097259521484375
1789761163223501000,2.8535009765625,-0.695404052734375,-0.8118133544921875,-0.055755615234375
1789761163233551000,2.863551025390625,-0.7976837158203125,-0.7283935546875,-0.055084228515625
1789761163243600000,2.873599853515625,-0.5771484375,-0.5846099853515625,-0.0695648193359375
1789761163253650000,2.88364990234375,-0.5367279052734375,-0.70025634765625,-0.0782623291015625
1789761163263700000,2.893699951171875,-0.5399169921875,-0.937896728515625,-0.03009033203125
1789761163273749000,2.9037490234375,-0.575836181640625,-0.9803619384765625,0.0602264404296875
1789761163283799000,2.913799072265625,-0.6656341552734375,-0.81866455078125,0.1274566650390625
1789761163293849000,2.92384912109375,-0.8106689453125,-0.6620941162109375,0.0753631591796875
1789761163303897900,2.93389794921875,-0.7267913818359375,-0.562103271484375,-0.06158447265625
1789761163313948000,2.943947998046875,-0.6689910888671875,-0.79205322265625,-0.1237335205078125
1789761163323998000,2.953998046875,-0.412628173828125,-1.0123138427734375,0.0007781982421875
1789761163334047000,2.964046875,-0.341461181640625,-1.0167388916015625,0.1242523193359375
1789761163344097000,2.974096923828125,-0.548919677734375,-0.8974609375,0.067962646484375
1789761163354147000,2.98414697265625,-0.68426513671875,-0.654388427734375,-0.0975189208984375
1789761163364196000,2.994196044921875,-0.9072265625,-0.4640350341796875,-0.241363525390625
1789761163374246000,3.004245849609375,-0.8974151611328125,-0.4562530517578125,-0.2163238525390625
1789761163384296000,3.0142958984375,-0.8791046142578125,-0.6402587890625,-0.05645751953125
1789761163394345000,3.024344970703125,-0.7509002685546875,-0.8119659423828125,0.0284271240234375
1789761163404394800,3.034394775390625,-0.648162841796875,-0.826690673828125,-0.0553131103515625
1789761163414444800,3.04444482421875,-0.5281219482421875,-0.8245086669921875,-0.1793670654296875
1789761163424494000,3.054494140625,-0.4975433349609375,-0.8160400390625,-0.2211761474609375
1789761163434543900,3.0645439453125,-0.5129852294921875,-0.7297821044921875,-0.16064453125
1789761163444594000,3.074593994140625,-0.494171142578125,-0.7025604248046875,-0.0819244384765625
1789761163454643000,3.084642822265625,-0.72015380859375,-0.7947845458984375,-0.1334228515625
1789761163464693000,3.09469287109375,-0.846435546875,-0.8824615478515625,-0.258392333984375
1789761163474742800,3.10474267578125,-0.7735443115234375,-0.7931976318359375,-0.3104095458984375
1789761163484792000,3.1147919921875,-0.642669677734375,-0.6449432373046875,-0.28936767578125
1789761163494842000,3.124842041015625,-0.546722412109375,-0.535797119140625,-0.2370147705078125
1789761163504892000,3.134891845703125,-0.385009765625,-0.6916046142578125,-0.19384765625
1789761163514941000,3.14494091796875,-0.5008697509765625,-0.89605712890625,-0.2100982666015625
1789761163524991000,3.154990966796875,-0.8353424072265625,-0.9715118408203125,-0.2470245361328125
1789761163535040800,3.165040771484375,-0.8250579833984375,-0.7882537841796875,-0.240325927734375
1789761163545090000,3.175090087890625,-0.856903076171875,-0.633087158203125,-0.2349700927734375
1789761163555140000,3.18514013671875,-0.5906829833984375,-0.5234375,-0.1579742431640625
1789761163565190100,3.195190185546875,-0.4225311279296875,-0.7617645263671875,-0.0205535888671875
1789761163575239000,3.205239013671875,-0.3094329833984375,-0.9583587646484375,0.051788330078125
1789761163585289000,3.2152890625,-0.5417327880859375,-0.9838409423828125,-0.0236968994140625
1789761163595339000,3.225339111328125,-0.869049072265625,-0.743804931640625,-0.1627655029296875
1789761163605388000,3.235387939453125,-1.0439300537109375,-0.495208740234375,-0.2036285400390625
1789761163615438000,3.24543798828125,-0.8986053466796875,-0.510406494140625,-0.0820770263671875
1789761163625488100,3.255488037109375,-0.6863250732421875,-0.713134765625,0.12451171875
1789761163635537000,3.265536865234375,-0.4213714599609375,-0.85302734375,0.2135772705078125
1789761163645587000,3.2755869140625,-0.51025390625,-0.938232421875,0.1707763671875
1789761163655637000,3.285636962890625,-0.5269622802734375,-0.841522216796875,0.1664276123046875
1789761163665686000,3.29568603515625,-0.7107086181640625,-0.6309356689453125,0.13275146484375
1789761163675736000,3.305736083984375,-0.8718109130859375,-0.52923583984375,-0.00811767578125
1789761163685786000,3.3157861328125,-0.8475189208984375,-0.6341552734375,-0.1453704833984375
1789761163695835000,3.3258349609375,-0.7165679931640625,-0.78179931640625,-0.170257568359375
1789761163705885000,3.335885009765625,-0.583251953125,-0.778778076171875,-0.0554046630859375
1789761163715935000,3.34593505859375,-0.4928131103515625,-0.7459869384765625,0.1040191650390625
1789761163725983700,3.355983642578125,-0.4372406005859375,-0.649505615234375,0.108306884765625
1789761163736033800,3.36603369140625,-0.93170166015625,-0.6819915771484375,-0.085052490234375
1789761163746084000,3.376083984375,-1.229217529296875,-0.68865966796875,-0.146331787109375
1789761163756133000,3.386133056640625,-1.146087646484375,-0.6776275634765625,0.0191802978515625
1789761163766183000,3.396182861328125,-0.6483154296875,-0.6517486572265625,0.1864471435546875
1789761163776233000,3.40623291015625,-0.44354248046875,-0.84747314453125,0.1732635498046875
1789761163786282000,3.416281982421875,-0.2014617919921875,-0.9104156494140625,0.0625762939453125
1789761163796331800,3.426331787109375,-0.3130645751953125,-0.9107818603515625,-0.0135498046875
1789761163806381800,3.4363818359375,-0.629241943359375,-0.8459014892578125,-0.0248870849609375
1789761163816431900,3.446431884765625,-0.7952423095703125,-0.73138427734375,0.01513671875
1789761163826481000,3.45648095703125,-1.0256500244140625,-0.7530364990234375,0.07763671875
1789761163836531000,3.466531005859375,-0.7257080078125,-0.7480926513671875,0.1325836181640625
1789761163846581000,3.4765810546875,-0.4336395263671875,-0.8143768310546875,0.158294677734375
1789761163856629800,3.486629638671875,-0.3462371826171875,-0.9366302490234375,0.2103729248046875
1789761163866679800,3.4966796875,-0.3341217041015625,-0.8833770751953125,0.272613525390625
1789761163876729900,3.506729736328125,-0.715484619140625,-0.789886474609375,0.2751922607421875
1789761163886779100,3.516779052734375,-0.9035186767578125,-0.6292266845703125,0.165191650390625
1789761163896829200,3.5268291015625,-0.9040374755859375,-0.49005126953125,-0.0655059814453125
1789761163906879000,3.53687890625,-0.8602294921875,-0.6013031005859375,-0.2626953125
1789761163916928000,3.546927978515625,-0.714874267578125,-0.839080810546875,-0.254852294921875
1789761163926978000,3.55697802734375,-0.5492401123046875,-0.9608154296875,-0.085845947265625
1789761163937027800,3.56702783203125,-0.46636962890625,-0.8119964599609375,0.01348876953125
1789761163947077000,3.5770771484375,-0.5932464599609375,-0.5782012939453125,-0.0459442138671875
1789761163957127200,3.587127197265625,-0.7879486083984375,-0.5455322265625,-0.1126708984375
1789761163967177200,3.59717724609375,-0.73309326171875,-0.608062744140625,-0.0773468017578125
1789761163977226000,3.60722607421875,-0.785430908203125,-0.8139801025390625,0.02447509765625
1789761163987276000,3.617276123046875,-0.6661834716796875,-0.8909912109375,0.14471435546875
1789761163997326000,3.627326171875,-0.700897216796875,-0.88446044921875,0.1519775390625
1789761164007375000,3.637375,-0.722991943359375,-0.692047119140625,0.0183258056640625
1789761164017425200,3.647425048828125,-0.7925872802734375,-0.6686859130859375,-0.1377105712890625
1789761164027475200,3.65747509765625,-0.6257781982421875,-0.71234130859375,-0.186126708984375
1789761164037524000,3.66752392578125,-0.589447021484375,-0.818084716796875,-0.1631011962890625
1789761164047574000,3.677573974609375,-0.616180419921875,-0.825042724609375,-0.12774658203125
1789761164057624000,3.6876240234375,-0.5225067138671875,-0.683624267578125,-0.1678619384765625
1789761164067673000,3.697673095703125,-0.6409759521484375,-0.6839447021484375,-0.2875518798828125
1789761164077723100,3.70772314453125,-0.64166259765625,-0.7069091796875,-0.2853546142578125
1789761164087773200,3.717773193359375,-0.589080810546875,-0.67413330078125,-0.172515869140625
1789761164097822000,3.727822021484375,-0.69775390625,-0.6587982177734375,-0.125640869140625
1789761164107872000,3.7378720703125,-0.8020782470703125,-0.715423583984375,-0.1085357666015625
1789761164117922000,3.747922119140625,-0.68145751953125,-0.7443084716796875,-0.092071533203125
1789761164127970800,3.757970703125,-0.5738677978515625,-0.770050048828125,-0.1336212158203125
1789761164138021000,3.768021240234375,-0.6364288330078125,-0.8071746826171875,-0.1859130859375
1789761164148071200,3.7780712890625,-0.621063232421875,-0.741943359375,-0.15924072265625
1789761164158120200,3.7881201171875,-0.7794647216796875,-0.600738525390625,-0.130645751953125
1789761164168170000,3.798169921875,-0.8140869140625,-0.62750244140625,-0.122344970703125
1789761164178220000,3.808219970703125,-0.6979522705078125,-0.6947784423828125,-0.1237335205078125
1789761164188269000,3.81826904296875,-0.7335662841796875,-0.8037567138671875,-0.1839599609375
1789761164198318800,3.82831884765625,-0.6640777587890625,-0.7854461669921875,-0.2111053466796875
1789761164208369000,3.838368896484375,-0.5697021484375,-0.7999420166015625,-0.117767333984375
1789761164218418200,3.848418212890625,-0.804534912109375,-0.849884033203125,0.00982666015625
1789761164228468000,3.858468017578125,-0.6917877197265625,-0.7530059814453125,0.0969085693359375
1789761164238518000,3.86851806640625,-0.7147369384765625,-0.6600341796875,0.023529052734375
1789761164248567000,3.878567138671875,-0.609161376953125,-0.6099700927734375,-0.1359405517578125
1789761164258617000,3.8886171875,-0.515838623046875,-0.761474609375,-0.18994140625
1789761164268667000,3.8986669921875,-0.5187225341796875,-0.9568634033203125,-0.026092529296875
1789761164278716200,3.908716064453125,-0.53326416015625,-0.9938507080078125,0.220367431640625
1789761164288766200,3.91876611328125,-0.6465301513671875,-0.7677764892578125,0.2335052490234375
1789761164298816000,3.92881591796875,-0.8519287109375,-0.550628662109375,-0.0145263671875
1789761164308865000,3.938864990234375,-0.96917724609375,-0.5574951171875,-0.2294464111328125
1789761164318915000,3.9489150390625,-0.8366241455078125,-0.7133941650390625,-0.220947265625
1789761164328964900,3.95896484375,-0.7896728515625,-0.8380126953125,-0.038818359375
1789761164339014100,3.96901416015625,-0.6426544189453125,-0.8317413330078125,0.1954345703125
1789761164349064200,3.979064208984375,-0.407135009765625,-0.718353271484375,0.2841796875
1789761164359114000,3.989114013671875,-0.634033203125,-0.6724395751953125,0.0910186767578125
1789761164369163000,3.9991630859375,-0.636444091796875,-0.6583099365234375,-0.1582183837890625
1789761164379213000,4.009213134765625,-0.82550048828125,-0.744537353515625,-0.22625732421875
1789761164389263000,4.01926318359375,-0.74713134765625,-0.7512359619140625,-0.036376953125
1789761164399312100,4.02931201171875,-0.8304901123046875,-0.662933349609375,0.1941070556640625
1789761164409362200,4.039362060546875,-0.6635589599609375,-0.5487060546875,0.2833709716796875
1789761164419412200,4.049412109375,-0.7111053466796875,-0.62860107421875,0.10736083984375
1789761164429461000,4.0594609375,-0.7458648681640625,-0.7756805419921875,-0.1870269775390625
1789761164439511000,4.069510986328125,-0.77410888671875,-0.807281494140625,-0.288543701171875
1789761164449561000,4.07956103515625,-0.705169677734375,-0.7482452392578125,-0.1233673095703125
1789761164459610000,4.089610107421875,-0.4990234375,-0.6212005615234375,0.09375
1789761164469660200,4.09966015625,-0.5194091796875,-0.75146484375,0.1114349365234375
1789761164479710200,4.109710205078125,-0.6522369384765625,-0.882843017578125,-0.0485382080078125
1789761164489759000,4.119759033203125,-0.7340545654296875,-0.8502655029296875,-0.187164306640625
1789761164499809000,4.12980908203125,-0.791351318359375,-0.7099609375,-0.1611480712890625
1789761164509859000,4.139859130859375,-0.564483642578125,-0.5944061279296875,-0.0084075927734375
1789761164519909000,4.1499091796875,-0.6457977294921875,-0.7965850830078125,0.077392578125
1789761164529958000,4.1599580078125,-0.6587677001953125,-0.973846435546875,0.122589111328125
1789761164540008200,4.17000830078125,-0.54998779296875,-0.9279327392578125,0.17547607421875
1789761164550058200,4.180058349609375,-0.489898681640625,-0.72406005859375,0.096832275390625
1789761164560107000,4.19010693359375,-0.6526336669921875,-0.6011810302734375,-0.166900634765625
1789761164570157000,4.200156982421875,-0.8686370849609375,-0.724639892578125,-0.3296356201171875
1789761164580207000,4.21020703125,-0.873626708984375,-0.7318572998046875,-0.122222900390625
1789761164590255900,4.220255859375,-0.8195037841796875,-0.6904296875,0.247711181640625
1789761164600306000,4.230305908203125,-0.6288604736328125,-0.6941375732421875,0.411224365234375
1789761164610356000,4.24035595703125,-0.58154296875,-0.834991455078125,0.1617279052734375
1789761164620405000,4.250405029296875,-0.4417877197265625,-0.90789794921875,-0.2767791748046875
1789761164630455000,4.260455078125,-0.5225067138671875,-0.9004364013671875,-0.517486572265625
1789761164640505000,4.270505126953125,-0.565032958984375,-0.839080810546875,-0.4145050048828125
1789761164650553900,4.280553955078125,-0.6783599853515625,-0.675567626953125,-0.122161865234375
1789761164660604000,4.29060400390625,-0.900482177734375,-0.654510498046875,0.097503662109375
1789761164670654000,4.300654052734375,-0.754425048828125,-0.6683502197265625,0.108978271484375
1789761164680703200,4.310703125,-0.5972137451171875,-0.804901123046875,-0.043701171875
1789761164690753000,4.3207529296875,-0.5036468505859375,-0.8923797607421875,-0.15576171875
1789761164700803000,4.330802978515625,-0.6035308837890625,-0.7562408447265625,-0.1377105712890625
1789761164710852000,4.34085205078125,-0.5627899169921875,-0.6324920654296875,-0.0900115966796875
1789761164720902000,4.35090185546875,-0.8585968017578125,-0.6617279052734375,-0.1369476318359375
1789761164730952000,4.360951904296875,-0.709930419921875,-0.657867431640625,-0.168060302734375
1789761164741001200,4.371001220703125,-0.73736572265625,-0.733612060546875,-0.1690521240234375
1789761164751051000,4.381051025390625,-0.6636962890625,-0.8064727783203125,-0.1740875244140625
1789761164761101000,4.39110107421875,-0.6787261962890625,-0.736572265625,-0.2083892822265625
1789761164771150000,4.401150146484375,-0.558074951171875,-0.7411346435546875,-0.189697265625
1789761164781200000,4.411199951171875,-0.514129638671875,-0.8224945068359375,-0.118927001953125
1789761164791250000,4.42125,-0.6096954345703125,-0.869903564453125,-0.07086181640625
1789761164801299200,4.43129931640625,-0.764892578125,-0.9050445556640625,-0.075653076171875
1789761164811349200,4.441349365234375,-0.8081512451171875,-0.729034423828125,-0.1283416748046875
1789761164821399000,4.45139892578125,-0.735931396484375,-0.578643798828125,-0.118408203125
1789761164831448000,4.461447998046875,-0.6299285888671875,-0.6566314697265625,0.0273895263671875
1789761164841498000,4.471498046875,-0.5233306884765625,-0.8179473876953125,0.1732025146484375
1789761164851548000,4.4815478515625,-0.5842742919921875,-0.8834228515625,0.1673431396484375
1789761164861597200,4.49159716796875,-0.7139892578125,-0.7729339599609375,0.01446533203125
1789761164871647200,4.501647216796875,-0.9659576416015625,-0.6875,-0.162078857421875
1789761164881697000,4.511697021484375,-0.8218994140625,-0.501129150390625,-0.1885833740234375
1789761164891745500,4.52174560546875,-0.4681396484375,-0.5200653076171875,-0.074951171875
1789761164901795600,4.531795654296875,-0.3898468017578125,-0.788909912109375,0.0204315185546875
1789761164911845400,4.541845458984375,-0.4017486572265625,-1.0738067626953125,0.023681640625
1789761164921894700,4.551894775390625,-0.7136077880859375,-1.0636444091796875,-0.1019134521484375
1789761164931944700,4.56194482421875,-0.96087646484375,-0.69244384765625,-0.2560882568359375
1789761164941994500,4.571994384765625,-0.9420166015625,-0.4017486572265625,-0.2705535888671875
1789761164952043500,4.58204345703125,-0.7205810546875,-0.50518798828125,-0.129119873046875
1789761164962093600,4.592093505859375,-0.4824066162109375,-0.765533447265625,0.0425567626953125
1789761164972143600,4.6021435546875,-0.415069580078125,-0.9899444580078125,0.086578369140625
1789761164982192600,4.612192626953125,-0.46295166015625,-0.98712158203125,-0.0221405029296875
1789761164992242700,4.62224267578125,-0.733551025390625,-0.7706146240234375,-0.1903533935546875
1789761165002292700,4.632292724609375,-0.8894500732421875,-0.5646514892578125,-0.26153564453125
1789761165012341500,4.642341552734375,-0.829132080078125,-0.5165863037109375,-0.169647216796875
1789761165022391600,4.6523916015625,-0.7949066162109375,-0.6604156494140625,0.046539306640625
1789761165032441600,4.662441650390625,-0.487274169921875,-0.7730712890625,0.1989898681640625
1789761165042490400,4.672490478515625,-0.62188720703125,-0.888397216796875,0.1205596923828125
1789761165052540400,4.68254052734375,-0.6645965576171875,-0.8632659912109375,-0.0356903076171875
1789761165062590700,4.6925908203125,-0.76873779296875,-0.755126953125,-0.0840606689453125
1789761165072639500,4.702639404296875,-0.804962158203125,-0.5563507080078125,0.016815185546875
1789761165082689500,4.712689453125,-0.6920623779296875,-0.5462646484375,0.136322021484375
1789761165092739600,4.722739501953125,-0.6237640380859375,-0.662811279296875,0.1284332275390625
1789761165102788400,4.732788330078125,-0.756072998046875,-0.8785858154296875,0.031219482421875
1789761165112838400,4.74283837890625,-0.667388916015625,-0.936981201171875,0.0139617919921875
1789761165122888400,4.752888427734375,-0.5479888916015625,-0.7967529296875,0.029937744140625
1789761165132937500,4.7629375,-0.6728515625,-0.591827392578125,-0.0235443115234375
1789761165142987500,4.772987548828125,-0.7193603515625,-0.5839691162109375,-0.0346832275390625
1789761165153037600,4.78303759765625,-0.7569580078125,-0.76043701171875,-0.0082244873046875
1789761165163086600,4.793086669921875,-0.86456298828125,-0.8944244384765625,-0.038177490234375
1789761165173136400,4.803136474609375,-0.65936279296875,-0.798675537109375,-0.08380126953125
1789761165183186400,4.8131865234375,-0.70648193359375,-0.7619171142578125,-0.1652374267578125
1789761165193236500,4.823236572265625,-0.6950836181640625,-0.6207427978515625,-0.21258544921875
1789761165203285500,4.833285400390625,-0.58544921875,-0.5940704345703125,-0.1064300537109375
1789761165213335600,4.84333544921875,-0.482330322265625,-0.7607269287109375,0.036895751953125
1789761165223385600,4.853385498046875,-0.5184173583984375,-0.8682861328125,-0.000213623046875
1789761165233434400,4.863434326171875,-0.8321075439453125,-0.889190673828125,-0.2116241455078125
1789761165243484400,4.873484375,-1.204742431640625,-0.707427978515625,-0.3673858642578125
1789761165253534500,4.883534423828125,-0.9579925537109375,-0.40167236328125,-0.24212646484375
1789761165263583700,4.893583740234375,-0.496551513671875,-0.44293212890625,0.06072998046875
1789761165273633500,4.903633544921875,-0.623565673828125,-0.8927154541015625,0.195220947265625
1789761165283683600,4.91368359375,-0.5289154052734375,-0.9232330322265625,0.063385009765625
1789761165293732600,4.923732666015625,-0.697296142578125,-0.9333648681640625,-0.2265777587890625
1789761165303782400,4.933782470703125,-0.872711181640625,-0.6794281005859375,-0.374114990234375
1789761165313832400,4.94383251953125,-0.5948486328125,-0.3632049560546875,-0.2586669921875
1789761165323881700,4.9538818359375,-0.54986572265625,-0.3560333251953125,-0.11920166015625
1789761165333931500,4.963931640625,-0.2972412109375,-0.6497955322265625,-0.03765869140625
1789761165343981600,4.973981689453125,-0.3204345703125,-0.9632720947265625,-0.0583953857421875
1789761165354030600,4.984030517578125,-0.7459869384765625,-1.027862548828125,-0.1528778076171875
1789761165364080400,4.994080322265625,-1.0945587158203125,-0.82659912109375,-0.1627197265625
1789761165374130400,5.00413037109375,-1.374053955078125,-0.661956787109375,-0.030975341796875
1789761165384179700,5.0141796875,-1.0824127197265625,-0.3998565673828125,0.162933349609375
1789761165394229800,5.024229736328125,-0.4708709716796875,-0.3491058349609375,0.2388763427734375
1789761165404279600,5.034279541015625,-0.21759033203125,-0.8044586181640625,0.1326141357421875
1789761165414328600,5.04432861328125,-0.10009765625,-1.2215576171875,-0.012176513671875
1789761165424378600,5.054378662109375,-0.2322540283203125,-1.3336334228515625,-0.1741180419921875
1789761165434428400,5.064428466796875,-0.74786376953125,-0.9941558837890625,-0.3604278564453125
1789761165444477400,5.0744775390625,-1.17059326171875,-0.3958892822265625,-0.3684234619140625
1789761165454527700,5.08452783203125,-1.04705810546875,-0.1625823974609375,-0.0599822998046875
1789761165464577500,5.09457763671875,-0.7736663818359375,-0.5045166015625,0.185302734375
1789761165474626600,5.10462646484375,-0.7336273193359375,-0.874359130859375,0.0999908447265625
1789761165484676600,5.114676513671875,-0.819244384765625,-1.0845184326171875,-0.0327301025390625
1789761165494726700,5.1247265625,-0.55218505859375,-0.8727874755859375,0.012847900390625
1789761165504775400,5.134775390625,-0.5109710693359375,-0.745758056640625,0.0399322509765625
1789761165514825500,5.144825439453125,-0.80596923828125,-0.638336181640625,-0.0493316650390625
1789761165524875500,5.15487548828125,-0.7562408447265625,-0.5966644287109375,-0.0561065673828125
1789761165534924500,5.164924560546875,-0.7725830078125,-0.79052734375,0.051849365234375
1789761165544974600,5.174974609375,-1.2786865234375,-0.989227294921875,0.0858154296875
1789761165555024600,5.185024658203125,-0.9915008544921875,-0.714324951171875,0.0485687255859375
1789761165565073400,5.195073486328125,-0.7072601318359375,-0.57769775390625,-0.0524139404296875
1789761165575123500,5.20512353515625,-0.3760528564453125,-0.6239471435546875,-0.07879638671875
1789761165585173500,5.215173583984375,0.274139404296875,-0.6922454833984375,0.0241241455078125
1789761165595222500,5.225222412109375,0.240386962890625,-1.09051513671875,0.0322113037109375
1789761165605272600,5.2352724609375,-0.2223052978515625,-1.2066802978515625,-0.053314208984375
1789761165615322600,5.245322509765625,-0.53094482421875,-0.8030242919921875,-0.098114013671875
1789761165625371400,5.255371337890625,-1.0855712890625,-0.300811767578125,-0.0623321533203125
1789761165635421400,5.26542138671875,-1.43035888671875,0.0532379150390625,0.0982208251953125
1789761165645471500,5.275471435546875,-1.3023529052734375,-0.13775634765625,0.2996673583984375
1789761165655520500,5.2855205078125,-0.7757568359375,-0.7526092529296875,0.357177734375
1789761165665570600,5.295570556640625,-0.541656494140625,-1.22772216796875,0.144256591796875
1789761165675620600,5.30562060546875,-0.952789306640625,-1.2823638916015625,-0.1528778076171875
1789761165685669600,5.315669677734375,-1.01324462890625,-0.7658233642578125,-0.2100677490234375
1789761165695719400,5.325719482421875,-0.55615234375,-0.119598388671875,-0.0496826171875
1789761165705769500,5.33576953125,-0.020660400390625,-0.3160858154296875,0.1024169921875
1789761165715818800,5.34581884765625,0.173370361328125,-0.970062255859375,0.0542449951171875
1789761165725868500,5.35586865234375,0.0425567626953125,-1.4981842041015625,-0.17852783203125
1789761165735918600,5.365918701171875,-1.0399017333984375,-1.60333251953125,-0.3613433837890625
1789761165745968600,5.37596875,-1.4431304931640625,-0.79974365234375,-0.2600555419921875
1789761165756017400,5.386017333984375,-1.6596832275390625,0.092132568359375,-0.0384368896484375
1789761165766067500,5.3960673828125,-0.93890380859375,0.316070556640625,0.1386260986328125
1789761165776116700,5.40611669921875,-0.390960693359375,-0.4385986328125,0.199371337890625
1789761165786166500,5.41616650390625,0.25213623046875,-1.26129150390625,0.224456787109375
1789761165796216600,5.426216552734375,0.856109619140625,-1.398681640625,0.1415252685546875
1789761165806266600,5.4362666015625,0.903350830078125,-1.14697265625,-0.1094512939453125
1789761165816315600,5.446315673828125,0.2646331787109375,-0.6033782958984375,-0.4167633056640625
1789761165826365400,5.456365478515625,-1.9716796875,-0.442047119140625,-0.574127197265625
1789761165836415500,5.46641552734375,-2.29876708984375,0.014068603515625,-0.3099365234375
1789761165846464500,5.476464599609375,-3.316925048828125,-0.382232666015625,-0.07080078125
1789761165856514600,5.4865146484375,-1.469879150390625,-0.2322845458984375,0.1716156005859375
1789761165866564600,5.496564697265625,0.09454345703125,-0.9279937744140625,0.2071990966796875
1789761165876613600,5.506613525390625,0.4799041748046875,-1.595306396484375,0.0209197998046875
1789761165886664000,5.516663818359375,0.0994873046875,-1.7230224609375,0.1323089599609375
1789761165896714000,5.5267138671875,-0.3922882080078125,-1.19232177734375,0.3431854248046875
1789761165906762800,5.5367626953125,-1.8853607177734375,-0.278961181640625,0.0349578857421875
1789761165916812800,5.546812744140625,-1.79595947265625,0.18060302734375,-0.371185302734375
1789761165926862800,5.55686279296875,-0.9056549072265625,-0.484893798828125,-0.5543212890625
1789761165936912000,5.566911865234375,-0.4684906005859375,-1.0742340087890625,-0.55999755859375
1789761165946962000,5.5769619140625,-0.3269805908203125,-1.01446533203125,-0.15521240234375
1789761165957012000,5.587011962890625,-0.3106689453125,-1.0755462646484375,0.513336181640625
1789761165967060700,5.597060791015625,-0.750274658203125,-0.80035400390625,0.65252685546875
1789761165977110800,5.60711083984375,-1.1760101318359375,-0.1452789306640625,0.0412139892578125
1789761165987160800,5.617160888671875,-1.28375244140625,0.055145263671875,-0.6117095947265625
1789761165997210000,5.627210205078125,-1.047393798828125,-0.1944732666015625,-0.672515869140625
1789761166007260000,5.637260009765625,-0.4706573486328125,-0.8516082763671875,-0.16510009765625
1789761166017310000,5.64731005859375,0.16168212890625,-1.4695587158203125,0.3060150146484375
1789761166027359000,5.65735888671875,0.281768798828125,-1.6231689453125,0.2592315673828125
1789761166037408800,5.66740869140625,-0.31134033203125,-1.1641082763671875,-0.155975341796875
1789761166047458800,5.677458740234375,-1.05133056640625,-0.401214599609375,-0.4574127197265625
1789761166057508000,5.687508056640625,-1.479736328125,0.317047119140625,-0.3722381591796875
1789761166067558000,5.697557861328125,-1.1960601806640625,0.267608642578125,0.02142333984375
1789761166077608000,5.70760791015625,-0.593780517578125,-0.624237060546875,0.274688720703125
1789761166087657000,5.717656982421875,-0.255126953125,-1.3912200927734375,0.145660400390625
1789761166097707000,5.72770703125,-0.3730621337890625,-1.5921630859375,-0.0771484375
1789761166107756800,5.7377568359375,-0.445892333984375,-1.069549560546875,-0.107421875
1789761166117806000,5.74780615234375,-0.568145751953125,-0.5025177001953125,-0.1478118896484375
1789761166127856000,5.757856201171875,-0.8797607421875,-0.41534423828125,-0.2170562744140625
1789761166137906000,5.767906005859375,-0.6750640869140625,-0.4881744384765625,-0.1792449951171875
1789761166147955000,5.777954833984375,-0.7946319580078125,-0.5318603515625,-0.1368560791015625
1789761166158005000,5.7880048828125,-1.015533447265625,-0.4432220458984375,-0.0120849609375
1789761166168054800,5.7980546875,-0.50146484375,-0.2426605224609375,0.1907196044921875
1789761166178103800,5.808103759765625,0.2771148681640625,-0.3235931396484375,0.2397308349609375
1789761166188153900,5.81815380859375,0.180908203125,-0.6242218017578125,0.160980224609375
1789761166198204200,5.8282041015625,0.3120574951171875,-1.2804107666015625,0.084686279296875
1789761166208253000,5.8382529296875,-0.2039794921875,-1.48138427734375,-0.116302490234375
1789761166218303000,5.848302978515625,-2.0919647216796875,-1.4959564208984375,-0.4416046142578125
1789761166228353000,5.85835302734375,-3.12060546875,-0.9142913818359375,-0.368194580078125
1789761166238401800,5.86840185546875,-1.8942413330078125,0.0962677001953125,0.195037841796875
1789761166248451800,5.878451904296875,-0.954345703125,0.3537445068359375,0.566864013671875
1789761166258502000,5.888501953125,0.8241119384765625,0.021514892578125,0.4808502197265625
1789761166268551000,5.898551025390625,1.5554046630859375,-1.3846893310546875,0.0345916748046875
1789761166278601000,5.90860107421875,0.8548431396484375,-2.521392822265625,-0.2524261474609375
1789761166288651000,5.918651123046875,-0.6711273193359375,-2.4730377197265625,-0.2295074462890625
1789761166298699800,5.92869970703125,-1.9891510009765625,-0.726837158203125,-0.152099609375
1789761166308749800,5.938749755859375,-2.374237060546875,0.8059539794921875,-0.1369171142578125
1789761166318800000,5.9487998046875,-1.7743682861328125,0.7833251953125,-0.123809814453125
1789761166328849000,5.958848876953125,-0.4159698486328125,-0.2055511474609375,0.0371246337890625
1789761166338899000,5.96889892578125,0.415252685546875,-1.4348602294921875,0.442138671875
1789761166348949000,5.978948974609375,0.7471466064453125,-2.030670166015625,0.78338623046875
1789761166358999000,5.9889990234375,-0.1829071044921875,-1.7161102294921875,0.5375823974609375
1789761166369047800,5.9990478515625,-1.2906341552734375,-0.5103607177734375,-0.1349029541015625
1789761166379097900,6.009097900390625,-1.519683837890625,0.4670867919921875,-0.5814208984375
1789761166389148000,6.01914794921875,-0.93487548828125,0.4181671142578125,-0.52691650390625
1789761166399197000,6.029197021484375,-0.5982818603515625,-0.4768218994140625,-0.19097900390625
1789761166409247000,6.0392470703125,-0.2773590087890625,-1.1992645263671875,0.19677734375
1789761166419297000,6.049297119140625,-0.312591552734375,-1.4164276123046875,0.3836669921875
1789761166429345800,6.059345703125,-0.5473480224609375,-0.9195098876953125,0.2129058837890625
1789761166439395800,6.069395751953125,-1.1753082275390625,-0.36285400390625,-0.062713623046875
1789761166449446000,6.07944580078125,-1.5852813720703125,-0.11358642578125,-0.132080078125
1789761166459495000,6.089494873046875,-1.9030914306640625,-0.4909820556640625,-0.1017913818359375
1789761166469545000,6.099544921875,-0.5130767822265625,-0.55413818359375,-0.028411865234375
1789761166479595000,6.109594970703125,-0.375946044921875,-1.1938629150390625,-0.171478271484375
1789761166489643800,6.119643798828125,0.1976318359375,-1.188507080078125,-0.3440704345703125
1789761166499693800,6.12969384765625,0.624755859375,-1.128082275390625,-0.241607666015625
1789761166509743900,6.139743896484375,0.15643310546875,-0.9342498779296875,0.0430450439453125
1789761166519793200,6.149793212890625,-0.824859619140625,-0.55975341796875,0.1641845703125
1789761166529843000,6.159843017578125,-1.8190155029296875,-0.466552734375,0.1474609375
1789761166539893000,6.16989306640625,-2.202301025390625,-0.280487060546875,-0.0767059326171875
1789761166549942000,6.17994189453125,-1.310821533203125,0.0306549072265625,-0.2313079833984375
1789761166559991800,6.18999169921875,-0.365447998046875,-0.2990875244140625,-0.1431884765625
1789761166570041900,6.200041748046875,0.46759033203125,-1.213592529296875,0.13104248046875
1789761166580091000,6.2100908203125,0.42626953125,-1.6404571533203125,0.3872222900390625
1789761166590141000,6.220140869140625,-0.507781982421875,-1.233734130859375,0.2792510986328125
1789761166600191000,6.23019091796875,-1.3368377685546875,-0.453765869140625,-0.167266845703125
1789761166610240000,6.240239990234375,-1.6895599365234375,-0.154388427734375,-0.490631103515625
1789761166620290000,6.2502900390625,-1.2135467529296875,-0.3355712890625,-0.4677734375
1789761166630339800,6.26033984375,-0.3737945556640625,-0.7884063720703125,-0.1174774169921875
1789761166640388900,6.270388916015625,-0.0767669677734375,-1.028350830078125,0.1939849853515625
1789761166650439000,6.28043896484375,-0.474395751953125,-1.045989990234375,0.2033538818359375
1789761166660489000,6.290489013671875,-0.505035400390625,-0.7520751953125,0.0961761474609375
1789761166670538000,6.3005380859375,-0.7601165771484375,-0.5897369384765625,-0.0580596923828125
1789761166680588000,6.310588134765625,-0.8030242919921875,-0.577056884765625,-0.144989013671875
1789761166690637800,6.320637939453125,-0.50738525390625,-0.682281494140625,-0.014678955078125
1789761166700686800,6.330686767578125,-0.626922607421875,-0.8174591064453125,0.0589599609375
1789761166710737000,6.34073681640625,-0.771697998046875,-0.804290771484375,-0.04534912109375
1789761166720786700,6.35078662109375,-0.894989013671875,-0.7885894775390625,-0.2025299072265625
1789761166730836000,6.3608359375,-0.78216552734375,-0.63311767578125,-0.2758331298828125
1789761166740886000,6.370885986328125,-0.773284912109375,-0.501617431640625,-0.248809814453125
1789761166750936000,6.38093603515625,-0.7336578369140625,-0.6294097900390625,-0.15533447265625
1789761166760984800,6.39098486328125,-0.3739776611328125,-0.740478515625,-0.050140380859375
1789761166771035000,6.401034912109375,-0.3857269287109375,-0.876007080078125,-0.0659332275390625
1789761166781085000,6.4110849609375,-0.561279296875,-0.8061065673828125,-0.2280731201171875
1789761166791134000,6.421134033203125,-0.8661651611328125,-0.7697906494140625,-0.3505859375
1789761166801184000,6.43118408203125,-0.91546630859375,-0.6684722900390625,-0.266143798828125
1789761166811234000,6.441234130859375,-0.706787109375,-0.6672821044921875,-0.00726318359375
1789761166821283800,6.451283935546875,-0.4918365478515625,-0.8669586181640625,0.1660614013671875
1789761166831332900,6.461332763671875,-0.3829498291015625,-0.99755859375,0.2188873291015625
1789761166841383000,6.4713828125,-0.737579345703125,-0.87939453125,0.0753173828125
1789761166851432000,6.481431884765625,-1.0098419189453125,-0.71453857421875,-0.1383514404296875
1789761166861482000,6.49148193359375,-0.9073638916015625,-0.5905609130859375,-0.2389373779296875
1789761166871532000,6.501531982421875,-0.593963623046875,-0.679443359375,-0.1607513427734375
1789761166881582000,6.51158203125,-0.77996826171875,-0.7745208740234375,-0.086181640625
1789761166891630300,6.52163037109375,-0.808807373046875,-0.7410430908203125,-0.0096893310546875
1789761166901680400,6.531680419921875,-0.597198486328125,-0.6512908935546875,0.071502685546875
1789761166911730400,6.54173046875,-0.587890625,-0.619384765625,0.0192108154296875
1789761166921779500,6.551779541015625,-0.31219482421875,-0.690948486328125,-0.053436279296875
1789761166931829500,6.56182958984375,-0.7332916259765625,-0.952728271484375,-0.167572021484375
1789761166941879600,6.571879638671875,-0.7427215576171875,-0.8137664794921875,-0.1888275146484375
1789761166951928300,6.58192822265625,-0.6770172119140625,-0.597869873046875,-0.0517120361328125
1789761166961978400,6.591978271484375,-0.7261962890625,-0.510009765625,-0.0111083984375
1789761166972028400,6.6020283203125,-0.8253021240234375,-0.601806640625,-0.02960205078125
1789761166982077400,6.612077392578125,-0.8367919921875,-0.7306365966796875,0.004608154296875
1789761166992127500,6.62212744140625,-0.7430877685546875,-0.7823638916015625,0.0518951416015625
1789761167002177500,6.632177490234375,-0.8775787353515625,-0.777984619140625,0.013336181640625
1789761167012226300,6.642226318359375,-0.7193756103515625,-0.624847412109375,-0.0608367919921875
1789761167022276400,6.6522763671875,-0.56414794921875,-0.6037139892578125,-0.153076171875
1789761167032326400,6.662326416015625,-0.47332763671875,-0.754302978515625,-0.1864471435546875
1789761167042375400,6.67237548828125,-0.2969970703125,-0.930694580078125,-0.0912628173828125
1789761167052425500,6.682425537109375,-0.4393310546875,-1.0562744140625,-0.0273284912109375
1789761167062475500,6.6924755859375,-0.7717742919921875,-0.7823638916015625,-0.0434112548828125
1789761167072524300,6.702524169921875,-1.083984375,-0.505523681640625,-0.11480712890625
1789761167082574300,6.71257421875,-1.0883636474609375,-0.4765167236328125,-0.11083984375
1789761167092624400,6.722624267578125,-0.8037109375,-0.6657257080078125,-0.0164947509765625
1789761167102673400,6.73267333984375,-0.4676361083984375,-0.8627471923828125,0.082550048828125
1789761167112723500,6.742723388671875,-0.36328125,-0.8801116943359375,0.136932373046875
1789761167122773500,6.7527734375,-0.448944091796875,-0.694244384765625,0.0702362060546875
1789761167132822500,6.762822509765625,-0.64501953125,-0.6468505859375,-0.103057861328125
1789761167142872300,6.772872314453125,-0.926544189453125,-0.7743377685546875,-0.2634124755859375
1789761167152922400,6.78292236328125,-0.7357635498046875,-0.7483367919921875,-0.2268218994140625
1789761167162971400,6.792971435546875,-0.9146881103515625,-0.762298583984375,-0.0944366455078125
1789761167173021400,6.803021484375,-0.799224853515625,-0.6816558837890625,0.0432586669921875
1789761167183071500,6.813071533203125,-0.3138885498046875,-0.6099853515625,0.194580078125
1789761167193120500,6.82312060546875,-0.577667236328125,-0.74822998046875,0.099945068359375
1789761167203170600,6.833170654296875,-0.7704315185546875,-0.79180908203125,-0.0917816162109375
1789761167213220400,6.843220458984375,-0.752593994140625,-0.8078765869140625,-0.1670684814453125
1789761167223269400,6.853269287109375,-1.1960601806640625,-0.7936553955078125,-0.1755828857421875
1789761167233319400,6.8633193359375,-0.926727294921875,-0.5548095703125,-0.0079803466796875
1789761167243369200,6.873369140625,-0.528350830078125,-0.49920654296875,0.158416748046875
1789761167253418500,6.88341845703125,-0.4275360107421875,-0.5867462158203125,0.0440826416015625
1789761167263468500,6.893468505859375,-0.4082489013671875,-0.9139251708984375,-0.1738433837890625
1789761167273518300,6.903518310546875,-0.41058349609375,-1.0877685546875,-0.1352996826171875
1789761167283567400,6.9135673828125,-0.5366973876953125,-0.7962646484375,-0.0273895263671875
1789761167293617400,6.923617431640625,-0.8548583984375,-0.4446868896484375,-0.0525054931640625
1789761167303667200,6.933667236328125,-0.855499267578125,-0.454132080078125,-0.0554351806640625
1789761167313716500,6.943716552734375,-0.74871826171875,-0.74847412109375,-0.0580596923828125
1789761167323766500,6.9537666015625,-0.8649444580078125,-0.85845947265625,-0.1044769287109375
1789761167333816600,6.963816650390625,-0.7191314697265625,-0.7345733642578125,-0.0684661865234375
1789761167343865300,6.973865234375,-0.9275665283203125,-0.7727508544921875,-0.0111236572265625
1789761167353915400,6.983915283203125,-0.580047607421875,-0.6818695068359375,0.1192779541015625
1789761167363965400,6.99396533203125,-0.5079803466796875,-0.72198486328125,0.13739013671875
1789761167374014500,7.004014404296875,-0.5870819091796875,-0.7844696044921875,-0.045989990234375
1789761167384064500,7.014064453125,-0.45489501953125,-0.849334716796875,-0.209259033203125
1789761167394114600,7.024114501953125,-0.7857513427734375,-0.986175537109375,-0.2276611328125
1789761167404163300,7.034163330078125,-1.00701904296875,-0.8244476318359375,-0.0665283203125
1789761167414213400,7.04421337890625,-0.9439697265625,-0.5469207763671875,0.115478515625
1789761167424263400,7.054263427734375,-0.6296539306640625,-0.4445343017578125,0.1163330078125
1789761167434312400,7.0643125,-0.462066650390625,-0.56097412109375,-0.0533599853515625
1789761167444362500,7.074362548828125,-0.466522216796875,-0.840545654296875,-0.1468963623046875
1789761167454412500,7.08441259765625,-0.567230224609375,-0.9846343994140625,-0.0573272705078125
1789761167464461300,7.09446142578125,-0.7213134765625,-0.912078857421875,0.032257080078125
1789761167474511400,7.104511474609375,-0.9673004150390625,-0.5892181396484375,-0.0659332275390625
1789761167484561400,7.1145615234375,-1.07196044921875,-0.4021453857421875,-0.2248687744140625
1789761167494611500,7.124611572265625,-0.8043060302734375,-0.4634246826171875,-0.26397705078125
1789761167504660500,7.134660400390625,-0.43548583984375,-0.7381744384765625,-0.173248291015625
1789761167514710500,7.14471044921875,-0.3801422119140625,-1.07733154296875,0.009490966796875
1789761167524760600,7.154760498046875,-0.4949951171875,-1.1028594970703125,0.1306915283203125
1789761167534809300,7.164809326171875,-0.7543487548828125,-0.7161712646484375,0.026580810546875
1789761167544859400,7.174859375,-1.10205078125,-0.3274688720703125,-0.2259674072265625
1789761167554909400,7.184909423828125,-1.0082550048828125,-0.280242919921875,-0.36199951171875
1789761167564958200,7.194958251953125,-0.657745361328125,-0.573883056640625,-0.268951416015625
1789761167575008500,7.205008544921875,-0.4143829345703125,-0.9496917724609375,-0.017120361328125
1789761167585058600,7.21505859375,-0.4201202392578125,-1.250701904296875,0.210693359375
1789761167595107300,7.225107421875,-0.392242431640625,-0.9954071044921875,0.1688232421875
1789761167605157400,7.235157470703125,-0.59307861328125,-0.64166259765625,-0.200225830078125
1789761167615207400,7.24520751953125,-0.93634033203125,-0.4340667724609375,-0.54510498046875
1789761167625256400,7.25525634765625,-0.8535308837890625,-0.5526580810546875,-0.4683380126953125
1789761167635306200,7.26530615234375,-0.779876708984375,-0.7378692626953125,-0.0789794921875
1789761167645356500,7.2753564453125,-0.7948150634765625,-0.846282958984375,0.2122955322265625
1789761167655405600,7.285405517578125,-0.673797607421875,-0.72344970703125,0.2046661376953125
1789761167665455400,7.295455322265625,-0.8764801025390625,-0.6664886474609375,-0.004180908203125
1789761167675505400,7.30550537109375,-1.050140380859375,-0.63507080078125,-0.0918426513671875
1789761167685554400,7.315554443359375,-0.7863616943359375,-0.5927734375,0.0299530029296875
1789761167695604200,7.325604248046875,-0.6412200927734375,-0.72943115234375,0.1287841796875
1789761167705654300,7.335654296875,-0.6744842529296875,-0.926422119140625,0.113525390625
1789761167715703600,7.34570361328125,-0.5489349365234375,-0.9477081298828125,0.0200347900390625
1789761167725753300,7.35575341796875,-0.5201568603515625,-0.7593231201171875,-0.103912353515625
1789761167735803400,7.365803466796875,-0.645355224609375,-0.684539794921875,-0.09283447265625
1789761167745852400,7.375852294921875,-0.6025848388671875,-0.71478271484375,0.12762451171875
1789761167755902500,7.38590234375,-0.5399169921875,-0.7712249755859375,0.300750732421875
1789761167765952300,7.3959521484375,-0.7223358154296875,-0.8159027099609375,0.2259521484375
1789761167776001500,7.40600146484375,-0.922821044921875,-0.745208740234375,-0.0241546630859375
1789761167786051600,7.416051513671875,-0.76171875,-0.563720703125,-0.1447601318359375
1789761167796101400,7.426101318359375,-0.7962799072265625,-0.669525146484375,-0.0022125244140625
1789761167806150400,7.436150390625,-0.6042022705078125,-0.7538604736328125,0.12548828125
1789761167816200400,7.446200439453125,-0.5877838134765625,-0.8368377685546875,0.0555267333984375
1789761167826250200,7.456250244140625,-0.3146514892578125,-0.77960205078125,-0.0858917236328125
1789761167836299500,7.466299560546875,-0.4630889892578125,-0.6010894775390625,-0.4152374267578125
1789761167846349600,7.476349609375,-1.1035919189453125,-0.7784881591796875,-0.6421966552734375
1789761167856399600,7.486399658203125,-1.2930450439453125,-1.0402679443359375,-0.3645782470703125
1789761167866448400,7.496448486328125,-0.9124755859375,-0.9099578857421875,0.3061370849609375
1789761167876498400,7.50649853515625,0.2012939453125,-0.6244659423828125,0.6852264404296875
1789761167886548500,7.516548583984375,0.4022064208984375,-0.468109130859375,0.0573883056640625
1789761167896597500,7.526597412109375,-0.493621826171875,-0.97613525390625,-0.9344024658203125
1789761167906647600,7.5366474609375,-1.37420654296875,-1.0681304931640625,-0.94891357421875
1789761167916697600,7.546697509765625,-1.4769287109375,-0.740814208984375,0.2299652099609375
1789761167926746400,7.556746337890625,-0.8422088623046875,-0.4287109375,1.4836578369140625
1789761167936796400,7.56679638671875,-0.190032958984375,-0.735137939453125,1.549713134765625
1789761167946846500,7.576846435546875,0.0537109375,-1.0942230224609375,0.4544219970703125
1789761167956895200,7.586895263671875,-0.3094635009765625,-1.1591949462890625,-0.5755462646484375
1789761167966945500,7.596945556640625,-0.7761383056640625,-0.924041748046875,-0.569427490234375
1789761167976995600,7.60699560546875,-0.7013092041015625,-0.5004119873046875,0.2365264892578125
1789761167987044400,7.61704443359375,-0.7183685302734375,-0.3674774169921875,0.796630859375
1789761167997094400,7.627094482421875,-0.880401611328125,-0.5344696044921875,0.5386199951171875
1789761168007144400,7.63714453125,-0.7179412841796875,-0.8150787353515625,-0.1291961669921875
1789761168017193200,7.647193115234375,-0.744720458984375,-1.071624755859375,-0.5277862548828125
1789761168027243300,7.6572431640625,-0.6418914794921875,-1.0173797607421875,-0.37109375
1789761168037293300,7.667293212890625,-0.5000457763671875,-0.911163330078125,0.04840087890625
1789761168047342600,7.677342529296875,-0.4058074951171875,-0.7661285400390625,0.2555084228515625
1789761168057392400,7.687392333984375,-0.3006744384765625,-0.7056884765625,0.09991455078125
1789761168067442400,7.6974423828125,-0.38189697265625,-0.8301849365234375,-0.1773529052734375
1789761168077491500,7.707491455078125,-0.419830322265625,-0.9363861083984375,-0.2682647705078125
1789761168087541200,7.717541259765625,-0.4788665771484375,-1.023681640625,-0.071380615234375
1789761168097591300,7.72759130859375,-0.60601806640625,-0.957855224609375,0.2109222412109375
1789761168107640600,7.737640625,-0.573638916015625,-0.7051239013671875,0.2836456298828125
1789761168117690400,7.7476904296875,-0.641082763671875,-0.6071319580078125,0.081268310546875
1789761168127740400,7.757740478515625,-0.678131103515625,-0.7859344482421875,-0.0941162109375
1789761168137789400,7.76778955078125,-0.4389190673828125,-0.917633056640625,-0.0362396240234375
1789761168147839200,7.777839111328125,-0.5204620361328125,-0.9981536865234375,0.076324462890625
1789761168157889300,7.78788916015625,-0.7864227294921875,-0.802703857421875,0.05267333984375
1789761168167938600,7.7979384765625,-1.0713653564453125,-0.5504150390625,-0.100738525390625
1789761168177988600,7.807988525390625,-1.034271240234375,-0.43084716796875,-0.2108917236328125
1789761168188038400,7.818038330078125,-0.7189788818359375,-0.583404541015625,-0.1874542236328125
1789761168198088400,7.82808837890625,-0.099822998046875,-0.8488311767578125,-0.071502685546875
1789761168208137500,7.838137451171875,0.0047454833984375,-1.0585784912109375,-0.0411834716796875
1789761168218187300,7.848187255859375,-0.31182861328125,-1.0418853759765625,-0.1187591552734375
1789761168228237300,7.8582373046875,-0.868560791015625,-0.6824951171875,-0.3055419921875
1789761168238286600,7.86828662109375,-1.2097625732421875,-0.405426025390625,-0.4606170654296875
1789761168248336400,7.87833642578125,-1.0506439208984375,-0.4317779541015625,-0.4510040283203125
1789761168258386400,7.888386474609375,-0.7909698486328125,-0.7521209716796875,-0.36065673828125
1789761168268435500,7.898435546875,-0.50958251953125,-0.924560546875,-0.22296142578125
1789761168278485500,7.908485595703125,-0.4262237548828125,-0.8855133056640625,-0.0892181396484375
1789761168288535300,7.918535400390625,-0.6806640625,-0.6948699951171875,-0.0542144775390625
1789761168298584600,7.92858447265625,-0.9311981201171875,-0.4330596923828125,-0.1857757568359375
1789761168308634600,7.938634521484375,-1.122406005859375,-0.373046875,-0.3788299560546875
1789761168318684400,7.948684326171875,-1.03265380859375,-0.551055908203125,-0.3770904541015625
1789761168328733400,7.9587333984375,-0.715576171875,-0.762786865234375,-0.1427154541015625
1789761168338783500,7.968783447265625,-0.395751953125,-0.82623291015625,0.0807952880859375
1789761168348833300,7.978833251953125,-0.4240875244140625,-0.8573455810546875,0.1018829345703125
1789761168358882300,7.98888232421875,-0.6982574462890625,-0.831878662109375,-0.00677490234375
1789761168368932600,7.9989326171875,-0.8421478271484375,-0.7360992431640625,-0.054443359375
1789761168378982400,8.008982421875,-0.8275604248046875,-0.6654815673828125,0.0055694580078125
1789761168389031400,8.019031494140625,-0.6622467041015625,-0.74041748046875,0.106903076171875
1789761168399081500,8.02908154296875,-0.593536376953125,-0.8551025390625,0.1907806396484375
1789761168409131500,8.039131591796876,-0.4777374267578125,-0.8811492919921875,0.2620697021484375
1789761168419180300,8.04918017578125,-0.53753662109375,-0.8038177490234375,0.2620391845703125
1789761168429230300,8.059230224609376,-0.711944580078125,-0.704620361328125,0.13555908203125
1789761168439280400,8.0692802734375,-0.9313507080078125,-0.6796417236328125,-0.0400848388671875
1789761168449329400,8.079329345703124,-0.9417724609375,-0.700714111328125,-0.131744384765625
1789761168459379500,8.08937939453125,-0.680206298828125,-0.7513427734375,-0.074432373046875
1789761168469429500,8.099429443359375,-0.5264892578125,-0.896270751953125,0.0936737060546875
1789761168479478300,8.109478271484376,-0.3156890869140625,-0.89849853515625,0.20318603515625
1789761168489528300,8.1195283203125,-0.3963775634765625,-0.89947509765625,0.1138153076171875
1789761168499578400,8.129578369140624,-0.6574859619140625,-0.7700347900390625,-0.03924560546875
1789761168509627400,8.13962744140625,-0.8487091064453125,-0.665283203125,-0.05975341796875
1789761168519677400,8.149677490234374,-0.9359130859375,-0.6461334228515625,0.0389251708984375
1789761168529727500,8.1597275390625,-0.7727203369140625,-0.6273345947265625,0.1444549560546875
1789761168539776300,8.1697763671875,-0.6630401611328125,-0.6645050048828125,0.13702392578125
1789761168549826300,8.179826416015626,-0.4778900146484375,-0.65087890625,0.040130615234375
1789761168559876400,8.18987646484375,-0.51385498046875,-0.7951507568359375,-0.0554351806640625
1789761168569925400,8.19992529296875,-0.689605712890625,-0.83294677734375,-0.071441650390625
1789761168579975400,8.209975341796875,-0.8873443603515625,-0.7309112548828125,-0.03900146484375
1789761168590025500,8.220025390625,-1.0410614013671875,-0.6114349365234375,-0.0023193359375
1789761168600074500,8.230074462890625,-0.778900146484375,-0.5384063720703125,0.0372161865234375
1789761168610124300,8.240124267578125,-0.5407257080078125,-0.65484619140625,-0.0046234130859375
1789761168620174300,8.25017431640625,-0.2978363037109375,-0.9112396240234375,-0.0783233642578125
1789761168630223600,8.2602236328125,-0.245574951171875,-1.1504364013671875,-0.0643157958984375
1789761168640273400,8.2702734375,-0.4412994384765625,-1.09295654296875,0.021820068359375
1789761168650323500,8.280323486328125,-0.657745361328125,-0.777191162109375,0.09124755859375
1789761168660372500,8.29037255859375,-0.814056396484375,-0.455810546875,0.0565185546875
1789761168670422300,8.30042236328125,-0.8305816650390625,-0.5441131591796875,-0.087554931640625
1789761168680472300,8.310472412109375,-0.7635498046875,-0.8527374267578125,-0.171112060546875
1789761168690521600,8.320521484375,-0.607879638671875,-1.18389892578125,-0.004150390625
1789761168700571600,8.330571533203125,-0.2615203857421875,-0.9991455078125,0.1897125244140625
1789761168710621400,8.340621337890624,-0.4887237548828125,-0.78369140625,0.0510101318359375
1789761168720670500,8.35067041015625,-0.8761444091796875,-0.671905517578125,-0.17095947265625
1789761168730720500,8.360720458984375,-0.8876800537109375,-0.6563720703125,-0.1731414794921875
1789761168740770300,8.370770263671876,-0.7245330810546875,-0.567169189453125,-0.11083984375
1789761168750819300,8.3808193359375,-0.6065826416015625,-0.7137298583984375,-0.04974365234375
1789761168760869400,8.390869384765624,-0.3731536865234375,-0.96124267578125,0.084564208984375
1789761168770919400,8.40091943359375,-0.2061309814453125,-0.92926025390625,0.1377105712890625
1789761168780968400,8.410968505859374,-0.5555267333984375,-0.8502960205078125,0.009918212890625
1789761168791018500,8.4210185546875,-0.765472412109375,-0.7781219482421875,-0.0833282470703125
1789761168801068300,8.431068359375,-0.8504791259765625,-0.6998748779296875,-0.060089111328125
1789761168811117300,8.441117431640626,-0.976776123046875,-0.668914794921875,0.0118560791015625
1789761168821167400,8.45116748046875,-0.737762451171875,-0.7174530029296875,0.1587066650390625
1789761168831217400,8.461217529296874,-0.613006591796875,-0.8985137939453125,0.22540283203125
1789761168841266400,8.471266357421875,-0.5898590087890625,-0.85003662109375,0.0790252685546875
1789761168851316500,8.48131640625,-0.63348388671875,-0.7556304931640625,-0.0545654296875
1789761168861366500,8.491366455078126,-0.46710205078125,-0.637420654296875,-0.02130126953125
1789761168871415300,8.501415283203125,-0.6215057373046875,-0.60223388671875,0.00189208984375
1789761168881465300,8.51146533203125,-0.831146240234375,-0.6764984130859375,-0.0011444091796875
1789761168891515400,8.521515380859375,-0.923614501953125,-0.774200439453125,0.048858642578125
1789761168901564700,8.531564697265624,-0.8337554931640625,-0.667083740234375,0.0637054443359375
1789761168911614700,8.54161474609375,-0.769012451171875,-0.612335205078125,-0.010284423828125
1789761168921664500,8.55166455078125,-0.56475830078125,-0.7150421142578125,-0.0384063720703125
1789761168931713500,8.561713623046876,-0.5453948974609375,-0.788482666015625,-0.03546142578125
1789761168941763600,8.571763671875,-0.667572021484375,-0.720977783203125,-0.047637939453125
1789761168951813400,8.5818134765625,-0.9036102294921875,-0.6633758544921875,-0.048248291015625
1789761168961862700,8.591862548828125,-0.840423583984375,-0.5580902099609375,-0.080963134765625
1789761168971912700,8.60191259765625,-0.8345489501953125,-0.5724639892578125,-0.1486663818359375
1789761168981962500,8.61196240234375,-0.6474761962890625,-0.663665771484375,-0.1396484375
1789761168992011500,8.622011474609375,-0.572906494140625,-0.84033203125,-0.118255615234375
1789761169002061600,8.6320615234375,-0.4833221435546875,-0.8083343505859375,-0.19012451171875
1789761169012111600,8.642111572265625,-0.64044189453125,-0.7727813720703125,-0.29962158203125
1789761169022161400,8.652161376953124,-0.83526611328125,-0.8010711669921875,-0.29803466796875
1789761169032210700,8.662210693359375,-0.717071533203125,-0.6971282958984375,-0.1873016357421875
1789761169042260700,8.6722607421875,-0.76123046875,-0.75091552734375,-0.1141204833984375
1789761169052310500,8.682310546875,-0.54150390625,-0.8119964599609375,-0.0863800048828125
1789761169062359600,8.692359619140625,-0.4080657958984375,-0.7957305908203125,-0.1202239990234375
1789761169072409600,8.70240966796875,-0.606964111328125,-0.9307098388671875,-0.130279541015625
1789761169082459400,8.71245947265625,-0.46270751953125,-0.8755950927734375,-0.0166473388671875
1789761169092508700,8.7225087890625,-0.5850677490234375,-0.770782470703125,0.0687408447265625
1789761169102558700,8.732558837890625,-0.8631591796875,-0.715301513671875,0.093780517578125
1789761169112608500,8.7426083984375,-0.806427001953125,-0.57818603515625,0.1386260986328125
1789761169122657500,8.752657470703125,-0.735565185546875,-0.5852508544921875,0.1565093994140625
1789761169132707600,8.76270751953125,-0.6859130859375,-0.6674652099609375,0.1206817626953125
1789761169142757600,8.772757568359374,-0.50494384765625,-0.7858734130859375,0.042022705078125
1789761169152806400,8.782806396484375,-0.5470428466796875,-0.8775787353515625,-0.088226318359375
1789761169162856700,8.792856689453124,-0.61737060546875,-0.81121826171875,-0.2431488037109375
1789761169172906800,8.80290673828125,-0.7927093505859375,-0.701934814453125,-0.3403167724609375
1789761169182955500,8.81295556640625,-0.8488006591796875,-0.725799560546875,-0.2844390869140625
1789761169193005600,8.823005615234376,-0.76104736328125,-0.7111968994140625,-0.1829681396484375
1789761169203055600,8.8330556640625,-0.719757080078125,-0.6949310302734375,-0.1985931396484375
1789761169213104400,8.8431044921875,-0.5962371826171875,-0.7104949951171875,-0.281341552734375
1789761169223154400,8.853154541015625,-0.526214599609375,-0.7535400390625,-0.3072967529296875
1789761169233204500,8.86320458984375,-0.40863037109375,-0.7599334716796875,-0.21868896484375
1789761169243253500,8.87325341796875,-0.386260986328125,-0.7610931396484375,-0.08221435546875
1789761169253303600,8.883303466796875,-0.3744659423828125,-0.834991455078125,-0.000762939453125
1789761169263353600,8.893353515625,-0.623077392578125,-0.916107177734375,-0.0260467529296875
1789761169273402400,8.90340234375,-0.9615631103515625,-0.9376373291015625,-0.0642547607421875
1789761169283452400,8.913452392578124,-0.995513916015625,-0.8469696044921875,-0.02020263671875
1789761169293502500,8.92350244140625,-0.6575775146484375,-0.7377166748046875,0.054412841796875
1789761169303551500,8.933551513671874,-0.490234375,-0.7647857666015625,0.06243896484375
1789761169313601500,8.9436015625,-0.2332305908203125,-0.802032470703125,0.0111541748046875
1789761169323651600,8.953651611328125,-0.211700439453125,-0.8757476806640625,-0.0886993408203125
1789761169333700600,8.96370068359375,-0.5041351318359375,-0.947174072265625,-0.197906494140625
1789761169343750400,8.97375048828125,-0.8162994384765625,-0.8562469482421875,-0.2409515380859375
1789761169353800400,8.983800537109374,-0.988922119140625,-0.706817626953125,-0.151123046875
1789761169363849700,8.993849609375,-0.954071044921875,-0.6378326416015625,0.05450439453125
1789761169373899500,9.0038994140625,-0.6778717041015625,-0.676239013671875,0.238311767578125
1789761169383949600,9.013949462890626,-0.6782073974609375,-0.854095458984375,0.2122955322265625
1789761169393998600,9.02399853515625,-0.66644287109375,-0.8525390625,0.0226898193359375
1789761169404048400,9.03404833984375,-0.704986572265625,-0.67822265625,-0.1102294921875
1789761169414098400,9.044098388671875,-0.784088134765625,-0.519134521484375,-0.0405426025390625
1789761169424147700,9.054147705078124,-0.761474609375,-0.4945526123046875,0.130340576171875
1789761169434197800,9.06419775390625,-0.742828369140625,-0.677093505859375,0.20074462890625
1789761169444247600,9.07424755859375,-0.7264404296875,-0.9139251708984375,0.0970458984375
1789761169454296600,9.084296630859376,-0.5977935791015625,-0.885040283203125,-0.0801849365234375
1789761169464346600,9.0943466796875,-0.5216217041015625,-0.728790283203125,-0.1605072021484375
1789761169474396400,9.104396484375,-0.3674163818359375,-0.61346435546875,-0.021697998046875
1789761169484445700,9.11444580078125,-0.41290283203125,-0.7108154296875,0.1734619140625
1789761169494495700,9.124495849609374,-0.5604248046875,-0.8570098876953125,0.1578216552734375
1789761169504545500,9.134545654296875,-0.7452545166015625,-0.86505126953125,-0.0600738525390625
1789761169514594600,9.144594482421875,-0.8921051025390625,-0.8312835693359375,-0.1821746826171875
1789761169524644600,9.15464453125,-0.7978057861328125,-0.8162689208984375,-0.028594970703125
1789761169534694400,9.1646943359375,-0.5228118896484375,-0.7899627685546875,0.1722259521484375
1789761169544743400,9.174743408203126,-0.5422821044921875,-0.8346710205078125,0.1012725830078125
1789761169554793500,9.18479345703125,-0.7126312255859375,-0.888031005859375,-0.1151580810546875
1789761169564843800,9.19484375,-0.820770263671875,-0.8174591064453125,-0.177154541015625
1789761169574892500,9.204892578125,-0.8403167724609375,-0.7189788818359375,-0.0597381591796875
1789761169584942600,9.214942626953125,-0.658935546875,-0.6619720458984375,0.1020050048828125
1789761169594992600,9.22499267578125,-0.6034698486328125,-0.780029296875,0.1459197998046875
1789761169605041400,9.23504150390625,-0.4029083251953125,-0.7236175537109375,0.088348388671875
1789761169615091500,9.245091552734374,-0.3759918212890625,-0.7767486572265625,-0.00604248046875
1789761169625141500,9.2551416015625,-0.5338897705078125,-0.9087066650390625,-0.1148834228515625
1789761169635190500,9.2651904296875,-0.77764892578125,-0.9538116455078125,-0.175994873046875
1789761169645240600,9.275240478515625,-0.949737548828125,-0.72930908203125,-0.09515380859375
1789761169655290600,9.28529052734375,-1.0821685791015625,-0.3315277099609375,0.081085205078125
1789761169665339400,9.29533935546875,-0.9805755615234375,-0.2328948974609375,0.2481689453125
1789761169675389400,9.305389404296875,-0.731597900390625,-0.5478973388671875,0.2904052734375
1789761169685439500,9.315439453125,-0.4633636474609375,-0.87518310546875,0.160003662109375
1789761169695488500,9.325488525390625,-0.29443359375,-0.9827880859375,-0.031402587890625
1789761169705538600,9.33553857421875,-0.53179931640625,-1.001312255859375,-0.1208038330078125
1789761169715588600,9.345588623046876,-0.7559814453125,-0.773223876953125,-0.0192108154296875
1789761169725637400,9.355637451171875,-0.89019775390625,-0.502685546875,0.1312103271484375
1789761169735687400,9.3656875,-0.721435546875,-0.4291229248046875,0.15594482421875
1789761169745737500,9.375737548828125,-0.67315673828125,-0.7783203125,0.0169219970703125
1789761169755786800,9.385786865234374,-0.476531982421875,-1.0187835693359375,-0.1500091552734375
1789761169765836500,9.39583642578125,-0.5589141845703125,-1.0138702392578125,-0.198883056640625
1789761169775886600,9.405886474609375,-0.6597900390625,-0.7733001708984375,-0.0969085693359375
1789761169785935600,9.415935546875,-0.807952880859375,-0.54864501953125,-0.03802490234375
1789761169795985400,9.4259853515625,-1.1957550048828125,-0.5159759521484375,-0.126007080078125
1789761169806035500,9.436035400390624,-0.851226806640625,-0.4600830078125,-0.207305908203125
1789761169816084700,9.446084716796875,-0.437835693359375,-0.59576416015625,-0.270721435546875
1789761169826134500,9.456134521484374,-0.4044952392578125,-0.9553680419921875,-0.296417236328125
1789761169836184600,9.4661845703125,-0.1436767578125,-1.0637359619140625,-0.1850433349609375
1789761169846233600,9.476233642578125,-0.731231689453125,-1.0560455322265625,-0.0984344482421875
1789761169856283600,9.48628369140625,-0.933502197265625,-0.565093994140625,-0.062530517578125
1789761169866333400,9.49633349609375,-1.13946533203125,-0.307403564453125,-0.1074676513671875
1789761169876382500,9.506382568359374,-0.7822723388671875,-0.355316162109375,-0.18890380859375
1789761169886432800,9.516432861328125,-0.594757080078125,-0.77935791015625,-0.2320709228515625
1789761169896482600,9.526482666015625,-0.3257293701171875,-1.150543212890625,-0.153656005859375
1789761169906531600,9.536531494140625,-0.32843017578125,-1.207611083984375,0.0055084228515625
1789761169916581600,9.54658154296875,-0.5484466552734375,-0.823974609375,0.0914154052734375
1789761169926631400,9.55663134765625,-0.712371826171875,-0.3912200927734375,0.0145111083984375
1789761169936680400,9.566680419921875,-1.1852874755859375,-0.4051666259765625,-0.1415557861328125
1789761169946730500,9.57673046875,-0.916351318359375,-0.614349365234375,-0.1589202880859375
1789761169956780500,9.586780517578125,-0.7230987548828125,-0.9106903076171875,-0.036956787109375
1789761169966829600,9.59682958984375,-0.3223419189453125,-0.986114501953125,0.118255615234375
1789761169976879600,9.606879638671876,-0.2481689453125,-0.9515838623046875,0.1485595703125
1789761169986929700,9.6169296875,-0.294464111328125,-0.83575439453125,0.0700836181640625
1789761169996978400,9.626978515625,-0.6876678466796875,-0.68731689453125,-0.05877685546875
1789761170007028500,9.637028564453125,-0.973052978515625,-0.560546875,-0.0876617431640625
1789761170017078500,9.64707861328125,-1.0154571533203125,-0.5731964111328125,0.03985595703125
1789761170027127600,9.65712744140625,-0.9380035400390625,-0.7415313720703125,0.1358795166015625
1789761170037177600,9.667177490234375,-0.8537445068359375,-0.8394012451171875,0.0592803955078125
1789761170047227600,9.6772275390625,-0.3209381103515625,-0.7993927001953125,-0.03289794921875
1789761170057276400,9.6872763671875,-0.4385528564453125,-0.8636322021484375,-0.068206787109375
1789761170067326500,9.697326416015626,-0.5109710693359375,-0.7122650146484375,-0.047119140625
1789761170077376500,9.70737646484375,-1.042388916015625,-0.7004852294921875,-0.0746002197265625
1789761170087425500,9.717425537109374,-1.0430145263671875,-0.5956573486328125,-0.0682220458984375
1789761170097475600,9.7274755859375,-0.744232177734375,-0.58966064453125,-0.04852294921875
1789761170107525600,9.737525634765625,-0.5916595458984375,-0.7373199462890625,-0.0402374267578125
1789761170117574400,9.747574462890626,-0.4345703125,-0.941192626953125,0.015716552734375
1789761170127624400,9.75762451171875,-0.2917327880859375,-1.0392608642578125,0.062347412109375
1789761170137674500,9.767674560546874,-0.6217498779296875,-0.862640380859375,0.031036376953125
1789761170147723500,9.7777236328125,-0.7623443603515625,-0.5292205810546875,-0.04632568359375
1789761170157773600,9.787773681640624,-0.866668701171875,-0.400115966796875,-0.1100616455078125
1789761170167823600,9.79782373046875,-0.807525634765625,-0.5897979736328125,-0.0779876708984375
1789761170177872600,9.80787255859375,-0.8411407470703125,-0.873138427734375,0.012786865234375
1789761170187922400,9.81792236328125,-0.5813446044921875,-0.911590576171875,0.1034088134765625
1789761170197972500,9.827972412109375,-0.5631256103515625,-0.8628692626953125,0.074859619140625
1789761170208021800,9.838021728515624,-0.67431640625,-0.7610321044921875,-0.04852294921875
1789761170218071600,9.848071533203125,-0.8273162841796875,-0.6037139892578125,-0.13140869140625
1789761170228121600,9.85812158203125,-0.8871917724609375,-0.4783172607421875,-0.11431884765625
1789761170238170600,9.868170654296875,-0.6536407470703125,-0.4757080078125,-0.00872802734375
1789761170248220400,9.878220458984375,-0.45068359375,-0.78668212890625,0.0734710693359375
1789761170258270500,9.8882705078125,-0.548583984375,-1.033447265625,0.02447509765625
1789761170268319500,9.898319580078125,-0.73907470703125,-0.9461669921875,-0.1025543212890625
1789761170278369800,9.908369873046874,-1.02142333984375,-0.701141357421875,-0.1747283935546875
1789761170288419600,9.918419677734375,-0.9617462158203125,-0.3753662109375,-0.1429443359375
1789761170298468600,9.928468505859374,-0.7684783935546875,-0.3299713134765625,-0.0999755859375
1789761170308518700,9.9385185546875,-0.5951385498046875,-0.69287109375,-0.0773162841796875
1789761170318568400,9.948568359375,-0.3648681640625,-1.008087158203125,-0.05902099609375
1789761170328617500,9.958617431640626,-0.4903411865234375,-1.009124755859375,-0.099456787109375
1789761170338667500,9.96866748046875,-0.721038818359375,-0.6919708251953125,-0.152618408203125
1789761170348717600,9.978717529296874,-0.82373046875,-0.4894561767578125,-0.1380615234375
1789761170358766600,9.9887666015625,-0.7472381591796875,-0.548797607421875,-0.068206787109375
1789761170368816600,9.998816650390625,-0.6260986328125,-0.798492431640625,0.0258941650390625
1789761170378866400,10.008866455078126,-0.5577850341796875,-0.9701080322265625,0.0811614990234375
1789761170388915500,10.01891552734375,-0.596832275390625,-1.0253143310546875,0.051849365234375
1789761170398965500,10.028965576171874,-0.8306121826171875,-0.84710693359375,-0.00274658203125
1789761170409015600,10.039015625,-0.8933868408203125,-0.5666351318359375,-0.0488433837890625
1789761170419064600,10.049064697265624,-0.7857208251953125,-0.39501953125,-0.108642578125
1789761170429114600,10.059114501953125,-0.6774749755859375,-0.64691162109375,-0.09375
1789761170439164700,10.06916455078125,-0.558258056640625,-0.929534912109375,-0.0220489501953125
1789761170449213400,10.07921337890625,-0.639801025390625,-0.89886474609375,-0.0105133056640625
1789761170459263500,10.089263427734375,-0.8777923583984375,-0.73846435546875,-0.048492431640625
1789761170469313500,10.0993134765625,-0.860748291015625,-0.5046539306640625,-0.099517822265625
1789761170479362600,10.109362548828125,-0.8382110595703125,-0.4369964599609375,-0.20867919921875
1789761170489412600,10.11941259765625,-0.6057281494140625,-0.5866851806640625,-0.266357421875
1789761170499462700,10.129462646484376,-0.3710479736328125,-0.88092041015625,-0.2248687744140625
1789761170509511400,10.139511474609375,-0.5576629638671875,-1.106658935546875,-0.20758056640625
1789761170519561500,10.1495615234375,-1.2606048583984375,-1.046600341796875,-0.2505035400390625
1789761170529611500,10.159611572265625,-0.80438232421875,-0.4076995849609375,-0.234954833984375
1789761170539660500,10.16966064453125,-0.3069000244140625,-0.1630706787109375,-0.1798858642578125
1789761170549710600,10.179710693359375,-0.41595458984375,-0.6121063232421875,-0.07080078125
1789761170559760600,10.1897607421875,0.11883544921875,-0.96844482421875,0.115386962890625
1789761170569809400,10.199809326171875,-0.2601318359375,-1.167755126953125,0.0581207275390625
1789761170579859500,10.209859375,-1.19482421875,-1.0868377685546875,-0.18048095703125
1789761170589909500,10.219909423828126,-1.52606201171875,-0.5257720947265625,-0.2906036376953125
1789761170599958800,10.229958740234375,-1.3992919921875,0.0063018798828125,-0.2201080322265625
1789761170610008600,10.240008544921874,-0.874755859375,-0.1729278564453125,-0.004486083984375
1789761170620058600,10.25005859375,-0.0988006591796875,-1.001495361328125,0.197265625
1789761170630107600,10.260107666015625,0.1685028076171875,-1.50341796875,0.153839111328125
1789761170640157400,10.270157470703126,-0.2141265869140625,-1.32769775390625,-0.0590362548828125
1789761170650207500,10.28020751953125,-0.92193603515625,-0.6653289794921875,-0.1973876953125
1789761170660256500,10.290256591796876,-1.36883544921875,-0.09332275390625,-0.2086334228515625
1789761170670306600,10.300306640625,-1.3375396728515625,-0.138336181640625,-0.136322021484375
1789761170680356600,10.310356689453124,-0.8287200927734375,-0.6323699951171875,0.02789306640625
1789761170690405600,10.320405517578125,-0.509002685546875,-1.2046356201171875,0.1973114013671875
1789761170700455700,10.33045556640625,-0.1808929443359375,-1.1945953369140625,0.2668304443359375
1789761170710505500,10.34050537109375,-0.452880859375,-0.95855712890625,0.1645965576171875
1789761170720554500,10.350554443359375,-0.7732696533203125,-0.547088623046875,-0.042694091796875
1789761170730604500,10.3606044921875,-0.9652099609375,-0.3087005615234375,-0.1963958740234375
1789761170740654600,10.370654541015625,-0.977752685546875,-0.4267425537109375,-0.1817779541015625
1789761170750703600,10.38070361328125,-0.5846405029296875,-0.716400146484375,0.00262451171875
1789761170760753700,10.390753662109375,-0.3147125244140625,-1.00042724609375,0.1689910888671875
1789761170770803500,10.400803466796875,-0.37933349609375,-1.078155517578125,0.152923583984375
1789761170780852500,10.4108525390625,-0.6743011474609375,-0.9386749267578125,0.0193939208984375
1789761170790902500,10.420902587890625,-0.91510009765625,-0.520111083984375,-0.10040283203125
1789761170800952300,10.430952392578124,-1.0471954345703125,-0.282196044921875,-0.1107025146484375
1789761170811001600,10.441001708984375,-0.81024169921875,-0.4092559814453125,-0.0072021484375
1789761170821051600,10.4510517578125,-0.6490020751953125,-0.9352569580078125,0.0742340087890625
1789761170831101700,10.461101806640626,-0.809112548828125,-1.2614288330078125,0.03106689453125
1789761170841150500,10.471150390625,-0.5915069580078125,-0.9269561767578125,-0.0576324462890625
1789761170851200500,10.481200439453126,-0.10162353515625,-0.42822265625,-0.0638885498046875
1789761170861250600,10.49125048828125,-0.39141845703125,-0.496429443359375,0.0087890625
1789761170871299600,10.501299560546874,-0.5842437744140625,-0.6667633056640625,0.054840087890625
1789761170881349600,10.511349609375,-0.708404541015625,-0.875335693359375,-0.041748046875
1789761170891399700,10.521399658203125,-1.0737457275390625,-0.797027587890625,-0.21337890625
1789761170901449000,10.531448974609376,-1.16070556640625,-0.6649322509765625,-0.1799774169921875
1789761170911499000,10.5414990234375,-1.04071044921875,-0.45989990234375,0.1099090576171875
1789761170921549000,10.551549072265624,-0.556671142578125,-0.56610107421875,0.3202362060546875
1789761170931597800,10.561597900390625,-0.217315673828125,-0.8222503662109375,0.1571502685546875
1789761170941648100,10.571648193359374,-0.264373779296875,-1.157012939453125,-0.1495208740234375
1789761170951698200,10.5816982421875,-0.5936279296875,-1.0946807861328125,-0.26983642578125
1789761170961747000,10.591746826171875,-1.0333709716796875,-0.6159515380859375,-0.1994781494140625
1789761170971797000,10.601796875,-1.1629180908203125,-0.3280029296875,-0.051849365234375
1789761170981847000,10.611846923828125,-0.8743743896484375,-0.538970947265625,0.0537872314453125
1789761170991896000,10.62189599609375,-0.4722900390625,-0.858062744140625,0.064056396484375
1789761171001945900,10.63194580078125,-0.344635009765625,-0.9642333984375,0.0416412353515625
1789761171011996000,10.641995849609375,-0.43817138671875,-0.9321441650390625,0.04632568359375
1789761171022045200,10.652045166015625,-0.7045440673828125,-0.7227630615234375,0.00128173828125
1789761171032095000,10.662094970703125,-0.855438232421875,-0.553985595703125,-0.100738525390625
1789761171042145000,10.67214501953125,-0.878997802734375,-0.5532684326171875,-0.1762237548828125
1789761171052194000,10.682194091796875,-0.73040771484375,-0.7136688232421875,-0.1221160888671875
1789761171062243800,10.692243896484374,-0.6485443115234375,-0.797119140625,-0.00164794921875
1789761171072294000,10.7022939453125,-0.631439208984375,-0.7710723876953125,0.065948486328125
1789761171082343200,10.71234326171875,-0.5548553466796875,-0.7416839599609375,0.0290985107421875
1789761171092393200,10.722393310546876,-0.63134765625,-0.7795257568359375,-0.0835113525390625
1789761171102443000,10.732443115234375,-0.7955474853515625,-0.719970703125,-0.1700439453125
1789761171112492000,10.742491943359376,-0.99444580078125,-0.6627044677734375,-0.09368896484375
1789761171122542000,10.7525419921875,-0.8935089111328125,-0.579498291015625,0.0973663330078125
1789761171132591900,10.762591796875,-0.545745849609375,-0.6182403564453125,0.200225830078125
1789761171142641200,10.77264111328125,-0.379638671875,-0.8077239990234375,0.1004180908203125
1789761171152691200,10.782691162109375,-0.3231048583984375,-0.891632080078125,-0.0792999267578125
1789761171162741000,10.792740966796876,-0.7577972412109375,-0.9296722412109375,-0.1535797119140625
1789761171172790000,10.8027900390625,-0.7585601806640625,-0.681610107421875,-0.08831787109375
1789761171182840000,10.812840087890624,-0.806427001953125,-0.57366943359375,-0.007232666015625
1789761171192889900,10.822889892578125,-1.0410614013671875,-0.6603851318359375,-0.0013580322265625
1789761171202939100,10.832939208984374,-0.8554840087890625,-0.6623382568359375,-0.064971923828125
1789761171212989200,10.8429892578125,-0.571868896484375,-0.5784912109375,-0.0925140380859375
1789761171223039200,10.853039306640625,-0.3338775634765625,-0.7344970703125,0.0281982421875
1789761171233088000,10.863087890625,-0.5583648681640625,-0.8821258544921875,0.159393310546875
1789761171243138000,10.873137939453125,-0.6533203125,-0.8526611328125,0.1162109375
1789761171253188000,10.88318798828125,-0.62310791015625,-0.667938232421875,-0.0780029296875
1789761171263237000,10.893237060546875,-0.7965545654296875,-0.6736602783203125,-0.2053680419921875
1789761171273287200,10.903287109375,-0.8056488037109375,-0.7093505859375,-0.1256561279296875
1789761171283337200,10.913337158203126,-0.6802215576171875,-0.764862060546875,0.0744171142578125
1789761171293386000,10.923385986328125,-0.832672119140625,-0.886993408203125,0.1325225830078125
1789761171303436000,10.93343603515625,-0.770660400390625,-0.799407958984375,-0.0128173828125
1789761171313486000,10.943486083984375,-0.7131195068359375,-0.6979827880859375,-0.1585540771484375
1789761171323534800,10.953534912109374,-0.7007904052734375,-0.611541748046875,-0.165069580078125
1789761171333585000,10.9635849609375,-0.634063720703125,-0.6209564208984375,-0.090545654296875
1789761171343635200,10.97363525390625,-0.6090087890625,-0.767578125,-0.0298309326171875
1789761171353684000,10.98368408203125,-0.7057952880859375,-0.90802001953125,-0.022186279296875
1789761171363734000,10.993734130859375,-0.7103729248046875,-0.7880706787109375,-0.0468597412109375
1789761171373784000,11.0037841796875,-0.8141937255859375,-0.61724853515625,-0.065277099609375
1789761171383832800,11.013832763671875,-0.8260498046875,-0.5721893310546875,-0.0253448486328125
1789761171393883000,11.0238828125,-0.6023712158203125,-0.65411376953125,0.0188140869140625
1789761171403933000,11.033932861328125,-0.6108856201171875,-0.83892822265625,-0.0155792236328125
1789761171413982200,11.043982177734375,-0.5329742431640625,-0.8814239501953125,-0.0556640625
1789761171424032000,11.054031982421876,-0.66741943359375,-0.7476348876953125,-0.0905914306640625
1789761171434082000,11.06408203125,-0.949066162109375,-0.5444793701171875,-0.1067352294921875
1789761171444131000,11.074131103515626,-0.8585357666015625,-0.461334228515625,-0.043670654296875
1789761171454180900,11.084180908203125,-0.6629180908203125,-0.5943603515625,0.0245819091796875
1789761171464231000,11.09423095703125,-0.5365142822265625,-0.826568603515625,0.0284271240234375
1789761171474280200,11.1042802734375,-0.5316162109375,-0.9056396484375,-0.0397796630859375
1789761171484330000,11.114330078125,-0.7528839111328125,-0.8273468017578125,-0.1344757080078125
1789761171494380000,11.124380126953126,-0.97265625,-0.654815673828125,-0.16107177734375
1789761171504429000,11.134428955078125,-0.839691162109375,-0.4782562255859375,-0.049102783203125
1789761171514479000,11.14447900390625,-0.67852783203125,-0.581817626953125,0.110992431640625
1789761171524529000,11.15452880859375,-0.5611419677734375,-0.754058837890625,0.1353759765625
1789761171534578200,11.164578125,-0.5540618896484375,-0.89739990234375,-0.0186004638671875
1789761171544628200,11.174628173828125,-0.7439117431640625,-0.9560546875,-0.187896728515625
1789761171554678000,11.184677978515625,-0.753265380859375,-0.764892578125,-0.193511962890625
1789761171564727000,11.19472705078125,-0.8344268798828125,-0.53460693359375,-0.0731353759765625
1789761171574777000,11.204777099609375,-0.7776947021484375,-0.5015869140625,0.0310516357421875
1789761171584827000,11.214826904296874,-0.6245269775390625,-0.6613006591796875,0.0165252685546875
1789761171594876200,11.224876220703125,-0.67535400390625,-0.886016845703125,-0.0584564208984375
1789761171604926200,11.23492626953125,-0.787384033203125,-0.941436767578125,-0.084228515625
1789761171614976000,11.24497607421875,-0.613037109375,-0.7208709716796875,-0.021026611328125
1789761171625025000,11.25502490234375,-0.61053466796875,-0.5473785400390625,0.02801513671875
1789761171635075000,11.265074951171876,-0.71563720703125,-0.5844879150390625,0.006378173828125
1789761171645125000,11.275125,-0.59490966796875,-0.665252685546875,-0.0489349365234375
1789761171655174100,11.285174072265624,-0.77032470703125,-0.8193817138671875,-0.1305084228515625
1789761171665224200,11.29522412109375,-0.833099365234375,-0.86981201171875,-0.1697540283203125
1789761171675274200,11.305274169921875,-0.7542266845703125,-0.6872100830078125,-0.11920166015625
1789761171685323000,11.315322998046875,-0.812957763671875,-0.558197021484375,-0.0260467529296875
1789761171695373000,11.325373046875,-0.6788787841796875,-0.5303497314453125,0.0452728271484375
1789761171705423000,11.335423095703124,-0.6208038330078125,-0.6958465576171875,0.0316619873046875
1789761171715472000,11.345471923828125,-0.5799560546875,-0.825103759765625,-0.039581298828125
1789761171725522000,11.35552197265625,-0.63140869140625,-0.811431884765625,-0.091796875
1789761171735572200,11.365572265625,-0.7529144287109375,-0.7364044189453125,-0.0887603759765625
1789761171745621000,11.37562109375,-0.7990570068359375,-0.6304931640625,-0.0643157958984375
1789761171755671000,11.385671142578126,-0.7388153076171875,-0.5913543701171875,-0.0536041259765625
1789761171765721000,11.39572119140625,-0.827239990234375,-0.7001953125,-0.0462188720703125
1789761171775769900,11.405769775390626,-0.7256927490234375,-0.72705078125,-0.0568389892578125
1789761171785820000,11.41581982421875,-0.7343597412109375,-0.7864227294921875,-0.09912109375
1789761171795870000,11.425869873046874,-0.636322021484375,-0.825775146484375,-0.1089019775390625
1789761171805919000,11.4359189453125,-0.6308135986328125,-0.7619171142578125,-0.092926025390625
1789761171815969000,11.445968994140625,-0.62457275390625,-0.6476898193359375,-0.058013916015625
1789761171826019000,11.45601904296875,-0.6785125732421875,-0.622711181640625,0.0041961669921875
1789761171836068000,11.466068115234375,-0.672515869140625,-0.663421630859375,0.0469512939453125
1789761171846118000,11.476117919921874,-0.6173095703125,-0.681884765625,0.0323333740234375
1789761171856168000,11.48616796875,-0.6719207763671875,-0.7704620361328125,-0.01092529296875
1789761171866217200,11.49621728515625,-0.7238922119140625,-0.782440185546875,-0.0556793212890625
1789761171876267000,11.50626708984375,-0.7318115234375,-0.69580078125,-0.0744781494140625
1789761171886317000,11.516317138671875,-0.745025634765625,-0.6341094970703125,-0.0522918701171875
1789761171896366000,11.526365966796876,-0.78607177734375,-0.693145751953125,-0.023773193359375
1789761171906416000,11.536416015625,-0.7905426025390625,-0.7554931640625,-0.0261993408203125
1789761171916466200,11.546466064453124,-0.751617431640625,-0.79693603515625,-0.0299530029296875
1789761171926515200,11.55651513671875,-0.7876129150390625,-0.7407989501953125,-0.021514892578125
1789761171936565200,11.566565185546875,-0.841156005859375,-0.64166259765625,-0.011077880859375
1789761171946615300,11.576615234375,-0.7910308837890625,-0.6320037841796875,0.0046234130859375
1789761171956664000,11.5866640625,-0.71490478515625,-0.6845855712890625,0.003265380859375
1789761171966714000,11.596714111328126,-0.5633697509765625,-0.73602294921875,0.0041656494140625
1789761171976764200,11.60676416015625,-0.4181365966796875,-0.7867431640625,0.039947509765625
1789761171986813200,11.616813232421874,-0.443145751953125,-0.8050689697265625,0.0530242919921875
1789761171996863200,11.62686328125,-0.64892578125,-0.7351837158203125,0.005828857421875
1789761172006913300,11.636913330078125,-0.7797088623046875,-0.62701416015625,-0.0388946533203125
1789761172016962300,11.64696240234375,-0.9742279052734375,-0.587554931640625,-0.0531768798828125
1789761172027012000,11.65701220703125,-0.9071197509765625,-0.523834228515625,-0.0550079345703125
1789761172037062100,11.667062255859374,-0.748077392578125,-0.662261962890625,-0.017333984375
1789761172047111200,11.677111083984375,-0.6340179443359375,-0.8758697509765625,0.0431671142578125
1789761172057161200,11.6871611328125,-0.56854248046875,-0.8254241943359375,0.0395355224609375
1789761172067211300,11.697211181640625,-0.6746063232421875,-0.695098876953125,-0.0099639892578125
1789761172077260300,11.70726025390625,-0.783477783203125,-0.6370391845703125,-0.0238189697265625
1789761172087310000,11.71731005859375,-0.7630615234375,-0.57891845703125,-0.019622802734375
1789761172097360100,11.727360107421875,-0.77911376953125,-0.63885498046875,-0.0296783447265625
1789761172107409200,11.7374091796875,-0.731201171875,-0.7997894287109375,-0.0052947998046875
1789761172117459000,11.747458984375,-0.6735687255859375,-0.8453216552734375,0.043670654296875
1789761172127509000,11.757509033203124,-0.64678955078125,-0.7678070068359375,0.059539794921875
1789761172137558300,11.767558349609375,-0.7305908203125,-0.7092742919921875,0.0194854736328125
1789761172147608300,11.7776083984375,-0.8038177490234375,-0.6732940673828125,-0.0238800048828125
1789761172157658000,11.787658203125,-0.79901123046875,-0.677886962890625,-0.0467071533203125
1789761172167707100,11.79770703125,-0.6350860595703125,-0.65350341796875,-0.0386505126953125
1789761172177757200,11.807757080078124,-0.6456451416015625,-0.7537994384765625,-0.00506591796875
1789761172187807000,11.817806884765625,-0.6377410888671875,-0.8184661865234375,0.0257110595703125
1789761172197856300,11.827856201171874,-0.65216064453125,-0.777801513671875,0.0307769775390625
1789761172207906300,11.83790625,-0.774017333984375,-0.6640167236328125,-0.0144195556640625
1789761172217956000,11.8479560546875,-0.857330322265625,-0.5856475830078125,-0.0828857421875
1789761172228005000,11.858005126953126,-0.77703857421875,-0.5846099853515625,-0.0850830078125
1789761172238055200,11.86805517578125,-0.6233062744140625,-0.67547607421875,-0.0128173828125
1789761172248104200,11.878104248046874,-0.6462554931640625,-0.8093109130859375,0.0349273681640625
1789761172258154200,11.888154296875,-0.6324462890625,-0.8114471435546875,0.0113372802734375
1789761172268204300,11.898204345703125,-0.7135467529296875,-0.73016357421875,-0.054168701171875
1789761172278253000,11.908253173828125,-0.739837646484375,-0.6728363037109375,-0.0849761962890625
1789761172288303000,11.91830322265625,-0.675445556640625,-0.6683502197265625,-0.087554931640625
1789761172298353200,11.928353271484376,-0.6240081787109375,-0.71295166015625,-0.09002685546875
1789761172308402200,11.938402099609375,-0.6081085205078125,-0.785369873046875,-0.0827178955078125
1789761172318452200,11.9484521484375,-0.691925048828125,-0.7802581787109375,-0.0634765625
1789761172328502300,11.958502197265625,-0.795867919921875,-0.709136962890625,-0.0234527587890625
1789761172338551300,11.96855126953125,-0.8076629638671875,-0.6745758056640625,0.0087738037109375
1789761172348601000,11.97860107421875,-0.8068389892578125,-0.676544189453125,-0.01141357421875
1789761172358651100,11.988651123046875,-0.77191162109375,-0.7064666748046875,-0.0504913330078125
1789761172368700200,11.9987001953125,-0.6497955322265625,-0.7415924072265625,-0.013214111328125
1789761172378750200,12.008750244140625,-0.6963653564453125,-0.765594482421875,0.0498199462890625
1789761172388800300,12.01880029296875,-0.66448974609375,-0.6636962890625,0.041259765625
1789761172398849300,12.028849365234375,-0.727508544921875,-0.6504974365234375,-0.0109710693359375
1789761172408899000,12.038899169921875,-0.76531982421875,-0.680145263671875,-0.0369873046875
1789761172418949000,12.04894921875,-0.702239990234375,-0.6856842041015625,-0.0354766845703125
1789761172428998100,12.058998046875,-0.7251129150390625,-0.739837646484375,-0.0532989501953125
1789761172439048200,12.069048095703126,-0.63287353515625,-0.761322021484375,-0.096527099609375
1789761172449098000,12.079097900390625,-0.7029876708984375,-0.7682037353515625,-0.10675048828125
1789761172459147300,12.089147216796874,-0.660614013671875,-0.6591949462890625,-0.0348663330078125
1789761172469197300,12.099197265625,-0.5516815185546875,-0.5651397705078125,0.0615692138671875
1789761172479247000,12.1092470703125,-0.740570068359375,-0.7172393798828125,0.082427978515625
1789761172489296100,12.119296142578126,-0.7534942626953125,-0.7566375732421875,-0.0008697509765625
1789761172499346200,12.12934619140625,-0.8524627685546875,-0.70574951171875,-0.115753173828125
1789761172509396000,12.13939599609375,-0.9110107421875,-0.706787109375,-0.1172637939453125
1789761172519445200,12.1494453125,-0.6621856689453125,-0.659332275390625,-0.010467529296875
1789761172529495300,12.159495361328124,-0.5331268310546875,-0.693389892578125,0.042449951171875
1789761172539545000,12.169545166015626,-0.5824737548828125,-0.8005828857421875,-0.0140838623046875
1789761172549594000,12.179593994140625,-0.7662353515625,-0.8610687255859375,-0.09210205078125
1789761172559644200,12.18964404296875,-0.8008880615234375,-0.7173614501953125,-0.1316070556640625
1789761172569694200,12.199694091796875,-0.8472900390625,-0.53717041015625,-0.1572418212890625
1789761172579743200,12.2097431640625,-0.8349456787109375,-0.5374755859375,-0.1598663330078125
1789761172589793300,12.219793212890625,-0.7350311279296875,-0.679473876953125,-0.1392822265625
1789761172599843300,12.22984326171875,-0.6138763427734375,-0.78778076171875,-0.0972747802734375
1789761172609892000,12.23989208984375,-0.6474761962890625,-0.834259033203125,-0.0443878173828125
1789761172619942100,12.249942138671875,-0.774932861328125,-0.7597198486328125,-0.0166015625
1789761172629992200,12.2599921875,-0.90924072265625,-0.598388671875,-0.0428466796875
1789761172640041200,12.270041259765625,-0.851348876953125,-0.5116424560546875,-0.0771026611328125
1789761172650091300,12.28009130859375,-0.7458038330078125,-0.6173095703125,-0.0753631591796875
1789761172660141300,12.290141357421875,-0.5832672119140625,-0.7513427734375,-0.04937744140625
1789761172670190000,12.300190185546874,-0.571990966796875,-0.843719482421875,-0.0547027587890625
1789761172680240000,12.310240234375,-0.6492462158203125,-0.7624053955078125,-0.1045684814453125
1789761172690290200,12.320290283203125,-0.7308502197265625,-0.6277923583984375,-0.1586761474609375
1789761172700339200,12.330339111328126,-0.8172607421875,-0.566619873046875,-0.17333984375
1789761172710389200,12.34038916015625,-0.7578125,-0.5888214111328125,-0.1228790283203125
1789761172720439300,12.350439208984374,-0.6655426025390625,-0.6733856201171875,-0.067169189453125
1789761172730488000,12.360488037109375,-0.6391143798828125,-0.7227783203125,-0.0801849365234375
1789761172740538000,12.3705380859375,-0.7320404052734375,-0.7272796630859375,-0.1590118408203125
1789761172750588200,12.380588134765626,-0.7407684326171875,-0.6426239013671875,-0.2093963623046875
1789761172760637200,12.39063720703125,-0.7702178955078125,-0.5998687744140625,-0.1840362548828125
1789761172770687000,12.40068701171875,-0.83673095703125,-0.6390838623046875,-0.10430908203125
1789761172780737300,12.4107373046875,-0.79913330078125,-0.7000732421875,-0.0351409912109375
1789761172790786300,12.420786376953124,-0.60174560546875,-0.716888427734375,-0.026702880859375
1789761172800836000,12.430836181640625,-0.6149444580078125,-0.7703094482421875,-0.103851318359375
1789761172810886100,12.44088623046875,-0.6877899169921875,-0.7710723876953125,-0.1770782470703125
1789761172820935200,12.45093505859375,-0.6186065673828125,-0.6950531005859375,-0.1432342529296875
1789761172830985000,12.46098486328125,-0.7165069580078125,-0.7033538818359375,-0.0573577880859375
1789761172841035000,12.471034912109374,-0.8296051025390625,-0.7564849853515625,-0.027496337890625
1789761172851084300,12.481084228515625,-0.865020751953125,-0.7679901123046875,-0.0703277587890625
1789761172861134300,12.49113427734375,-0.8498687744140625,-0.72344970703125,-0.1263427734375
1789761172871184100,12.50118408203125,-0.7606964111328125,-0.65863037109375,-0.127532958984375
1789761172881233200,12.511233154296875,-0.7437286376953125,-0.60357666015625,-0.0800018310546875
1789761172891283200,12.521283203125,-0.6920623779296875,-0.6357879638671875,-0.010040283203125
1789761172901332700,12.531332763671875,-0.623870849609375,-0.74456787109375,0.0482330322265625
1789761172911381800,12.5413818359375,-0.66925048828125,-0.828704833984375,0.0255126953125
1789761172921431800,12.551431884765625,-0.747528076171875,-0.712158203125,-0.06744384765625
1789761172931481600,12.561481689453124,-0.8182525634765625,-0.5934600830078125,-0.10784912109375
1789761172941530600,12.571530517578125,-0.7259063720703125,-0.59197998046875,-0.0518798828125
1789761172951580700,12.58158056640625,-0.6181182861328125,-0.6585845947265625,-0.0078582763671875
1789761172961630700,12.591630615234376,-0.57916259765625,-0.7724456787109375,-0.00634765625
1789761172971679700,12.6016796875,-0.5899505615234375,-0.8054351806640625,-0.000091552734375
1789761172981729800,12.611729736328124,-0.7066650390625,-0.763397216796875,0.012481689453125
1789761172991779800,12.62177978515625,-0.782806396484375,-0.57464599609375,0.0131988525390625
1789761173001828600,12.63182861328125,-0.7647247314453125,-0.4920501708984375,0.0122528076171875
1789761173011878700,12.641878662109375,-0.7924041748046875,-0.6627044677734375,0.01458740234375
1789761173021927700,12.651927734375,-0.738433837890625,-0.7736663818359375,-0.0052032470703125
1789761173031977700,12.661977783203126,-0.6612701416015625,-0.742095947265625,-0.02978515625
1789761173042027800,12.67202783203125,-0.669464111328125,-0.7537994384765625,0.008544921875
1789761173052076800,12.682076904296874,-0.76092529296875,-0.7325897216796875,0.055267333984375
1789761173062126600,12.692126708984375,-0.746429443359375,-0.6114501953125,0.026153564453125
1789761173072176600,12.7021767578125,-0.7183685302734375,-0.6338348388671875,-0.037994384765625
1789761173082226000,12.712225830078125,-0.7336883544921875,-0.78594970703125,-0.0710601806640625
1789761173092275700,12.722275634765625,-0.6838531494140625,-0.80108642578125,-0.0725555419921875
1789761173102325800,12.73232568359375,-0.738189697265625,-0.7406005859375,-0.0495758056640625
1789761173112374800,12.742374755859375,-0.784698486328125,-0.677398681640625,-0.003997802734375
1789761173122424600,12.752424560546874,-0.9538421630859375,-0.6565093994140625,-0.03070068359375
1789761173132474600,12.762474609375,-0.8875732421875,-0.58966064453125,-0.1103668212890625
1789761173142523600,12.772523681640624,-0.8699493408203125,-0.710662841796875,-0.13433837890625
1789761173152573700,12.78257373046875,-0.7684783935546875,-0.824310302734375,-0.0932159423828125
1789761173162623700,12.792623779296875,-0.646026611328125,-0.77777099609375,-0.041900634765625
1789761173172672800,12.8026728515625,-0.478424072265625,-0.6376495361328125,-0.0223236083984375
1789761173182722800,12.812722900390625,-0.579620361328125,-0.6444091796875,-0.0466461181640625
1789761173192772600,12.822772705078124,-0.6548004150390625,-0.71099853515625,-0.0631561279296875
1789761173202821600,12.832821533203125,-0.740081787109375,-0.729278564453125,-0.0858612060546875
1789761173212871700,12.84287158203125,-0.815460205078125,-0.71563720703125,-0.0871429443359375
1789761173222921700,12.852921630859376,-0.7216644287109375,-0.651611328125,-0.028594970703125
1789761173232970800,12.862970703125,-0.6069488525390625,-0.5841827392578125,0.0299530029296875
1789761173243020800,12.873020751953124,-0.7429351806640625,-0.663482666015625,0.0321807861328125
1789761173253070800,12.88307080078125,-0.815704345703125,-0.74713134765625,0.0047149658203125
