time,seconds_elapsed,z,y,x
1789761160423410700,0.05341064453125,2.960141014447808,-1.1624608938515186,0.045612270612549036
1789761160433460700,0.063460693359375,0.5557341866195201,-1.24429454292953,-1.0951453802738338
1789761160443509500,0.073509521484375,-1.5545768821537493,0.2676584185063839,-1.3026421024799346
1789761160453559600,0.0835595703125,-2.9441221920609473,1.9867238520711659,-0.6466252215739339
1789761160463609600,0.093609619140625,-2.715211729621887,2.94693315782845,0.12252658346695824
1789761160473658600,0.10365869140625,-0.7505179230511188,1.0741396363198756,0.7696512241967022
1789761160483708700,0.113708740234375,1.4867238276332615,-1.1660089417219162,0.9905544673994183
1789761160493758700,0.1237587890625,1.5309692120730876,-1.9384785843402146,1.0087394548442215
1789761160503807700,0.133807861328125,1.7235270891487597,-0.6574544394284486,0.8181900680467485
1789761160513857500,0.143857421875,-0.18214052795767782,1.0455442409545184,-0.10758496185755356
1789761160523907600,0.153907470703125,-1.5923147843956946,1.8554075024217367,-0.6952264631357044
1789761160533956900,0.163956787109375,-0.26077158160209657,1.2094541156947611,-0.626019875114411
1789761160544006700,0.174006591796875,0.19506313789486884,-0.705703214290738,-0.9510467790059745
1789761160554056700,0.184056640625,0.5632184048950671,-1.6813076575785875,-1.0297127578333019
1789761160564105700,0.194105712890625,-0.41101942621469495,-1.5302806452870368,-0.17111363210659472
1789761160574155500,0.204155517578125,0.2022059953868389,0.8369728021889925,1.6672341240406034
1789761160584205600,0.21420556640625,0.8558861769735813,1.730434384319186,2.2549217842817306
1789761160594254800,0.2242548828125,-0.2774386387646198,1.9800784227073192,-0.5604840114951133
1789761160604305000,0.234304931640625,-0.011516250270605087,-0.8728817354381084,-3.0314599915131923
1789761160614354700,0.244354736328125,-1.4545575880438089,-3.045584670716524,-2.0821260077744723
1789761160624403700,0.25440380859375,-0.9181868580639362,-0.2236076798558235,1.6598435753978789
1789761160634453800,0.264453857421875,0.674005761256814,2.4226661226183173,5.096078691908716
1789761160644503600,0.274503662109375,-0.7284574824124574,3.1014959430307147,4.298909492319822
1789761160654552600,0.284552490234375,-0.24955928271412847,0.49945758812427515,0.78402761313878
1789761160664603000,0.294602783203125,0.36147651988863944,-4.37457526641786,-1.0521427624367177
1789761160674652700,0.304652587890625,1.904476946017146,-4.635057509684563,-0.12623743894994258
1789761160684701700,0.31470166015625,1.069726496052742,-1.0039180991023777,2.1401301607146856
1789761160694751700,0.324751708984375,0.5495078594505787,3.1371804198741913,3.45847602828294
1789761160704801500,0.334801513671875,-2.1714766083538533,2.8391198488414284,2.4563296150282024
1789761160714850600,0.3448505859375,-2.3549364022165538,1.1252730267077684,0.24345990639310328
1789761160724900600,0.354900634765625,0.218809924185276,-1.8941694870144128,-1.6260507575199008
1789761160734950700,0.36495068359375,0.6584492956846952,-2.944932339400053,-2.743589975105226
1789761160744999700,0.374999755859375,1.132144666042924,-1.0349936208456754,-2.089188785767555
1789761160755049700,0.3850498046875,0.8889642707109451,0.4149485823571682,0.09608458500951528
1789761160765099800,0.395099853515625,0.6646306146681308,0.9714508307397365,1.3055189730904995
1789761160775148500,0.4051484375,1.580959862166643,1.3925357238948344,0.21564850101228802
1789761160785198600,0.415198486328125,-0.787832631444931,-0.921284824079275,-1.660947444986552
1789761160795248600,0.42524853515625,-0.888069367697835,-1.2275848156690596,-1.6004814319774507
1789761160805297700,0.435297607421875,-0.7707698529630899,0.888365720295906,0.4057878457041457
1789761160815347700,0.44534765625,-0.2913374002575874,0.8829314202874898,2.186587083724141
1789761160825397800,0.455397705078125,-0.6439853015244007,0.4348305099129677,1.8162148713268338
1789761160835446500,0.465446533203125,-0.9398504083395004,1.0166770429104566,-0.32370895316079257
1789761160845496600,0.47549658203125,-2.3724083460211753,0.5045984581440687,-1.9681655743345616
1789761160855546600,0.485546630859375,-2.373475098469853,0.5048275907248259,-1.9589898958407341
1789761160865595600,0.495595703125,0.09919920989871024,0.20081483328938482,-0.328947182607837
1789761160875645700,0.505645751953125,2.371245147460699,0.38609833544790745,0.7468192146636545
1789761160885695500,0.515695556640625,0.6455927367210388,0.14807517674863338,0.4389932190829888
1789761160895744500,0.52574462890625,-1.5589514439761638,-0.24056349083185194,-0.3287378872387111
1789761160905794600,0.535794677734375,-1.3335410986125469,-0.016667641684412954,-0.14184176225177944
1789761160915844400,0.54584423828125,-0.535674564409256,0.9435498473793268,0.16216193509437143
1789761160925893600,0.5558935546875,0.5416320115089416,0.9409376190543174,0.23657895124033093
1789761160935943700,0.565943603515625,0.5281447534263134,0.952096726450324,0.24561054508835076
1789761160945993700,0.57599365234375,0.01816927841901779,-2.001205381888151,1.5441314759850502
1789761160956042500,0.58604248046875,-1.9955740980029104,0.3828109843403101,1.5570881343223153
1789761160966092500,0.596092529296875,-0.1626870549470186,2.0830898843705654,1.6506491922035813
1789761160976142600,0.606142578125,1.2141454883813858,1.2338579045891762,1.0369914435993879
1789761160986191600,0.616191650390625,1.5792612415552139,0.6738163761645555,0.12011289165504276
1789761160996241700,0.62624169921875,0.2697130129486322,-0.9197007697582245,0.08418781098872423
1789761161006291700,0.636291748046875,-2.7300772903203963,-1.516162103563547,0.23840273260138928
1789761161016340500,0.646340576171875,-3.9257641619473693,1.1964637012183665,0.17765673360712825
1789761161026390500,0.656390625,-3.0054052205413577,2.4925994905441997,0.456312493076548
1789761161036440600,0.666440673828125,0.6435971789896487,1.953729929485917,1.0921822926845401
1789761161046489600,0.676489501953125,1.8540952507793902,-0.7718249149739742,0.9520032029479741
1789761161056539600,0.68653955078125,0.9016244303196668,-2.0825883645892143,0.13116963465511797
1789761161066589700,0.696589599609375,-0.07450199101567268,-0.9171376412719487,-0.09724697985239326
1789761161076638500,0.706638427734375,-1.3634709574520587,1.1125497387349605,-0.09150207952484488
1789761161086688500,0.7166884765625,-0.6216255856782198,1.211845394745469,0.09982209103740751
1789761161096738600,0.726738525390625,-0.4522960239768028,0.6581394990831613,0.1094744471322745
1789761161106787300,0.736787353515625,-0.36441081977486606,-0.5238368270993232,0.37265856976881623
1789761161116837400,0.74683740234375,1.4889227989822624,-0.5183247856795787,0.8113967546448111
1789761161126887700,0.7568876953125,-0.498053566545248,-0.7198533201962709,0.8136763169493526
1789761161136936700,0.766936767578125,-0.8179097898006439,0.23532851278781888,1.2290813378371297
1789761161146986500,0.776986572265625,-1.2813386176884174,0.8223059789329766,1.4142255776554344
1789761161157036500,0.78703662109375,-0.3980734354019165,0.797508222284913,1.1955701133795082
1789761161167085600,0.79708544921875,0.47524376884400843,-0.681478873616457,0.8859525216743349
1789761161177135400,0.80713525390625,1.9103724337965249,-0.9975175844103097,0.9769089500151574
1789761161187185400,0.817185302734375,0.36615620213747024,-1.4796096117138862,0.9677359018698334
1789761161197234700,0.827234619140625,-1.0607564231336115,-0.07885551005005836,0.6540896391704678
1789761161207284500,0.837284423828125,-1.7016916894376277,1.192443944182992,0.13840185093097387
1789761161217334500,0.84733447265625,-0.4669897352397442,1.7982266485631464,0.08069784998111426
1789761161227383600,0.857383544921875,-0.47831484685242176,1.807684797260165,0.08487213999107479
1789761161237433300,0.867433349609375,0.11694997064471244,1.419431914126873,0.5045839181620627
1789761161247483400,0.8774833984375,0.7504325828552245,-1.0674731641680002,1.3849797555573284
1789761161257532700,0.88753271484375,0.01957271547615528,-0.05932137301862239,1.0481549349095671
1789761161267582700,0.897582763671875,-1.6898486914306878,1.2202233469903467,0.2895200486373156
1789761161277632500,0.907632568359375,-2.3884955574691293,1.0074988801985978,0.06783076962344348
1789761161287682600,0.9176826171875,-2.030036339575052,-0.456430347302556,0.43246911454387005
1789761161297731600,0.927731689453125,0.8224298975735902,-0.6660591861665248,1.078025537842512
1789761161307781400,0.937781494140625,1.0110761541634798,-0.5312392123103141,0.9958112919490784
1789761161317831400,0.94783154296875,-0.941158568328619,0.23963936172425745,-0.313846023055166
1789761161327880700,0.957880615234375,-0.03275836026370525,1.6239479400217531,-0.7543616659324616
1789761161337930500,0.967930419921875,-1.4167325920403002,0.39759471197426316,0.0649455695759505
1789761161347979500,0.9779794921875,0.5094838920980692,0.2451443888813257,0.7716328264679759
1789761161358029600,0.988029541015625,0.449229622143507,-0.9092360743671655,0.3974995079714805
1789761161368079600,0.99807958984375,0.42835517641901966,-0.5477636461317539,0.0003177607122808695
1789761161378129400,1.00812939453125,0.39139118115901944,-0.054854456737637516,0.3527190668068826
1789761161388178700,1.0181787109375,0.30986674416065213,0.558216651085019,0.8422276539772748
1789761161398228700,1.028228759765625,-0.777364428922534,0.26559914788901806,0.6642880848407745
1789761161408278500,1.038278564453125,-2.40166132851243,0.22698270924687383,0.31948088713698086
1789761161418327600,1.04832763671875,-0.23961890345811843,0.5975619885236024,0.9297560075655579
1789761161428377600,1.058377685546875,-0.32779052338600156,-0.28312311414182184,0.7532396761652081
1789761161438427400,1.068427490234375,1.2313754401236772,-0.5963415068179369,0.268435832619667
1789761161448476700,1.0784765625,0.593722848752141,-0.7667460042744875,0.07958923115208745
1789761161458526700,1.088526611328125,-1.2000158407419919,0.10141396333873272,0.4067113537572324
1789761161468576500,1.098576416015625,-0.632557898581028,1.6718758123666047,1.4284917111560702
1789761161478625500,1.10862548828125,-1.1484732850313186,0.5420569589227437,1.5468085862398147
1789761161488675600,1.118675537109375,-1.1603998696684836,0.5495645580738783,1.5643137016616762
1789761161498725600,1.1287255859375,0.7061749234557151,-1.310319797500968,0.17746581414490936
1789761161508774400,1.1387744140625,0.40737200962305065,0.17378244945704935,0.024914368765056132
1789761161518824700,1.14882470703125,-0.1844119800209999,0.8084750219792127,0.6400546840772032
1789761161528874800,1.158874755859375,-0.38432138890326023,1.5404115786790846,1.1480403004415332
1789761161538923500,1.168923583984375,-2.998140782496333,0.7198375381052493,0.5725364144690335
1789761161548973600,1.1789736328125,-1.265917761194706,0.20552900232970714,0.6645724547401071
1789761161559023600,1.189023681640625,-1.2667062812238932,0.20301088202893733,0.6822218009382486
1789761161569072400,1.199072265625,-0.8078203574627637,0.5666910494416951,-0.2133658334352076
1789761161579122400,1.209122314453125,1.9930483789175748,1.144227902546525,-0.3679422087714076
1789761161589172500,1.21917236328125,1.462541572535038,-0.026680501654744147,-0.6277955064848065
1789761161599221500,1.229221435546875,0.8275690140277147,-0.9036059595257043,-0.6600910715423524
1789761161609271600,1.239271484375,-0.34711657062470913,-0.3010919015526771,-0.6765911015748978
1789761161619321600,1.249321533203125,-0.2350146245330572,-0.27043431296050546,0.7302488958738744
1789761161629370400,1.259370361328125,-0.5231073437809944,0.5048123931556939,1.0105467234618961
1789761161639420400,1.26942041015625,-0.9942278952151536,0.8172346670180559,0.6449371954217553
1789761161649470500,1.279470458984375,-1.613164680200815,-0.6858230403006076,1.0062103016927837
1789761161659519500,1.28951953125,-0.7515940278500318,-0.02330196513235569,1.0649813473522662
1789761161669569500,1.299569580078125,-0.359077057531476,1.535119902011752,0.25531901528462764
1789761161679619600,1.30961962890625,-0.3641483694463968,1.5379408046513794,0.26469679222181436
1789761161689668600,1.319668701171875,0.5657154824078082,-0.6206774911731481,-0.9570518646396696
1789761161699718400,1.329718505859375,1.2561352028489112,-1.0791712007462977,0.2028567143805325
1789761161709768400,1.3397685546875,1.5510592294216154,-0.36331834836304183,1.0283270025633275
1789761161719817700,1.349817626953125,-0.8023001327365636,0.3726759592950344,0.18168050923049447
1789761161729867500,1.359867431640625,-3.8195606262445447,0.8850444669187069,-0.8716111309804022
1789761161739917600,1.36991748046875,-3.0752725374937055,1.1760860991001127,-0.5888681752625853
1789761161749966600,1.379966552734375,-0.5600573105156421,0.364300929659605,0.3016282734517008
1789761161760016400,1.390016357421875,0.6488906092226505,-0.24832886413633823,0.32514380826950073
1789761161770066400,1.40006640625,2.7428186984717846,-0.3391518753558397,-0.2691309752769768
1789761161780115700,1.41011572265625,1.0417220523178576,-0.3277940305173397,-1.325897890383005
1789761161790165800,1.420165771484375,1.5199714327186344,0.8318892153143882,-1.7986618251100182
1789761161800215600,1.430215576171875,-0.1542050578057766,0.6285065773636103,-1.8486575897701083
1789761161810264600,1.4402646484375,-1.6410089649379251,0.6710474959731102,-1.6634683417662977
1789761161820314600,1.450314697265625,-1.6381313636749981,0.6736749218672513,-1.7001979437485337
1789761161830364400,1.460364501953125,-1.8815011440992355,0.28249066145718094,-0.981317194911465
1789761161840413700,1.47041357421875,-1.7480670716434716,0.9335030851393937,-0.8520025404732674
1789761161850463700,1.480463623046875,0.21004677201509475,1.63667356608212,-0.5077858560085297
1789761161860513500,1.490513427734375,-0.30765315976440905,0.44583062735497947,-0.4225253742869943
1789761161870562600,1.5005625,1.1543021373152733,-0.5650900439858436,-0.27069756700657305
1789761161880613000,1.510613037109375,0.7297218032598495,-0.9561480476677418,-0.5169987247075886
1789761161890663200,1.5206630859375,-0.11825988419950008,-0.02917641012370586,-1.1168513083864002
1789761161900712000,1.5307119140625,-0.6562889027804136,0.619665099260211,-1.0051930874742567
1789761161910762000,1.540761962890625,-1.4345505728036165,1.337775959703326,-0.30517847674656656
1789761161920812000,1.55081201171875,-1.2919377531141043,1.1679951471030712,0.4681007286889478
1789761161930861000,1.560861083984375,0.40203123311698435,0.4817144261628389,0.6963000106513499
1789761161940911000,1.5709111328125,-0.4239262540608644,-0.23455460580587387,0.27887820658106355
1789761161950961200,1.580961181640625,-0.42727147283554073,-0.22930443019270896,0.24057054162714628
1789761161961010000,1.591010009765625,1.494367620384693,-0.35556875714957714,0.3728288848344236
1789761161971060000,1.60106005859375,0.00564063623547554,-0.15116145232617853,-0.21769483908284454
1789761161981110000,1.611110107421875,-2.4744179371654984,0.2205792719453573,-0.5169351579520851
1789761161991159000,1.621158935546875,-1.5492928042709826,0.6907710180968045,0.35565069981198755
1789761162001209000,1.631208984375,-0.9623346273481845,0.9231488643854856,0.995670787499845
1789761162011259100,1.641259033203125,-0.7311831079840659,0.3174462395042181,0.7675996984943747
1789761162021308000,1.651307861328125,0.9335621218502521,-0.26659751127660275,0.4975337804548442
1789761162031358000,1.66135791015625,-0.02640752993226051,-0.7516244229882955,-0.0007325703245587646
1789761162041408000,1.671407958984375,0.022556699723005294,0.6424538541734218,-0.04745935978395864
1789761162051457000,1.68145703125,-0.754184044343233,0.6218126326829194,0.2960104883688502
1789761162061507000,1.691507080078125,-1.314357090193033,0.48840135658085343,0.3934694487378001
1789761162071557000,1.70155712890625,0.25644787318408485,0.1573106226056814,0.3190745713584125
1789761162081606100,1.711606201171875,0.0032709844946861265,-0.6868026989877224,0.34295470170490444
1789761162091656000,1.721656005859375,0.9085878395915031,-0.27780279590189455,0.8123507674340158
1789761162101706000,1.7317060546875,-0.15567103870511054,0.1372773038804531,1.2409987162545322
1789761162111755000,1.741755126953125,-1.5650994452118874,0.1182499473273754,1.7896933596260844
1789761162121805000,1.75180517578125,-1.70696524592638,0.4450543822854757,2.28048687204048
1789761162131855000,1.761855224609375,-0.08236322591006755,0.9011737639427184,1.8031920158855617
1789761162141904100,1.771904052734375,-0.2074345436900854,0.3567974221616983,0.5824561162631958
1789761162151954000,1.781953857421875,0.09772270760536193,-0.44868309417665003,-0.12759274428272618
1789761162162004000,1.79200390625,-1.0055138438612221,-0.5043991361796856,0.006303885917179286
1789761162172053000,1.802052978515625,-0.8554892866104841,0.5956096854120493,0.5122951501265168
1789761162182103000,1.81210302734375,-0.8464221830576658,0.5871253501832485,0.5237412943029776
1789761162192153000,1.822153076171875,-0.15448679735660553,1.1180746396362782,0.9179317873243242
1789761162202202000,1.8322021484375,0.7683277205079794,0.29429508101940155,0.7247269175820052
1789761162212252200,1.842252197265625,1.4117360989272594,-1.5049866295546293,-0.08184194198232143
1789761162222302000,1.852302001953125,1.5518740529358386,-1.5266969415813683,-1.6382753021903336
1789761162232351000,1.86235107421875,1.0653916817188263,-0.7640548654943704,-3.206498870772123
1789761162242401000,1.872401123046875,-0.27391572533547875,-0.5377250671982765,-3.2463682320848104
1789761162252450800,1.882450927734375,0.3639835342735052,-0.1539654038310051,-0.7177551788732409
1789761162262500000,1.8925,1.2355208693653343,-0.09129822751581668,2.62260884924829
1789761162272550100,1.902550048828125,1.5012018503189086,0.32190964865386484,3.1920009743422266
1789761162282600200,1.91260009765625,-1.1676941183298826,-0.03369827146232128,0.20104856898002324
1789761162292649000,1.92264892578125,-1.8831500803500414,-0.09823708686828612,-2.678658068728447
1789761162302699000,1.932698974609375,-1.633314318782091,0.3534510343432426,-2.734440453965962
1789761162312749000,1.9427490234375,-0.2552396664381027,-0.2951601734161377,0.29508626792971043
1789761162322798000,1.952798095703125,2.3127111254274846,-0.8654881180554628,3.5035327291056513
1789761162332848000,1.96284814453125,0.2997293810278177,-2.258523608165979,2.9070544441655275
1789761162342898200,1.972898193359375,0.42853871629238127,-0.5571516522020101,-0.7859729750528931
1789761162352947000,1.982947021484375,-1.8617559946656226,0.43333997909426686,-4.098813328693807
1789761162362997000,1.9929970703125,-0.8203606900840997,1.1050649359375238,-3.5415877344727513
1789761162373047000,2.003047119140625,1.738491434046626,1.6018518435478208,-0.6229147487059236
1789761162383096000,2.013095947265625,3.1292198162585496,-0.7406032627582549,0.8782106023106724
1789761162393146000,2.02314599609375,1.8067717740684746,-2.4292267963081597,-1.1493548171062022
1789761162403196200,2.033196044921875,-0.7190893500864506,-2.2515216204494237,-4.65125051959455
1789761162413245000,2.043244873046875,1.0137281299769878,-0.2842968340963125,-5.047185773923993
1789761162423295000,2.053294921875,-0.5112871421277523,0.9054945497512816,-3.0582077131852508
1789761162433345000,2.063344970703125,-0.20576456465125081,1.1489338882803917,0.8045341753989458
1789761162443394000,2.07339404296875,-0.21087445501089094,-0.28331951349675655,3.2613711554273963
1789761162453444000,2.083444091796875,-0.5562076493501663,-1.3426742531388998,1.6366092686742544
1789761162463494100,2.093494140625,-0.6573720218420028,0.4176011426925659,-2.256748707447946
1789761162473543000,2.10354296875,-1.8012807754367588,1.818821108302474,-4.523603213846683
1789761162483593000,2.113593017578125,-0.292684723213315,2.7857530003130435,-3.0732644125416875
1789761162493643000,2.12364306640625,0.03199672824144363,1.4619143805474042,-0.2823130033353343
1789761162503692000,2.133692138671875,-1.2284241891026497,0.8106114494860172,0.722643608501926
1789761162513742000,2.1437421875,-2.4165859259217974,1.0289970107793807,-0.691235932194814
1789761162523792100,2.153792236328125,-4.0474575277268885,0.8696066592901944,-2.774472604624927
1789761162533842200,2.16384228515625,-2.149312707340717,0.7268067925959825,-2.4976564816728235
1789761162543891000,2.173890869140625,0.3099678664475679,0.5884902087956667,0.49019572918433696
1789761162553941000,2.18394091796875,2.254534830790758,-0.49447512353658674,3.717112059161067
1789761162563991000,2.193990966796875,2.2437504019260404,-0.4840203650176525,3.6874841058775782
1789761162574040000,2.2040400390625,0.6284370192587375,-1.3378192143231629,2.250634170090407
1789761162584090000,2.214090087890625,-1.0759773731410502,-0.21389643318057058,0.09094179702727123
1789761162594140200,2.22414013671875,-0.9770856217563152,1.1416460693597792,-0.5619995306245983
1789761162604189200,2.234189208984375,-0.9812041629910468,1.1461796211361885,-0.592740340520814
1789761162614239000,2.244239013671875,1.671233422809839,0.3310480638772249,1.2292433965310454
1789761162624289000,2.2542890625,2.3394331281363963,-1.3459452376335859,0.5735001084020361
1789761162634338000,2.264338134765625,0.9428700484216213,-2.294954519462585,-1.6824626728326082
1789761162644387800,2.274387939453125,-0.8101812413752079,-2.1858587694495917,-3.3606951607495543
1789761162654438100,2.284438232421875,-1.41322721426785,0.468138905274868,-3.406918275003135
1789761162664487200,2.294487060546875,-2.3133932624727485,2.323997074073553,-2.402525251865387
1789761162674537000,2.304536865234375,-1.2143401341706515,1.767729218968749,-0.9043966715119779
1789761162684587000,2.3145869140625,1.0701450137257575,0.5040764800965786,0.4721100008629262
1789761162694636000,2.324635986328125,1.6011340506672858,-1.6117548134028912,1.0881133627451955
1789761162704686000,2.33468603515625,2.467255205929279,-1.9218208795279264,1.3213745677396653
1789761162714735900,2.34473583984375,2.4911773487865925,-1.9428490545094013,1.3232332012183963
1789761162724785200,2.35478515625,-1.3969640617311,0.6737485716253518,0.011527328787045552
1789761162734835200,2.364835205078125,-3.663746379676461,1.654751074564457,-0.1905884401662275
1789761162744885000,2.374885009765625,-2.4268939694464207,1.8446710043519734,0.3520376969465986
1789761162754934000,2.38493408203125,-2.4429051930487153,1.859015756046772,0.3423225047485903
1789761162764984000,2.394984130859375,2.673058933547139,-0.34673487783074375,1.4413421326398848
1789761162775033900,2.405033935546875,3.7163819913208482,-1.2928402549117803,1.5931902520559726
1789761162785083100,2.415083251953125,3.2026135537713762,-1.6285907973915337,1.5735715054810047
1789761162795133200,2.42513330078125,-0.14800094246864318,-1.2575982611387968,1.2310806949608026
1789761162805183000,2.435182861328125,-2.512369774419069,0.4523433702498674,0.5825870491664856
1789761162815232000,2.44523193359375,-3.097890612015128,1.330411568415165,-0.2854641608426347
1789761162825282000,2.455281982421875,-0.8284913895696401,1.0077975708842277,-1.1010850725211203
1789761162835332000,2.46533203125,2.0930209112763403,-1.1750813059717415,-1.4164518754027784
1789761162845381000,2.475381103515625,2.7903555256724357,-2.936252189338207,-0.4880076080229133
1789761162855431200,2.48543115234375,2.791063966202736,-2.936661939182877,-0.5021547182537615
1789761162865481200,2.495481201171875,-0.3585656008780002,-0.10979951436817645,1.8160167184062301
1789761162875530000,2.505530029296875,-1.9658651884377,2.2900305070638654,0.40845337511897084
1789761162885580000,2.515580078125,-1.8068331488668918,2.044794348245859,-1.291977208341658
1789761162895629800,2.5256298828125,-1.8493880960017441,2.082139451777935,-1.2756976891919969
1789761162905679000,2.53567919921875,2.6263544655174016,-3.1815316027760505,-0.48474374738875775
1789761162915729200,2.545729248046875,3.40249841273427,-3.3680285723775625,1.4639058466255663
1789761162925779000,2.555779052734375,1.9226631755709647,-1.1819126132965088,2.738389776113629
1789761162935828000,2.565827880859375,-1.1727274363219737,2.5983161195129156,2.3361231268055738
1789761162945878000,2.5758779296875,-2.3450392775803803,3.751660809972882,0.6066658438902348
1789761162955927800,2.585927734375,-2.6884114009797573,1.3298393214851616,-1.3266224052652715
1789761162965976800,2.595976806640625,-2.8114918372035027,-1.7252940988212824,-2.0125535821154714
1789761162976027100,2.606027099609375,-0.9008943624794483,-2.1958324664533135,-0.6346282751142979
1789761162986077200,2.6160771484375,2.870117629173398,-0.1338134271621704,1.4507957512922585
1789761162996126000,2.6261259765625,2.3803619353741405,0.7906073568552732,1.8324217636317013
1789761163006176000,2.636176025390625,0.5785094975292683,0.8247662315666675,0.7142805615652352
1789761163016226000,2.64622607421875,-0.240927063447237,0.5824743095070123,-0.11425221946071833
1789761163026274800,2.65627490234375,-0.24418285037279128,0.5843488712072372,-0.09547350390646606
1789761163036324900,2.666324951171875,-1.858674395263195,0.04014905503690243,-0.2537768273439258
1789761163046375000,2.676375,-1.539478681743145,0.5304354947119951,0.7573734880343079
1789761163056424000,2.686423828125,-1.541183147573471,0.5309516275405883,0.7740698443565517
1789761163066474000,2.696473876953125,1.2593430589795112,0.35167174971103665,-0.04841379269827157
1789761163076524000,2.70652392578125,0.5167360551834106,-0.878973622572422,-0.573576644236967
1789761163086572800,2.71657275390625,0.3093792529046535,-0.8559247554183006,-0.20166206123586744
1789761163096622800,2.726622802734375,-0.08814122478961944,0.4541775999397039,0.08649930280148982
1789761163106673000,2.7366728515625,-1.5377520040810106,1.3068968373149632,-0.2715382921470329
1789761163116722000,2.746721923828125,-0.7887707890778779,0.8242740641355514,-0.6572183656502515
1789761163126772000,2.75677197265625,1.7653414470493793,0.5167050755232572,-1.08576658042334
1789761163136822000,2.766822021484375,1.748679650583863,0.5306032524943352,-1.0761424275096505
1789761163146870800,2.776870849609375,-0.34249124891161914,-0.7804115415334701,-0.9768825734648853
1789761163156920800,2.7869208984375,-0.47847792845964426,0.7100315988838672,0.3774610381470993
1789761163166971000,2.796970947265625,-1.689904221010208,2.065031080588698,0.8536378135249019
1789761163177020200,2.807020263671875,-1.8944015422046183,2.422394319939613,0.32885307458359747
1789761163187070000,2.817070068359375,-1.906588239082694,2.4321716175884007,0.3422416945973411
1789761163197120000,2.8271201171875,0.12162030054330825,-0.754779087626934,-0.5347823282772675
1789761163207169000,2.8371689453125,0.11030921745598316,-0.7445996389180422,-0.5377335062330588
1789761163217218800,2.84721875,-0.3468511976867914,-0.6169207689881324,0.03298537395261228
1789761163227268900,2.857268798828125,-0.32999241734445095,-0.6321545784771442,0.03728712626714259
1789761163237318100,2.867318115234375,0.8298644314885139,1.5953846933603286,-0.09291348069272935
1789761163247368000,2.877367919921875,1.2128197927355766,0.47281098873913285,-0.17391604924146084
1789761163257418000,2.88741796875,1.1927169159054756,0.4905290162593126,-0.17428824355471878
1789761163267467000,2.897467041015625,0.7981506118416786,-2.2461089477509257,1.1765519630461931
1789761163277517000,2.90751708984375,0.8187327966213226,-2.2638556168437,1.1726739525690675
1789761163287566800,2.91756689453125,-0.03539864563941955,-0.7026420731544494,1.845815936603397
1789761163297616100,2.9276162109375,-0.6340373234838247,1.8100784143984316,0.019619477227330206
1789761163307666200,2.937666259765625,-0.08944353955984115,-0.42680560888946056,-0.5724301776155829
1789761163317716000,2.947716064453125,2.387479658424854,-2.5535996104300023,0.6410771589927375
1789761163327765000,2.957764892578125,3.068022127974033,-2.5811387747406958,1.8432737047746777
1789761163337815000,2.96781494140625,1.060783895662427,-1.4367156418830156,1.3093505140773951
1789761163347864800,2.97786474609375,-0.2232762559443712,0.9057675214737653,-0.27802432969808577
1789761163357913900,2.987913818359375,-2.3808044184446335,2.7442478544920683,-1.6625050496920943
1789761163367964000,2.9979638671875,-2.283160621294379,2.8187247110664844,-1.4111416401654482
1789761163378014000,3.008013916015625,-2.1196026287317276,1.029416112974286,0.14731420231349765
1789761163388063000,3.01806298828125,-2.1315403192847966,1.040287051078677,0.1445028712198138
1789761163398113000,3.028113037109375,0.12183072842359542,-0.7789332856744527,0.16650785534419119
1789761163408163000,3.0381630859375,1.2948942648321389,-0.7552771002769469,-1.0357555451288818
1789761163418211800,3.0482119140625,1.5973036787241697,-0.6746978351742029,-1.443447288225591
1789761163428262000,3.058261962890625,1.452285551458597,0.1670271299779415,-0.8651135125894099
1789761163438312000,3.06831201171875,1.6415829654335974,0.43152270053923125,-0.1118177223227918
1789761163448362000,3.078362060546875,-0.5775491280645132,-0.4697159453332424,-0.6223091840282082
1789761163458411000,3.088410888671875,-1.815367168456316,-1.330278881946206,-1.8454044331930577
1789761163468461000,3.0984609375,-1.091981582480669,-0.46174832745492456,-2.3634862038969993
1789761163478510800,3.1085107421875,0.20269582473039627,0.9841559985339641,-2.17910987971127
1789761163488559900,3.118559814453125,0.20421733520925045,0.9852888019561767,-2.2073021011032163
1789761163498610000,3.12860986328125,2.722580212563276,0.5373685088455676,-1.2965091526828705
1789761163508660000,3.138659912109375,1.5639911917090414,-1.4455682259023188,-1.4837196773812174
1789761163518709000,3.148708984375,-1.7183406264215706,-2.181174995547533,-1.8765157569020985
1789761163528759000,3.158759033203125,-1.5897539939969778,-0.40644495790600776,-1.8399390073940156
1789761163538809000,3.16880908203125,-1.877227120041847,1.0952017135709524,-1.8178654150128364
1789761163548857900,3.17885791015625,0.7266705989956855,2.1793670693427325,-1.106419127025455
1789761163558908000,3.188907958984375,2.3462217653632162,-0.12885375892817974,0.1917840431589633
1789761163568958000,3.1989580078125,3.4261809016168114,-2.0291502043902874,0.8624994576334952
1789761163579007000,3.209007080078125,1.1570686794191598,-2.2858441612899303,0.09918415846005081
1789761163589057000,3.21905712890625,-2.010517400112748,0.031413959917426106,-1.2801748346060513
1789761163599107000,3.229107177734375,-3.6866526234894987,2.4353812272846698,-1.6999666192106901
1789761163609155800,3.23915576171875,-2.2573411203831433,2.2840081780344246,-0.5448043579347431
1789761163619206000,3.249205810546875,-0.21145430072546004,0.32954408905506133,1.433996299921721
1789761163629256000,3.259255859375,2.3563550368428228,-1.0144295562446117,2.2750170623272656
1789761163639305000,3.269304931640625,1.4869535447359084,-1.851701049119234,1.8434747803047298
1789761163649355000,3.27935498046875,1.3457593596726656,-0.9231307442069053,1.789969400088489
1789761163659405000,3.289405029296875,-0.4308627753257751,1.1196902581393717,1.4478370476171374
1789761163669453800,3.299453857421875,-1.995802646061778,2.1035727004289626,0.06942094315802678
1789761163679504000,3.30950390625,-1.9965835673063992,2.1039941407114267,0.08256817389763892
1789761163689554000,3.319553955078125,-0.48716743087172504,-0.3611217151015997,-1.5088890438206493
1789761163699603200,3.329603271484375,0.8087363032639027,-0.32076866192519665,-0.4053093049395829
1789761163709653000,3.339653076171875,1.6963924139857292,0.0005348375290632248,1.1346638092570007
1789761163719703000,3.349703125,2.2548767760962245,0.9345996482044457,1.1779736664123832
1789761163729752000,3.359751953125,-2.573967860198021,0.5975543897390365,-0.6976598277624696
1789761163739801900,3.3698017578125,-2.557514738047123,0.5826823992997407,-0.6967611253570765
1789761163749852000,3.379851806640625,-4.6596553598463535,0.6256184547066688,0.3034156683251262
1789761163759901000,3.38990087890625,0.19965397281646727,0.8996908319085836,1.9238883334517478
1789761163769951000,3.399950927734375,2.1782845348030326,-0.9933324076801537,1.7983920682579277
1789761163780001000,3.4100009765625,4.535917336496711,-1.5962936248987911,0.7315431734681129
1789761163790050000,3.420050048828125,3.4444168155312536,-1.60278590952754,0.0013198960926849395
1789761163800099800,3.430099853515625,0.3615741350442171,-0.9825976631760597,-0.09876838986654765
1789761163810150000,3.44014990234375,-1.2453823381662368,0.12148469146490096,0.30245511619728055
1789761163820199000,3.450198974609375,-3.498877889037132,-0.09639584291577338,0.9209424403823911
1789761163830249000,3.4602490234375,-0.5694669438958168,-0.037381343889236446,1.4714572849184273
1789761163840299000,3.470299072265625,2.2669033139765262,-0.6629606356292963,1.741246724104136
1789761163850348000,3.48034814453125,3.107929775470495,-1.8480349278271198,2.2696381457678974
1789761163860398000,3.490398193359375,3.2291414952129123,-1.3285007663577795,2.899461504818499
1789761163870447900,3.50044775390625,-0.49535073732733725,-0.4262333619594574,2.951436022205651
1789761163880497000,3.510496826171875,-2.310094805449247,1.1214157667577267,1.918486036016792
1789761163890547000,3.520546875,-2.300221646210551,2.469946929231286,-0.2810880281176418
1789761163900597000,3.530596923828125,-1.885561817666888,1.3891945967733859,-2.1551073650941253
1789761163910646000,3.54064599609375,-0.49679158378541466,-0.912085034057498,-2.040190069320798
1789761163920696000,3.550696044921875,1.1049871945261955,-2.0871447127193212,-0.3632024668984115
1789761163930746000,3.56074609375,1.930458359491825,-0.6409551400482654,0.6390026177410036
1789761163940795000,3.570794921875,0.7145411852627992,1.6232558661043643,0.10141557077392935
1789761163950845000,3.580844970703125,-1.1784434758812188,1.9253473000884056,-0.5077487754011526
1789761163960895000,3.59089501953125,-0.6454518669456243,1.3140297579348086,-0.13091609828546644
1789761163970944300,3.6009443359375,-0.6661942107230424,1.3315665836691855,-0.11868760809227824
1789761163980994000,3.610994140625,-0.02864917137920856,-1.427033621302247,2.066075621205568
1789761163991044000,3.621044189453125,-0.3619084815651178,-1.3711755404800177,2.1573639118492602
1789761164001093000,3.631093017578125,-0.5540536861866713,0.49080081893801686,0.8787292193572968
1789761164011143000,3.641142822265625,-1.2307757206648589,0.7118769344896078,-0.6226488643113524
1789761164021193000,3.65119287109375,0.38456864166259763,0.30087855106294153,-1.0847846567139028
1789761164031242200,3.6612421875,0.7276578564673661,-0.7243500470936298,-0.8586769036706536
1789761164041292000,3.6712919921875,0.4685252742439508,-0.7950164054691791,-0.5146717430647463
1789761164051342000,3.681342041015625,1.3940250856697558,0.5850865378320217,-0.902196019662544
1789761164061391000,3.69139111328125,0.23871990879178046,0.5748503904998302,-2.063397634167969
1789761164071441000,3.70144091796875,0.23023849617242811,0.35177287199795243,-2.0472769588418305
1789761164081491000,3.711490966796875,0.7438625568151473,0.6772983730614185,-0.963255979976803
1789761164091540200,3.721540283203125,-0.3143716543644666,0.8229074519574642,-0.5230915616899728
1789761164101590300,3.73159033203125,-1.333881874874234,0.2660463071346283,-0.37236974289007485
1789761164111640000,3.74164013671875,-0.1571329279512167,-0.009838087925314903,-0.23101335300244388
1789761164121689000,3.751689208984375,0.8856243126332759,-0.24959844568073747,-0.6566610240284353
1789761164131739100,3.7617392578125,0.2692629310935736,-0.6096423024177551,-1.1862947008382527
1789761164141789000,3.771788818359375,0.4312772013455629,0.022051088288426397,-0.94930680347085
1789761164151838000,3.781837890625,-1.1029437059998513,1.3918120857954024,-0.6954929320521652
1789761164161888000,3.791887939453125,-1.4363701894462109,1.125760517963767,-0.638162002198398
1789761164171938000,3.80193798828125,-0.31687925327122207,0.48487435149848457,-0.6711252373844385
1789761164181988000,3.811988037109375,-0.3284516176432371,0.4961842655420303,-0.6844503637079149
1789761164192037000,3.822037109375,0.011166706180572509,-0.39852468630075455,-1.5561406243391334
1789761164202087200,3.832087158203125,0.9333183762222528,-0.5357394463390112,-0.669221011198312
1789761164212137000,3.842136962890625,-1.377280871617794,-1.01629768820405,0.5450044836167246
1789761164222186000,3.85218603515625,-1.3675111727535725,-1.0234095660358666,0.5182443408545107
1789761164232236000,3.862236083984375,-0.47673839131593704,0.8295832764595746,0.6478323323413729
1789761164242286000,3.8722861328125,0.5598439600259065,1.3191215281158686,-0.9105668115142732
1789761164252335000,3.882335205078125,1.4597861363470555,-0.1525876857370138,-1.4476825877077877
1789761164262385200,3.89238525390625,1.4055401668965817,-2.043781956332922,0.12481445694211869
1789761164272435000,3.90243505859375,1.258534080684185,-2.400633739030361,2.501435707950592
1789761164282484000,3.91248388671875,0.18058862234055995,-0.2122702932834625,2.6205264900162812
1789761164292534000,3.922533935546875,-1.796423983055353,1.882749682855606,0.21152064395993947
1789761164302583800,3.932583740234375,-2.9391876582682133,1.8079408178478478,-1.8739051360122858
1789761164312633000,3.942633056640625,-1.6574626716107128,0.295717222777009,-1.795663520076871
1789761164322683100,3.95268310546875,-1.2193617617249488,-0.9049386694341898,-0.03919507878031581
1789761164332733200,3.962733154296875,0.21893150473833084,-0.83893562669456,2.2263081226073203
1789761164342782000,3.972781982421875,2.5345868669241667,0.267993934071064,3.0888933588281273
1789761164352832000,3.98283203125,0.3194511495858431,0.708372141239047,1.2171117908410727
1789761164362882000,3.992882080078125,0.3041699938237667,0.8380565057724714,-1.1972730448398738
1789761164372931000,4.00293115234375,-1.5580442660033702,-0.0006289455533027648,-1.8555898732513187
1789761164382981000,4.012981201171875,-0.7904448597699403,-0.06443710859715938,-0.015087350223027169
1789761164393031200,4.02303125,-1.5941192034691571,0.7903799778401851,2.2176979690417644
1789761164403080000,4.033079833984375,0.052660746085643764,1.9021558095932005,3.0847566974148153
1789761164413130000,4.0431298828125,-0.42503743017315865,1.127912727561593,1.3820447250187395
1789761164423180000,4.053179931640625,-0.7826730567246675,-0.3012894699513912,-1.4658914674848318
1789761164433229000,4.06322900390625,-1.0623667809396982,-0.6096814653843641,-2.4436375989764927
1789761164443279000,4.073279052734375,-0.3779465931743383,-0.03744973295032978,-0.8384683014437556
1789761164453329200,4.0833291015625,1.6393804869532584,1.2132242818832397,1.2712766578793524
1789761164463378000,4.0933779296875,1.4254314468026161,-0.051987961390614505,1.4505240947440265
1789761164473428000,4.103427978515625,0.11197802745103835,-1.332194360178709,-0.08905260401349514
1789761164483478000,4.11347802734375,-0.6852958015561104,-1.018808209720254,-1.4198539389312266
1789761164493527000,4.123527099609375,-1.2297235812634228,0.3410001335710287,-1.1554496999152004
1789761164503577000,4.1335771484375,0.9990104533165692,1.4709534270495175,0.33799028423056005
1789761164513627100,4.143627197265625,0.18198913678824902,-0.4941027830928564,1.176932486796379
1789761164523676200,4.15367626953125,0.02889057891964912,-2.2095202155441043,1.6212170537531374
1789761164533726000,4.163725830078125,1.0925462306261062,-1.7568810772180556,2.1462737780362366
1789761164543776000,4.17377587890625,1.6988029822587967,0.2256166815906763,1.4045551013819872
1789761164553825000,4.183824951171875,0.1273562138468027,1.4051017754793167,-1.1246700923785566
1789761164563875000,4.193875,0.13375146784186362,1.3965075501352548,-1.0852867610171437
1789761164573925000,4.203925048828125,-2.0430325992703438,0.12489186955988406,-0.6647243573661893
1789761164583974100,4.21397412109375,-1.5122762020409106,0.5338958642989396,2.9243294040933248
1789761164594024000,4.22402392578125,0.3540986845970154,0.5007973122954368,4.521779505550861
1789761164604074000,4.234073974609375,0.8029653186470269,-0.8700169936567544,2.118183994105458
1789761164614123000,4.244123046875,2.1532512158334254,-1.5718524266034364,-2.1194386703416703
1789761164624173000,4.254173095703125,1.3510025210231542,-1.4925520953953266,-4.440632961954176
1789761164634223000,4.26422314453125,0.9547802664458751,-0.9096493313431739,-3.426500927351415
1789761164644272000,4.274272216796875,-0.13452186769247054,0.6761860279053449,-0.5823501716706901
1789761164654322200,4.284322265625,-2.3007108910322187,0.8738713309973478,1.547768663443625
1789761164664372000,4.2943720703125,-0.8815449343651532,0.7496592603951692,1.6634737485937774
1789761164674421000,4.3044208984375,0.6409814435333013,-0.5744108300387859,0.1907921095121652
1789761164684471000,4.314470947265625,1.5496534542769194,-1.425318049556017,-0.8972191080328077
1789761164694520800,4.324520751953125,0.57641749368608,-0.09492401679754256,-0.7307954238407314
1789761164704570000,4.334570068359375,0.9935814140051603,1.1037205355912447,-0.27209830064997076
1789761164714620200,4.3446201171875,-1.8995733918845652,0.8102735958337783,-0.734151164009422
1789761164724670000,4.354669921875,-0.44293958208858963,0.8497089496433734,-1.0444337954945861
1789761164734719000,4.364718994140625,-0.7248948214948177,0.11917232286930084,-1.0634336795188486
1789761164744769000,4.37476904296875,-0.006819032365083694,-0.5909726732611655,-1.1188195397194474
1789761164754819000,4.384819091796875,-0.15266016645133496,0.09344809902608395,-1.4590738964244723
1789761164764868000,4.3948681640625,1.035744146952033,0.04463701410591602,-1.282995152723789
1789761164774918100,4.404918212890625,1.0217693976134061,0.05829904423356056,-1.2990462699450551
1789761164784968200,4.41496826171875,0.5066553906738758,-1.195498655578494,-0.14854626485910266
1789761164795017000,4.425016845703125,0.5147106868356466,-1.2024544660657643,-0.15087277157790957
1789761164805067000,4.43506689453125,-1.4103274011731146,0.16004150887429713,-0.7123715861387551
1789761164815117000,4.445116943359375,-0.6912152547329664,1.6258143184155225,-0.6237780875369906
1789761164825166000,4.455166015625,0.3344172480493784,0.8751280530601739,0.7822197599992156
1789761164835216100,4.465216064453125,1.360033384218812,-0.6876490866839885,2.187956764642149
1789761164845266200,4.47526611328125,0.7525263402640819,-1.3204706046372652,2.122004575306922
1789761164855315000,4.48531494140625,-0.5097065949380397,-0.2464525488704443,0.6350197586499154
1789761164865365000,4.495364990234375,-2.952220742842555,0.5646563287436962,-1.0755929769333452
1789761164875415000,4.5054150390625,-1.5233768572479485,2.377802314019203,-1.3338972185738385
1789761164885464300,4.51546435546875,1.9272294605731963,2.2103812162876126,-0.2436003377771005
1789761164895513600,4.525513671875,1.8829969356149434,2.2511545407027005,-0.26773126454688606
1789761164905563600,4.535563720703125,2.50707166801095,-3.1550609444797035,0.692464524141699
1789761164915613700,4.54561376953125,-0.5315589457839727,-3.0731600753843784,-0.5309007741361856
1789761164925662500,4.555662353515625,-2.9110838458120822,0.5262783750325442,-2.0322430558390914
1789761164935712500,4.56571240234375,-2.692010886776447,3.346611690339446,-2.175581997846067
1789761164945762600,4.575762451171875,-0.5300257448673248,2.3421821345835925,-0.810330002196133
1789761164955811600,4.5858115234375,-0.5799690486878156,2.3886089547157288,-0.8435985770042985
1789761164965861600,4.595861572265625,2.3835329666256904,-2.3355986645400524,1.253664428821206
1789761164975911700,4.60591162109375,1.925918962496519,-2.318726440194249,0.19351240132153033
1789761164985960400,4.61596044921875,-0.6946043126493692,-0.2255775186240673,-1.4418652797311544
1789761164996010500,4.626010498046875,-2.19281750254631,1.7666800021767615,-2.135146234822273
1789761165006060500,4.636060546875,-1.5942945600360632,2.2325714207857845,-1.2478683097630738
1789761165016109600,4.646109619140625,-1.277866557663679,0.8409440439075231,0.8411607553981244
1789761165026159600,4.65615966796875,1.7190139956384896,-0.24501637858748435,2.3149843310564755
1789761165036209700,4.666209716796875,0.38743046083450317,-1.366131701093912,1.551995487358421
1789761165046258400,4.676258544921875,-0.017958266016840935,-1.1326187132954597,0.03989522640630603
1789761165056308500,4.68630859375,-1.0216256052285433,-0.08820844480693339,-0.4265452774528414
1789761165066358500,4.696358642578125,-1.36423317399621,1.8503239155471325,0.5538946231674403
1789761165076407600,4.706407470703125,-0.24835867475271223,1.9417559985756874,1.7199641359701752
1789761165086457600,4.71645751953125,0.4071580746114254,0.8112041546821593,1.6496160497635601
1789761165096507600,4.726507568359375,-0.9167495187371969,-1.2821440888524054,0.7109582122094928
1789761165106556700,4.736556640625,-0.05269581739902496,-1.8504472496658562,0.5530371295552701
1789761165116606500,4.7466064453125,1.1328478458762168,-0.4887456399738788,0.7183961071252822
1789761165126656500,4.756656494140625,-0.07497837635576725,1.5055723204880953,0.20215824725497514
1789761165136705500,4.76670556640625,-0.526019431835413,1.577593600603938,0.10175094020813703
1789761165146755600,4.776755615234375,-0.9035141895890235,-0.1457820973753929,0.37202487497515974
1789761165156805600,4.7868056640625,-1.97369836628139,-1.4470494043707847,0.08780793771464378
1789761165166854700,4.796854736328125,0.03270575329363346,-0.503568530574441,-0.34786574502419676
1789761165176904400,4.806904541015625,-0.42098552443385123,-0.1516653101950884,-1.129405742598325
1789761165186954500,4.81695458984375,-0.2891197242081165,1.2144342421948908,-1.587190865510702
1789761165197003500,4.82700341796875,0.7838456076353788,1.4792659128427506,-0.5658847380274906
1789761165207053600,4.837053466796875,1.7655840236335991,-0.1271779346704483,0.8137490168593824
1789761165217103400,4.847103271484375,1.391936004436016,-1.1644915228962898,0.4493346168879419
1789761165227152600,4.857152587890625,-1.6582079370200633,-1.394127377000451,-1.5993910063922405
1789761165237202700,4.86720263671875,-5.272326654696465,0.3517909921765327,-3.116219757170975
1789761165247252500,4.87725244140625,-2.838468106934428,3.339308089327812,-1.9144447978019714
1789761165257301500,4.887301513671875,1.6679688680559395,2.95448634968698,1.0061289070196449
1789761165267351600,4.8973515625,0.38222821601629253,-1.4186293655723332,2.2880200440242886
1789761165277401300,4.9074013671875,1.283168755725026,-1.6935481304705142,0.989168419868499
1789761165287450600,4.91745068359375,-0.3477496078312397,-1.8119553141862152,-1.8325993121556936
1789761165297500700,4.927500732421875,-2.0342565876185894,0.6481576187729835,-3.2757062625110147
1789761165307550500,4.937550537109375,0.7137877365469932,3.730153911563754,-2.1749356627665457
1789761165317599500,4.947599609375,1.1432026511520146,3.812711783263087,-0.8439449062239378
1789761165327649500,4.9576494140625,3.588148410117626,0.9618407063513994,-0.06873482405738905
1789761165337699600,4.967699462890625,3.3378467846035957,-2.091400616598129,-0.2901000222160481
1789761165347748600,4.97774853515625,-0.8294313007682561,-2.729490430343151,-1.2323168126270174
1789761165357798700,4.987798583984375,-4.210643764367699,-0.7880845603793859,-1.3458055369019508
1789761165367848700,4.9978486328125,-6.90485011536181,0.7854495357006788,-0.07983241052450611
1789761165377897500,5.0078974609375,-4.023561103832721,3.3376065461069344,1.7831585510298609
1789761165387947500,5.017947509765625,1.9510861369788646,3.8564690919250246,2.49445505528301
1789761165397997600,5.02799755859375,4.369898506778479,-0.5506114367783069,1.4393383916020392
1789761165408046600,5.038046630859375,5.456975366082787,-4.583819489878416,0.023442615712061524
1789761165418096600,5.0480966796875,4.16164855505228,-5.683865720871091,-1.5470063007690011
1789761165428146700,5.058146728515625,-0.8274445108652114,-2.414284078720212,-3.3568548519343135
1789761165438196700,5.06819677734375,-4.897425420567393,3.3852368968099356,-3.4468694693803785
1789761165448245500,5.07824560546875,-3.6638685447514057,5.653879163408279,-0.4590064814008772
1789761165458295600,5.088295654296875,-1.0192021774739026,2.3339725246429444,1.9261530635133384
1789761165468344600,5.098344482421875,-0.6783411601126194,-1.2466197710067033,1.0932548172868788
1789761165478394600,5.10839453125,-1.5392776062130926,-3.2887428542166948,-0.20401061538970097
1789761165488444700,5.118444580078125,1.0888011988788842,-1.220377660769224,0.23865992223285137
1789761165498494700,5.12849462890625,1.5135504597604275,0.007117723050713539,0.5009082983892411
1789761165508543500,5.13854345703125,-1.3730997865408658,1.0550029741734266,-0.37793526806272565
1789761165518593500,5.148593505859375,-0.8846347170740365,1.4630588744074104,-0.45199747942164537
1789761165528643600,5.1586435546875,-1.0558388404756784,-0.42816345323920246,0.5933231088448315
1789761165538692400,5.1686923828125,-6.0275137386024,-2.369083000990748,0.916559987514466
1789761165548742700,5.17874267578125,-3.2016566914379596,0.31825930945277214,0.556511819928512
1789761165558792700,5.188792724609375,-0.40450142262279987,1.6493004079431295,-0.4204026099793613
1789761165568841500,5.198841552734375,2.816608157303929,1.2197317640811205,-0.6815501122217625
1789761165578891500,5.2088916015625,9.144612324434519,0.5925853691548109,0.3110476975735277
1789761165588941600,5.218941650390625,8.777823669612408,-3.281916223067045,0.38655196096692235
1789761165598990300,5.228990234375,4.233215661659837,-4.415035871621966,-0.44119639168307184
1789761165609040400,5.239040283203125,1.2700199358165263,-0.5121674320936203,-0.8604978354874998
1789761165619090400,5.24909033203125,-4.060688180699945,4.315926678094268,-0.495471952554211
1789761165629139700,5.2591396484375,-7.376254744434356,7.728064441311359,1.0702516159053892
1789761165639189500,5.269189453125,-6.1400897319465875,5.872890163123607,3.0300334658414125
1789761165649239600,5.279239501953125,-1.059562244912982,-0.08092062588632107,3.5972727968156337
1789761165659288600,5.28928857421875,1.1589841576516628,-4.672161205676198,1.5417860819026827
1789761165669338400,5.29933837890625,-2.8605975211560724,-5.219625576600432,-1.3306927234441042
1789761165679388400,5.309388427734375,-2.7889193553894756,-5.283818939569592,-1.3143304944470524
1789761165689437700,5.319437744140625,1.1375327888220548,6.086098614040017,-0.3148243665680289
1789761165699487500,5.329487548828125,6.34294220854342,4.201078648164868,1.1597529500670731
1789761165709537500,5.33953759765625,8.14554283440709,-2.123762086498737,0.6931311713568866
1789761165719586600,5.349586669921875,6.7956514894962305,-7.24573509812057,-1.5554213701538742
1789761165729636400,5.35963623046875,-3.783196350443363,-8.309307163196802,-3.31184023668766
1789761165739686400,5.369686279296875,-7.61161072975099,-0.5398363602638244,-2.312100300052762
1789761165749735700,5.379735595703125,-9.62984615689516,8.11116944016218,-0.15425353659000246
1789761165759785700,5.38978564453125,-2.5550275974065064,10.301683926463127,1.5712841251961887
1789761165769835500,5.39983544921875,2.71341607837677,2.996781184580922,2.1582764966495334
1789761165779884500,5.409884521484375,8.878382477426529,-4.9460155562132595,2.388618453196436
1789761165789934600,5.4199345703125,14.733996511578558,-6.235898130363226,1.580438614771515
1789761165799984400,5.429984375,15.250867006796598,-3.8143659802109,-0.8406858313627541
1789761165810033700,5.44003369140625,15.361534536170959,-3.9124697960883377,-0.7976186238568276
1789761165820083700,5.450083740234375,-12.718233027505875,2.896666028881073,-5.340115996330976
1789761165830133500,5.460133544921875,-15.818773277246951,7.270376787424087,-2.7545865854158995
1789761165840182500,5.4701826171875,-25.75702253549099,3.3402491695702072,-0.4185481777517125
1789761165850232600,5.480232666015625,-7.693231612861156,4.858450670006871,1.9393920459233223
1789761165860282600,5.49028271484375,7.501353534743189,-1.8279384807378052,2.276889724331349
1789761165870331600,5.50033154296875,11.130692617905138,-8.239103161635994,0.44053073084857314
1789761165880381700,5.510381591796875,7.393376559627056,-9.485186926069854,1.5140307906232773
1789761165890432000,5.520431884765625,2.720052155390382,-4.4124096147716045,3.5690108711883424
1789761165900481000,5.53048095703125,-11.791361343204974,4.424137461966276,0.5622272019006311
1789761165910530800,5.54053076171875,-10.877768827193975,8.894408898597955,-3.367158219283819
1789761165920580900,5.550580810546875,-2.21115103161633,2.426083822107315,-5.108889073643088
1789761165930630000,5.5606298828125,1.9800743310540914,-3.2647944078743456,-5.1801411229521035
1789761165940680000,5.570679931640625,3.312067031180858,-2.6254145543187857,-1.2987361810825764
1789761165950729700,5.580729736328125,3.492852052876353,-3.2409464992970225,5.17503766233325
1789761165960779000,5.590779052734375,-0.7663081973791122,-0.5888093577474355,6.528953440454602
1789761165970829000,5.6008291015625,-4.876970077037811,5.77491611110568,0.5963017593294382
1789761165980878800,5.61087890625,-5.903050323587656,7.709810407218336,-5.735275005590915
1789761165990928000,5.620927978515625,-3.6257471961498258,5.299613305550813,-6.333976811799406
1789761166000978000,5.63097802734375,1.929482792457938,-1.0508563758879899,-1.4337402793340384
1789761166011027700,5.64102783203125,8.010867821979522,-7.003703288301825,3.106456780308485
1789761166021077000,5.651076904296875,9.123250387454032,-8.453732585266232,2.627039817433059
1789761166031127000,5.661126953125,3.3727672913372513,-4.009197647437453,-1.4011626824647188
1789761166041177000,5.671177001953125,-3.7220372406035658,3.3276334336251017,-4.315067723177373
1789761166051227000,5.681226806640625,-7.820982378983497,10.277760614562034,-3.502320722967386
1789761166061276000,5.69127587890625,-5.075866509485245,9.828146377015113,0.29294815992247314
1789761166071326000,5.701325927734375,0.7040636303901672,1.1972148118466137,2.735327173672616
1789761166081375700,5.711375732421875,3.907965470406413,-6.221470376560092,1.464514626173675
1789761166091425000,5.721425048828125,2.731759544318914,-8.175132501506805,-0.7173395107444376
1789761166101475000,5.73147509765625,2.0757301692575214,-3.100402887097001,-1.0202072628632188
1789761166111524900,5.74152490234375,0.9373118297725915,2.407084522604942,-1.4234123620651662
1789761166121574000,5.751573974609375,-2.1008108345001935,3.2461575119435784,-2.104120397439599
1789761166131624000,5.7616240234375,-0.1119014550834894,2.5484049643963576,-1.7461746820256112
1789761166141674000,5.771674072265625,-1.2975713750869036,2.1316081238240003,-1.3480015856415033
1789761166151723000,5.781722900390625,-3.4492402901649473,2.9878537817597386,-0.14242720659007319
1789761166161773000,5.79177294921875,1.610678708603978,4.938062551382184,1.8338778076589106
1789761166171823000,5.801822998046875,9.204154062205552,4.18139779613912,2.3056164909914134
1789761166181871900,5.811871826171875,9.116528385722637,4.2577164811879396,2.2986953134261072
1789761166191922000,5.821921875,9.421644135963916,-5.093183554989099,0.7957371209591627
1789761166201972000,5.831971923828125,4.3230712891519065,-7.031788396057486,-1.154908578775823
1789761166212021000,5.84202099609375,-14.13885385915637,-7.219614568436145,-4.32709396879673
1789761166222071000,5.852071044921875,-24.083466222691534,-1.640170176026225,-3.5904657471492882
1789761166232121000,5.86212109375,-23.95809095352888,-1.7536919257879255,-3.6307699927479025
1789761166242169900,5.872169921875,-2.734547713732719,10.69952121502161,5.46877627851367
1789761166252220000,5.882219970703125,14.54740192682147,7.583418069967627,4.599883904972672
1789761166262270000,5.89227001953125,21.4788998106122,-6.0025827109634875,0.25073840949609877
1789761166272318700,5.902318603515625,14.471082072728871,-17.03841327139139,-2.5204969667732713
1789761166282369000,5.912369140625,-0.38359658176004885,-16.652514257907868,-2.2784753860875964
1789761166292419000,5.922419189453125,-13.041663017594814,0.24578736295998094,-1.5169434631995855
1789761166302467800,5.9324677734375,-16.591774250262976,15.07264511358738,-1.335943921970576
1789761166312518000,5.942517822265625,-10.679087498801946,14.822440518707037,-1.1618326058853417
1789761166322568000,5.95256787109375,2.4697072752565146,5.283460043129325,0.41449283794630315
1789761166332616700,5.96261669921875,10.382558375120162,-6.564492371347546,4.3368981544524425
1789761166342666800,5.972666748046875,13.537690631270408,-12.324751596069335,7.679485411581396
1789761166352716800,5.982716796875,4.512765008968114,-9.319609994900226,5.330931403878331
1789761166362766000,5.99276611328125,-6.165023682194948,2.3437357937663794,-1.1667953428592532
1789761166372816000,6.00281591796875,-6.022975510650872,2.2129683101713655,-1.0684640749014913
1789761166382866000,6.012865966796875,-2.511580669867992,11.295777966165542,-4.858932316043973
1789761166392915000,6.0229150390625,0.6992267117530107,2.6015239756435156,-1.5720717684425414
1789761166402964700,6.03296484375,3.745066234013438,-4.391916861841082,2.2014392004191876
1789761166413014800,6.043014892578125,3.3803649068593975,-6.504875814774632,4.0371097367137665
1789761166423064000,6.05306396484375,1.1444880147874354,-1.6917378661781548,2.4015844638839363
1789761166433113900,6.06311376953125,-4.91848691329658,3.6791806801736353,-0.2530610437573865
1789761166443164000,6.073163818359375,-8.864998095196485,6.053353697779774,-0.8939715774789452
1789761166453213000,6.083212890625,-11.978614099609851,2.3485165983021257,-0.5791315384177491
1789761166463263000,6.093262939453125,1.5754092423021793,1.8002707216113805,0.1458198721025139
1789761166473312800,6.103312744140625,2.810106520324945,-4.375193106055259,-1.2412844013281166
1789761166483362000,6.113362060546875,8.380961363565921,-4.277229575431346,-2.9003815422728656
1789761166493412000,6.123412109375,12.598932109820842,-3.712213765725493,-1.8677299545086918
1789761166503462000,6.1334619140625,8.039712808191776,-1.8399673567056656,0.9090051882207393
1789761166513511000,6.143510986328125,-1.5535603985875843,1.8076573247313499,2.0697879197269677
1789761166523561000,6.15356103515625,-1.4827835655748842,1.742078060361743,2.0937591624230145
1789761166533610800,6.16361083984375,-14.905031123632192,4.3976685572355985,-0.21647987380251288
1789761166543660800,6.173660888671875,-6.14185615709722,7.427263631659746,-1.7042840440183877
1789761166553710000,6.1837099609375,3.0366485000669954,4.279701518502831,-0.8420195641845464
1789761166563759900,6.193759765625,11.06962878513336,-4.564831296291947,1.8354926955096422
1789761166573809000,6.203808837890625,10.991198807018995,-4.4959331166327,1.831181992703676
1789761166583859000,6.21385888671875,1.4649281754106283,-4.7284190994709725,3.3001462917625903
1789761166593909000,6.223908935546875,-6.557837589633465,2.8204660017758605,-1.0220173079598693
1789761166603958800,6.233958740234375,-9.941417366886139,5.681382671883702,-4.12401411318481
1789761166614008000,6.244008056640625,-5.2762312609195705,3.9060190125137564,-3.886955415603518
1789761166624058000,6.25405810546875,2.906758968350291,-0.48385962149798867,-0.48615949593819674
1789761166634108000,6.26410791015625,5.773532547792792,-2.7920208285361525,2.5301930158793926
1789761166644157000,6.274156982421875,1.8736440008580684,-2.963457007128,2.6090032254830002
1789761166654207000,6.28420703125,1.5958885512292385,-0.10246668726205825,1.5689762866452335
1789761166664256800,6.2942568359375,-0.9009709348469972,1.4836509960591793,0.07592347518615424
1789761166674305800,6.304305908203125,-1.3227923255831002,1.607940808072686,-0.765436529111117
1789761166684356000,6.314356201171875,1.5661545072227716,0.5860626893877983,0.5039377292130142
1789761166694406100,6.32440625,0.3705985684990883,-0.7172779167503118,1.2098316437702625
1789761166704455000,6.334454833984375,0.3661182082146406,-0.7136345918118954,1.2139249044332652
1789761166714505000,6.3445048828125,-2.249970883876085,-0.4433335498422384,-1.3342632754072545
1789761166724555000,6.354554931640625,-1.1336147385954856,1.0722393556565046,-2.0511510237962005
1789761166734603800,6.364603759765625,-1.0455699599176644,2.362051787179708,-1.7984359073996543
1789761166744653800,6.37465380859375,-0.6601438246428966,1.1130080038964747,-0.8968689794208854
1789761166754704000,6.384703857421875,2.8516654421597716,0.03885141644179821,0.12025193479955196
1789761166764753000,6.3947529296875,2.703476868164539,-1.260108198133111,-0.04446848913859576
1789761166774803000,6.404802978515625,0.9647907883286475,-0.5598685099452734,-1.6302723207376897
1789761166784853000,6.41485302734375,-2.0137784477353096,-0.2141705739468336,-2.8264433226197956
1789761166794901800,6.42490185546875,-2.4885189432322976,0.7735135987132787,-2.020554810002446
1789761166804951800,6.434951904296875,-0.45570846276879307,0.8003928378105163,0.47742535066679115
1789761166815001900,6.445001953125,1.638779013928771,-1.1434300301671028,2.1426672779768703
1789761166825051000,6.45505078125,2.6820868741333483,-2.4012989249408245,2.6397531685337423
1789761166835101000,6.465100830078125,-0.8018903828918933,-1.2361252649992704,1.2176133106224238
1789761166845151000,6.47515087890625,-3.4474212580442427,0.3592161737412214,-0.877986218970269
1789761166855199700,6.48519970703125,-2.415636077851057,1.5512755025207996,-1.8620207830816506
1789761166865249800,6.495249755859375,0.6469979273438453,0.6904641441047191,-1.1160603772044182
1789761166875299800,6.5052998046875,-1.1966226911723612,-0.22273381963074207,-0.4187801598766818
1789761166885348400,6.515348388671875,-1.4707003290712832,0.09926935252547263,0.3072943729219958
1789761166895398400,6.5253984375,0.62169981995821,0.9651011694520711,1.088460787943378
1789761166905448400,6.535448486328125,0.7068617366760969,1.283808222672343,0.5674214460754766
1789761166915497500,6.54549755859375,3.393208606341481,0.5967454114437103,-0.1363867117162794
1789761166925547300,6.55554736328125,-0.7501309695601462,-1.9590952559113501,-1.2424049297906459
1789761166935597300,6.565597412109375,-0.829977828735113,-0.6071300273358822,-1.4554891698054968
1789761166945646600,6.575646484375,-0.16098551172614098,1.489215059927106,-0.12546955984998492
1789761166955696400,6.5856962890625,-0.617221797761321,2.328325458666682,0.2624250844301656
1789761166965746400,6.595746337890625,-1.567996335697174,1.4095932416796684,0.07540887672752142
1789761166975795500,6.60579541015625,-1.6667933945357798,0.13433423616588114,0.3998976916870102
1789761166985845200,6.61584521484375,-0.737915631109476,-0.38112639225423334,0.8480659316767006
1789761166995895300,6.625895263671875,-2.0508926651209594,-0.343034269747138,0.4595518037913367
1789761167005944600,6.635944580078125,-0.4871259298175573,1.1476286509007214,-0.26798045353498307
1789761167015994400,6.645994384765625,1.031489996638894,1.3581535618215799,-1.172214226102829
1789761167026044400,6.65604443359375,1.8924504081368445,-0.09160977768301963,-1.5073812696062028
1789761167036093400,6.666093505859375,3.5941099488705395,-1.796263824057579,-0.5880903227578849
1789761167046143500,6.6761435546875,2.1966268317013977,-3.025800942838192,0.026593627088889477
1789761167056193300,6.686193359375,2.214474623081088,-3.041155748358369,0.013436349879298358
1789761167066242600,6.69624267578125,-4.078018670207261,2.3339514818549154,-0.8549285839878022
1789761167076292600,6.706292724609375,-4.104866345122456,2.604047941163182,-0.8196385863546282
1789761167086342400,6.71634228515625,-1.3238345281124113,0.7582458869546651,0.09785402410114183
1789761167096391400,6.726391357421875,1.9450643924713134,-1.149171788689494,1.0513378757946192
1789761167106441500,6.73644140625,2.9566362211972472,-1.3085025189459323,1.5711141754567621
1789761167116491300,6.7464912109375,2.1177952870488164,0.5131050052046775,0.9182778242830186
1789761167126540500,6.75654052734375,0.197338097089529,0.9752262576252222,-0.7649230996962636
1789761167136590600,6.766590576171875,-2.5586136391997334,-0.2799965065538883,-2.3184195662021634
1789761167146640600,6.776640625,-0.681736063247919,-0.030396307307481763,-1.9579548537045717
1789761167156690400,6.7866904296875,-2.426305355903506,-0.17572598474025725,-0.6770640528488904
1789761167166739500,6.796739501953125,-1.274329031187296,0.5981178688406944,0.6522245028857141
1789761167176789500,6.80678955078125,3.5037446182906624,1.2845815451323985,2.123860870698094
1789761167186839300,6.81683935546875,0.9184224203854798,-0.07251110945940017,1.1975141601193695
1789761167196888300,6.826888427734375,-0.9713228204458951,-0.5007569802850484,-0.6724671535126865
1789761167206938600,6.836938720703125,-0.782834384766221,-0.6709241618543863,-1.4019164234414696
1789761167216988400,6.846988525390625,-5.113820684826374,-0.5474994422376156,-1.495347717463225
1789761167227037400,6.857037353515625,-2.4452175616443155,1.7704226958364246,0.12311910600000991
1789761167237087500,6.86708740234375,1.4632137727081775,2.3145494467705485,1.7397937488168478
1789761167247137300,6.87713720703125,2.4107319391965865,1.4937585485756397,0.6191252202298492
1789761167257186300,6.887186279296875,2.544000591957569,-1.6644436165392398,-1.510838716583699
1789761167267236400,6.897236328125,2.5003005664408207,-3.350585854667425,-1.1353667698945848
1789761167277286700,6.90728662109375,1.2858815218150614,-0.5114589915633201,-0.09449519692622124
1789761167287335400,6.91733544921875,-1.805743600064516,2.911021301969886,-0.35522381616942583
1789761167297385500,6.927385498046875,-1.8063263683885336,2.8132693682700394,-0.3855255039960146
1789761167307435500,6.937435546875,-0.7705418894261121,-0.06304068580269813,-0.4070192506626248
1789761167317484300,6.947484375,-1.924751087760925,-1.1285013411045073,-0.8681915317952632
1789761167327534300,6.957534423828125,-0.48583121383190153,0.07860065850615501,-0.5289584078967571
1789761167337584400,6.96758447265625,-0.4677110352516174,0.06257657542228698,-0.5484403763495386
1789761167347633400,6.97763330078125,0.902597659265995,0.5740308908104896,1.2680563806585967
1789761167357683500,6.987683349609375,1.5929057360261678,0.19570260484218596,1.4305945286542177
1789761167367733500,6.9977333984375,0.8026011615097522,-0.4040232837170362,-0.3585799581969157
1789761167377782300,7.0077822265625,2.096089651197195,-1.0378630388021468,-1.9404758956372736
1789761167387832300,7.017832275390625,-1.1401987931609152,-2.3872663079351186,-2.1224498348563907
1789761167397882400,7.02788232421875,-3.292890037024021,-0.8164040614128112,-0.5727089580243453
1789761167407931400,7.037931396484375,-2.6508798349648712,1.8839158040255306,1.1845793482877314
1789761167417981400,7.0479814453125,0.44170156472623345,2.878664508244395,1.1946099631104619
1789761167428031500,7.058031494140625,2.0653063903987405,1.7547668615430592,-0.4550110916217789
1789761167438080300,7.068080322265625,2.0359668986678123,1.781326951688528,-0.4544951414562762
1789761167448130300,7.07813037109375,0.986921956115961,-2.3572552005529404,-0.51104789001178
1789761167458180400,7.088180419921875,-0.5030453834831714,-1.6646102052778005,0.3537223620979115
1789761167468229600,7.098229736328125,-2.873499088305235,1.4635259073972702,-0.6005449133245274
1789761167478279400,7.108279541015625,-3.8675346758186815,3.268320828434825,-2.1442972172662613
1789761167488329500,7.11832958984375,-1.2527350390166043,2.6765666494071483,-2.527319798530638
1789761167498378500,7.12837841796875,2.3120114527255295,0.02991933744549751,-1.6613989881463347
1789761167508428300,7.13842822265625,2.8023569291114807,-3.24887729229629,0.0933685492501594
1789761167518478300,7.148478271484375,1.6834049221187828,-3.5058412983089684,1.2589160657390952
1789761167528527600,7.158527587890625,-0.8042349001914262,0.23603929140567778,0.24245220892159267
1789761167538577400,7.168577392578125,-4.16146267709136,3.9998365293741225,-2.211854211449623
1789761167548627500,7.17862744140625,-3.229078951370716,4.451353385671973,-3.5348733315259215
1789761167558676500,7.188676513671875,0.16218027446866035,1.6140701046079395,-2.6467966573044657
1789761167568726500,7.1987265625,0.0904828194797039,1.678628209236264,-2.7000015932694077
1789761167578776300,7.2087763671875,2.3874954405158757,-4.929544898405671,1.9590828348211944
1789761167588825300,7.218825439453125,2.413050737532973,-4.952361710369587,1.9545327703014015
1789761167598875600,7.228875732421875,0.774255356991291,0.9690554600358009,-2.0432186233617364
1789761167608925400,7.238925537109375,0.8093067966282367,0.9373200130790471,-2.0183380107358095
1789761167618974500,7.248974365234375,-1.7484551941782236,1.813218465989828,-4.672709487208723
1789761167629024500,7.2590244140625,-1.0547884546399116,0.021921908950805664,-0.9243292332764714
1789761167639074300,7.26907421875,-1.2122376089334488,-1.0328390731602906,1.8708439948759972
1789761167649123300,7.279123291015625,-0.012151625564694403,0.15905951209962368,1.7761726376652716
1789761167659173400,7.28917333984375,-1.9766122079014776,0.6965817502021789,-0.26984734338540584
1789761167669223400,7.299223388671875,-3.666887600311637,0.9925018020749091,-1.144645178110525
1789761167679272400,7.3092724609375,-3.674624916565418,0.9981646501421928,-1.1839978220727294
1789761167689322500,7.319322509765625,0.3082861969709396,0.09598024785220623,0.9392726084515451
1789761167699372500,7.32937255859375,-0.04372340639233589,-1.8136796537607907,0.7630572327591478
1789761167709421300,7.33942138671875,1.1861895599633454,-2.021911485308409,-0.16735212414860726
1789761167719471400,7.349471435546875,1.4772925669431685,-0.18323299936950205,-1.3967531954593955
1789761167729521400,7.359521484375,0.2618780815392732,0.537338113707304,-1.3174538871645927
1789761167739570400,7.3695703125,0.6798696848541498,0.23935353052020072,0.7987408328197896
1789761167749620500,7.379620361328125,1.2797750216335058,-0.3034475247681141,2.4568030777588485
1789761167759670500,7.38967041015625,-0.5135609322786331,-0.7383207047790289,1.7125750486321747
1789761167769719300,7.39971923828125,-2.453189855697751,-0.0676560706436634,-0.7193222820594907
1789761167779769300,7.409769287109375,-0.848835089418292,1.6900871763616798,-1.8970288219682871
1789761167789819400,7.4198193359375,-1.192592997264862,0.6542524285167455,-0.5379730140773579
1789761167799868400,7.429868408203125,0.6540250495016574,-0.1418207925289869,0.67670347590819
1789761167809918500,7.43991845703125,0.797976424318552,-0.9408622157305478,-0.019178163200616834
1789761167819968500,7.449968505859375,3.500308798623085,-0.4000228159040212,-1.3912714030474425
1789761167830018600,7.4600185546875,2.0709026029706,1.3295090666174887,-4.5816666957587
1789761167840067300,7.4700673828125,-4.208482786941528,-0.4107517151892185,-6.791880738785863
1789761167850117400,7.480117431640625,-6.081027302125096,-2.9672236661851406,-4.107028199331462
1789761167860167400,7.49016748046875,-2.3736592228651046,-1.6739461888998746,2.3808280915811655
1789761167870216400,7.500216552734375,8.520275141710043,1.147677750739455,6.05584142294228
1789761167880266500,7.5102666015625,10.467282484942674,2.7099685682713983,-0.005554346191510558
1789761167890316500,7.520316650390625,1.7069892113238572,-2.284192302429676,-9.582919570547341
1789761167900365300,7.530365234375,1.7430846070557833,-2.3165099331885575,-9.578187865850328
1789761167910415400,7.540415283203125,-7.876313221061229,-0.041945875325798986,1.670908282508701
1789761167920465400,7.55046533203125,-1.69109430757761,3.038838703587651,13.796134646707772
1789761167930514400,7.560514404296875,4.642314348945021,0.0905786810696125,14.451652565115689
1789761167940564500,7.570564453125,6.997588604813814,-3.385047511717677,3.8730566541105507
1789761167950614500,7.580614501953125,3.444412139356136,-4.019223366889357,-6.078154961559176
1789761167960663300,7.590663330078125,-1.0893670160681008,-1.749880843067169,-5.9977756029427045
1789761167970713300,7.60071337890625,-0.3140717946350574,2.362572596183419,1.8297485988996922
1789761167980763400,7.610763427734375,-0.4756500115573406,3.657644555670023,7.274355043405294
1789761167990812400,7.6208125,-2.0861235529780386,2.0430629944086074,4.796580781549215
1789761168000862500,7.630862548828125,-0.514652234646678,-0.682486004832387,-1.6357513366706669
1789761168010912500,7.64091259765625,-0.7976251266628503,-3.176383133971691,-5.458190587091446
1789761168020961500,7.65096142578125,0.19451953253746032,-2.6295284193783997,-3.90830683118999
1789761168031011300,7.66101123046875,1.5824007086247205,-1.5858043795883654,0.18742318106833844
1789761168041061400,7.671061279296875,2.5058926873594523,-0.16247662706673144,2.2297107706576584
1789761168051110400,7.6811103515625,3.5393548608541487,0.4299713794440031,0.760367189957574
1789761168061160400,7.691160400390625,2.735598684090376,-0.7827882075369358,-1.8887572527073322
1789761168071210500,7.70121044921875,2.348245380145311,-1.8100041801184414,-2.7358748706832525
1789761168081259500,7.711259521484375,1.7606781314134596,-2.6584108149915933,-0.7962968006685376
1789761168091309300,7.721309326171875,0.5245768318116665,-2.0223820254296063,1.9706515459313987
1789761168101359400,7.731359375,0.8699158713698386,0.4318751672387123,2.7101199594408274
1789761168111408400,7.741408447265625,0.22779636371731757,1.3760849398314952,0.778837351019308
1789761168121458400,7.75145849609375,-0.14487433488070964,-0.3691021924614906,-0.8942080896485597
1789761168131508200,7.76150830078125,2.170210533940792,-1.6335422823190688,-0.30870409358944745
1789761168141557500,7.7715576171875,1.3646522761911153,-2.418040216383338,0.8007038765210658
1789761168151607600,7.781607666015625,-1.2109282799005507,-0.5302583845794201,0.5903637475825846
1789761168161657300,7.7916572265625,-3.955739028972387,1.899271778589487,-0.8799922980956733
1789761168171706400,7.801706298828125,-3.5729566862046718,3.0542782647818325,-1.9337527248620985
1789761168181756400,7.81175634765625,-3.6075229726731775,3.0853117009490725,-1.9329460846543312
1789761168191806200,7.82180615234375,5.49593082742095,-0.9599830957859754,-0.5786054687170311
1789761168201855500,7.83185546875,6.482132068046927,-2.9824738422870634,-0.2867910985974595
1789761168211905500,7.841905517578125,3.4052480037033557,-2.8430139336705205,-1.0412057002935557
1789761168221955600,7.85195556640625,-1.9793816726148128,0.6146534085780382,-2.8567572123408316
1789761168232004400,7.86200439453125,-1.9294290164440868,0.5694862331181765,-2.8484400503724814
1789761168242054400,7.872054443359375,-3.7195623749226328,3.0324218222826715,-4.282667674832045
1789761168252104400,7.8821044921875,-1.2073720487236976,-0.0777162768870592,-3.418475149545073
1789761168262153500,7.892153564453125,1.523420696389675,-1.7426695965141057,-2.1021093498781322
1789761168272203500,7.90220361328125,2.3467022423565385,-1.3645955775678158,-0.8268959370717406
1789761168282253600,7.912253662109375,-0.10894494336545467,0.4696235908746719,-0.5063539235092699
1789761168292302300,7.92230224609375,-2.5166642567425965,2.9924767653852697,-1.79873313678056
1789761168302352400,7.932352294921875,-4.368361798730493,3.55953138744235,-3.6897383145451546
1789761168312402400,7.94240234375,-3.504370641234517,1.8287474590331314,-3.6948891214370727
1789761168322451500,7.952451416015625,-0.43065176292359825,-0.21520926934480666,-1.4476723585747182
1789761168332501500,7.96250146484375,2.683653392797708,-0.8179144659757613,0.6954320687104016
1789761168342551600,7.972551513671875,2.406885200640559,-1.1243079810678958,0.8828716529242694
1789761168352600300,7.982600341796875,2.426352117654681,-1.1419196256041526,0.8819220240492374
1789761168362650400,7.992650390625,-1.6520038216829298,0.02749941682219505,-0.6591468494948
1789761168372700400,8.002700439453125,-1.5051789372563362,0.7162345451772213,-0.08934005178590304
1789761168382749400,8.01274951171875,0.10516133317351341,-0.009202128109335898,0.8837283428188413
1789761168392799500,8.022799560546876,0.7626525974810123,-1.119419624504447,1.6908580146037042
1789761168402849500,8.032849609375,1.893212624680996,-1.3705401651859284,2.3800623679056763
1789761168412898600,8.042898681640626,1.3183102117329835,-0.6225415314793586,2.382919510902464
1789761168422948400,8.0529482421875,-0.3741933781206608,0.3345446738213301,1.164731469132006
1789761168432998400,8.062998291015624,-2.515436176252365,0.5706517697662115,-0.5263690489906817
1789761168443047400,8.07304736328125,-2.6190701537281273,0.36573417733311653,-1.3998513076052068
1789761168453097200,8.08309716796875,-0.07231178749501704,-0.11395955665707587,-0.8316532146014273
1789761168463147500,8.0931474609375,1.3967296684533357,-1.5005939475536345,0.8082566299881786
1789761168473196500,8.103196533203125,3.4388626885354516,-1.4998615416258572,1.8861501389488577
1789761168483246300,8.113246337890626,2.6548610135555264,-1.5155366651415825,1.043708038503304
1789761168493296400,8.12329638671875,0.10725099892914294,-0.25753391485512256,-0.4190932444138452
1789761168503345400,8.133345458984374,-1.7573825969994068,0.7602402756422758,-0.5947916470274329
1789761168513395200,8.143395263671875,-2.6126024190187453,0.94807580037117,0.38714974419698117
1789761168523445200,8.1534453125,-1.0182944149792195,1.1378706424742937,1.4353360240928827
1789761168533494500,8.16349462890625,0.03906476693153381,0.7896405576497316,1.3826120035126805
1789761168543544600,8.173544677734375,1.8414929588377476,0.9348936627149581,0.46410278162658214
1789761168553594400,8.183594482421874,1.4823387444168328,-0.47456689249575135,-0.43998069575037807
1789761168563643400,8.193643310546875,-0.24615619627237317,-0.8410743922889232,-0.5789236312881112
1789761168573693400,8.203693359375,-2.173653367871046,0.14897358689308166,-0.24957179513582958
1789761168583743200,8.2137431640625,-3.658388067513704,1.30003981102705,0.12403180039813741
1789761168593792500,8.22379248046875,-1.084700193300843,2.0134394250392913,0.5252093940941617
1789761168603842600,8.233842529296876,1.220732465556264,0.898252323538065,0.13146459901370108
1789761168613892400,8.243892333984375,3.5560792011618614,-1.5752783093988894,-0.574598023173958
1789761168623942400,8.2539423828125,4.038432509750128,-3.8947763184875246,-0.4295759869182482
1789761168633991400,8.263991455078125,2.127986426195502,-3.338817675462365,0.41145431050062176
1789761168644041500,8.27404150390625,0.04916647422909736,-0.2806593543767929,1.0886701929103582
1789761168654091300,8.28409130859375,-1.4469459439963102,2.8380127643823623,0.758039623792842
1789761168664140500,8.294140625,-1.6089701511204242,1.971296565836668,-0.630024142319709
1789761168674190600,8.304190673828124,-0.9999036027640104,-1.012806338956952,-1.4356104571200907
1789761168684240400,8.314240478515625,0.4847738137334585,-4.22299003572166,0.18261543372673913
1789761168694289400,8.324289306640624,3.875570098236203,-2.4055694418668745,2.065552912505716
1789761168704339500,8.33433935546875,1.6772610125362872,-0.31940847948789597,0.7278212303355336
1789761168714389200,8.34438916015625,-2.0919535743057724,0.7490402517139911,-1.4113715033985674
1789761168724438500,8.3544384765625,-2.1950866165220737,0.8919669596582651,-1.4182200541190801
1789761168734488600,8.364488525390625,-0.6078051501184701,1.7780191423147915,-0.8087965090185404
1789761168744538400,8.374538330078124,0.5237585011661052,0.36284020945727824,-0.20746415337705984
1789761168754587400,8.38458740234375,2.7875486515581605,-2.0421488021731373,1.1080658713191747
1789761168764637400,8.394637451171874,4.4127509755551815,-1.7174363710582254,1.6298787913754582
1789761168774687500,8.4046875,0.9972580566912889,-0.9533072712838649,0.3956022960480302
1789761168784736500,8.414736572265625,-1.0352034642040728,-0.26972236529886723,-0.493370705958642
1789761168794786600,8.42478662109375,-1.847042409658432,0.4778419686436653,-0.25298764972761273
1789761168804836600,8.434836669921875,-3.084790891945362,0.7809212446212768,0.4487301116561517
1789761168814885400,8.444885498046874,-0.7590075189769268,0.3213771492123604,1.8788336784556507
1789761168824935400,8.454935302734375,0.4457862036913633,-1.4380810850173233,2.538050743642449
1789761168834985500,8.4649853515625,0.671355539008975,-0.9626075990706682,1.1280893993027508
1789761168845034200,8.4750341796875,0.25967326497137544,-0.05212590855658054,-0.15836378492042422
1789761168855084500,8.48508447265625,1.900713209569454,1.098458669540286,0.17531543117798865
1789761168865134600,8.495134521484376,0.3879366567909717,1.4421546180665492,0.40520277582518754
1789761168875183400,8.505183349609375,-1.6622019750922918,0.7084697563946246,0.38178335832562293
1789761168885233700,8.515233642578124,-2.5642718110918996,-0.2539811908096075,0.8746561977647245
1789761168895283500,8.525283447265625,-1.6816268065303563,0.7951040837526321,1.0222110039010643
1789761168905332500,8.53533251953125,-1.0449474441051483,1.329744044417143,0.30925485934000463
1789761168915382500,8.545382568359376,0.9492319846689701,0.3296189078569412,0.04686663632150739
1789761168925432300,8.555432373046875,1.1282172634661196,-0.3811860134869814,0.07956318339537828
1789761168935481600,8.565481689453126,-0.0643231268286705,0.2758937474101782,-0.040317032014951106
1789761168945531600,8.57553173828125,-2.3568647399306295,0.8208943585693835,-0.042385216591134665
1789761168955581700,8.585581787109374,-1.7176561512887476,1.8353975645720957,-0.35340390726588666
1789761168965630500,8.59563037109375,-1.6644366022765635,1.6980846048563718,-1.0128476938806474
1789761168975680500,8.605680419921875,0.14962825140953062,0.8222077792555094,-0.9291695859797299
1789761168985730600,8.61573046875,0.8632178350359201,-0.8943500554025172,-0.7244358256809413
1789761168995779600,8.625779541015625,1.7379127573758362,-0.5775666637212038,-1.4228243330441415
1789761169005829600,8.63582958984375,0.20784721614420412,-0.23912439793944357,-2.484782679313421
1789761169015879700,8.645879638671875,-1.6871207277715206,-0.5301064088881016,-2.4736291248753663
1789761169025928400,8.655928466796874,-0.5305161587327718,0.49253918703794475,-1.4061308262661099
1789761169035978500,8.665978515625,-0.9697072019428015,-0.028479075509309767,-0.7060696364503354
1789761169046028500,8.676028564453125,1.1793781263828278,-0.6217834065884351,-0.44584297537989914
1789761169056077600,8.68607763671875,2.475281275996566,-0.4506827435612678,-0.7851305328793823
1789761169066127600,8.696127685546875,0.521696307939291,-1.770929476314783,-0.8980651304028928
1789761169076177700,8.706177734375,1.940680478298664,-1.2329419587880373,0.19035167226828634
1789761169086226400,8.716226318359375,0.7513023514270782,-0.2131248642861843,1.00010241327174
1789761169096276500,8.7262763671875,-1.9550544560879468,0.3135398797154426,1.2223816940680146
1789761169106326500,8.736326416015626,-1.381357327276468,1.643601904040575,1.6405702812597154
1789761169116375600,8.74637548828125,-1.3794248979091643,1.6426906344145535,1.6185276685386896
1789761169126425600,8.756425537109376,-0.21684651515781878,0.784917620781064,1.4247773668080568
1789761169136475600,8.7664755859375,1.540860491490364,-0.36085341955423356,0.6421552365530282
1789761169146524400,8.7765244140625,1.1234411351054907,-1.2558750906080007,-0.6437457936801015
1789761169156574500,8.786574462890625,0.4420739051699638,-0.6121534084558486,-2.172972692130506
1789761169166624500,8.79662451171875,-1.262056994113326,0.44650399657189843,-3.1464602893948554
1789761169176673500,8.806673583984375,-1.7993980304300785,0.20199439846277237,-2.6344801965668796
1789761169186723600,8.8167236328125,-0.9450871399492025,0.3515139288008213,-1.6798977907806634
1789761169196773600,8.826773681640624,-0.5443804334342479,0.5151344652056694,-1.8592644701108336
1789761169206822700,8.83682275390625,0.6707435445904731,0.3592284487009048,-2.6803990671768783
1789761169216872400,8.84687255859375,1.3565192386180163,-0.061928340646624565,-2.951701687404513
1789761169226922500,8.856922607421875,2.5036282495588065,-0.11907879936695098,-2.119176220013201
1789761169236971500,8.866971435546875,2.714987273216247,-0.12332476637363433,-0.8240163630474359
1789761169247021300,8.877021240234376,2.832427073204517,-0.8497329150408506,-0.0567550479282625
1789761169257071600,8.887071533203125,2.8406735080242154,-0.8571902453094721,-0.07444073038168716
1789761169267120600,8.89712060546875,-2.9050813905268904,-1.8743962805300949,-0.7146813974510878
1789761169277170700,8.907170654296875,-3.223634714490175,-0.9983692328035831,-0.3033167014626786
1789761169287220500,8.917220458984374,0.09441431370973587,0.06918927156031131,0.41271811989136037
1789761169297269500,8.92726953125,1.7239058593332766,-0.18610884706676006,0.47969862936101854
1789761169307319600,8.937319580078125,4.227952626565099,-0.5369681113511323,-0.029540987386088815
1789761169317369300,8.947369384765626,4.427205032843351,-1.2493401358813048,-1.009982148381695
1789761169327418600,8.957418701171875,1.5670032330065964,-1.9565262822061775,-2.0803001075215635
1789761169337468700,8.96746875,-1.469067174911499,-1.0874275724381208,-2.5087042376488444
1789761169347518500,8.9775185546875,-3.131221803730726,0.34994214943945406,-1.649508205474913
1789761169357567500,8.9875673828125,-2.778502590793371,1.015741807886958,0.3343952554132789
1789761169367617500,8.997617431640625,-0.08735796545743942,0.6540531065523624,2.109809841252863
1789761169377667600,9.00766748046875,-0.10717384203970431,-1.0753647942006588,1.8519120615214109
1789761169387716600,9.017716552734376,0.014380992051959036,-1.065108773124218,0.010358714265935123
1789761169397766700,9.0277666015625,-0.34133623365759846,0.6245978794872761,-1.282570205309987
1789761169407816700,9.037816650390624,-1.0920955642491579,2.16165371799767,-0.6144367701526731
1789761169417865500,9.047865478515625,-0.8639058173000812,2.39601017088294,1.0343694245327264
1789761169427915500,9.05791552734375,-0.7040063472449779,0.6262561680883169,1.7104340910807252
1789761169437965600,9.067965576171876,-0.5707809491038323,-1.6710785245090722,0.7048401677206159
1789761169448014600,9.0780146484375,0.6906774945944547,-1.3869202221006154,-1.0092406823646276
1789761169458064600,9.088064697265626,1.4612737445563078,0.1244721828430891,-1.7839841881990433
1789761169468114700,9.09811474609375,2.9749317563444375,1.2536959930032492,-0.4378553376268595
1789761169478163500,9.10816357421875,2.5095757597863675,0.3157394355863333,1.4551782041601835
1789761169488213500,9.118213623046875,1.0576134489327669,-1.1129337696164845,1.3098555409900843
1789761169498263600,9.128263671875,-0.7415127788186073,-1.2027917351961135,-0.7905524117976427
1789761169508312600,9.1383125,-2.16463828676641,-0.8863228162914514,-1.9617937012150883
1789761169518362600,9.148362548828125,-1.2401157959401607,-0.7390121941745281,-0.46172008774112905
1789761169528412700,9.15841259765625,1.4355319850564001,-0.46219840930998324,1.498132087484747
1789761169538461400,9.16846142578125,1.234139644140005,-0.8905717059075832,0.829471486648172
1789761169548511500,9.178511474609374,-0.42287586822509765,-1.4251251573324202,-1.2455074258506298
1789761169558561500,9.1885615234375,-1.4706442149698733,-0.7441442963659763,-1.8260032748915254
1789761169568610300,9.1986103515625,-1.4745488211929798,-0.7405716985762119,-1.822367987129092
1789761169578660600,9.20866064453125,0.10158055207729338,0.7941676796853542,0.9217517840038985
1789761169588710700,9.218710693359375,0.6378408074200153,-0.3564508006811142,1.3769341040067373
1789761169598759700,9.228759765625,2.5938731686294076,0.2066279034823179,0.8457368311420083
1789761169608809500,9.2388095703125,2.8462907633841037,-0.3040653644055128,-0.045567061497643585
1789761169618859500,9.248859619140624,1.2840461230814457,-1.586025328862667,-1.0714790388084947
1789761169628909600,9.25890966796875,-1.1025275264143943,-2.032217190745473,-1.631461530522257
1789761169638958300,9.268958251953125,-2.753256505855918,0.13608663279116154,-0.8189710623566061
1789761169649008600,9.279008544921876,-4.010861196735501,3.9997693093568083,0.9101634183451532
1789761169659058700,9.28905859375,-3.005086071589589,4.9582519374519585,2.556317052695155
1789761169669107500,9.299107421875,-0.6024497605651616,1.9040455688625573,2.9971760291174054
1789761169679157500,9.309157470703125,-0.6570487812370062,1.952088592019677,3.03611716966927
1789761169689207600,9.31920751953125,3.598517828440666,-2.2860510820388793,-0.07539461074015125
1789761169699256600,9.329256591796875,1.2796663005620241,-2.4768986480653283,-0.9137103702370076
1789761169709306400,9.339306396484375,-0.8786988972842693,-0.2763157722145319,0.09635958429230376
1789761169719356400,9.3493564453125,-2.1639666711151597,2.3489362850189206,1.5721807817749678
1789761169729405700,9.35940576171875,-0.5176777199476957,3.077455142229795,1.8327065719224511
1789761169739455500,9.36945556640625,-0.08145604793727397,-0.31545126629471776,0.5097761530429125
1789761169749505500,9.379505615234375,1.8186890063554046,-2.650736627101898,-1.0855116558142006
1789761169759554600,9.389554443359375,1.0093863013803959,-2.6021681187659502,-1.5487323939092457
1789761169769604400,9.399604248046876,0.04457973096072673,-0.2646522224277258,-0.5490570469431579
1789761169779654400,9.409654296875,-1.3713298542588948,1.9046599013686178,0.0397498996514827
1789761169789703700,9.41970361328125,-5.150166840448975,2.201783483812213,-0.7989458538725972
1789761169799753700,9.429753662109375,-1.7756529977053404,2.752515916621685,-1.5774926244474947
1789761169809803500,9.439803466796874,2.2403730344474315,1.4550959327042101,-2.18362355774343
1789761169819852500,9.4498525390625,2.527854928320646,-2.036681768938899,-2.4290771587043998
1789761169829902600,9.459902587890625,5.070003170409798,-3.0848423298716545,-1.3488744229532776
1789761169839952400,9.469952392578126,-0.6744225253641605,-3.0235686537414788,-0.5211821844046935
1789761169850001700,9.480001708984375,-2.603916423738003,1.7436749741643667,-0.18488094923961906
1789761169860051700,9.4900517578125,-4.570889865678549,4.222828123158216,-0.624347631053254
1789761169870101500,9.5001015625,-1.0776087737351656,3.7613603662103414,-1.417270352178812
1789761169880150500,9.510150634765624,0.6879565451979637,-0.330659941342473,-1.8464701627284288
1789761169890200600,9.52020068359375,3.2717344362705942,-3.921348099070787,-1.098137767022848
1789761169900250400,9.53025048828125,3.272392023396492,-3.9203433059424158,-1.1276789188057184
1789761169910299600,9.540299560546876,1.1354910538613796,-0.7583212902784348,1.2514651652112603
1789761169920349700,9.550349609375,-0.41467853324413295,3.4343069249272347,0.49285658242404456
1789761169930399700,9.560399658203124,-5.032218506416678,3.278921132904291,-1.0308825322650372
1789761169940448500,9.570448486328125,-2.4204110371679066,1.250883858191967,-1.2052734690092504
1789761169950498600,9.58049853515625,-0.5757271733343601,-1.608834542042017,-0.0340582273485139
1789761169960548600,9.590548583984376,3.329341991108656,-2.3251783928126097,1.4616437469124792
1789761169970597600,9.60059765625,4.059700338706374,-1.9888614486217497,1.7511127229496835
1789761169980647700,9.610647705078126,3.620681729453802,-0.8663976341158152,0.9854883431162684
1789761169990697700,9.62069775390625,-0.2096037044227123,0.5661889451384544,-0.27422365877348925
1789761170000746500,9.63074658203125,-2.978705429664254,1.7830214806467293,-0.5622421802740544
1789761170010796500,9.640796630859375,-3.385045173630118,1.6510943056225775,0.6705827280055731
1789761170020846600,9.6508466796875,-2.6436411158829927,0.017146949633955955,1.599338545552641
1789761170030895400,9.660895263671875,-1.8416572094887493,-0.9210773188084364,0.8546933139272034
1789761170040945400,9.6709453125,3.3761341374218463,-0.5229390014767646,-0.031487883670162406
1789761170050995700,9.68099560546875,2.2223662531137465,-1.1529419548779725,-0.36908220911938694
1789761170061044500,9.69104443359375,1.527128318735957,0.31814883481562134,-0.16311927235182375
1789761170071094500,9.701094482421874,-3.664958093553781,0.416215241292119,-0.4304226303428411
1789761170081144600,9.71114453125,-3.656098495271802,1.4305033432394265,-0.3631183688115328
1789761170091193300,9.721193359375,-0.7306447633236646,1.4932757334947586,-0.1654182700091973
1789761170101243400,9.731243408203126,0.7329273213028907,0.07471358793973923,-0.08743713164087384
1789761170111293400,9.74129345703125,2.2381997820615767,-1.8930179788917303,0.45652182497829197
1789761170121342700,9.7513427734375,3.6270085943877697,-2.8442162951976058,0.914914485329762
1789761170131392500,9.761392578125,3.646892275509238,-2.8620617484897375,0.9206691763989627
1789761170141442600,9.771442626953124,-0.9186492148786782,2.0948650778383016,-0.13267839525025338
1789761170151491600,9.78149169921875,-1.922259855467081,3.3426965627223253,-0.7425796773977578
1789761170161541400,9.791541259765625,-1.3669593840897083,1.504725932791829,-0.42586131377667186
1789761170171591400,9.80159130859375,-1.7265467292308807,-1.2466209400504826,0.45394970946796237
1789761170181640700,9.811640625,-1.73868900244534,-1.2352765392154454,0.44174679210744794
1789761170191690500,9.8216904296875,0.9880594357132911,-1.135044479137659,1.0541964800961314
1789761170201740500,9.831740478515625,-0.08830079926550388,-0.14961773001551626,-0.13913732559867203
1789761170211789600,9.84178955078125,-1.562554436904192,1.3691601090043783,-0.9400340212780982
1789761170221839600,9.851839599609375,-2.131116540914774,2.5822026045799253,-0.7743605709314346
1789761170231889400,9.861889404296875,0.14771511126458645,2.6186551431864498,0.2510235831130296
1789761170241938700,9.871938720703126,2.104280556437373,-0.4003782052129507,1.0500091114088892
1789761170251988700,9.88198876953125,1.1144669705331325,-2.7939778078228232,0.5712312501545995
1789761170262038500,9.89203857421875,-0.7429489491015673,-1.948064158809185,-0.6621364597648381
1789761170272087600,9.902087646484375,-0.6968313410490751,-1.9897627813756464,-0.6513607256632298
1789761170282137600,9.9121376953125,-2.840948233312368,3.572167581653595,-1.0479306246344
1789761170292187400,9.9221875,-0.9546014027476311,4.025771181097626,-0.6327131622079759
1789761170302236700,9.932236572265625,0.6943196504890918,0.5129506914258003,-0.4135545341828838
1789761170312286700,9.94228662109375,2.9077824661791323,-2.538471014881134,-0.2357181331599131
1789761170322336500,9.95233642578125,1.6790484804749488,-2.5502882939249276,-0.629923969880864
1789761170332385500,9.962385498046874,-0.543160536250472,0.5241290880441666,-1.148446397024393
1789761170342435600,9.972435546875,-1.5145534993231295,2.4780600930601357,-1.0046357458524406
1789761170352485600,9.982485595703125,-0.774100458690524,1.905219288817048,-0.3276214138967916
1789761170362534400,9.992534423828126,0.37494741135835646,-0.5077718274831772,0.5762495167080313
1789761170372584700,10.002584716796875,1.017767176234722,-2.166118880712986,1.1042515006627887
1789761170382634800,10.012634765625,0.6365589509159326,-2.7089918321937323,0.8160900270275772
1789761170392683500,10.02268359375,-1.6286235306173562,-0.9857517432928085,0.2822915221558884
1789761170402733600,10.032733642578124,-2.209412663516402,1.7336697129786014,-0.1715387256508693
1789761170412783600,10.04278369140625,-1.142903375944495,3.4070646977365016,-0.7584633290976286
1789761170422832400,10.052832275390625,-0.10896890876293182,0.9618623336613178,-0.6181393509976566
1789761170432882400,10.06288232421875,1.029218544575572,-1.781433334672451,0.06633905149465426
1789761170442932500,10.072932373046875,0.22539631683826444,-1.4762299061477184,0.15938218644903973
1789761170452981500,10.0829814453125,-2.076864726245403,0.06898936507403851,-0.2236146393195726
1789761170463031600,10.093031494140625,-1.8764672415852546,2.3322294803678987,-0.7294441553622484
1789761170473081600,10.10308154296875,-1.6463503259658812,2.9877456452101465,-1.8071154729396104
1789761170483130400,10.11313037109375,0.6016787761926651,1.5490858835220336,-2.392664367586374
1789761170493180400,10.123180419921875,2.861341032999754,-1.2983879521667956,-2.0139988124877215
1789761170503230500,10.13323046875,1.018839773902297,-3.5004584362268445,-1.8725097361311316
1789761170513279500,10.143279541015625,-5.843602109318971,-2.938478633216023,-2.319545063100755
1789761170523329500,10.15332958984375,-1.3144605505675078,3.277964270570874,-2.1901719564735886
1789761170533379600,10.163379638671875,3.579668166542053,5.663291719397902,-1.6764619711130857
1789761170543428600,10.1734287109375,2.4624966132253405,1.3031348544329404,-0.6471510720789432
1789761170553478400,10.183478515625,7.648131657418608,-2.1389216617077587,1.125580996678397
1789761170563528400,10.193528564453125,3.9075481217771766,-4.072321335348486,0.5373273731175809
1789761170573577700,10.20357763671875,3.964370079195499,-4.122420706513524,0.5424695217790082
1789761170583627500,10.21362744140625,-8.344923835501074,2.078348242801428,-2.880050409644842
1789761170593677600,10.223677490234374,-7.048708551198244,7.2471087245613335,-2.2219334146544334
1789761170603726600,10.2337265625,-1.9584417604386806,5.538363609480857,-0.1556842269802466
1789761170613776400,10.2437763671875,5.532096950301527,-2.48062555963397,1.7872997424878179
1789761170623826400,10.253826416015626,8.066384542018175,-7.3268696590185165,1.348974668457359
1789761170633875700,10.263875732421875,4.350078538542986,-5.63485531398654,-0.7348994981586933
1789761170643925800,10.27392578125,-2.4725229171991345,0.7554834365040063,-2.09000068667233
1789761170653975600,10.2839755859375,-6.759800423914194,6.27766572651267,-2.206891328345239
1789761170664024600,10.294024658203124,-6.453681049588322,5.836580832380056,-1.5140416042782365
1789761170674074600,10.30407470703125,-1.5467179853469133,1.0669067624568938,0.06868104804353788
1789761170684124400,10.31412451171875,1.505214593091607,-4.4713896270066495,1.6984452548623084
1789761170694173700,10.324173583984376,4.705076217806339,-4.357702457550168,2.365621316229552
1789761170704223700,10.3342236328125,2.083420139238238,-2.082948430073261,1.3765133943766354
1789761170714273500,10.3442734375,-0.9999942036569118,1.9003782785266636,-0.630144407698512
1789761170724322600,10.354322509765625,-2.8509482338011263,4.210198358687758,-2.1177157920718193
1789761170734372600,10.36437255859375,-2.983802460542321,3.0616596072047946,-1.9718672053314745
1789761170744422400,10.37442236328125,0.8291133208602667,0.25879297500550746,-0.18296771776312962
1789761170754471400,10.384471435546875,3.4253584793180227,-2.481679452601075,1.4282704696208237
1789761170764521500,10.394521484375,2.774591554829478,-3.228733498933911,1.2734708069227636
1789761170774571800,10.40457177734375,-0.08110767289102078,-1.8930232395887374,-0.011750972341932356
1789761170784620500,10.41462060546875,-2.3809137240380047,2.156777051872015,-1.1633908681780099
1789761170794670600,10.424670654296875,-3.644572308129072,4.461088597744703,-1.2587880554452537
1789761170804720600,10.434720703125,-1.345748838278651,3.2376977266341447,-0.2478936327905394
1789761170814769400,10.444769287109375,0.1727998681604862,-1.8640823917865752,0.549660127402842
1789761170824819500,10.4548193359375,-1.4433213237583635,-5.021698281446099,0.13343683066843076
1789761170834869500,10.464869384765626,0.7157230885237454,-1.7634072641164062,-0.7159494446255267
1789761170844918500,10.47491845703125,5.573857532188296,3.079419720301032,-0.7607330275952816
1789761170854968600,10.484968505859374,5.571429428258538,3.081559070417285,-0.7635276998151094
1789761170865018600,10.4950185546875,0.8085890037477016,0.7691121488839388,0.3971256331577897
1789761170875067400,10.5050673828125,0.8061854497373103,0.7715420063793659,0.4125058653801679
1789761170885118000,10.515117919921876,-3.9724984405934807,-0.5249591091275215,-2.191487276855856
1789761170895168000,10.52516796875,-3.9394939966142175,-0.5547644648045301,-2.190503964906931
1789761170905217000,10.535217041015626,-4.789648936459422,0.7377917124688624,-1.8930808149948715
1789761170915267000,10.54526708984375,1.1151800872385502,1.723617690041661,2.9942700785428285
1789761170925317000,10.555317138671874,4.383445970615744,-0.734342448797822,1.4240487602725624
1789761170935366100,10.5653662109375,3.885260886645317,-3.984200568825006,-1.5380441188953815
1789761170945416000,10.575416015625,0.6880091521680355,-3.400724973320961,-2.699581029769778
1789761170955466000,10.585466064453126,0.7514245165020227,-3.4576007067531345,-2.711761296907067
1789761170965515300,10.595515380859375,-4.792461655792594,4.025460215452314,-0.5859426066720858
1789761170975565000,10.60556494140625,-1.9841069475710391,1.9759318244218824,0.44811643673721696
1789761170985615000,10.615614990234375,1.896774701076746,-1.0973048233300446,0.5485343382433057
1789761170995664100,10.6256640625,3.113690823215246,-2.107480813783407,0.32581995396539565
1789761171005714000,10.6357138671875,3.1357565245509145,-2.1269763723701236,0.3315001915588975
1789761171015764000,10.645763916015625,-0.3532248243719339,0.20493220548033714,-0.05208040718073025
1789761171025813000,10.65581298828125,-1.8120652043014764,1.8413082499206066,-1.0401004424653946
1789761171035863000,10.665863037109375,-2.0487544840484855,1.8535060527145861,-1.7708784767799077
1789761171045913000,10.6759130859375,-0.6057552318513393,0.29328327362835405,-1.2404026500575245
1789761171055962000,10.685962158203125,0.18809271436035632,-0.5171165789335965,-0.07051423655375838
1789761171066012200,10.69601220703125,0.35717560782432556,-0.2629407423347235,0.585476194736734
1789761171076062000,10.70606201171875,1.110036294609308,0.023695932886004446,0.2341282336199656
1789761171086111000,10.716111083984375,0.36286066772341724,-0.34994273396134373,-0.8486725923329591
1789761171096161000,10.7261611328125,-1.2337328169047832,0.22184125470519064,-1.6838377605780959
1789761171106211000,10.736211181640625,-1.21658060657382,0.20630758548676967,-1.6934740423209964
1789761171116260000,10.746260009765624,-2.1744500712066888,1.5812398481518029,0.9103703390941024
1789761171126310100,10.75631005859375,1.220245558822155,1.2154828744649886,1.9144439210191369
1789761171136360000,10.76635986328125,2.8200094901800155,-0.6163578744083643,0.9555421176638453
1789761171146409000,10.776408935546876,3.355770563828945,-1.4224965623944996,-0.7786100450694561
1789761171156459000,10.786458984375,3.3739462719887494,-1.4387480244934558,-0.7637836473375559
1789761171166509000,10.796509033203124,-0.8600240074306726,0.5881126076549291,-0.8530224581055342
1789761171176558000,10.80655810546875,-1.3241414021044968,1.6418594442874193,-0.061108270135126076
1789761171186608000,10.816608154296874,-3.631210137730837,0.796971046668291,0.0034439926992345135
1789761171196658200,10.826658203125,-1.803514818099141,0.7706880198985337,-0.6021863603886216
1789761171206707000,10.83670703125,-1.8078478788673877,0.7745423572391271,-0.5897988437088206
1789761171216757000,10.846757080078126,3.281862447053194,0.08994973551630973,0.3177481085276231
1789761171226807000,10.85680712890625,1.055291143465042,-1.335256670358777,1.5944215474165975
1789761171236856000,10.86685595703125,1.071757125097513,-1.3500643633902072,1.6085905041530728
1789761171246906000,10.876906005859375,0.45388592351675033,0.7347931151747703,-0.6859168560639023
1789761171256956200,10.8869560546875,-1.244120939928293,0.6757891375422478,-1.9142283785723149
1789761171267005000,10.8970048828125,-1.334436001625657,0.3268862680226564,-1.1385581132818012
1789761171277055000,10.907054931640625,-0.11699907048344611,-0.20594752000272273,0.8042175106652081
1789761171287105000,10.91710498046875,-1.6243021602869032,-1.3926181414812802,1.372066059578955
1789761171297154000,10.927154052734375,-1.0049684849381446,-0.5440191989064216,-0.029735340914409606
1789761171307204000,10.9372041015625,-0.9915724122703075,-0.5564478878468275,-0.004636692490475252
1789761171317254100,10.947254150390625,-0.3014806086093187,1.2813754425674677,-1.4922184795267879
1789761171327303000,10.957302978515624,0.34948388427793975,1.192249882915616,-0.7692290532618761
1789761171337353000,10.96735302734375,0.5785761330246925,-0.2305582296460867,-0.18081227502860128
1789761171347403000,10.977403076171875,-0.3830670049279928,-1.5965882239311933,-0.10842607972365803
1789761171357452000,10.9874521484375,-0.41776890047490595,-0.4294248514771461,-0.34981359115634114
1789761171367502000,10.997502197265625,-1.4109879109084604,1.2233166368305683,-0.5291418016396463
1789761171377552100,11.00755224609375,-1.516956468811631,1.6559394075661897,-0.14159671058268286
1789761171387601200,11.01760107421875,0.6585387275338173,0.8689157544165849,0.28624100870033725
1789761171397651000,11.02765087890625,0.547032409247756,-0.9183698134154081,-0.04923095430005341
1789761171407701000,11.037700927734376,1.3062754905462264,-1.3309013977587223,-0.43629345860499885
1789761171417750000,11.04775,0.01296177290380001,-0.041511575561761854,-0.7727635840635746
1789761171427800000,11.057800048828126,-2.7159903127789495,1.920892658767104,-0.9313939109656959
1789761171437850000,11.06785009765625,-1.819652882951498,2.7286165701180694,-0.3199603046843782
1789761171447899100,11.077899169921874,0.07426058347523212,1.4463286888808011,0.3433130501559004
1789761171457949200,11.08794921875,0.0453133059322834,1.4723878437668083,0.3432272350359708
1789761171467998000,11.097998046875,1.3202192602246998,-1.5689496908992528,-0.2796442590501159
1789761171478048000,11.108048095703126,-0.8329711653321981,-0.8162941712975501,-1.1972175152603537
1789761171488098000,11.11809814453125,-2.9573569366872308,0.8477928868889808,-1.4545716165691613
1789761171498147000,11.12814697265625,-1.6423884365975856,2.569444829815626,-0.36827158685624595
1789761171508197000,11.138197021484375,-1.6598954517155884,2.5855747113615273,-0.3872135301481932
1789761171518247200,11.1482470703125,1.039830539482832,-0.09036825318932533,1.418016494370997
1789761171528296000,11.1582958984375,1.0891852297604083,-1.4783850383549928,-0.07329581182999537
1789761171538346000,11.168345947265625,-0.7662649427592754,-2.059617238846421,-1.7109505161702632
1789761171548396000,11.17839599609375,-0.8368471299827098,-0.2038964326918125,-1.7652752499453723
1789761171558445000,11.188445068359375,-1.617004989016056,2.0405513038486243,-0.6023412952220067
1789761171568495000,11.1984951171875,-1.6126362724125385,2.0368021804481744,-0.6152363960977644
1789761171578545200,11.208545166015625,0.42540158731043337,0.8126298035711049,0.2690174318999052
1789761171588595200,11.21859521484375,0.3981681279480457,0.8368687572926282,0.27649617028273643
1789761171598644000,11.22864404296875,-1.2029647536754609,-1.9066899458914994,-0.7136477435544133
1789761171608694000,11.238694091796875,0.5238929412007332,0.24117723881602285,-0.10099196593384258
1789761171618743000,11.248742919921876,0.564043165281415,1.9286001644045114,0.3779622291348874
1789761171628793000,11.25879296875,-0.4630588255316019,1.5614122811317444,0.16810984718073158
1789761171638843100,11.268843017578124,0.7080430554151534,0.7808464258193969,-0.37118981239050625
1789761171648892200,11.27889208984375,-1.031154481074214,-0.7138005960285663,-1.1648225084163248
1789761171658942000,11.28894189453125,-1.6413485721558332,-1.2132587686747311,-1.5448441542990505
1789761171668992000,11.298991943359376,-0.846703338086605,0.558615879535675,-1.0556904449809341
1789761171679041000,11.309041015625,-0.8313444409132004,0.545038605082035,-1.0719992632903157
1789761171689091000,11.319091064453126,-0.09790449391305446,2.0883973431289196,0.5281892501551657
1789761171699141000,11.32914111328125,0.45515901219248767,0.4802151275157928,0.39379195869043465
1789761171709190100,11.339190185546874,0.44223231060206886,0.4917448217898607,0.39635048406682905
1789761171719240000,11.349239990234375,0.33961306312680245,-0.6429717405676841,-0.8159732687801122
1789761171729290000,11.3592900390625,-0.8370143032431602,0.07949906865060329,-0.7923605571981519
1789761171739339000,11.369339111328125,-0.8213438559025525,0.06548983252048492,-0.7994217277560383
1789761171749389000,11.37938916015625,-0.6788274823248386,1.4841747276723385,-0.4612620783079415
1789761171759439000,11.389439208984374,-1.5537608895957469,0.42389410535693167,-0.39785398396495725
1789761171769488100,11.399488037109375,-0.5647071821480989,0.16667641684412957,-0.5085583382183686
1789761171779538200,11.4095380859375,-0.6547872660458087,-0.4109960453391075,-0.9237095670081674
1789761171789588000,11.419587890625,-0.6575947246819734,-0.4084598048597574,-0.9268272606372833
1789761171799637000,11.429636962890624,0.3602531155735254,-0.17024024680554867,-0.8768774540107697
1789761171809687000,11.43968701171875,0.4313227940529585,0.9411422017157077,-0.5490611751290038
1789761171819736800,11.44973681640625,-0.09087678723335266,1.1800316218554974,0.04756904896982014
1789761171829786000,11.4597861328125,-0.02773030296862125,0.7768903816699981,0.45665016406569625
1789761171839836200,11.469836181640625,0.5065817409157752,0.6021984161525964,0.3076710242146626
1789761171849886000,11.479885986328124,-0.037464345997571945,-0.25881343327164646,-0.11703826998267322
1789761171859935000,11.48993505859375,-0.5421212563306093,-0.38077451007664204,-0.5511544210812077
1789761171869985000,11.499985107421875,-0.6021218437850475,0.45295068849325176,-0.7329310476299374
1789761171880035000,11.51003515625,-0.7225766076803207,1.0496715500175953,-0.5195726303162053
1789761171890084400,11.52008447265625,-1.1290806022971869,0.47431847069263455,-0.24527563231186938
1789761171900134100,11.530134033203124,-1.179524841377139,-0.13113105621039867,-0.2676703829388134
1789761171910184200,11.54018408203125,-0.7951222039312124,-0.5399626169919968,-0.30208681260785086
1789761171920233200,11.550233154296874,-1.13981710036695,0.0030436054795980453,-0.2190464180885814
1789761171930283000,11.560282958984375,-1.6573171256601809,0.9683663087278604,-0.11715429757777601
1789761171940333000,11.5703330078125,-1.6544605671852826,0.9657745386689901,-0.11466978728566318
1789761171950382300,11.58038232421875,-0.4251555035948753,0.5528285283058881,0.03233934483376797
1789761171960432400,11.590432373046875,1.0464163476139305,0.06149579444825649,0.0453243433495285
1789761171970482200,11.600482177734374,2.4607640903443095,-0.4269727821499109,0.39617834237031635
1789761171980531200,11.61053125,2.2121160772562027,-0.6036375090450048,0.5272305977234617
1789761171990581200,11.620581298828125,2.2233879973769186,-0.6138116970568895,0.5384606514638289
1789761172000631000,11.630631103515626,-1.0514987654447554,1.1090157193899155,-0.34820641168802974
1789761172010680300,11.640680419921875,-2.9401866061776873,1.4787135396569966,-0.4780384410638362
1789761172020730400,11.65073046875,-2.2805974928081034,2.10217861572206,-0.4860167264666408
1789761172030780200,11.6607802734375,-0.7349900990515947,0.7574164503931998,-0.10691808631350286
1789761172040829200,11.6708291015625,0.36327976991832256,-1.3190244974821805,0.4933703771650791
1789761172050879200,11.680879150390625,1.0008844304949045,-0.8203560139089823,0.4670844277858734
1789761172060929000,11.690928955078125,-0.021575287470221517,0.44149347493350505,-0.002577120479010045
1789761172070978000,11.70097802734375,-1.0690285769164563,0.9922270767867565,-0.12269037746023385
1789761172081028000,11.711028076171875,-0.8638777602493762,1.5574901392519473,-0.06947954147746786
1789761172091078400,11.721078369140624,-0.876480052191019,1.5688444769591092,-0.0606295786735136
1789761172101127200,11.731127197265625,-0.5789829602599144,-0.5837462291389703,0.08970346913766115
1789761172111177200,11.74117724609375,-0.021084873604774474,-1.0238467884093523,0.5792255003115162
1789761172121227300,11.751227294921875,-0.014019757524132728,-1.030481111857295,0.5897124440670013
1789761172131276000,11.761276123046875,-0.5642658681213856,0.2951554972410202,0.36945159042105075
1789761172141326000,11.771326171875,-0.5631710586220026,0.29364976885318755,0.38907826457414774
1789761172151376100,11.781376220703125,-1.230993747329712,0.5980687690019607,-0.24210178804872556
1789761172161425200,11.791425048828126,0.37317397194504737,0.8398667700648307,-0.14972447832562027
1789761172171475200,11.80147509765625,0.257713947597146,-0.13321546126902103,0.19027022279622033
1789761172181525200,11.811525146484374,0.2487175711929798,-0.1253559799402952,0.19909063984528183
1789761172191574000,11.821573974609375,0.1900321579903364,-0.3658738780647516,0.5624792039003222
1789761172201624000,11.8316240234375,-0.991314053595066,0.7368424489200115,0.1385574616177939
1789761172211674000,11.841674072265626,-1.794251315191388,1.49163147341907,-0.5104186156649142
1789761172221723100,11.85172314453125,-1.007343981897831,1.5016104311197995,-0.5170345266733318
1789761172231773200,11.861773193359374,0.47998248780369757,0.6287924085676669,0.19628986667823045
1789761172241823200,11.8718232421875,0.2354202827244997,-0.6662485712587833,0.6701596802879124
1789761172251872000,11.8818720703125,0.3690443247944116,-0.6863134541660547,0.45486839521545913
1789761172261922000,11.891922119140625,-0.4148994825184345,0.09935703080892562,-0.1640796418165788
1789761172271972000,11.90197216796875,-0.6653425623297691,0.6539291879117488,-0.4485336392359808
1789761172282021400,11.912021484375,-0.040457098072767254,0.7031926927745342,-0.4606851552028209
1789761172292071200,11.9220712890625,0.4493465265214443,0.27828268837332726,-0.47129199901092794
1789761172302121200,11.932121337890624,0.6025333471953869,-0.4301566728830337,-0.3869037335466593
1789761172312170200,11.942170166015625,-0.21387948204576968,-0.38553894799947735,-0.1897592228004709
1789761172322220000,11.952219970703124,-1.227940204977989,0.30684944216609,0.20778514722604302
1789761172332270000,11.96227001953125,-1.3362462659180163,0.6385322968155145,0.5331558230539784
1789761172342319400,11.9723193359375,-1.326120008701086,0.6163344935327768,0.35169534978233274
1789761172352369200,11.982369140625,-0.9888584771364927,0.3265145121008158,-0.013803959348984061
1789761172362419200,11.992419189453125,0.20213702180385587,-0.012505261307954787,0.35916239772737024
1789761172372468200,12.00246826171875,-0.25784663406610486,-0.2450888593018055,0.9800080850742757
1789761172382518300,12.012518310546875,0.058954877793788905,0.74954586314857,0.9082355190224946
1789761172392568000,12.022568115234375,-0.5519038146764039,0.8711544732540846,0.41508612766433506
1789761172402617300,12.032617431640626,-0.9209311883360147,0.577680060967803,0.17522731450311838
1789761172412667400,12.04266748046875,-0.3117459820359945,0.5311918660372495,0.1995798116017133
1789761172422717200,12.05271728515625,-0.5466331807971,0.00864040257334709,0.03871021787282079
1789761172432766200,12.06276611328125,0.355263052201271,-0.2013128459393978,-0.36401232197657224
1789761172442816300,12.072816162109374,-0.3306038272410631,-0.27163433640003204,-0.4484818725161254
1789761172452866000,12.082865966796875,0.09361351872086525,0.789367585927248,0.2583958654467016
1789761172462915000,12.0929150390625,1.1646592806786298,1.709164217275381,1.2046799600955098
1789761172472965000,12.102965087890626,1.1574866125702856,1.7147978392481802,1.2150097039952874
1789761172483015200,12.11301513671875,-0.8252081301152706,-0.16171499504446982,0.6237846634082496
1789761172493064200,12.123064208984376,-1.7907739944696426,0.33078152189552784,-0.47991475632973013
1789761172503114200,12.1331142578125,-2.358312600651383,0.3135200059711933,-0.482850517520681
1789761172513164300,12.143164306640625,0.07897241442799567,0.7814175037056207,0.5651727538332343
1789761172523213000,12.153213134765625,1.329710142147541,0.46077276042103765,1.0856030604247002
1789761172533263000,12.16326318359375,0.8320973051071167,-0.5792255368441342,0.5433767362844198
1789761172543313200,12.173313232421876,-0.9683423433303833,-1.1753221289902924,-0.2064105344045907
1789761172553362200,12.183362060546875,-1.2887053470641374,0.2153203285038471,-0.5827846175651997
1789761172563412200,12.193412109375,-1.7259002480208874,1.9653256747335195,-0.8254550906136632
1789761172573462300,12.203462158203125,-1.7256524107396602,1.9643875171005725,-0.8183037575542926
1789761172583511000,12.213510986328124,-0.6382786143153906,0.5806745666086673,-0.6375109909437596
1789761172593561000,12.22356103515625,0.5335550880372524,-0.46659752105176444,-0.22671865148320794
1789761172603611100,12.233611083984375,0.1983762079656124,-0.9167442580401897,0.28663755200356245
1789761172613660200,12.24366015625,-1.0368553230643272,-0.19879121850728987,0.5566858613211662
1789761172623710200,12.253710205078125,-2.330170794272423,1.3613801226526498,0.302725932495296
1789761172633760300,12.26376025390625,-1.7530676564097403,2.203114440155029,-0.029220176200196145
1789761172643809000,12.27380908203125,-0.7325076345860958,1.1802438033014535,-0.013813786623254418
1789761172653859000,12.283859130859375,0.8353975156962871,-0.10988777717351912,0.23414142189510165
1789761172663909000,12.2939091796875,0.9341361223459244,-1.0046902525186538,0.17760142322331665
1789761172673958100,12.303958251953125,0.18741583801209927,-0.21723931386768816,-0.3099283381547779
1789761172684008200,12.31400830078125,-0.5910971764236689,1.0831588090777398,-0.8404483693450688
1789761172694057200,12.32405712890625,-1.4289438388377427,1.6751245850294827,-0.9919321124281734
1789761172704107300,12.334107177734374,-0.8531108670413493,1.4655764101862907,-0.5143163537558167
1789761172714157000,12.344156982421875,0.04109831858575344,0.6477531296253204,0.012775748812407254
1789761172724206300,12.354206298828124,0.2962222496896982,0.16812836921811103,-0.12671199765913188
1789761172734256400,12.36425634765625,-0.6121575001090764,0.12167583012282848,-0.9033430708058178
1789761172744306200,12.37430615234375,-0.6873439662575721,0.9430465740323066,-1.4042724850483237
1789761172754355200,12.384355224609376,-0.967669558635354,1.3562544502019882,-1.1739648691624402
1789761172764405200,12.3944052734375,-1.6216279726415872,0.9755185185700654,-0.4190727861477062
1789761172774455000,12.404455078125,-1.261592883732915,0.3874199394404888,0.2331007537357509
1789761172784504000,12.414504150390625,0.6655073975026607,0.23173311864435672,0.2977754339484498
1789761172794554000,12.42455419921875,0.5299006571829319,-0.28587212058901784,-0.4679830571260303
1789761172804604200,12.434604248046876,-0.1849216831088066,-0.2922574377119541,-1.195255348341912
1789761172814653200,12.444653076171875,0.5029208803206682,0.44628070921003815,-0.8842017324842512
1789761172824703200,12.454703125,0.5079647197067737,0.44371524263620377,-0.9129016111373901
1789761172834753300,12.464753173828125,-1.5629846450150011,-0.15565291852653027,0.19975571615789084
1789761172844802000,12.474802001953124,-1.9120669627547262,-0.26612112593650816,-0.23209767764043063
1789761172854852000,12.48485205078125,-1.7558949887901543,0.16407880156636237,-0.7857498338215053
1789761172864902100,12.494902099609375,-0.8711211555063724,0.7909779437333345,-0.8067954713944345
1789761172874951200,12.504951171875,-0.702853670078516,1.330219260713458,-0.35813831537663937
1789761172885001200,12.515001220703125,-0.20242226848602293,1.021073816564679,0.3093265363367274
1789761172895050800,12.52505078125,0.4533551776409149,-0.0332312384724617,0.8676051102094352
1789761172905099500,12.535099609375,0.4472679666817188,-0.02756780588328838,0.864550398813933
1789761172915149600,12.545149658203124,-0.7549965297698974,0.2806014867097139,-0.26501309162937103
1789761172925200000,12.555199951171875,-1.4316092586547136,1.4290619122594594,-0.6578884469315409
1789761172935248600,12.56524853515625,-0.5225397730261087,1.440551274523139,-0.11128949719760567
1789761172945298700,12.575298583984376,0.5163432564735412,0.8040192116141319,0.31767197455149143
1789761172955348700,12.5853486328125,0.8806897788405418,-0.29668752911388874,0.3340311348086223
1789761172965397500,12.5953974609375,0.7731751605391501,-0.6190127728313207,0.40194581985585387
1789761172975447600,12.605447509765625,-0.35399347065687176,-0.2228717667967081,0.532173862811923
1789761172985497600,12.61549755859375,-1.0816261926829813,1.6104945842087268,0.5453588865449652
1789761172995547000,12.625546875,-0.8982979162454604,2.414434300845861,0.5459687255389988
1789761173005596700,12.6355966796875,-1.1783142965435982,0.7479208922952413,0.581863557197526
1789761173015646700,12.645646728515626,-0.6640156976401805,-0.32747312799990175,0.4011250415248796
1789761173025695700,12.65569580078125,0.08756839333772659,-0.014034370571374893,0.17288933654222635
