time,seconds_elapsed,z,y,x
1789761160422154800,0.05215478515625,-0.4093076288700104,-0.26796460151672363,0.2700762152671814
1789761160432204800,0.062204833984375,-0.3592143654823303,-0.2887657582759857,-0.1901174783706665
1789761160442253600,0.072253662109375,-0.33851146697998047,-0.19792000949382782,-0.45519307255744934
1789761160452303600,0.0823037109375,-0.40266355872154236,-0.14335423707962036,-0.27611708641052246
1789761160462353700,0.092353759765625,-0.36580196022987366,-0.09121726453304291,0.054850999265909195
1789761160472402700,0.102402587890625,-0.3246060311794281,-0.153542160987854,0.4278850257396698
1789761160482452700,0.11245263671875,-0.3687628507614136,-0.17631244659423828,0.4765433669090271
1789761160492502800,0.122502685546875,-0.35305657982826233,-0.20492970943450928,0.07700929790735245
1789761160502551600,0.132551513671875,-0.2526644766330719,-0.34280210733413696,-0.28584161400794983
1789761160512601600,0.1426015625,-0.19679774343967438,-0.3621499538421631,-0.32417887449264526
1789761160522651600,0.152651611328125,-0.1498773843050003,-0.2113729566335678,-0.09505833685398102
1789761160532700700,0.16270068359375,-0.10069278627634048,-0.22554843127727509,0.19151829183101654
1789761160542750700,0.172750732421875,-0.034990474581718445,-0.2117985337972641,0.21099026501178741
1789761160552800800,0.18280078125,-0.021678131073713303,-0.051835499703884125,0.1435563713312149
1789761160562849800,0.192849853515625,0.0016053534345701337,0.08816421031951904,-0.17070303857326508
1789761160572899600,0.202899658203125,0.03316008299589157,0.28689196705818176,-0.29043927788734436
1789761160582949600,0.21294970703125,0.10874032974243164,-0.14234383404254913,-0.008841162547469139
1789761160592998700,0.22299853515625,0.2828700542449951,-0.44787925481796265,0.12328198552131653
1789761160603048400,0.23304833984375,0.2543891370296478,-0.17970532178878784,0.3078760802745819
1789761160613098500,0.243098388671875,-0.09777502715587616,0.2919279932975769,0.24284407496452332
1789761160623147800,0.253147705078125,-0.1826406568288803,0.5984356999397278,-0.3242236077785492
1789761160633197800,0.26319775390625,0.09814281016588211,0.33969444036483765,-0.34864720702171326
1789761160643247600,0.27324755859375,0.41267117857933044,-0.15918059647083282,0.11936287581920624
1789761160653296600,0.283296630859375,0.6308472156524658,-0.327152281999588,0.55507493019104
1789761160663346700,0.2933466796875,0.38690802454948425,-0.03989335522055626,0.7248655557632446
1789761160673396500,0.303396484375,0.029712887480854988,0.20583118498325348,0.11265517771244049
1789761160683445800,0.31344580078125,0.07523936033248901,0.29778268933296204,-0.6730005145072937
1789761160693495800,0.323495849609375,0.3099208474159241,0.08953121304512024,-0.8376102447509766
1789761160703545600,0.333545654296875,0.3238108158111572,-0.1680622398853302,0.1268564760684967
1789761160713594600,0.3435947265625,0.30704596638679504,-0.2957853078842163,0.5742955207824707
1789761160723644700,0.353644775390625,0.26786285638809204,-0.29446011781692505,0.47811198234558105
1789761160733694500,0.363694580078125,0.12527962028980255,-0.15458132326602936,0.001002413802780211
1789761160743743700,0.37374365234375,0.03454892337322235,0.17635558545589447,-0.25492921471595764
1789761160753793800,0.383793701171875,-0.0075572519563138485,0.23574940860271454,-0.35423344373703003
1789761160763843800,0.39384375,0.031378693878650665,-0.05861111357808113,0.10886656492948532
1789761160773892600,0.403892578125,0.28723257780075073,-0.276493102312088,0.17925071716308594
1789761160783942700,0.413942626953125,0.30906808376312256,-0.23632171750068665,-0.12730416655540466
1789761160793992700,0.42399267578125,-0.034629084169864655,-0.005769472103565931,-0.10973288863897324
1789761160804041700,0.434041748046875,-0.14133422076702118,0.1883470118045807,-0.0030450583435595036
1789761160814091800,0.444091796875,0.07927724719047546,0.05494474247097969,-0.13272741436958313
1789761160824141800,0.454141845703125,0.13292290270328522,-0.2262704223394394,0.012270514853298664
1789761160834190600,0.464190673828125,0.15280446410179138,-0.34511798620224,-0.01913507841527462
1789761160844240600,0.47424072265625,0.17065882682800293,-0.14785896241664886,-0.04785221070051193
1789761160854290700,0.484290771484375,0.0643472969532013,0.05086078494787216,0.028017519041895866
1789761160864339700,0.494339599609375,-0.056281913071870804,0.10695361346006393,0.1259366273880005
1789761160874389800,0.5043896484375,-0.049067944288253784,-0.0040823593735694885,0.14289216697216034
1789761160884439600,0.514439453125,0.09884322434663773,-0.07662420719861984,0.0005502090789377689
1789761160894488600,0.524488525390625,0.23578590154647827,-0.011603659018874168,-0.11333827674388885
1789761160904538600,0.53453857421875,0.11635084450244904,0.05730164051055908,-0.1271451711654663
1789761160914588400,0.54458837890625,-0.002670884132385254,-0.033185385167598724,0.14398273825645447
1789761160924637400,0.554637451171875,0.17388950288295746,0.04683887958526611,0.32349950075149536
1789761160934687500,0.5646875,0.2313288301229477,0.13719354569911957,0.11192280799150467
1789761160944737500,0.574737548828125,-0.0013603427214547992,0.016163257881999016,-0.06674787402153015
1789761160954786600,0.58478662109375,0.06697690486907959,0.0362810418009758,-0.12400929629802704
1789761160964836600,0.594836669921875,0.3654150068759918,-0.0097450390458107,-0.2695521116256714
1789761160974886700,0.60488671875,0.2576768100261688,-0.15520289540290833,0.12589667737483978
1789761160984935400,0.614935302734375,0.09975402057170868,-0.0900057926774025,0.4584674537181854
1789761160994985500,0.6249853515625,0.2241840958595276,0.016288692131638527,0.12122496217489243
1789761161005035500,0.635035400390625,0.2300124317407608,0.023484554141759872,-0.3012983202934265
1789761161015084500,0.64508447265625,0.20248466730117798,0.06272809952497482,-0.4388425946235657
1789761161025134600,0.655134521484375,0.26609745621681213,0.12122442573308945,-0.01173548586666584
1789761161035184600,0.6651845703125,0.2998964488506317,0.14299550652503967,0.38214683532714844
1789761161045233400,0.6752333984375,0.27317294478416443,-0.0319475457072258,0.47922465205192566
1789761161055283500,0.685283447265625,0.20878995954990387,-0.05814532935619354,0.022058697417378426
1789761161065333500,0.69533349609375,0.1992688924074173,-0.055691223591566086,-0.22383788228034973
1789761161075382500,0.705382568359375,0.29070931673049927,-0.000003728425554072601,-0.337983638048172
1789761161085432600,0.7154326171875,0.2758675217628479,0.0586225651204586,0.08004583418369293
1789761161095482600,0.725482666015625,0.17316725850105286,0.03235367685556412,0.19228528439998627
1789761161105531400,0.735531494140625,0.1567286252975464,0.07859520614147186,0.1782328486442566
1789761161115581400,0.74558154296875,0.20493264496326447,0.11742889136075974,0.10413199663162231
1789761161125631500,0.755631591796875,0.2778755724430084,0.20454221963882446,-0.09797157347202301
1789761161135680500,0.765680419921875,0.3218693733215332,0.22755299508571625,-0.15705060958862305
1789761161145730600,0.77573046875,0.3476194739341736,0.15491580963134766,0.075202077627182
1789761161155780600,0.785780517578125,0.39087721705436707,0.0353260338306427,0.09332914650440216
1789761161165829600,0.79582958984375,0.37316879630088806,-0.02924017608165741,0.23872655630111694
1789761161175879400,0.80587939453125,0.2435586005449295,0.056954097002744675,0.19996798038482666
1789761161185929500,0.815929443359375,0.16061711311340332,0.10977230221033096,0.07732941210269928
1789761161195978800,0.825978759765625,0.25147244334220886,0.07863249629735947,-0.1244007796049118
1789761161206028500,0.836028564453125,0.35820475220680237,0.1291627734899521,-0.18711796402931213
1789761161216078600,0.84607861328125,0.29941385984420776,0.17523573338985443,-0.1294165849685669
1789761161226127600,0.856127685546875,0.16932830214500427,0.15237542986869812,0.3458394408226013
1789761161236177400,0.866177490234375,0.24796558916568756,0.18783807754516602,0.27193883061408997
1789761161246227500,0.8762275390625,0.29354986548423767,0.14248710870742798,0.04994385689496994
1789761161256276500,0.8862763671875,0.23135440051555634,0.07277087867259979,-0.20579923689365387
1789761161266326800,0.896326904296875,0.3123461902141571,0.041973017156124115,-0.13751578330993652
1789761161276376600,0.90637646484375,0.3667100965976715,0.14985127747058868,0.0594358965754509
1789761161286426600,0.916426513671875,0.24459776282310486,0.1805487424135208,0.2124728560447693
1789761161296475600,0.9264755859375,0.22600224614143372,0.20541653037071228,0.22769254446029663
1789761161306525400,0.936525390625,0.29392457008361816,0.08242004364728928,-0.06359202414751053
1789761161316575500,0.946575439453125,0.31560295820236206,-0.007412109989672899,-0.31726157665252686
1789761161326624500,0.95662451171875,0.2758643329143524,0.13862445950508118,-0.1194896474480629
1789761161336674600,0.966674560546875,0.17802086472511292,0.29412510991096497,0.3052730858325958
1789761161346723600,0.9767236328125,0.24219825863838196,0.18147258460521698,0.16263657808303833
1789761161356773600,0.986773681640625,0.32659757137298584,0.09610522538423538,0.1594996452331543
1789761161366823400,0.996823486328125,0.25439339876174927,0.1299060732126236,-0.013804495334625244
1789761161376873500,1.00687353515625,0.18823595345020294,0.17906935513019562,0.012262258678674698
1789761161386922500,1.016922607421875,0.21289655566215515,0.18123583495616913,0.08407892286777496
1789761161396972500,1.02697265625,0.2442701905965805,0.07024247199296951,0.04981522634625435
1789761161407022600,1.037022705078125,0.23539040982723236,0.18873955309391022,-0.06929971277713776
1789761161417071600,1.047071533203125,0.20126387476921082,0.2060500979423523,0.06685546040534973
1789761161427121700,1.05712158203125,0.20636701583862305,0.10065203905105591,0.2892560362815857
1789761161437171500,1.06717138671875,0.3321574330329895,0.11989737302064896,0.1957511305809021
1789761161447220500,1.077220458984375,0.2549971342086792,0.14590208232402802,-0.1534673124551773
1789761161457270500,1.0872705078125,0.11278247088193893,0.22479769587516785,-0.13903005421161652
1789761161467320300,1.0973203125,0.21152928471565247,0.30216172337532043,0.050442665815353394
1789761161477369600,1.10736962890625,0.35238122940063477,0.1752178817987442,0.13371679186820984
1789761161487419600,1.117419677734375,0.29614269733428955,0.06490256637334824,0.2349209040403366
1789761161497469700,1.1274697265625,0.16598178446292877,0.06811913102865219,0.045411691069602966
1789761161507518500,1.1375185546875,0.21093353629112244,0.1475798636674881,-0.24160702526569366
1789761161517568500,1.147568603515625,0.3057074546813965,0.27221688628196716,-0.27003946900367737
1789761161527618600,1.15761865234375,0.24549151957035065,0.22125914692878723,-0.053517818450927734
1789761161537667600,1.16766748046875,0.337721049785614,0.25123780965805054,0.08763078600168228
1789761161547717600,1.177717529296875,0.45799127221107483,0.2660844027996063,0.060565341264009476
1789761161557767700,1.187767578125,0.3749626874923706,0.17311985790729523,0.029027124866843224
1789761161567816400,1.19781640625,0.28249800205230713,0.17724189162254333,-0.021806495264172554
1789761161577866500,1.207866455078125,0.28764694929122925,0.20430973172187805,0.16587817668914795
1789761161587916500,1.21791650390625,0.3434593677520752,0.2918371856212616,0.19745208323001862
1789761161597965600,1.227965576171875,0.3294958770275116,0.31620723009109497,0.0581919327378273
1789761161608015600,1.238015625,0.32940664887428284,0.46262383460998535,0.0028160265646874905
1789761161618065700,1.248065673828125,0.2679440975189209,0.4567611515522003,-0.06409376114606857
1789761161628114400,1.258114501953125,0.1988891363143921,0.3108140528202057,-0.016053002327680588
1789761161638164500,1.26816455078125,0.35287895798683167,0.3436196744441986,0.061764296144247055
1789761161648214500,1.278214599609375,0.26467400789260864,0.4365386962890625,0.11709439754486084
1789761161658263600,1.288263671875,0.10834085196256638,0.33950191736221313,0.04644046723842621
1789761161668313600,1.298313720703125,0.24469096958637238,0.1977362483739853,0.03605227544903755
1789761161678363600,1.30836376953125,0.2922467589378357,0.19447174668312073,0.1906873881816864
1789761161688412700,1.31841259765625,0.07346116751432419,0.34050166606903076,0.2613442540168762
1789761161698462500,1.32846240234375,-0.0733083039522171,0.4047884941101074,0.24765214323997498
1789761161708512500,1.338512451171875,-0.050993409007787704,0.2729484438896179,0.12458080798387527
1789761161718561500,1.3485615234375,-0.008423578925430775,0.14638571441173553,-0.14371322095394135
1789761161728611600,1.358611572265625,0.003173955250531435,0.20093736052513123,-0.19275906682014465
1789761161738661600,1.36866162109375,-0.07622526586055756,0.3540531396865845,0.06584133207798004
1789761161748710700,1.378710693359375,-0.13448163866996765,0.3088127076625824,0.16357721388339996
1789761161758760400,1.388760498046875,-0.14071238040924072,0.2189243584871292,0.07005977630615234
1789761161768810500,1.398810546875,-0.18277940154075623,0.039433691650629044,0.02485261857509613
1789761161778859500,1.408859619140625,-0.2862975299358368,-0.04211949184536934,-0.059120312333106995
1789761161788909300,1.418909423828125,-0.31169718503952026,-0.011446000076830387,-0.17165137827396393
1789761161798959600,1.428959716796875,-0.3884958028793335,0.025905633345246315,0.025837190449237823
1789761161809008600,1.439008544921875,-0.4120948910713196,0.09512118995189667,-0.0933467224240303
1789761161819058700,1.44905859375,-0.40461352467536926,0.13540177047252655,-0.017182981595396996
1789761161829108500,1.4591083984375,-0.5063965916633606,0.12757287919521332,-0.027651866897940636
1789761161839157500,1.469157470703125,-0.6083837151527405,0.09962619096040726,-0.06579632312059402
1789761161849207600,1.47920751953125,-0.6762067079544067,0.03586292639374733,0.08733677119016647
1789761161859257300,1.48925732421875,-0.7576669454574585,-0.03425837308168411,0.36353135108947754
1789761161869306600,1.499306640625,-0.7729875445365906,-0.07858482003211975,0.19889499247074127
1789761161879357200,1.509357177734375,-0.7329298853874207,-0.20339013636112213,0.03556624799966812
1789761161889407200,1.5194072265625,-0.6617758274078369,-0.17706824839115143,-0.3158314526081085
1789761161899456000,1.5294560546875,-0.7466166615486145,-0.12522903084754944,-0.24019822478294373
1789761161909506000,1.539506103515625,-0.8406510353088379,-0.07776137441396713,0.04496188089251518
1789761161919556000,1.54955615234375,-0.74964839220047,-0.14571352303028107,0.039975911378860474
1789761161929605000,1.559605224609375,-0.7292275428771973,-0.29736509919166565,0.021572137251496315
1789761161939655200,1.5696552734375,-0.7968636155128479,-0.29131919145584106,0.14295609295368195
1789761161949705200,1.579705322265625,-0.7173061966896057,-0.19938793778419495,-0.004590757191181183
1789761161959754000,1.58975390625,-0.6571978330612183,-0.28405115008354187,0.003945473115891218
1789761161969804000,1.599803955078125,-0.6232460141181946,-0.354274183511734,-0.10301000624895096
1789761161979854000,1.60985400390625,-0.5252222418785095,-0.2441069483757019,-0.2653088867664337
1789761161989902800,1.61990283203125,-0.5183441042900085,-0.1086825355887413,-0.17997242510318756
1789761161999953200,1.629953125,-0.5521393418312073,-0.20897158980369568,0.11371617764234543
1789761162010003200,1.640003173828125,-0.4066484570503235,-0.2108163684606552,0.20264072716236115
1789761162020052000,1.650052001953125,-0.3056275546550751,-0.25610846281051636,-0.0038519962690770626
1789761162030102000,1.66010205078125,-0.3650115132331848,-0.281872421503067,-0.06784109771251678
1789761162040152000,1.670152099609375,-0.3321704864501953,-0.13052286207675934,-0.09651375561952591
1789761162050200800,1.680200927734375,-0.22732768952846527,-0.08387120068073273,-0.06381013989448547
1789761162060251000,1.6902509765625,-0.17206071317195892,-0.1380324363708496,0.022274412214756012
1789761162070301000,1.700301025390625,-0.1307673305273056,-0.15956462919712067,0.17160718142986298
1789761162080350200,1.71035009765625,-0.12251020222902298,-0.09259651601314545,0.18680743873119354
1789761162090400000,1.72039990234375,-0.08142402023077011,-0.00019467707898002118,-0.12114879488945007
1789761162100450000,1.730449951171875,-0.021407553926110268,-0.011245463974773884,-0.11600383371114731
1789761162110499000,1.7404990234375,-0.007001716643571854,0.016039686277508736,-0.007631287910044193
1789761162120548900,1.750548828125,0.0034000577870756388,-0.09292913973331451,-0.047199469059705734
1789761162130599000,1.760598876953125,0.07355118542909622,-0.24591097235679626,0.025347433984279633
1789761162140648200,1.770648193359375,0.10001581162214279,-0.23832868039608002,0.13536661863327026
1789761162150698000,1.780697998046875,0.049074601382017136,-0.1273515671491623,0.05631839856505394
1789761162160748000,1.790748046875,0.0036855486687272787,-0.040587108582258224,-0.01931936852633953
1789761162170797000,1.800797119140625,0.07570168375968933,-0.04247981682419777,-0.1813460886478424
1789761162180846800,1.810846923828125,0.11917246133089066,-0.06071128323674202,-0.05901831388473511
1789761162190897000,1.82089697265625,0.10717012733221054,-0.09266708791255951,0.13931500911712646
1789761162200946200,1.8309462890625,0.13181261718273163,-0.11996475607156754,0.25496891140937805
1789761162210996200,1.840996337890625,0.1480800062417984,-0.18582525849342346,0.30178648233413696
1789761162221046000,1.8510458984375,0.19442513585090637,-0.22080588340759277,0.023938355967402458
1789761162231095000,1.861094970703125,0.24779728055000305,-0.16929395496845245,-0.28446048498153687
1789761162241145000,1.87114501953125,0.13700632750988007,0.10972969233989716,-0.09966693818569183
1789761162251195000,1.88119482421875,0.002373941708356142,0.4719313085079193,0.18536612391471863
1789761162261244200,1.891244140625,0.10104698687791824,0.41415828466415405,0.08008098602294922
1789761162271294200,1.901294189453125,0.36571353673934937,-0.09237786382436752,-0.12607350945472717
1789761162281344000,1.911343994140625,0.493361234664917,-0.394025593996048,-0.15988820791244507
1789761162291393000,1.92139306640625,0.2532660961151123,-0.26506149768829346,0.016388826072216034
1789761162301443000,1.931443115234375,-0.11520488560199738,0.109816774725914,0.027940554544329643
1789761162311493000,1.9414931640625,-0.2786595821380615,0.41397401690483093,0.35500362515449524
1789761162321542100,1.951542236328125,-0.1380838304758072,0.20834282040596008,0.271111398935318
1789761162331592200,1.96159228515625,0.13955309987068176,-0.3111112713813782,0.038418494164943695
1789761162341642200,1.971642333984375,0.3037811815738678,-0.6270668506622314,-0.39194273948669434
1789761162351691000,1.98169091796875,0.10795629024505615,-0.32456210255622864,-0.2951679825782776
1789761162361741000,1.991740966796875,-0.22984571754932404,0.14156298339366913,0.12710602581501007
1789761162371791000,2.001791015625,-0.3023396134376526,0.25156885385513306,0.3128165006637573
1789761162381840000,2.01183984375,-0.11334706097841263,0.029139775782823563,0.3329739570617676
1789761162391890200,2.02189013671875,0.09283699840307236,-0.5370147228240967,0.15530329942703247
1789761162401940200,2.031940185546875,0.23374271392822266,-0.22182880342006683,-0.30034172534942627
1789761162411989000,2.041989013671875,0.061040449887514114,0.10910172015428543,-0.3357953131198883
1789761162422039000,2.0520390625,-0.2627272307872772,0.4736708998680115,-0.2644510865211487
1789761162432089000,2.062089111328125,-0.3230513036251068,0.5732659101486206,0.33992481231689453
1789761162442137900,2.072137939453125,-0.020919395610690117,0.2510330379009247,0.2767642140388489
1789761162452188000,2.08218798828125,0.2704213559627533,-0.2638705372810364,-0.05542917177081108
1789761162462238000,2.092238037109375,0.2581245005130768,-0.3700193464756012,-0.44738736748695374
1789761162472287000,2.102286865234375,0.013889716938138008,0.018389392644166946,-0.1792384684085846
1789761162482337000,2.1123369140625,-0.18015964329242706,0.4380399286746979,0.10357166826725006
1789761162492387000,2.122386962890625,-0.23264442384243011,0.3771137297153473,0.15992149710655212
1789761162502436000,2.13243603515625,-0.12453100830316544,0.09426551312208176,-0.0035175031516700983
1789761162512486000,2.14248583984375,0.06365860253572464,-0.18642713129520416,-0.20977666974067688
1789761162522536000,2.152535888671875,-0.006141515914350748,-0.12269715964794159,-0.21918535232543945
1789761162532586000,2.1625859375,-0.4034814238548279,0.15400341153144836,0.28934046626091003
1789761162542635000,2.172635009765625,-0.6571459174156189,0.3815481662750244,0.29716750979423523
1789761162552685000,2.18268505859375,-0.5816684365272522,0.1926349550485611,0.24087946116924286
1789761162562735000,2.192735107421875,-0.4113422632217407,-0.24949851632118225,0.12880298495292664
1789761162572783900,2.202783935546875,-0.32829079031944275,-0.4584924876689911,-0.20053470134735107
1789761162582834000,2.212833984375,-0.35130131244659424,-0.44632476568222046,-0.37321940064430237
1789761162592884000,2.222884033203125,-0.4804108142852783,-0.2719327211380005,-0.07433628290891647
1789761162602933000,2.23293310546875,-0.5951038599014282,-0.12512356042861938,0.13501214981079102
1789761162612983000,2.242983154296875,-0.5517425537109375,-0.13479776680469513,0.3024754524230957
1789761162623033000,2.253033203125,-0.3236275911331177,-0.4203735888004303,0.3627278506755829
1789761162633082000,2.26308203125,-0.0973217561841011,-0.46251624822616577,-0.10287471860647202
1789761162643132000,2.2731318359375,-0.11495508253574371,-0.2802993059158325,-0.37950870394706726
1789761162653182000,2.283181884765625,-0.23483169078826904,-0.06456221640110016,-0.3039068877696991
1789761162663231200,2.293231201171875,-0.21444359421730042,0.07590222358703613,-0.282394677400589
1789761162673281000,2.303281005859375,-0.23447348177433014,0.12942536175251007,0.16200488805770874
1789761162683331000,2.3133310546875,-0.3421573340892792,0.03411003202199936,0.4726344048976898
1789761162693380000,2.323380126953125,-0.30195239186286926,-0.05590001866221428,0.3545602262020111
1789761162703430000,2.333429931640625,-0.17778438329696655,-0.10315221548080444,-0.0036397422663867474
1789761162713480000,2.34347998046875,-0.1367674320936203,-0.21898800134658813,-0.45580267906188965
1789761162723529200,2.353529296875,-0.1881754994392395,-0.19050443172454834,-0.34233203530311584
1789761162733579300,2.363579345703125,-0.19553939998149872,-0.1319226175546646,-0.19702385365962982
1789761162743629000,2.373629150390625,-0.19046102464199066,-0.05625821277499199,0.14139440655708313
1789761162753678000,2.383677978515625,-0.20201754570007324,-0.09397176653146744,0.25786375999450684
1789761162763728100,2.39372802734375,-0.22489915788173676,-0.12277918308973312,0.44248315691947937
1789761162773778000,2.40377783203125,-0.1869504451751709,-0.14461417496204376,0.16513170301914215
1789761162783827000,2.413826904296875,-0.11850827187299728,-0.18756723403930664,-0.08388025313615799
1789761162793877200,2.423877197265625,-0.08981191366910934,-0.2150060534477234,-0.3501412272453308
1789761162803927000,2.433927001953125,-0.05690562725067139,-0.2756486237049103,-0.3643505275249481
1789761162813976000,2.44397607421875,0.04243773967027664,-0.2704445421695709,-0.03730609267950058
1789761162824026000,2.454026123046875,0.1043892577290535,-0.24742257595062256,0.33027246594429016
1789761162834076200,2.464076171875,0.02082165889441967,-0.13836613297462463,0.4577486515045166
1789761162844125000,2.474125,-0.10223022848367691,0.06389030069112778,0.3469715416431427
1789761162854175000,2.484175048828125,-0.06016506999731064,0.10417141020298004,-0.2346375435590744
1789761162864225000,2.49422509765625,0.14712686836719513,-0.1257033348083496,-0.5771661400794983
1789761162874274000,2.504274169921875,0.3170280158519745,-0.29076337814331055,-0.4630579352378845
1789761162884324000,2.514323974609375,0.21944846212863922,-0.25328338146209717,0.25412946939468384
1789761162894374000,2.524373779296875,0.026800721883773804,-0.0460902638733387,0.7923884391784668
1789761162904423000,2.5344228515625,-0.006957774516195059,0.15147288143634796,0.5432494282722473
1789761162914473000,2.544472900390625,0.07163956761360168,0.19265998899936676,-0.17320001125335693
1789761162924522800,2.554522705078125,0.12342100590467453,0.04749241843819618,-0.6782940626144409
1789761162934572000,2.564572021484375,0.22456572949886322,-0.15596136450767517,-0.6975108981132507
1789761162944622000,2.5746220703125,0.3637925982475281,-0.30510106682777405,-0.06872952729463577
1789761162954671900,2.584671875,0.3529772460460663,-0.2540477216243744,0.5305783748626709
1789761162964721000,2.594720947265625,0.1951412558555603,0.0011163970921188593,0.41883373260498047
1789761162974771000,2.60477099609375,0.09141992777585983,0.2508348822593689,0.037750307470560074
1789761162984821000,2.614821044921875,0.16122590005397797,0.17542694509029388,-0.08861108869314194
1789761162994870000,2.6248701171875,0.30753758549690247,-0.03317553177475929,-0.10715148597955704
1789761163004920000,2.634920166015625,0.3813484311103821,-0.07412083446979523,-0.058710984885692596
1789761163014970000,2.64497021484375,0.3300796449184418,-0.018751051276922226,-0.028508873656392097
1789761163025019000,2.655018798828125,0.24246962368488312,0.029024461284279823,0.10240253806114197
1789761163035069000,2.66506884765625,0.2583109140396118,0.1439683586359024,-0.01762506552040577
1789761163045119000,2.675118896484375,0.28063592314720154,0.10807853192090988,-0.03844752535223961
1789761163055168000,2.68516796875,0.2524418234825134,-0.044021520763635635,0.11027085036039352
1789761163065218000,2.695218017578125,0.26907727122306824,-0.07577519118785858,0.33344241976737976
1789761163075268000,2.70526806640625,0.2845132350921631,0.05531278997659683,0.0790838971734047
1789761163085316900,2.71531689453125,0.19246399402618408,0.11299073696136475,-0.1475124955177307
1789761163095367000,2.725366943359375,0.1333380788564682,0.018908176571130753,-0.09889781475067139
1789761163105417000,2.7354169921875,0.20624184608459473,-0.038244057446718216,-0.09161034226417542
1789761163115466000,2.745466064453125,0.22541475296020508,-0.03460484743118286,0.10369124263525009
1789761163125516000,2.75551611328125,0.14176645874977112,-0.05347520858049393,0.2672833800315857
1789761163135566000,2.765566162109375,0.07825805246829987,0.0036855486687272787,0.1768573373556137
1789761163145614800,2.77561474609375,0.050030410289764404,0.16976666450500488,-0.22330152988433838
1789761163155665000,2.785664794921875,0.014371749013662338,0.1637314110994339,-0.34631267189979553
1789761163165715000,2.79571484375,0.042021751403808594,0.03724643960595131,-0.153788760304451
1789761163175764000,2.805763916015625,0.13332396745681763,-0.07066724449396133,0.03537743166089058
1789761163185814000,2.81581396484375,0.11227301508188248,-0.05415218323469162,0.2539329528808594
1789761163195864000,2.825864013671875,-0.004788363818079233,-0.037465084344148636,0.2810060977935791
1789761163205913000,2.8359130859375,-0.013511015102267265,0.0521678626537323,0.0683971643447876
1789761163215963000,2.845962890625,0.0749536007642746,0.04849403351545334,-0.2563271224498749
1789761163226013000,2.856012939453125,0.0717567428946495,0.012682505883276463,-0.18936167657375336
1789761163236062000,2.86606201171875,0.0523524209856987,-0.015587215311825275,0.11570236086845398
1789761163246111700,2.87611181640625,0.09119409322738647,0.04971642419695854,0.2510649859905243
1789761163256162000,2.886162109375,0.07530274242162704,0.13403557240962982,0.28890955448150635
1789761163266211000,2.896211181640625,0.02701750211417675,0.18687401711940765,0.035766251385211945
1789761163276260900,2.9062607421875,0.10586198419332504,0.10713763535022736,-0.40076979994773865
1789761163286311000,2.916310791015625,0.26251524686813354,-0.04087259992957115,-0.25810346007347107
1789761163296360000,2.92635986328125,0.3290010690689087,-0.05814452841877937,0.10591284930706024
1789761163306410000,2.936409912109375,0.23936066031455994,0.1412212997674942,0.42966029047966003
1789761163316459800,2.946459716796875,0.09422530233860016,0.32922396063804626,0.5614017844200134
1789761163326509000,2.956509033203125,0.1887211799621582,0.2406642735004425,0.042153578251600266
1789761163336559000,2.96655908203125,0.4425446689128876,0.07577385753393173,-0.5370314717292786
1789761163346609000,2.97660888671875,0.47950828075408936,-0.006972954608500004,-0.4979626536369324
1789761163356658000,2.986657958984375,0.3324860632419586,0.07150720804929733,-0.29348674416542053
1789761163366708000,2.9967080078125,0.247126966714859,0.3214946687221527,0.1822744607925415
1789761163376757800,3.0067578125,0.20359280705451965,0.40498611330986023,0.2796771824359894
1789761163386807000,3.01680712890625,0.18132798373699188,0.1630195528268814,0.20302794873714447
1789761163396857000,3.026857177734375,0.20521600544452667,-0.0022397185675799847,0.1061067283153534
1789761163406907100,3.0369072265625,0.17681579291820526,0.012829245999455452,0.03165646269917488
1789761163416956000,3.046955810546875,0.02333914488554001,0.11299605667591095,-0.00236195744946599
1789761163427006000,3.057005859375,-0.10400229692459106,0.17815348505973816,-0.12032188475131989
1789761163437056000,3.067055908203125,-0.10213568806648254,0.12067635357379913,-0.025478728115558624
1789761163447105800,3.077105712890625,-0.040775127708911896,-0.05223444104194641,0.06266790628433228
1789761163457155000,3.087155029296875,-0.04729694128036499,-0.06483226269483566,-0.0022796657867729664
1789761163467205000,3.097205078125,-0.2040008008480072,-0.029141906648874283,-0.19923587143421173
1789761163477255000,3.1072548828125,-0.3531665802001953,0.007459514308720827,-0.06975777447223663
1789761163487304000,3.117303955078125,-0.3538459539413452,0.039741553366184235,0.00028069718973711133
1789761163497354000,3.12735400390625,-0.37867966294288635,-0.0415213443338871,0.23950526118278503
1789761163507403800,3.13740380859375,-0.5113881826400757,-0.11022131145000458,0.29762235283851624
1789761163517453000,3.147453125,-0.5173906683921814,-0.10751047730445862,-0.15167154371738434
1789761163527503000,3.157503173828125,-0.4745872914791107,-0.10621139407157898,-0.4682476222515106
1789761163537553200,3.16755322265625,-0.5780931711196899,-0.14477050304412842,-0.21177563071250916
1789761163547602000,3.177601806640625,-0.6922831535339355,0.0032021848019212484,0.25597479939460754
1789761163557652000,3.18765185546875,-0.6579283475875854,-0.009009473957121372,0.4992183446884155
1789761163567702000,3.197701904296875,-0.5757259130477905,-0.1581275910139084,0.24847479164600372
1789761163577751000,3.2077509765625,-0.5300734639167786,-0.35311171412467957,-0.37454405426979065
1789761163587801000,3.217801025390625,-0.48325029015541077,-0.26394590735435486,-0.6382236480712891
1789761163597851100,3.22785107421875,-0.4702841639518738,-0.19493646919727325,-0.4009663164615631
1789761163607900000,3.23789990234375,-0.5669233202934265,0.030780550092458725,0.2238413542509079
1789761163617950000,3.247949951171875,-0.6290647387504578,0.05383286997675896,0.6000884771347046
1789761163628000000,3.258,-0.47305968403816223,-0.19885264337062836,0.2828191816806793
1789761163638048800,3.268048828125,-0.2931618392467499,-0.24402837455272675,-0.20974870026111603
1789761163648099000,3.27809912109375,-0.354118674993515,-0.16506299376487732,-0.3272668123245239
1789761163658149000,3.288149169921875,-0.39724430441856384,-0.3005979061126709,-0.3737514913082123
1789761163668198000,3.298197998046875,-0.21533387899398804,-0.4180736839771271,-0.10687372088432312
1789761163678248000,3.308248046875,-0.12171737849712372,-0.3112364411354065,0.10054738074541092
1789761163688298000,3.318298095703125,-0.2923589050769806,-0.18683460354804993,0.19722677767276764
1789761163698346800,3.3283466796875,-0.40108323097229004,-0.04302043840289116,0.10652084648609161
1789761163708396800,3.338396728515625,-0.2694740891456604,-0.04117859527468681,-0.0310434028506279
1789761163718446800,3.34844677734375,-0.09162978827953339,-0.303989440202713,-0.24479669332504272
1789761163728496000,3.35849609375,-0.08748004585504532,-0.39662325382232666,-0.3049580454826355
1789761163738546000,3.3685458984375,-0.2660559117794037,-0.1252007931470871,-0.1624797284603119
1789761163748596000,3.378595947265625,-0.38726410269737244,-0.032871395349502563,0.12314243614673615
1789761163758645000,3.38864501953125,-0.294009268283844,-0.11106473207473755,0.39811408519744873
1789761163768694800,3.39869482421875,-0.12413925677537918,-0.31784960627555847,0.4015524983406067
1789761163778744800,3.408744873046875,-0.04707217216491699,-0.34356480836868286,0.12918515503406525
1789761163788794000,3.418794189453125,-0.03556864708662033,-0.24757064878940582,-0.15783409774303436
1789761163798844000,3.428843994140625,-0.010189786553382874,-0.18100573122501373,-0.280974417924881
1789761163808894000,3.43889404296875,0.028449751436710358,-0.07641700655221939,-0.23069952428340912
1789761163818943000,3.44894287109375,0.05503981560468674,-0.020898357033729553,0.012515791691839695
1789761163828993000,3.458992919921875,0.13072286546230316,-0.07633817940950394,0.2882895767688751
1789761163839042800,3.469042724609375,0.22667841613292694,-0.025103755295276642,0.37862852215766907
1789761163849092000,3.479092041015625,0.26872095465660095,0.06255552172660828,0.14893968403339386
1789761163859142100,3.48914208984375,0.3245999217033386,0.054190535098314285,-0.08767259120941162
1789761163869192000,3.49919189453125,0.47048336267471313,0.03675801306962967,-0.27244484424591064
1789761163879241000,3.509240966796875,0.6460602283477783,-0.10248882323503494,-0.39488980174064636
1789761163889291000,3.519291015625,0.7433812022209167,-0.19064106047153473,-0.08003651350736618
1789761163899341000,3.529341064453125,0.7468312978744507,0.002837864449247718,0.3609108030796051
1789761163909390000,3.53939013671875,0.7044031620025635,0.37039509415626526,0.5607980489730835
1789761163919440100,3.549440185546875,0.706531822681427,0.5075031518936157,0.18412217497825623
1789761163929490200,3.559490234375,0.7961559891700745,0.3911323547363281,-0.3075501024723053
1789761163939539000,3.5695390625,0.925220787525177,0.304171085357666,-0.3441286087036133
1789761163949589000,3.579589111328125,0.910055935382843,0.337346613407135,-0.08880070596933365
1789761163959639000,3.58963916015625,0.7006542682647705,0.4182819426059723,0.19934798777103424
1789761163969688000,3.59968798828125,0.5337110757827759,0.49401983618736267,0.3961196541786194
1789761163979738000,3.609738037109375,0.5307043790817261,0.4444213807582855,0.2149336040019989
1789761163989788200,3.6197880859375,0.5473693609237671,0.2351086586713791,-0.14873194694519043
1789761163999837200,3.629837158203125,0.5172154307365417,0.06279706954956055,-0.359990656375885
1789761164009887000,3.639886962890625,0.4089827239513397,0.056296560913324356,0.10454345494508743
1789761164019937000,3.64993701171875,0.2590709626674652,0.15070348978042603,0.3515892028808594
1789761164029986000,3.659986083984375,0.16558417677879333,0.2304537147283554,0.10656958818435669
1789761164040035800,3.670035888671875,0.14549382030963898,0.20853988826274872,-0.06986083835363388
1789761164050086100,3.680086181640625,0.17959372699260712,0.03371775150299072,-0.07655922323465347
1789761164060135200,3.69013525390625,0.15320660173892975,0.00020985709852539003,-0.0678674653172493
1789761164070185000,3.70018505859375,-0.0285248514264822,0.19861215353012085,0.0683327168226242
1789761164080235000,3.710235107421875,-0.17708183825016022,0.15026140213012695,0.029699038714170456
1789761164090284000,3.720283935546875,-0.17663122713565826,0.07165421545505524,-0.12085238844156265
1789761164100333800,3.730333740234375,-0.2051616758108139,0.03334170952439308,-0.004828843753784895
1789761164110383900,3.7403837890625,-0.32221719622612,-0.05242272838950157,0.11829734593629837
1789761164120433200,3.75043310546875,-0.3649979531764984,-0.14891943335533142,0.1999586522579193
1789761164130483200,3.760483154296875,-0.3425607979297638,-0.11151081323623657,-0.08468692749738693
1789761164140533000,3.770532958984375,-0.40491631627082825,-0.03851436823606491,-0.22964517772197723
1789761164150582000,3.78058203125,-0.44365841150283813,-0.0938149094581604,-0.2838706076145172
1789761164160632000,3.790632080078125,-0.4001269042491913,-0.09338027983903885,0.13487738370895386
1789761164170681900,3.800681884765625,-0.35750433802604675,-0.12991085648536682,0.25769945979118347
1789761164180732000,3.81073193359375,-0.32628729939460754,-0.18388807773590088,0.05724411457777023
1789761164190781200,3.82078125,-0.3277544379234314,-0.0769810676574707,-0.15496987104415894
1789761164200831000,3.8308310546875,-0.43254929780960083,0.03774311766028404,0.18576613068580627
1789761164210881000,3.840881103515625,-0.45844534039497375,0.04026379808783531,0.03388739377260208
1789761164220930000,3.850929931640625,-0.3391319811344147,-0.08208900690078735,-0.18891878426074982
1789761164230980000,3.86097998046875,-0.21263237297534943,-0.2661496698856354,-0.08221258223056793
1789761164241030000,3.87102978515625,-0.200842022895813,-0.296256422996521,0.026310699060559273
1789761164251079200,3.8810791015625,-0.31943657994270325,-0.10594933480024338,0.3388872444629669
1789761164261129200,3.891129150390625,-0.4118562638759613,0.20327907800674438,0.3283664286136627
1789761164271179000,3.901178955078125,-0.33967527747154236,0.1358121633529663,-0.12312539666891098
1789761164281228000,3.91122802734375,-0.1437814086675644,-0.2586105167865753,-0.597670316696167
1789761164291278000,3.921278076171875,0.024717863649129868,-0.3893248438835144,-0.3617166578769684
1789761164301328000,3.931327880859375,-0.010319482535123825,-0.23945386707782745,0.055813729763031006
1789761164311377200,3.941377197265625,-0.22396278381347656,0.011018563061952591,0.334430456161499
1789761164321427200,3.95142724609375,-0.3360312581062317,0.16509415209293365,0.26525697112083435
1789761164331477200,3.961477294921875,-0.20523624122142792,0.17445595562458038,-0.0449453704059124
1789761164341526000,3.971526123046875,-0.026735473424196243,-0.12759044766426086,-0.08790615200996399
1789761164351576000,3.981576171875,0.05699937045574188,-0.4038611948490143,-0.16306908428668976
1789761164361626000,3.991626220703125,0.03605520725250244,-0.3357478976249695,-0.009972472675144672
1789761164371675100,4.001675048828125,-0.08845582604408264,-0.045514754951000214,0.09615875780582428
1789761164381725200,4.01172509765625,-0.22510075569152832,0.1605372130870819,-0.04893398657441139
1789761164391775200,4.021775146484375,-0.2269071787595749,0.12987597286701202,-0.23935186862945557
1789761164401824000,4.031823974609375,-0.08114465326070786,-0.11324186623096466,-0.01678297482430935
1789761164411874000,4.0418740234375,0.08095823228359222,-0.44252124428749084,0.20097438991069794
1789761164421924000,4.051924072265625,0.11897885054349899,-0.42141541838645935,0.21367260813713074
1789761164431972900,4.061972900390625,-0.017414676025509834,-0.09005745500326157,-0.09648286551237106
1789761164442023000,4.07202294921875,-0.1682310849428177,0.17989866435527802,-0.06284554302692413
1789761164452073200,4.0820732421875,-0.09352968633174896,0.12252911180257797,0.16010019183158875
1789761164462122000,4.0921220703125,0.13406246900558472,-0.12153787910938263,0.23521384596824646
1789761164472172000,4.102172119140625,0.2566949129104614,-0.23099885880947113,0.04290885105729103
1789761164482222000,4.11222216796875,0.21207763254642487,-0.12921445071697235,-0.15216529369354248
1789761164492270800,4.122270751953125,0.11842092126607895,0.14514067769050598,-0.2575697600841522
1789761164502321000,4.13232080078125,0.07409127056598663,0.17049956321716309,0.10117615014314651
1789761164512371000,4.142370849609375,0.08854638040065765,0.050639741122722626,0.3843655288219452
1789761164522420000,4.152419921875,0.1108412966132164,0.12286520004272461,0.25833460688591003
1789761164532470000,4.162469970703125,0.21912649273872375,0.09653053432703018,-0.09854628145694733
1789761164542520000,4.17252001953125,0.45392194390296936,-0.15853051841259003,-0.24999412894248962
1789761164552569000,4.182569091796875,0.5989811420440674,-0.25312119722366333,-0.3585893213748932
1789761164562619000,4.192618896484375,0.3230510354042053,0.04075728356838226,0.07874354720115662
1789761164572669000,4.2026689453125,-0.09109874814748764,0.4698881506919861,0.1436849981546402
1789761164582718200,4.21271826171875,-0.07091598212718964,0.48596617579460144,0.017355820164084435
1789761164592768000,4.22276806640625,0.2593924105167389,0.08283336460590363,0.13032524287700653
1789761164602818000,4.232818115234375,0.4370177984237671,-0.4093211889266968,0.21182915568351746
1789761164612867000,4.2428671875,0.4028848707675934,-0.4477636516094208,0.27927958965301514
1789761164622916900,4.252916748046875,0.32616186141967773,-0.03957324102520943,-0.018743593245744705
1789761164632967000,4.262966796875,0.20173925161361694,0.34612545371055603,-0.37563514709472656
1789761164643016200,4.27301611328125,0.013822338543832302,0.4863288998603821,-0.20879502594470978
1789761164653066200,4.283066162109375,0.015000254847109318,0.3133842945098877,0.0005773733137175441
1789761164663116000,4.293115966796875,0.20385326445102692,-0.01599840819835663,0.28271958231925964
1789761164673165000,4.3031650390625,0.22511300444602966,-0.155596524477005,0.19130843877792358
1789761164683215000,4.313215087890625,-0.04229685664176941,-0.03954820707440376,0.12215892970561981
1789761164693265000,4.323264892578125,-0.16449227929115295,0.05489014834165573,-0.1845133900642395
1789761164703314200,4.333314208984375,-0.0845407173037529,-0.04844876006245613,-0.24152366816997528
1789761164713364200,4.3433642578125,-0.11610662937164307,-0.10711579769849777,-0.06995484977960587
1789761164723414000,4.3534140625,-0.17440296709537506,-0.06373610347509384,0.15951402485370636
1789761164733463000,4.363463134765625,-0.1565062552690506,-0.017889251932501793,0.17377471923828125
1789761164743513000,4.37351318359375,-0.1232825219631195,-0.09836465120315552,0.02020859904587269
1789761164753563100,4.383563232421875,-0.10691046714782715,-0.03660115599632263,-0.07058388739824295
1789761164763612000,4.39361181640625,-0.10513600707054138,0.052614208310842514,0.051181163638830185
1789761164773662200,4.403662109375,-0.16536152362823486,0.055691491812467575,0.28781047463417053
1789761164783712300,4.413712158203125,-0.08888086676597595,0.09788847714662552,-0.010174606926739216
1789761164793761000,4.423760986328125,0.0043902210891246796,-0.007831557653844357,-0.1255113184452057
1789761164803811000,4.43381103515625,-0.031319573521614075,-0.07788094878196716,-0.3496999442577362
1789761164813861000,4.443861083984375,-0.10784710198640823,0.0907602608203888,-0.030461503192782402
1789761164823910000,4.453909912109375,-0.1549626886844635,0.22951175272464752,0.34795957803726196
1789761164833960000,4.4639599609375,-0.16449014842510223,0.11052757501602173,0.20567698776721954
1789761164844010200,4.47401025390625,-0.09655609726905823,-0.07678452879190445,0.03971732035279274
1789761164854059000,4.48405908203125,0.06665332615375519,-0.21445530652999878,-0.20354034006595612
1789761164864109000,4.494109130859375,0.08927661925554276,-0.18986926972866058,-0.41000697016716003
1789761164874159000,4.5041591796875,-0.14996179938316345,-0.01745542325079441,-0.12159567326307297
1789761164884208400,4.51420849609375,-0.3397085666656494,0.0568837895989418,0.5208735466003418
1789761164894257700,4.524257568359375,-0.2308657020330429,0.047037817537784576,0.5833563804626465
1789761164904307700,4.5343076171875,-0.06820062547922134,-0.10162249952554703,0.17818331718444824
1789761164914357800,4.544357666015625,-0.054718371480703354,-0.27038276195526123,-0.5494452714920044
1789761164924406500,4.554406494140625,-0.08287277817726135,-0.20924989879131317,-0.6509961485862732
1789761164934456600,4.56445654296875,-0.12565113604068756,0.024638500064611435,-0.2673233151435852
1789761164944506600,4.574506591796875,-0.2773860692977905,0.15222229063510895,0.4387502074241638
1789761164954555400,4.584555419921875,-0.3512818515300751,0.11627467721700668,0.7407694458961487
1789761164964605700,4.594605712890625,-0.19833599030971527,-0.07681701332330704,0.22922013700008392
1789761164974655700,4.60465576171875,-0.044383976608514786,-0.23810657858848572,-0.3372901380062103
1789761164984704500,4.61470458984375,-0.0189590435475111,-0.16791842877864838,-0.4987613260746002
1789761164994754600,4.624754638671875,-0.06458219140768051,-0.07661807537078857,-0.32649528980255127
1789761165004804600,4.6348046875,-0.16044959425926208,0.18734805285930634,0.08373617380857468
1789761165014853400,4.644853271484375,-0.2097281962633133,0.2778063118457794,0.3336442708969116
1789761165024903400,4.6549033203125,-0.08780495077371597,0.057851314544677734,0.25946593284606934
1789761165034953500,4.664953369140625,0.09865893423557281,-0.09253819286823273,0.05652159824967384
1789761165045002500,4.67500244140625,0.17273874580860138,-0.12343858182430267,-0.2897324860095978
1789761165055052500,4.685052490234375,0.06526529043912888,0.07522444427013397,-0.2028857320547104
1789761165065102600,4.6951025390625,0.05174814909696579,0.23527562618255615,-0.1621883660554886
1789761165075151400,4.7051513671875,0.13566435873508453,0.14651140570640564,0.015682555735111237
1789761165085201400,4.715201416015625,0.15994146466255188,0.024391092360019684,0.31719738245010376
1789761165095251500,4.72525146484375,0.20917639136314392,0.04006406292319298,0.38715463876724243
1789761165105300700,4.73530078125,0.2593863010406494,0.11346451193094254,-0.09518563747406006
1789761165115350500,4.7453505859375,0.16612106561660767,0.047573111951351166,-0.2606464922428131
1789761165125400600,4.755400634765625,0.16516898572444916,0.037947382777929306,-0.15050108730793
1789761165135449600,4.76544970703125,0.29873424768447876,0.17579206824302673,0.02971661649644375
1789761165145499400,4.77549951171875,0.27199849486351013,0.1350475698709488,0.12758086621761322
1789761165155549400,4.785549560546875,0.17917987704277039,0.04700479283928871,0.21271386742591858
1789761165165598700,4.7955986328125,0.25369006395339966,0.0797044187784195,0.0022775353863835335
1789761165175648500,4.8056484375,0.24418790638446808,0.03199335187673569,-0.12598536908626556
1789761165185698600,4.815698486328125,0.05511092394590378,0.129483163356781,-0.2475067377090454
1789761165195747600,4.82574755859375,-0.15350034832954407,0.3070174753665924,0.23392353951931
1789761165205797400,4.83579736328125,-0.12633396685123444,0.17639261484146118,0.5221822261810303
1789761165215847400,4.845847412109375,0.1297646462917328,-0.07323373109102249,0.04067685455083847
1789761165225896700,4.855896728515625,0.19135691225528717,-0.21141131222248077,-0.6053364872932434
1789761165235946800,4.86594677734375,-0.09504129737615585,-0.059116315096616745,-0.467394083738327
1789761165245996500,4.87599658203125,-0.31063324213027954,0.26765939593315125,0.03009771555662155
1789761165256045600,4.886045654296875,-0.3826749324798584,0.34099459648132324,0.3688587248325348
1789761165266095600,4.896095703125,-0.3950551748275757,-0.027230022475123405,0.6450133323669434
1789761165276145400,4.9061455078125,-0.17858251929283142,-0.3405200242996216,0.11037071794271469
1789761165286194700,4.916194580078125,-0.043786630034446716,-0.4542631208896637,-0.49102911353111267
1789761165296244700,4.92624462890625,-0.2914808392524719,-0.11073317378759384,-0.4485599398612976
1789761165306294500,4.93629443359375,-0.52340167760849,0.010778611525893211,-0.10811794549226761
1789761165316343600,4.946343505859375,-0.4485120177268982,0.02689286693930626,0.28551483154296875
1789761165326393600,4.9563935546875,-0.31946080923080444,-0.07862050831317902,0.5204107165336609
1789761165336443600,4.966443603515625,-0.40103185176849365,-0.199758380651474,0.1459904909133911
1789761165346492400,4.976492431640625,-0.4287564158439636,-0.2363041490316391,-0.263717383146286
1789761165356542500,4.98654248046875,-0.3013893961906433,-0.06570897251367569,-0.6258175373077393
1789761165366592800,4.9965927734375,-0.35655757784843445,0.0894494578242302,-0.5717937350273132
1789761165376641500,5.0066416015625,-0.5635219812393188,0.008677377365529537,-0.06367724388837814
1789761165386691600,5.016691650390625,-0.5889426469802856,-0.22954344749450684,0.537510335445404
1789761165396741600,5.02674169921875,-0.4028281569480896,-0.34638217091560364,1.044836163520813
1789761165406790400,5.036790283203125,-0.13521774113178253,-0.3111344575881958,0.6852952837944031
1789761165416840400,5.04684033203125,-0.01571105234324932,-0.3818722665309906,-0.4352092444896698
1789761165426890500,5.056890380859375,-0.18788281083106995,-0.364511638879776,-1.14094078540802
1789761165436940500,5.0669404296875,-0.285569965839386,0.07518929243087769,-0.8898816704750061
1789761165446989600,5.076989501953125,-0.12810896337032318,0.4117787778377533,0.056471530348062515
1789761165457039600,5.08703955078125,-0.038002509623765945,0.07330803573131561,0.7481554746627808
1789761165467088400,5.09708837890625,-0.09646368771791458,-0.2127745896577835,0.5750129818916321
1789761165477138400,5.107138427734375,-0.10411442071199417,-0.1411118507385254,0.1465902328491211
1789761165487188500,5.1171884765625,-0.05968596786260605,0.009790312498807907,-0.2996346354484558
1789761165497238500,5.127238525390625,-0.15183959901332855,-0.12748099863529205,-0.21602576971054077
1789761165507287600,5.13728759765625,-0.24735254049301147,-0.2108648270368576,-0.02255750633776188
1789761165517337600,5.147337646484375,-0.16818422079086304,-0.03266393765807152,0.026195118203759193
1789761165527387600,5.1573876953125,-0.16484567523002625,0.03326181694865227,0.23307612538337708
1789761165537436400,5.1674365234375,-0.1770152598619461,-0.14812715351581573,-0.04102253541350365
1789761165547486500,5.177486572265625,-0.07396157830953598,-0.25796443223953247,-0.2508402168750763
1789761165557536500,5.18753662109375,-0.09458988904953003,-0.2686794102191925,0.021805429831147194
1789761165567585500,5.19758544921875,-0.2356058657169342,-0.07870732992887497,0.628888726234436
1789761165577635600,5.207635498046875,-0.22603659331798553,-0.00833942275494337,0.6263688206672668
1789761165587685600,5.217685546875,-0.0925416499376297,-0.1305396407842636,0.4289577603340149
1789761165597734400,5.227734375,0.11125035583972931,-0.09836305677890778,-0.1811428964138031
1789761165607784400,5.237784423828125,0.3062550127506256,0.027222832664847374,-1.2402591705322266
1789761165617834500,5.24783447265625,0.2489996999502182,0.18922026455402374,-1.4499926567077637
1789761165627883500,5.257883544921875,0.06379043310880661,0.29689478874206543,-0.5170947909355164
1789761165637933600,5.26793359375,0.03594015911221504,0.2663065195083618,0.7644835710525513
1789761165647983600,5.277983642578125,0.16335377097129822,-0.05182591453194618,1.350582480430603
1789761165658032600,5.28803271484375,0.2579684257507324,-0.3128114342689514,0.7570421695709229
1789761165668082400,5.29808251953125,0.2202727198600769,-0.31184151768684387,-0.6911742091178894
1789761165678132500,5.308132568359375,-0.019449863582849503,-0.02678234502673149,-0.9528992772102356
1789761165688181800,5.318181640625,-0.150535449385643,0.07567345350980759,-0.1969069391489029
1789761165698231600,5.3282314453125,-0.1231837198138237,0.02322436310350895,1.1501595973968506
1789761165708281600,5.338281494140625,0.050508446991443634,-0.18750464916229248,1.3723442554473877
1789761165718330600,5.34833056640625,0.31439441442489624,-0.2380213588476181,0.5439791679382324
1789761165728380400,5.35838037109375,0.34879979491233826,-0.05525180324912071,-1.1376078128814697
1789761165738430500,5.368430419921875,0.12335549294948578,0.20600749552249908,-1.8686658143997192
1789761165748479500,5.3784794921875,0.00003355582884978503,0.2575415372848511,-1.0238887071609497
1789761165758529500,5.388529541015625,0.005877596326172352,0.14170333743095398,0.632331907749176
1789761165768579600,5.39857958984375,-0.14473162591457367,0.04092026874423027,1.8397226333618164
1789761165778628600,5.408628662109375,-0.2248094081878662,-0.03841050714254379,1.8337321281433105
1789761165788678700,5.4186787109375,0.07890146970748901,-0.26831933856010437,0.2403992861509323
1789761165798728400,5.428728515625,0.31182393431663513,-0.3999101221561432,-1.2216053009033203
1789761165808777500,5.438777587890625,0.230317622423172,-0.26893267035484314,-1.5253849029541016
1789761165818827500,5.44882763671875,0.288710355758667,0.36638545989990234,-1.5135564804077148
1789761165828877600,5.458877685546875,0.46219614148139954,0.5580297112464905,-1.3501081466674805
1789761165838926600,5.468926513671875,0.1844891458749771,0.3759637773036957,-0.08900603652000427
1789761165848976600,5.4789765625,-0.06285087019205093,0.21971344947814941,1.1894620656967163
1789761165859026400,5.4890263671875,-0.21669022738933563,-0.1250559240579605,2.4325196743011475
1789761165869075500,5.499075439453125,-0.14524933695793152,-0.002002697205170989,1.6570371389389038
1789761165879125800,5.509125732421875,0.06779848784208298,0.4544268846511841,-0.9346116185188293
1789761165889175800,5.51917578125,-0.20864881575107574,-0.2144142985343933,-2.4360013008117676
1789761165899225000,5.52922509765625,-0.20331397652626038,-0.7051669955253601,-1.3215047121047974
1789761165909275000,5.53927490234375,0.5532613396644592,-0.3713168203830719,0.03701740503311157
1789761165919325000,5.549324951171875,0.3371489942073822,-0.18037749826908112,1.2570583820343018
1789761165929374000,5.5593740234375,-0.6646201014518738,0.028321653604507446,1.3098046779632568
1789761165939424000,5.569424072265625,-0.7469663619995117,0.7256700992584229,0.3736705183982849
1789761165949473800,5.579473876953125,-0.205734521150589,0.7531291842460632,-0.5001725554466248
1789761165959523000,5.589523193359375,0.026522686704993248,-0.2790747880935669,-0.8087540864944458
1789761165969573000,5.599572998046875,0.18529023230075836,-1.009879231452942,-0.937933623790741
1789761165979623000,5.609622802734375,0.0738702267408371,-0.7493869066238403,-0.04120895639061928
1789761165989672000,5.619671875,-0.3933214545249939,0.126776322722435,0.9225517511367798
1789761165999722000,5.629721923828125,-0.7502601146697998,0.5833790302276611,1.6483571529388428
1789761166009771800,5.639771728515625,-0.7112360596656799,0.23012934625148773,1.565334439277649
1789761166019821000,5.649821044921875,-0.24180597066879272,-0.38954082131385803,0.3906322121620178
1789761166029871000,5.65987109375,0.2279016077518463,-0.6393131017684937,-1.668806552886963
1789761166039921000,5.6699208984375,-0.007111439015716314,-0.36558517813682556,-2.2760655879974365
1789761166049971000,5.679970947265625,-0.5512852668762207,0.1235661432147026,-0.743287980556488
1789761166060020000,5.69002001953125,-0.6119946837425232,0.33351245522499084,1.2203855514526367
1789761166070070000,5.700070068359375,-0.39277657866477966,-0.070579893887043,1.9180808067321777
1789761166080119800,5.710119873046875,-0.34683358669281006,-0.4665285646915436,1.2530255317687988
1789761166090168800,5.7201689453125,-0.32247257232666016,-0.4097246527671814,-0.3216262459754944
1789761166100219100,5.73021923828125,-0.36720678210258484,-0.2886914610862732,-0.9692654609680176
1789761166110269000,5.74026904296875,-0.3338450789451599,-0.3067394196987152,-0.6480943560600281
1789761166120318000,5.75031787109375,-0.25719237327575684,-0.20123271644115448,0.008194014430046082
1789761166130368000,5.760367919921875,-0.34099167585372925,-0.1465124785900116,0.3076307773590088
1789761166140417800,5.770417724609375,-0.36824700236320496,-0.13917706906795502,0.07160334289073944
1789761166150466800,5.780466796875,-0.27367228269577026,-0.014112090691924095,-0.29365238547325134
1789761166160516900,5.790516845703125,-0.23618777096271515,-0.14879773557186127,-0.16822735965251923
1789761166170567000,5.80056689453125,-0.44834715127944946,-0.33349114656448364,1.0899453163146973
1789761166180616000,5.810615966796875,-0.3046933114528656,-0.33172839879989624,1.0271538496017456
1789761166190666000,5.820666015625,-0.08858659118413925,-0.502912163734436,0.36723101139068604
1789761166200716000,5.830716064453125,-0.2763277292251587,-0.5314537882804871,0.4292597472667694
1789761166210764800,5.840764892578125,0.01327159721404314,-0.3675636351108551,-1.3542991876602173
1789761166220814800,5.85081494140625,0.2299349308013916,0.25903183221817017,-2.058180570602417
1789761166230865000,5.860864990234375,-0.38818714022636414,0.5972087979316711,-1.181437611579895
1789761166240914000,5.870913818359375,-0.9803096055984497,-0.10475064814090729,1.0923000574111938
1789761166250964000,5.8809638671875,-0.6524880528450012,-0.7611010670661926,2.7879488468170166
1789761166261014000,5.891013916015625,0.007165235001593828,-0.6554809212684631,3.235520362854004
1789761166271062800,5.901062744140625,0.22357982397079468,-0.35209813714027405,0.700846791267395
1789761166281112800,5.91111279296875,-0.10568062216043472,-0.2180527001619339,-2.5788402557373047
1789761166291163000,5.921162841796875,-0.048294827342033386,-0.11884889006614685,-3.9128081798553467
1789761166301212000,5.9312119140625,0.5977888703346252,-0.10540685057640076,-2.3566811084747314
1789761166311262000,5.941261962890625,0.45532330870628357,-0.11492472141981125,0.7781589031219482
1789761166321312000,5.95131201171875,-0.23884080350399017,0.18768973648548126,3.2061564922332764
1789761166331360800,5.96136083984375,-0.2178095579147339,0.5095505714416504,2.9405438899993896
1789761166341410800,5.971410888671875,0.3675537705421448,-0.025478994473814964,0.22003036737442017
1789761166351460900,5.9814609375,0.38786518573760986,-0.7892528176307678,-2.0519096851348877
1789761166361510100,5.99151025390625,0.6010139584541321,-0.9391592144966125,-2.61175537109375
1789761166371560000,6.001559814453125,0.9282495975494385,-0.31094855070114136,-1.4264692068099976
1789761166381610000,6.01160986328125,0.6370728611946106,0.2688966989517212,0.4443180561065674
1789761166391659000,6.021658935546875,0.17093712091445923,0.5927951335906982,1.635361671447754
1789761166401708800,6.031708740234375,0.2776358723640442,0.6935555934906006,1.1416521072387695
1789761166411758800,6.0417587890625,0.48041296005249023,0.2321150004863739,-0.24758796393871307
1789761166421808000,6.05180810546875,0.5459272265434265,-0.12111178040504456,-1.227367877960205
1789761166431858000,6.06185791015625,0.7307008504867554,0.12824025750160217,-1.2214699983596802
1789761166441908000,6.071907958984375,0.7480188012123108,0.28944432735443115,-0.8046927452087402
1789761166451957000,6.08195703125,0.3645041882991791,0.282056987285614,0.5512804388999939
1789761166462006800,6.0920068359375,0.12480398267507553,0.034380342811346054,1.3607014417648315
1789761166472056800,6.102056884765625,0.16253937780857086,-0.11575616151094437,1.4543637037277222
1789761166482105900,6.11210595703125,0.5421063899993896,-0.045818086713552475,0.1845586597919464
1789761166492156000,6.122156005859375,0.4464275538921356,0.2929368019104004,-0.5908340215682983
1789761166502206000,6.1322060546875,-0.1555565744638443,0.32594162225723267,-0.2682149410247803
1789761166512255000,6.1422548828125,0.06478378921747208,0.32425183057785034,-0.506589949131012
1789761166522305000,6.152304931640625,0.7937708497047424,0.16238358616828918,-1.1490528583526611
1789761166532354800,6.162354736328125,0.6895413994789124,0.005092496518045664,-1.1228106021881104
1789761166542404900,6.17240478515625,0.2746187746524811,0.01655367575585842,0.36243757605552673
1789761166552454000,6.182453857421875,0.159986212849617,0.334993451833725,1.7717832326889038
1789761166562504000,6.19250390625,0.21521005034446716,0.42020687460899353,1.8819448947906494
1789761166572553000,6.202552978515625,0.04406839236617088,0.06178027763962746,0.4716261327266693
1789761166582603000,6.21260302734375,-0.048836782574653625,-0.4409656822681427,-1.0510215759277344
1789761166592653000,6.222653076171875,0.5676570534706116,-0.4725632965564728,-1.6025899648666382
1789761166602702800,6.232702880859375,0.8087711334228516,-0.021167336031794548,-0.620761513710022
1789761166612752000,6.242751953125,0.3478202819824219,0.5993577241897583,0.4639335870742798
1789761166622802000,6.252802001953125,0.08664088696241379,0.7665627002716064,0.9435696601867676
1789761166632851700,6.262851806640625,-0.016874054446816444,0.4420485198497772,0.452714204788208
1789761166642901000,6.27290087890625,0.048531316220760345,0.07985488325357437,-0.21190319955348969
1789761166652951000,6.282950927734375,0.19424697756767273,-0.07575148344039917,-0.2754124104976654
1789761166663000800,6.293000732421875,0.18784020841121674,-0.0870339646935463,-0.006187322083860636
1789761166673049900,6.3030498046875,0.1639852076768875,0.09439866989850998,0.016990967094898224
1789761166683100000,6.313099853515625,-0.0020905814599245787,0.2240496128797531,0.24484863877296448
1789761166693149700,6.323149658203125,-0.11662141978740692,0.07112611085176468,0.32013487815856934
1789761166703199000,6.333198974609375,0.09151820093393326,-0.11669039726257324,-0.09951913356781006
1789761166713249000,6.3432490234375,0.09984004497528076,-0.10167869180440903,-0.2094389796257019
1789761166723299000,6.353299072265625,-0.10875577479600906,-0.034388069063425064,-0.047087881714105606
1789761166733347800,6.363347900390625,-0.11927153170108795,0.093881756067276,0.00039734362508170307
1789761166743398000,6.37339794921875,-0.08272204548120499,0.11764433979988098,0.09289132803678513
1789761166753448000,6.383447998046875,-0.1925089955329895,0.018550515174865723,0.32829639315605164
1789761166763497000,6.3934970703125,-0.26327183842658997,-0.19984281063079834,0.5036942958831787
1789761166773547000,6.403547119140625,-0.15228568017482758,-0.3159579634666443,-0.02135535515844822
1789761166783597000,6.41359716796875,-0.19760948419570923,-0.16881830990314484,-0.1516270786523819
1789761166793645800,6.423645751953125,-0.2985597848892212,0.20442397892475128,-0.007005178835242987
1789761166803695900,6.43369580078125,-0.29780638217926025,0.3188592195510864,0.28295794129371643
1789761166813746000,6.443745849609375,-0.23540692031383514,0.164041668176651,0.19200246036052704
1789761166823795000,6.453794921875,-0.3478066921234131,-0.1259339600801468,0.399959921836853
1789761166833845000,6.463844970703125,-0.34557923674583435,-0.23998117446899414,-0.16478468477725983
1789761166843895000,6.47389501953125,-0.1555323302745819,-0.2606259882450104,-0.395852267742157
1789761166853943800,6.48394384765625,-0.08285599946975708,-0.05037635564804077,-0.24976962804794312
1789761166863993900,6.493993896484375,-0.333909273147583,0.11416065692901611,0.41034144163131714
1789761166874044000,6.5040439453125,-0.36173051595687866,0.06784376502037048,0.1027921587228775
1789761166884092400,6.514092529296875,-0.16869154572486877,0.10666093230247498,-0.2195347547531128
1789761166894142500,6.524142578125,-0.18433494865894318,-0.03970027342438698,-0.11248153448104858
1789761166904192500,6.534192626953125,-0.1724388748407364,-0.13709419965744019,0.15638267993927002
1789761166914241300,6.5442412109375,-0.01309289876371622,-0.234501451253891,0.280036985874176
1789761166924291300,6.554291259765625,-0.09829487651586533,-0.24966096878051758,0.09087690711021423
1789761166934341400,6.56434130859375,-0.1317625641822815,0.008219047449529171,-0.32600632309913635
1789761166944390700,6.574390625,-0.13185682892799377,0.08919006586074829,-0.30892640352249146
1789761166954440400,6.5844404296875,-0.05972937494516373,0.05156279355287552,-0.30311912298202515
1789761166964490500,6.594490478515625,0.007134608458727598,0.11585815995931625,-0.26501595973968506
1789761166974539500,6.60453955078125,-0.046000514179468155,0.15789589285850525,-0.1356630176305771
1789761166984589300,6.61458935546875,-0.1545509546995163,0.05447762459516525,-0.09620589762926102
1789761166994639400,6.624639404296875,-0.16793227195739746,-0.05516605079174042,-0.08888965845108032
1789761167004688400,6.6346884765625,-0.13198919594287872,-0.17460882663726807,-0.16508589684963226
1789761167014738400,6.644738525390625,-0.23463301360607147,-0.20952419936656952,0.21097108721733093
1789761167024788500,6.65478857421875,-0.22950349748134613,-0.08593861013650894,0.4871009588241577
1789761167034837500,6.66483740234375,-0.16619962453842163,0.02599724568426609,0.27355536818504333
1789761167044887300,6.67488720703125,-0.17694920301437378,-0.02009781077504158,-0.07913929224014282
1789761167054937300,6.684937255859375,-0.29536187648773193,-0.09195948392152786,-0.33686164021492004
1789761167064986400,6.694986328125,-0.12185533344745636,-0.02696397341787815,-0.3939680755138397
1789761167075036400,6.705036376953125,0.054070957005023956,0.10005016624927521,-0.09151739627122879
1789761167085086500,6.71508642578125,-0.028569325804710388,0.1547408401966095,0.2942422926425934
1789761167095135500,6.725135498046875,-0.18806257843971252,0.10708969831466675,0.35436686873435974
1789761167105185500,6.735185546875,-0.2439442276954651,-0.1346193253993988,0.11620809882879257
1789761167115235300,6.7452353515625,-0.17280159890651703,-0.30696818232536316,-0.09189610183238983
1789761167125284400,6.755284423828125,0.0007115966291166842,-0.32066190242767334,-0.03834233060479164
1789761167135334400,6.76533447265625,0.06502719968557358,-0.16327014565467834,-0.046007439494132996
1789761167145384200,6.77538427734375,-0.043244943022727966,0.07603058218955994,-0.06821686774492264
1789761167155434500,6.7854345703125,-0.13616183400154114,0.16976772248744965,-0.20478110015392303
1789761167165483500,6.7954833984375,-0.029293440282344818,0.2668173015117645,-0.2801419198513031
1789761167175533600,6.805533447265625,-0.007222226355224848,0.08698789775371552,-0.16291861236095428
1789761167185583400,6.815583251953125,-0.06626557558774948,-0.16717806458473206,0.03250814229249954
1789761167195632400,6.82563232421875,0.03015230968594551,-0.14667758345603943,-0.07388035207986832
1789761167205682400,6.835682373046875,-0.005405151750892401,-0.07455705851316452,-0.16402648389339447
1789761167215732200,6.845732177734375,-0.16585767269134521,0.1163785383105278,-0.31535741686820984
1789761167225781500,6.855781494140625,-0.12085158377885818,0.2554861009120941,-0.3767786920070648
1789761167235831600,6.86583154296875,-0.15599918365478516,-0.06649859994649887,0.26121455430984497
1789761167245881300,6.87588134765625,-0.24182620644569397,-0.36745762825012207,0.6951279044151306
1789761167255930400,6.885930419921875,-0.09502878040075302,-0.1967836320400238,0.6922746300697327
1789761167265980400,6.89598046875,-0.11889496445655823,0.020544156432151794,0.027302460744976997
1789761167276030500,6.906030517578125,-0.38082030415534973,-0.09819234907627106,-0.4434266984462738
1789761167286079500,6.91607958984375,-0.19064664840698242,-0.07492990046739578,-0.2945690453052521
1789761167296129500,6.926129638671875,0.10685347765684128,0.047137416899204254,0.030613036826252937
1789761167306179600,6.9361796875,0.02377217449247837,-0.007568437606096268,0.2482183277606964
1789761167316228400,6.946228271484375,-0.15152348577976227,0.016871657222509384,0.1372598558664322
1789761167326278400,6.9562783203125,-0.12457148730754852,0.11731304228305817,-0.19448505342006683
1789761167336328400,6.966328369140625,-0.11261176317930222,0.23792441189289093,-0.20799528062343597
1789761167346377500,6.97637744140625,-0.19722598791122437,0.17960357666015625,0.04350060597062111
1789761167356427500,6.986427490234375,-0.24509310722351074,-0.18519435822963715,0.29735392332077026
1789761167366477600,6.9964775390625,-0.04599332436919212,-0.31982699036598206,0.09857743978500366
1789761167376526300,7.0065263671875,0.0707324892282486,-0.16911712288856506,0.009473130106925964
1789761167386576400,7.016576416015625,-0.15080948173999786,0.05041204020380974,-0.1690817028284073
1789761167396626400,7.02662646484375,-0.3325941860675812,0.2103966474533081,-0.28140556812286377
1789761167406675500,7.036675537109375,-0.15985943377017975,0.10638689249753952,-0.310901403427124
1789761167416725500,7.0467255859375,0.023418506607413292,-0.15284253656864166,0.0049249837175011635
1789761167426775600,7.056775634765625,-0.047033023089170456,-0.2219555675983429,0.4210361838340759
1789761167436824300,7.06682421875,-0.15524818003177643,-0.027042802423238754,0.43737760186195374
1789761167446874400,7.076874267578125,-0.16916878521442413,0.12964800000190735,0.0725245326757431
1789761167456924400,7.08692431640625,-0.09780379384756088,-0.030608775094151497,-0.4563041627407074
1789761167466973200,7.09697314453125,0.020685037598013878,-0.2129378318786621,-0.6036928296089172
1789761167477023500,7.1070234375,0.031555261462926865,-0.1565624475479126,-0.2823057174682617
1789761167487073500,7.117073486328125,-0.15753023326396942,-0.04976888746023178,0.4372585713863373
1789761167497122600,7.12712255859375,-0.2950255274772644,0.16771523654460907,0.8601067662239075
1789761167507172400,7.13717236328125,-0.2626824975013733,0.28867921233177185,0.5590680837631226
1789761167517222400,7.147222412109375,-0.14199762046337128,0.04213573411107063,-0.42925363779067993
1789761167527271400,7.157271484375,-0.021270401775836945,-0.24930809438228607,-0.9027490019798279
1789761167537321200,7.1673212890625,0.07193171232938766,-0.2922273278236389,-0.5764188170433044
1789761167547371300,7.177371337890625,-0.06911168992519379,-0.0895831435918808,0.12633955478668213
1789761167557420500,7.187420654296875,-0.37873345613479614,0.17290998995304108,0.9076481461524963
1789761167567470300,7.19747021484375,-0.46510136127471924,0.34936732053756714,0.900344729423523
1789761167577520400,7.207520263671875,-0.2931365370750427,0.18068481981754303,0.1853482872247696
1789761167587569400,7.2175693359375,-0.08056621253490448,-0.27200621366500854,-0.6442045569419861
1789761167597619500,7.227619384765625,0.02161208540201187,-0.5674160122871399,-0.7117822766304016
1789761167607669200,7.237669189453125,-0.09082125127315521,-0.2615911364555359,-0.35422998666763306
1789761167617718500,7.247718505859375,-0.4187791347503662,0.2928670346736908,0.3197774589061737
1789761167627768600,7.2577685546875,-0.6653109192848206,0.4275207221508026,0.37298423051834106
1789761167637818400,7.267818359375,-0.5451301336288452,0.12105212360620499,0.0215391144156456
1789761167647867400,7.277867431640625,-0.3063388764858246,-0.24375326931476593,-0.2608574330806732
1789761167657917400,7.28791748046875,-0.3108856976032257,-0.3707064390182495,-0.290914922952652
1789761167667967200,7.29796728515625,-0.5361893773078918,-0.18533150851726532,-0.08058938384056091
1789761167678016500,7.3080166015625,-0.7285455465316772,-0.10465317219495773,0.22858017683029175
1789761167688066600,7.318066650390625,-0.7237385511398315,-0.2639530897140503,0.47591647505760193
1789761167698116600,7.32811669921875,-0.6207897663116455,-0.36233025789260864,0.28612977266311646
1789761167708165400,7.338165283203125,-0.616556704044342,-0.5059154033660889,-0.07910867035388947
1789761167718215400,7.34821533203125,-0.6923356056213379,-0.517950177192688,-0.09900141507387161
1789761167728265500,7.358265380859375,-0.7192822694778442,-0.2198953479528427,-0.0996224656701088
1789761167738314500,7.368314453125,-0.7813634872436523,-0.10241106152534485,0.08220165967941284
1789761167748364500,7.378364501953125,-0.7439194321632385,-0.33483392000198364,0.29331284761428833
1789761167758414600,7.38841455078125,-0.5098965167999268,-0.6457816958427429,-0.026134131476283073
1789761167768463400,7.39846337890625,-0.3703863024711609,-0.7633450627326965,-0.4428306818008423
1789761167778513400,7.408513427734375,-0.5949797630310059,-0.5043894052505493,-0.14585813879966736
1789761167788563500,7.4185634765625,-0.912151575088501,-0.23512782156467438,0.26686763763427734
1789761167798612500,7.428612548828125,-0.8652439713478088,-0.5913141965866089,0.6196909546852112
1789761167808662500,7.43866259765625,-0.5118880271911621,-0.5194082856178284,0.09879129379987717
1789761167818712600,7.448712646484375,-0.3057772219181061,-0.6984153389930725,-0.39407485723495483
1789761167828762600,7.4587626953125,-0.24328109622001648,-0.8171054720878601,-0.1585979014635086
1789761167838811400,7.468811279296875,-0.2990407645702362,-0.4038041830062866,0.038837943226099014
1789761167848861400,7.478861328125,-0.6585467457771301,0.31098610162734985,0.32039639353752136
1789761167858911500,7.488911376953125,-0.8222557902336121,0.5749117732048035,0.28246551752090454
1789761167868960300,7.498960205078125,-0.22256889939308167,-0.33460143208503723,0.5123551487922668
1789761167879010600,7.509010498046875,0.7296006679534912,-1.3700286149978638,0.19568321108818054
1789761167889060600,7.519060546875,0.7571702599525452,-1.101248025894165,-0.37714168429374695
1789761167899109400,7.529109375,-0.5583261251449585,0.48526737093925476,-0.6377192139625549
1789761167909159400,7.539159423828125,-1.529483437538147,1.5640113353729248,-0.09891565889120102
1789761167919209500,7.54920947265625,-0.8594998121261597,0.9123420119285583,0.6969239711761475
1789761167929258200,7.55925830078125,0.4587031304836273,-0.8003411293029785,0.8673401474952698
1789761167939308300,7.569308349609375,0.9523184299468994,-1.8575968742370605,0.42102792859077454
1789761167949358300,7.5793583984375,0.4876852333545685,-1.1565780639648438,-0.24438710510730743
1789761167959407400,7.589407470703125,-0.19669388234615326,0.29770225286483765,-0.7127434015274048
1789761167969457400,7.59945751953125,-0.4824468195438385,0.8011755347251892,-0.47685256600379944
1789761167979507500,7.609507568359375,-0.15379542112350464,0.08192282915115356,0.19072787463665009
1789761167989556200,7.61955615234375,0.5141991376876831,-0.8112058043479919,0.3586372435092926
1789761167999606300,7.629606201171875,0.8056150078773499,-0.9660507440567017,0.3279315233230591
1789761168009656300,7.63965625,0.48532143235206604,-0.34754759073257446,0.31584131717681885
1789761168019705600,7.64970556640625,0.1349029541015625,0.29768574237823486,0.1391024887561798
1789761168029755400,7.65975537109375,0.1687338948249817,0.44557666778564453,0.01769031397998333
1789761168039805400,7.669805419921875,0.4703312814235687,0.08083945512771606,-0.004659732803702354
1789761168049854500,7.6798544921875,0.7473386526107788,-0.23347213864326477,0.005494900047779083
1789761168059904300,7.689904296875,0.7424538731575012,-0.16940180957317352,0.16935120522975922
1789761168069954300,7.699954345703125,0.5583988428115845,0.21711739897727966,0.21375170350074768
1789761168080003600,7.710003662109375,0.41554901003837585,0.4933719038963318,0.08975225687026978
1789761168090053400,7.720053466796875,0.45480746030807495,0.46026748418807983,-0.28876230120658875
1789761168100103400,7.730103515625,0.6109416484832764,0.09722801297903061,-0.44722917675971985
1789761168110152400,7.74015234375,0.6731547117233276,-0.1342211812734604,-0.08545684069395065
1789761168120202500,7.750202392578125,0.5338612794876099,0.07068642228841782,0.3150234520435333
1789761168130252300,7.760252197265625,0.3111722469329834,0.22973252832889557,0.37824851274490356
1789761168140301600,7.770301513671875,0.24680978059768677,0.17455822229385376,-0.09211980551481247
1789761168150351600,7.7803515625,0.3258446753025055,-0.06226790323853493,-0.6070281267166138
1789761168160401400,7.7904013671875,0.33323362469673157,-0.13930410146713257,-0.6147118806838989
1789761168170450400,7.800450439453125,0.13823190331459045,-0.12902189791202545,-0.01606312207877636
1789761168180500500,7.81050048828125,-0.11277315020561218,-0.004119643941521645,0.7237725853919983
1789761168190550300,7.82055029296875,-0.1804046630859375,-0.01942562870681286,0.8498378396034241
1789761168200599600,7.830599609375,-0.10122276097536087,-0.08386719971895218,0.2638971507549286
1789761168210649600,7.840649658203125,-0.08681692183017731,-0.29719093441963196,-0.701815664768219
1789761168220699400,7.850699462890625,-0.16357187926769257,-0.39535531401634216,-1.1254265308380127
1789761168230748400,7.86074853515625,-0.20875348150730133,-0.274923712015152,-0.3664397895336151
1789761168240798500,7.870798583984375,-0.2856413424015045,-0.12971672415733337,0.294798880815506
1789761168250848500,7.8808486328125,-0.4433537423610687,-0.04848418012261391,0.5756819248199463
1789761168260897300,7.890897216796875,-0.5536323189735413,-0.028968002647161484,0.2732754647731781
1789761168270947600,7.900947509765625,-0.5327895879745483,-0.11179417371749878,-0.29998883605003357
1789761168280997600,7.91099755859375,-0.4549398124217987,-0.24128586053848267,-0.6784067153930664
1789761168291046400,7.92104638671875,-0.3948224186897278,-0.5136358737945557,-0.6181756258010864
1789761168301096400,7.931096435546875,-0.4478086829185486,-0.4735497236251831,-0.1275571584701538
1789761168311146500,7.941146484375,-0.6286130547523499,-0.12793000042438507,0.40528491139411926
1789761168321195300,7.9511953125,-0.7691595554351807,0.033061280846595764,0.497060626745224
1789761168331245300,7.961245361328125,-0.6468852758407593,-0.10679569095373154,0.20655077695846558
1789761168341295400,7.97129541015625,-0.39867228269577026,-0.3510752022266388,-0.11295584589242935
1789761168351344400,7.981344482421875,-0.338879257440567,-0.37863093614578247,-0.3375415503978729
1789761168361394400,7.99139453125,-0.43256792426109314,-0.2600656747817993,-0.18974356353282928
1789761168371444500,8.001444580078125,-0.4582644999027252,-0.19000110030174255,0.06873378902673721
1789761168381493200,8.0114931640625,-0.39549779891967773,-0.14064553380012512,0.20631028711795807
1789761168391543300,8.021543212890625,-0.31203752756118774,-0.14773087203502655,0.17914551496505737
1789761168401593300,8.03159326171875,-0.22232387959957123,-0.16791389882564545,0.02640444226562977
1789761168411642400,8.041642333984376,-0.10260707139968872,-0.2452382594347,-0.23215147852897644
1789761168421692400,8.0516923828125,0.0524166040122509,-0.3741839826107025,-0.18726523220539093
1789761168431742500,8.061742431640624,0.14891783893108368,-0.33750638365745544,-0.08737591654062271
1789761168441791500,8.07179150390625,0.10571044683456421,-0.1741877794265747,0.09413954615592957
1789761168451841300,8.08184130859375,0.0030573089607059956,0.03748292848467827,0.37767085433006287
1789761168461891300,8.091891357421876,0.030240992084145546,0.20013229548931122,0.5878422260284424
1789761168471940600,8.101940673828125,0.25669971108436584,0.050637878477573395,0.15760907530784607
1789761168481990400,8.111990478515626,0.42747384309768677,-0.10934966057538986,-0.16799592971801758
1789761168492040400,8.12204052734375,0.42750367522239685,-0.04127899557352066,-0.17547035217285156
1789761168502089500,8.13208935546875,0.40238311886787415,0.14395584166049957,-0.09271502494812012
1789761168512139300,8.14213916015625,0.37520691752433777,0.27174708247184753,0.10519646108150482
1789761168522189300,8.152189208984375,0.3530811071395874,0.18970894813537598,0.11036672443151474
1789761168532238600,8.162238525390626,0.3634338676929474,0.00788721814751625,0.31608152389526367
1789761168542288400,8.172288330078125,0.4543648362159729,-0.04584871605038643,0.07940773665904999
1789761168552338400,8.18233837890625,0.41373059153556824,0.05421636626124382,0.1201341301202774
1789761168562387500,8.192387451171875,0.2788204550743103,0.11696922779083252,0.031796813011169434
1789761168572437500,8.2024375,0.27104827761650085,0.12858353555202484,-0.23247718811035156
1789761168582487300,8.2124873046875,0.31924909353256226,0.14149640500545502,-0.25228285789489746
1789761168592536600,8.22253662109375,0.25502458214759827,0.07906205952167511,0.17311106622219086
1789761168602586600,8.232586669921876,0.18423642218112946,-0.08739162981510162,0.5226885080337524
1789761168612636400,8.242636474609375,0.17387592792510986,-0.04534830525517464,0.6355471611022949
1789761168622686500,8.2526865234375,0.11647015064954758,0.08018404990434647,0.24195750057697296
1789761168632735500,8.262735595703125,0.007999869994819164,0.11762010306119919,-0.35288456082344055
1789761168642785300,8.272785400390624,0.01618269830942154,0.04445881024003029,-0.6243267059326172
1789761168652835300,8.28283544921875,0.13331517577171326,-0.09680377691984177,-0.4016779363155365
1789761168662884400,8.29288427734375,0.16957198083400726,-0.22381152212619781,0.28116029500961304
1789761168672934700,8.3029345703125,0.03771195933222771,-0.02093430981040001,0.7763186693191528
1789761168682984400,8.312984375,-0.13240118324756622,0.3154783248901367,0.43774059414863586
1789761168693033500,8.323033447265624,-0.06118426099419594,0.04905063286423683,-0.18684498965740204
1789761168703083500,8.33308349609375,0.25108736753463745,-0.31621816754341125,-0.4873155951499939
1789761168713133300,8.34313330078125,0.3627883195877075,-0.07116445899009705,-0.38507044315338135
1789761168723182300,8.353182373046875,0.11475294828414917,0.0871596708893776,0.07892198115587234
1789761168733232400,8.363232421875,0.031567513942718506,0.0578148290514946,0.24282702803611755
1789761168743282400,8.373282470703124,0.20764534175395966,0.2304134964942932,0.38888248801231384
1789761168753331500,8.38333154296875,0.19951710104942322,0.2690924406051636,0.3412814140319824
1789761168763381500,8.393381591796874,0.12024784833192825,0.03272678703069687,0.0590774342417717
1789761168773431600,8.403431640625,0.2961525619029999,-0.00962413102388382,-0.23546472191810608
1789761168783480300,8.413480224609375,0.42800912261009216,0.14158695936203003,-0.34034186601638794
1789761168793530400,8.4235302734375,0.23857742547988892,0.20129768550395966,-0.20512625575065613
1789761168803580400,8.433580322265625,0.10116017609834671,0.24647635221481323,0.13074363768100739
1789761168813629400,8.44362939453125,0.19237689673900604,0.36527225375175476,0.3020533323287964
1789761168823679500,8.453679443359375,0.2741266191005707,0.1263592690229416,0.24197934567928314
1789761168833729500,8.4637294921875,0.31607699394226074,-0.1324443221092224,-0.08554579317569733
1789761168843778300,8.4737783203125,0.2971419394016266,0.07270190119743347,-0.26256316900253296
1789761168853828400,8.483828369140625,0.1639452576637268,0.17603307962417603,-0.005754292011260986
1789761168863878400,8.49387841796875,0.1407983899116516,0.1068207249045372,-0.013699034228920937
1789761168873927400,8.503927490234375,0.22275663912296295,0.15914490818977356,-0.09296482801437378
1789761168883977700,8.513977783203124,0.15113306045532227,0.17917828261852264,-0.00777509855106473
1789761168894027500,8.524027587890625,0.08921616524457932,-0.009768474847078323,-0.024755680933594704
1789761168904076500,8.53407666015625,0.20977427065372467,0.001404018490575254,-0.0006452839006669819
1789761168914126600,8.544126708984376,0.19672051072120667,0.0964445173740387,0.22383256256580353
1789761168924176400,8.55417626953125,0.02876853197813034,0.019710054621100426,0.10260147601366043
1789761168934225700,8.5642255859375,0.04603353887796402,0.04910709336400032,-0.1684819608926773
1789761168944275700,8.574275634765625,0.16376549005508423,0.05441423878073692,-0.3665732145309448
1789761168954325500,8.584325439453124,0.1118578240275383,-0.019341208040714264,-0.1465124785900116
1789761168964374500,8.59437451171875,0.01404764223843813,0.020774787291884422,0.23645274341106415
1789761168974424600,8.604424560546875,0.009440639987587929,0.1016150414943695,0.2902944087982178
1789761168984474600,8.614474609375,0.034031469374895096,0.04779122397303581,0.22143971920013428
1789761168994523600,8.624523681640625,0.12034478783607483,-0.01919899508357048,-0.023210514336824417
1789761169004573700,8.63457373046875,0.16610534489154816,0.042819101363420486,-0.1915971338748932
1789761169014623700,8.644623779296875,0.047036219388246536,0.23177863657474518,-0.14789864420890808
1789761169024672500,8.654672607421874,-0.04598240554332733,0.24152393639087677,0.12571877241134644
1789761169034722600,8.66472265625,-0.007750597782433033,0.2615192234516144,0.10661246627569199
1789761169044772600,8.674772705078125,0.006168946158140898,0.1558077037334442,0.12743918597698212
1789761169054821400,8.6848212890625,-0.03641047328710556,0.11653699725866318,0.17510123550891876
1789761169064871400,8.694871337890625,-0.08876076340675354,0.20843203365802765,0.026909643784165382
1789761169074921700,8.704921630859374,-0.18143689632415771,0.23852255940437317,-0.0795142650604248
1789761169084970500,8.714970458984375,-0.2367347776889801,0.12989541888237,-0.20829275250434875
1789761169095020500,8.7250205078125,-0.22257155179977417,0.09940648078918457,-0.26926103234291077
1789761169105070600,8.735070556640625,-0.2733260691165924,0.016334764659404755,-0.19590266048908234
1789761169115119400,8.745119384765625,-0.3845737874507904,-0.11326877027750015,0.10277511179447174
1789761169125169400,8.75516943359375,-0.4283260405063629,-0.23177969455718994,0.2972862720489502
1789761169135219500,8.765219482421875,-0.42475369572639465,-0.33707550168037415,0.20439308881759644
1789761169145268500,8.7752685546875,-0.4926946461200714,-0.43093007802963257,-0.033197369426488876
1789761169155318500,8.785318603515625,-0.596096932888031,-0.4979732930660248,-0.18555282056331635
1789761169165368600,8.79536865234375,-0.6536654233932495,-0.3432990312576294,-0.24584704637527466
1789761169175417600,8.80541748046875,-0.7221179604530334,-0.15379329025745392,-0.05477376654744148
1789761169185467400,8.81546728515625,-0.7516124844551086,-0.2601911127567291,0.14333319664001465
1789761169195517400,8.825517333984376,-0.5958939790725708,-0.3910532593727112,0.01098394114524126
1789761169205566700,8.835566650390625,-0.4448277950286865,-0.3778679370880127,-0.04218313843011856
1789761169215616500,8.845616455078124,-0.5557159781455994,-0.27453967928886414,0.03604455292224884
1789761169225666600,8.85566650390625,-0.7236458659172058,-0.16134841740131378,0.12067235261201859
1789761169235715600,8.865715576171874,-0.6635864973068237,-0.12255147844552994,0.08995305746793747
1789761169245765400,8.875765380859375,-0.504335343837738,-0.20802457630634308,-0.031509190797805786
1789761169255815400,8.8858154296875,-0.4646371901035309,-0.2569284737110138,-0.13166961073875427
1789761169265864700,8.89586474609375,-0.45720189809799194,-0.20287960767745972,-0.147325798869133
1789761169275914500,8.90591455078125,-0.3927273154258728,-0.14316807687282562,-0.20296935737133026
1789761169285964500,8.915964599609374,-0.3596532344818115,-0.17887626588344574,0.09474648535251617
1789761169296013600,8.926013671875,-0.3713911175727844,-0.2473653256893158,0.21295061707496643
1789761169306063600,8.936063720703125,-0.3493284285068512,-0.3085748851299286,0.19884172081947327
1789761169316113400,8.946113525390626,-0.2965445816516876,-0.3578747808933258,0.11598066240549088
1789761169326162700,8.95616259765625,-0.2698671519756317,-0.30502888560295105,-0.23183482885360718
1789761169336212700,8.966212646484376,-0.31695079803466797,-0.17767998576164246,-0.3976600170135498
1789761169346262500,8.976262451171875,-0.3840208947658539,-0.02400786429643631,-0.3640402555465698
1789761169356311600,8.9863115234375,-0.4174251854419708,0.10966764390468597,-0.02004588022828102
1789761169366361600,8.996361572265625,-0.34918567538261414,-0.08226797729730606,0.3643774390220642
1789761169376411400,9.006411376953125,-0.2061249315738678,-0.36390233039855957,0.15790733695030212
1789761169386460400,9.01646044921875,-0.16655676066875458,-0.5050346851348877,-0.2194489985704422
1789761169396510700,9.0265107421875,-0.28852713108062744,-0.34254351258277893,-0.299950510263443
1789761169406560800,9.036560791015624,-0.4400801658630371,-0.12832042574882507,-0.28634732961654663
1789761169416609500,9.046609619140625,-0.48280420899391174,-0.10946923494338989,0.07009705901145935
1789761169426659600,9.05665966796875,-0.3557181656360626,-0.30929261445999146,0.46211862564086914
1789761169436709600,9.066709716796876,-0.17116935551166534,-0.4841349720954895,0.3295768201351166
1789761169446758400,9.07675830078125,-0.14282026886940002,-0.5350178480148315,-0.20213311910629272
1789761169456808400,9.086808349609376,-0.27714452147483826,-0.3505479097366333,-0.2798132598400116
1789761169466858800,9.096858642578125,-0.40205317735671997,-0.06651324778795242,0.17121195793151855
1789761169476907500,9.106907470703124,-0.3245956599712372,-0.12323245406150818,0.2601708769798279
1789761169486957600,9.11695751953125,-0.08020269125699997,-0.4304025173187256,-0.013708621263504028
1789761169497007600,9.127007568359375,0.06019383296370506,-0.5273128151893616,-0.21610593795776367
1789761169507056400,9.137056396484375,-0.05061976611614227,-0.26288196444511414,-0.1732815057039261
1789761169517106400,9.1471064453125,-0.20655371248722076,0.010752246715128422,0.14377528429031372
1789761169527156500,9.157156494140626,-0.1045096293091774,-0.11339287459850311,0.31710872054100037
1789761169537205500,9.16720556640625,0.2098539024591446,-0.3866289258003235,0.03929520770907402
1789761169547255600,9.177255615234374,0.3122505843639374,-0.3581109941005707,-0.21364916861057281
1789761169557305600,9.1873056640625,0.10663483291864395,-0.09114988148212433,-0.10633842647075653
1789761169567354400,9.197354248046874,0.047216515988111496,0.08767152577638626,0.1698622703552246
1789761169577404400,9.207404296875,0.25016990303993225,0.08501076698303223,0.12763412296772003
1789761169587454500,9.217454345703125,0.3777126669883728,-0.05545633286237717,0.12897635996341705
1789761169597503700,9.227503662109376,0.35617196559906006,-0.08908460289239883,0.13977867364883423
1789761169607553500,9.237553466796875,0.3951542377471924,-0.09852151572704315,0.2136630117893219
1789761169617603600,9.247603515625,0.5479986667633057,-0.048773929476737976,0.20337842404842377
1789761169627653600,9.257653564453125,0.5684101581573486,0.12479359656572342,-0.2573985159397125
1789761169637702400,9.267702392578125,0.3689154386520386,0.2622353434562683,-0.6311337351799011
1789761169647752400,9.27775244140625,0.2914760410785675,0.3350408375263214,-0.46357566118240356
1789761169657802500,9.287802490234375,0.4603292644023895,0.34588682651519775,0.15255679190158844
1789761169667851500,9.2978515625,0.5237489938735962,0.0843907818198204,0.7542964220046997
1789761169677901600,9.307901611328125,0.45848846435546875,-0.13879276812076569,0.6658589839935303
1789761169687951600,9.31795166015625,0.516075074672699,-0.10747745633125305,0.26080816984176636
1789761169698000400,9.32800048828125,0.531982958316803,0.12118448317050934,-0.28960278630256653
1789761169708050400,9.338050537109375,0.3412095308303833,0.358977347612381,-0.6222744584083557
1789761169718100500,9.3481005859375,0.2504069209098816,0.21950918436050415,-0.23055145144462585
1789761169728149800,9.358149658203125,0.43279457092285156,0.04120975360274315,0.32623377442359924
1789761169738199600,9.368199462890624,0.5621080994606018,-0.0431477352976799,0.5712195634841919
1789761169748249600,9.37824951171875,0.4093667268753052,-0.030058566480875015,0.2838327884674072
1789761169758298600,9.388298583984374,0.1995818167924881,0.12023639678955078,-0.15243187546730042
1789761169768348400,9.398348388671875,0.21954753994941711,0.25911945104599,-0.4070439338684082
1789761169778398500,9.4083984375,0.3538329005241394,0.11077578365802765,-0.4911894202232361
1789761169788447700,9.41844775390625,0.32331040501594543,-0.02702629193663597,-0.2280922830104828
1789761169798497500,9.42849755859375,0.19898447394371033,0.005022455472499132,0.2729684114456177
1789761169808547600,9.438547607421874,0.1545403003692627,-0.0476149246096611,0.6573895812034607
1789761169818596600,9.4485966796875,0.10962662845849991,0.12390170246362686,0.4535616338253021
1789761169828646700,9.458646728515625,-0.06286285072565079,0.2384069710969925,0.0789419561624527
1789761169838696400,9.468696533203126,-0.19386827945709229,0.11672341823577881,-0.3984469771385193
1789761169848745500,9.478745361328125,-0.07918483018875122,0.0718904361128807,-0.876809298992157
1789761169858795500,9.48879541015625,0.02178385853767395,-0.053819820284843445,-0.516147792339325
1789761169868845600,9.498845458984375,-0.06858305633068085,-0.11278141289949417,0.615075409412384
1789761169878894600,9.50889453125,-0.18310590088367462,-0.04336824640631676,1.0756137371063232
1789761169888944600,9.518944580078125,-0.22702303528785706,0.1361013799905777,0.47624218463897705
1789761169898994400,9.528994384765625,-0.2680775225162506,0.1858590841293335,-0.22896181046962738
1789761169909043500,9.53904345703125,-0.24777677655220032,-0.0008617989369668067,-0.8430585265159607
1789761169919093500,9.549093505859375,-0.13385286927223206,-0.1954326182603836,-0.6465721130371094
1789761169929143600,9.5591435546875,-0.06382717937231064,-0.16822868585586548,-0.05410424619913101
1789761169939192600,9.569192626953125,-0.17845922708511353,-0.03081250749528408,0.5517257452011108
1789761169949242600,9.57924267578125,-0.31444209814071655,0.11958285421133041,0.6855983138084412
1789761169959292700,9.589292724609376,-0.24317483603954315,0.040584176778793335,0.18248511850833893
1789761169969341400,9.599341552734375,-0.1043357253074646,-0.08235106617212296,-0.16905027627944946
1789761169979391500,9.6093916015625,-0.1061440110206604,-0.23387454450130463,-0.21332480013370514
1789761169989441500,9.619441650390625,-0.15742291510105133,-0.20828555524349213,-0.43506330251693726
1789761169999490600,9.629490478515624,-0.14646373689174652,0.00108284130692482,-0.3603861331939697
1789761170009540600,9.63954052734375,-0.15466095507144928,0.12425936758518219,0.022128738462924957
1789761170019590700,9.649590576171875,-0.14657080173492432,-0.06311877816915512,0.40241509675979614
1789761170029639400,9.659639404296875,0.007035539019852877,-0.216215118765831,0.20487484335899353
1789761170039689500,9.669689453125,0.12166917324066162,-0.15496374666690826,0.020259732380509377
1789761170049739500,9.679739501953126,0.02213193289935589,0.006554838269948959,-0.013047891668975353
1789761170059788500,9.68978857421875,-0.04271017760038376,-0.02646542899310589,-0.3144942820072174
1789761170069838600,9.699838623046874,0.05156119540333748,-0.023024359717965126,-0.240012064576149
1789761170079888600,9.709888671875,0.11945395916700363,0.05241740122437477,-0.19222749769687653
1789761170089937400,9.7199375,0.010331733152270317,-0.01720748282968998,0.26238662004470825
1789761170099987500,9.729987548828126,-0.04958193376660347,0.05758313462138176,0.6050800681114197
1789761170110037500,9.74003759765625,0.048835448920726776,0.09794573485851288,0.3750862777233124
1789761170120086500,9.75008642578125,0.09831298887729645,0.041975412517786026,0.03686906769871712
1789761170130136600,9.760136474609375,0.07781144231557846,-0.04044010117650032,-0.5129117965698242
1789761170140186600,9.7701865234375,0.13809502124786377,-0.07888682931661606,-0.6370260119438171
1789761170150235600,9.780235595703125,0.17231424152851105,0.0029087045695632696,-0.013462012633681297
1789761170160285400,9.790285400390625,0.06641577184200287,0.1288226991891861,0.5215550661087036
1789761170170335500,9.80033544921875,-0.053347110748291016,0.1499902904033661,0.33596575260162354
1789761170180384500,9.810384521484375,-0.03864939138293266,0.08941616863012314,0.08948726952075958
1789761170190434600,9.8204345703125,0.08783584833145142,-0.0991516187787056,-0.07781996577978134
1789761170200484600,9.830484619140625,0.14857375621795654,-0.0961262658238411,-0.2609682083129883
1789761170210533600,9.84053369140625,0.06922461092472076,-0.04261217638850212,-0.37465590238571167
1789761170220583400,9.85058349609375,-0.015340606682002544,0.07446970790624619,-0.1247512549161911
1789761170230633500,9.860633544921875,-0.0019185412675142288,0.16947264969348907,0.2893327474594116
1789761170240682500,9.8706826171875,-0.0011558119440451264,0.08689841628074646,0.5941895842552185
1789761170250732500,9.880732666015625,0.006126868538558483,-0.08436761051416397,0.2775176167488098
1789761170260782600,9.890782470703124,0.11119735985994339,-0.0968589037656784,-0.4211416244506836
1789761170270831600,9.90083154296875,0.1371152400970459,0.02347363345324993,-0.6853991150856018
1789761170280881700,9.910881591796874,0.016705477610230446,0.10824071615934372,-0.3400779366493225
1789761170290931500,9.920931396484375,-0.007103449665009975,0.06467406451702118,0.43873289227485657
1789761170300980500,9.93098046875,0.08429543673992157,0.1282714158296585,0.8345398902893066
1789761170311030500,9.941030517578126,0.08954612910747528,0.14655348658561707,0.4048449695110321
1789761170321080300,9.951080322265625,0.06544185429811478,0.03530792146921158,-0.2706192433834076
1789761170331129600,9.961129638671874,0.13328136503696442,0.07512670755386353,-0.6472821235656738
1789761170341179600,9.9711796875,0.1493884176015854,0.19635167717933655,-0.28545278310775757
1789761170351229400,9.9812294921875,0.01738777942955494,0.21890385448932648,0.4163950979709625
1789761170361278500,9.991278564453125,-0.07677813619375229,0.2210831195116043,0.5585149526596069
1789761170371328500,10.00132861328125,-0.0020474381744861603,0.14590874314308167,0.18692408502101898
1789761170381378600,10.011378662109376,0.09418641775846481,0.04312510043382645,-0.057789262384176254
1789761170391427600,10.021427490234375,0.04549877345561981,0.0750899538397789,-0.5375257730484009
1789761170401477600,10.0314775390625,-0.052324723452329636,-0.050695668905973434,-0.3781680762767792
1789761170411527700,10.041527587890625,-0.021399831399321556,-0.006648581475019455,0.04398636519908905
1789761170421576400,10.051576416015624,-0.053768955171108246,0.11892025917768478,0.5502607226371765
1789761170431626500,10.06162646484375,-0.24225124716758728,0.048597097396850586,0.3159201443195343
1789761170441676500,10.071676513671875,-0.2887228727340698,-0.07640981674194336,-0.13856826722621918
1789761170451725600,10.0817255859375,-0.16970567405223846,-0.06892766803503036,-0.543045163154602
1789761170461775600,10.091775634765625,-0.23049579560756683,-0.17834630608558655,-0.3838595151901245
1789761170471825700,10.10182568359375,-0.4193575978279114,-0.2938252389431,0.0909259095788002
1789761170481874400,10.11187451171875,-0.4970736801624298,-0.17677584290504456,0.6131560802459717
1789761170491924500,10.121924560546875,-0.49533623456954956,-0.11657188832759857,0.45786795020103455
1789761170501974500,10.131974609375,-0.535355269908905,-0.14926086366176605,0.0011084076249971986
1789761170512023600,10.1420234375,-0.5387159585952759,-0.2125958800315857,-0.6385863423347473
1789761170522073600,10.152073486328124,-0.49417829513549805,-0.1910053789615631,-0.7306994795799255
1789761170532123600,10.16212353515625,-0.5421359539031982,-0.14485785365104675,0.16327200829982758
1789761170542172400,10.17217236328125,-0.697271466255188,-0.030243655666708946,0.9278064370155334
1789761170552222500,10.182222412109375,-0.7962529063224792,-0.1662994921207428,0.7079377174377441
1789761170562272500,10.1922724609375,-0.5571894645690918,-0.4452429711818695,0.02736903913319111
1789761170572321500,10.202321533203126,-0.265169620513916,-0.46942901611328125,-1.1865133047103882
1789761170582371600,10.21237158203125,-0.4664801061153412,-0.3074291944503784,-1.4514483213424683
1789761170592421600,10.222421630859374,-0.7608784437179565,-0.1602778285741806,-0.1983674168586731
1789761170602470700,10.232470703125,-0.6483337879180908,-0.002888997085392475,1.280645728111267
1789761170612520400,10.2425205078125,-0.4472944140434265,-0.05880685895681381,1.7408950328826904
1789761170622570500,10.252570556640626,-0.4131931662559509,-0.4181138873100281,0.6729387044906616
1789761170632619500,10.26261962890625,-0.37866154313087463,-0.5318835973739624,-1.0899276733398438
1789761170642669300,10.27266943359375,-0.3195843994617462,-0.28950825333595276,-1.7853262424468994
1789761170652719600,10.2827197265625,-0.31886425614356995,-0.21983329951763153,-0.9126037955284119
1789761170662768600,10.2927685546875,-0.3835790753364563,-0.1072058156132698,0.5815486311912537
1789761170672818700,10.302818603515625,-0.44835755228996277,0.015962455421686172,1.3360588550567627
1789761170682868500,10.312868408203125,-0.4254263937473297,-0.028544560074806213,0.9838875532150269
1789761170692917500,10.32291748046875,-0.22354574501514435,-0.18872730433940887,-0.17562881112098694
1789761170702967600,10.332967529296875,-0.047856736928224564,-0.3679601848125458,-0.8381114602088928
1789761170713017300,10.343017333984376,-0.027168504893779755,-0.43953049182891846,-0.688230574131012
1789761170723066600,10.353066650390625,-0.06421014666557312,-0.27937012910842896,-0.21052661538124084
1789761170733116700,10.36311669921875,-0.14196379482746124,-0.0560198612511158,0.34557604789733887
1789761170743166500,10.37316650390625,-0.25051769614219666,0.10610726475715637,0.7184958457946777
1789761170753215500,10.383215576171875,-0.21943674981594086,0.00016245282313320786,0.6617995500564575
1789761170763265500,10.393265625,0.013104083947837353,-0.19928114116191864,-0.04264546558260918
1789761170773315300,10.4033154296875,0.14188550412654877,-0.26116421818733215,-0.7122126221656799
1789761170783364600,10.413364501953126,0.03892849013209343,-0.20345991849899292,-0.8228744268417358
1789761170793414700,10.42341455078125,-0.06943473219871521,-0.07310084253549576,-0.12283670902252197
1789761170803464700,10.433464599609374,-0.053756970912218094,0.020485300570726395,0.5976735353469849
1789761170813513500,10.443513427734375,-0.0371289923787117,-0.057969026267528534,0.9660904407501221
1789761170823563500,10.4535634765625,0.005941246170550585,-0.1799900084733963,0.3614782989025116
1789761170833613600,10.463613525390626,0.10700155049562454,-0.22355027496814728,-0.7085664868354797
1789761170843662600,10.47366259765625,0.060025252401828766,-0.08288609236478806,-0.5796689391136169
1789761170853712600,10.483712646484374,-0.0977444052696228,0.035176098346710205,0.43079426884651184
1789761170863762700,10.4937626953125,-0.05203656852245331,-0.07031544297933578,0.2739628553390503
1789761170873811500,10.5038115234375,0.10193435102701187,-0.2577519118785858,-0.07579170167446136
1789761170883861500,10.513861572265625,0.10104352980852127,-0.21668943762779236,-0.41937437653541565
1789761170893912000,10.523912109375,-0.0781901404261589,0.13425873219966888,-0.3294050693511963
1789761170903960800,10.5339609375,-0.2202918827533722,0.311867356300354,0.08171563595533371
1789761170914011000,10.544010986328125,-0.07477517426013947,-0.030849525704979897,0.4762277901172638
1789761170924061200,10.554061279296874,0.21252398192882538,-0.4694058299064636,0.8611147403717041
1789761170934110200,10.564110107421875,0.22366797924041748,-0.3613576591014862,0.22595509886741638
1789761170944160000,10.574159912109375,-0.0865255668759346,-0.12698884308338165,-0.773406982421875
1789761170954210000,10.5842099609375,-0.21496103703975677,0.00845473725348711,-0.8329308032989502
1789761170964259000,10.594259033203125,-0.033417344093322754,0.09299838542938232,-0.2516287863254547
1789761170974308900,10.604308837890626,-0.022541528567671776,-0.0305137000977993,0.6013801097869873
1789761170984359000,10.61435888671875,-0.18423375487327576,-0.1786605566740036,0.9122074842453003
1789761170994408200,10.624408203125,-0.13637462258338928,-0.11947552859783173,0.15282203257083893
1789761171004458000,10.6344580078125,0.016820792108774185,-0.11197233945131302,-0.46655333042144775
1789761171014508000,10.644508056640625,-0.011758655309677124,-0.20991568267345428,-0.5376831889152527
1789761171024557000,10.65455712890625,-0.08985185623168945,-0.2858695685863495,-0.07743407040834427
1789761171034606800,10.66460693359375,-0.05704917013645172,-0.1572447419166565,0.1502254605293274
1789761171044657000,10.674656982421874,-0.07500633597373962,-0.006659234408289194,0.18697787821292877
1789761171054706200,10.6847060546875,-0.16769711673259735,0.008594286628067493,0.07034766674041748
1789761171064756200,10.694756103515624,-0.10921623557806015,-0.08528560400009155,-0.019097261130809784
1789761171074806000,10.704805908203125,0.062434613704681396,-0.17619633674621582,0.008231031708419323
1789761171084855000,10.71485498046875,0.09250064194202423,-0.26287102699279785,-0.09799740463495255
1789761171094905000,10.724905029296876,-0.04460901394486427,-0.10894060134887695,-0.2522708475589752
1789761171104955000,10.734954833984375,-0.1512393206357956,0.09574943035840988,-0.18112477660179138
1789761171115004200,10.745004150390624,-0.12335842102766037,0.12345349788665771,0.03663551062345505
1789761171125054200,10.75505419921875,-0.0049406965263187885,-0.07593204826116562,0.3200741410255432
1789761171135104000,10.76510400390625,0.10814138501882553,-0.2961443066596985,0.43200892210006714
1789761171145153000,10.775153076171875,0.13377217948436737,-0.22852718830108643,0.13371385633945465
1789761171155203000,10.785203125,0.05019179731607437,-0.056474994868040085,-0.45167452096939087
1789761171165253000,10.795253173828126,-0.038117293268442154,0.028313130140304565,-0.4311157166957855
1789761171175302100,10.80530224609375,0.0027316042687743902,0.04102679342031479,0.17010648548603058
1789761171185352200,10.815352294921874,0.12659814953804016,-0.05459586903452873,-0.01715981215238571
1789761171195402200,10.82540234375,0.15163932740688324,-0.12966105341911316,-0.0930524468421936
1789761171205451000,10.835450927734374,0.07511205971240997,0.0019861855544149876,0.15738323330879211
1789761171215501000,10.8455009765625,-0.011002050712704659,0.1606900840997696,0.4806467890739441
1789761171225551000,10.855551025390625,0.01938621513545513,0.10252504050731659,0.157188281416893
1789761171235600000,10.865599853515626,0.1870947927236557,-0.1749984472990036,-0.3721703588962555
1789761171245650200,10.875650146484375,0.24410481750965118,-0.2518080174922943,-0.15642049908638
1789761171255700200,10.8857001953125,0.07185900956392288,-0.08342964947223663,0.06269480288028717
1789761171265749000,10.8957490234375,-0.08149325847625732,0.1690971404314041,0.0678674653172493
1789761171275799000,10.905799072265625,-0.06691085547208786,0.2138422429561615,0.20825333893299103
1789761171285849000,10.91584912109375,0.05853627994656563,-0.08204001188278198,0.11639798432588577
1789761171295897900,10.92589794921875,0.18501831591129303,-0.23659522831439972,-0.245278462767601
1789761171305948000,10.935947998046874,0.13166801631450653,-0.15972548723220825,-0.10972996056079865
1789761171315998000,10.945998046875,-0.047141414135694504,-0.0027832696214318275,-0.04890282824635506
1789761171326047000,10.956046875,-0.11249405145645142,0.0411682091653347,0.1460466831922531
1789761171336097000,10.966096923828125,-0.07495493441820145,-0.018272213637828827,0.28621044754981995
1789761171346147000,10.97614697265625,-0.08366800099611282,-0.06872846186161041,0.055574845522642136
1789761171356196000,10.986196044921876,-0.08730534464120865,-0.1131015196442604,-0.2567700147628784
1789761171366246000,10.996245849609375,-0.056537579745054245,-0.07122917473316193,-0.3339284360408783
1789761171376296000,11.0062958984375,-0.09211581200361252,0.007474694401025772,0.015232481993734837
1789761171386345200,11.01634521484375,-0.13423795998096466,-0.08620759099721909,0.41057074069976807
1789761171396395000,11.02639501953125,-0.06606157124042511,-0.13481906056404114,0.31912073493003845
1789761171406445000,11.036445068359376,-0.0012863067677244544,-0.09234324842691422,-0.08604433387517929
1789761171416494000,11.046494140625,-0.04300525784492493,-0.12389691174030304,-0.43086323142051697
1789761171426543900,11.0565439453125,-0.08973627537488937,-0.019117236137390137,-0.39997029304504395
1789761171436594000,11.066593994140625,-0.08909179270267487,0.04168859124183655,0.09296988695859909
1789761171446643200,11.076643310546874,-0.08075050264596939,-0.027342675253748894,0.4654094874858856
1789761171456693000,11.08669287109375,-0.047386422753334045,-0.08047513663768768,0.34902510046958923
1789761171466742000,11.096741943359374,-0.0000577905957470648,-0.16318386793136597,0.029950175434350967
1789761171476792000,11.1067919921875,0.009772202931344509,-0.13048531115055084,-0.3365654945373535
1789761171486842000,11.116842041015625,-0.03349883854389191,-0.0062126219272613525,-0.4005016088485718
1789761171496891100,11.12689111328125,-0.11594098061323166,0.13588246703147888,0.006898119580000639
1789761171506941200,11.136941162109375,-0.15753556787967682,0.09633798897266388,0.38886624574661255
1789761171516991200,11.1469912109375,-0.061467889696359634,-0.13470162451267242,0.39107829332351685
1789761171527040000,11.1570400390625,0.08990006148815155,-0.2896725535392761,0.1802845597267151
1789761171537090000,11.167090087890625,0.07311495393514633,-0.18458954989910126,-0.18332268297672272
1789761171547140000,11.17714013671875,-0.11959511041641235,0.02468191087245941,-0.3314410448074341
1789761171557188900,11.18718896484375,-0.19122454524040222,0.0988440215587616,-0.15472567081451416
1789761171567239200,11.1972392578125,-0.06614705920219421,0.012862801551818848,0.07556000351905823
1789761171577289200,11.207289306640625,0.029500100761651993,-0.08873652666807175,0.3944242596626282
1789761171587339300,11.21733935546875,-0.0315890833735466,-0.13212580978870392,0.2571098208427429
1789761171597388000,11.227387939453125,-0.11431165784597397,-0.01073999609798193,-0.04846394062042236
1789761171607438000,11.23743798828125,-0.0735652968287468,0.0313749685883522,-0.24264752864837646
1789761171617486800,11.24748681640625,-0.0060142166912555695,-0.05365683510899544,-0.24075855314731598
1789761171627537000,11.257536865234375,-0.05065784975886345,-0.08259420841932297,0.07050932198762894
1789761171637587000,11.2675869140625,-0.09580056369304657,-0.1329396814107895,0.31199145317077637
1789761171647636000,11.277635986328125,-0.035705000162124634,-0.15844662487506866,0.1866295337677002
1789761171657686000,11.28768603515625,-0.018521219491958618,-0.05187145248055458,-0.2081020623445511
1789761171667736000,11.297736083984375,-0.14089560508728027,0.03634043037891388,-0.312988817691803
1789761171677785000,11.30778515625,-0.2168968915939331,0.02610909938812256,-0.06592947989702225
1789761171687835000,11.3178349609375,-0.14567597210407257,-0.022061092779040337,0.16643399000167847
1789761171697885000,11.327885009765625,-0.09385804831981659,-0.12169554084539413,0.21359829604625702
1789761171707934200,11.337934326171874,-0.14844566583633423,-0.2065819352865219,0.1433718055486679
1789761171717984000,11.34798388671875,-0.19321899116039276,-0.16971153020858765,-0.10891689360141754
1789761171728034000,11.358033935546874,-0.19360914826393127,-0.07807003706693649,-0.2520948350429535
1789761171738083000,11.3680830078125,-0.20194244384765625,-0.11358887702226639,-0.1746748685836792
1789761171748132900,11.3781328125,-0.22313854098320007,-0.14113901555538177,0.048591237515211105
1789761171758183000,11.388182861328126,-0.2540826201438904,-0.13940636813640594,0.12355922162532806
1789761171768232200,11.398232177734375,-0.2439918965101242,-0.20396964251995087,0.04685938358306885
1789761171778282200,11.4082822265625,-0.18228645622730255,-0.1948469877243042,0.10543108731508255
1789761171788332000,11.41833203125,-0.22131533920764923,-0.1739393025636673,-0.004733768757432699
1789761171798381000,11.428381103515624,-0.34569668769836426,-0.14918309450149536,-0.08499744534492493
1789761171808431000,11.43843115234375,-0.32143235206604004,-0.1380891650915146,-0.08568587899208069
1789761171818481000,11.44848095703125,-0.24970890581607819,-0.0913059413433075,-0.07222919166088104
1789761171828530200,11.4585302734375,-0.2838333249092102,-0.15183453261852264,-0.0358637236058712
1789761171838580200,11.468580322265625,-0.2797001004219055,-0.24124111235141754,0.1605720967054367
1789761171848630000,11.478630126953124,-0.1942182183265686,-0.27400970458984375,0.053277868777513504
1789761171858679000,11.488678955078125,-0.14805470407009125,-0.21190400421619415,-0.15940137207508087
1789761171868729000,11.49872900390625,-0.1749691516160965,-0.19652476906776428,-0.25079867243766785
1789761171878779000,11.50877880859375,-0.22751891613006592,-0.13855893909931183,-0.022051505744457245
1789761171888828200,11.518828125,-0.19891922175884247,-0.17942701280117035,0.10742099583148956
1789761171898878200,11.528878173828126,-0.12096770107746124,-0.17881634831428528,0.029759759083390236
1789761171908928300,11.53892822265625,-0.11681849509477615,-0.15042492747306824,-0.04935290291905403
1789761171918977300,11.548977294921874,-0.1570865511894226,-0.17178641259670258,-0.1368665099143982
1789761171929027000,11.559027099609375,-0.13249891996383667,-0.13781778514385223,-0.10491469502449036
1789761171939077000,11.5690771484375,-0.07472909986972809,-0.13502226769924164,0.04063690826296806
1789761171949126100,11.579126220703126,-0.06854630261659622,-0.19068260490894318,0.15813158452510834
1789761171959176000,11.589176025390625,-0.0993548184633255,-0.12829725444316864,0.20055919885635376
1789761171969226200,11.599226318359374,-0.11816605180501938,-0.11050014197826385,0.13078731298446655
1789761171979275300,11.609275146484375,-0.083917535841465,-0.1727539300918579,0.02237854339182377
1789761171989325300,11.6193251953125,0.017080184072256088,-0.20618006587028503,-0.29508358240127563
1789761171999375000,11.629375,0.05395271256566048,-0.14304398000240326,-0.34013307094573975
1789761172009424100,11.639424072265625,-0.0011382350930944085,-0.11846885830163956,-0.12737233936786652
1789761172019474200,11.64947412109375,0.03457821533083916,-0.12287319451570511,0.04051094129681587
1789761172029524000,11.65952392578125,0.11210229992866516,-0.0041002025827765465,0.26856887340545654
1789761172039573200,11.6695732421875,0.05772348493337631,-0.026826288551092148,0.28074485063552856
1789761172049623300,11.679623291015625,0.03548635542392731,-0.13235537707805634,-0.11568158864974976
1789761172059673000,11.689673095703125,0.14463254809379578,-0.09642294049263,-0.302647203207016
1789761172069722000,11.69972216796875,0.1571078598499298,-0.060271862894296646,-0.1966850906610489
1789761172079772200,11.709772216796875,0.04819415882229805,-0.09405192732810974,-0.01913987286388874
1789761172089822000,11.719822021484376,0.040523990988731384,-0.0738137736916542,0.2721308469772339
1789761172099871200,11.729871337890625,0.12227237969636917,-0.02257588319480419,0.19957488775253296
1789761172109921300,11.73992138671875,0.12034159153699875,-0.002013882389292121,-0.052020058035850525
1789761172119971300,11.749971435546875,0.09216321259737015,-0.08117048442363739,-0.10392240434885025
1789761172130020000,11.76002001953125,0.1493934839963913,-0.11419607698917389,-0.04537387192249298
1789761172140070100,11.770070068359376,0.19608908891677856,-0.08230073004961014,-0.07028082013130188
1789761172150120200,11.7801201171875,0.15726391971111298,-0.07040918618440628,-0.009387643076479435
1789761172160169200,11.790169189453126,0.13337856531143188,-0.016952618956565857,0.157803475856781
1789761172170219300,11.80021923828125,0.13194099068641663,0.010961837135255337,0.14739744365215302
1789761172180269300,11.810269287109374,0.1115662083029747,-0.01386761199682951,0.09294698387384415
1789761172190318000,11.820318115234375,0.13874909281730652,-0.033226128667593,-0.11393456161022186
1789761172200368000,11.8303681640625,0.20533877611160278,-0.10780635476112366,-0.2433260977268219
1789761172210418200,11.840418212890626,0.21423080563545227,-0.09270942956209183,-0.12575659155845642
1789761172220467200,11.85046728515625,0.1509018987417221,0.03284742683172226,0.12339597195386887
1789761172230517200,11.860517333984374,0.0900164395570755,0.06764163076877594,0.3320184350013733
1789761172240567300,11.8705673828125,0.11600463092327118,0.005153216887265444,0.2212839126586914
1789761172250616000,11.880615966796874,0.22253187000751495,-0.06571856141090393,-0.04182947054505348
1789761172260666000,11.890666015625,0.2594616711139679,-0.047388821840286255,-0.22440886497497559
1789761172270716200,11.900716064453125,0.17984965443611145,-0.011177819222211838,0.03452548757195473
1789761172280765200,11.91076513671875,0.1466168761253357,-0.028656411916017532,0.19337452948093414
1789761172290815200,11.920815185546875,0.20318295061588287,0.010147709399461746,0.13706225156784058
1789761172300865300,11.930865234375,0.19039976596832275,0.046728357672691345,-0.013067065738141537
1789761172310914300,11.940914306640625,0.13623666763305664,0.08143706619739532,-0.05086584389209747
1789761172320964000,11.950964111328124,0.1561720222234726,0.07661248743534088,-0.08864092081785202
1789761172331014100,11.96101416015625,0.2241276353597641,0.07860559225082397,-0.07739865034818649
1789761172341063200,11.971063232421875,0.2549417316913605,-0.0002788329729810357,0.020860008895397186
1789761172351113000,11.981113037109376,0.22986489534378052,0.03712020441889763,0.11658120900392532
1789761172361163300,11.991163330078125,0.16321155428886414,0.13860873878002167,0.09666955471038818
1789761172371212300,12.00121240234375,0.14012381434440613,0.08634980022907257,0.006371612660586834
1789761172381262000,12.011261962890625,0.23371049761772156,0.007681088987737894,-0.08213162422180176
1789761172391312100,12.02131201171875,0.29466092586517334,0.04611316695809364,-0.055685099214315414
1789761172401361200,12.031361083984375,0.21758797764778137,0.05986573174595833,0.03676014393568039
1789761172411411200,12.0414111328125,0.1770046055316925,0.07735338062047958,0.19948914647102356
1789761172421461000,12.0514609375,0.2788020670413971,0.025802835822105408,0.10260946303606033
1789761172431510300,12.06151025390625,0.3479912579059601,0.0530879870057106,0.02659858763217926
1789761172441560300,12.071560302734374,0.2678269147872925,0.15315093100070953,0.009681656025350094
1789761172451610000,12.081610107421875,0.1772157996892929,0.21821622550487518,-0.13749846816062927
1789761172461659100,12.0916591796875,0.22877858579158783,0.22326184809207916,0.04903332144021988
1789761172471709200,12.101709228515626,0.31106361746788025,0.1024765744805336,0.1669602245092392
1789761172481759000,12.111759033203125,0.3047734797000885,-0.026310166344046593,-0.0038149782922118902
1789761172491808300,12.121808349609376,0.3005414605140686,0.034984882920980453,-0.07663219422101974
1789761172501858300,12.1318583984375,0.26778697967529297,0.20922592282295227,-0.001660480978898704
1789761172511908000,12.141908203125,0.17652016878128052,0.2494194209575653,0.10034577548503876
1789761172521957000,12.15195703125,0.16122138500213623,0.09144176542758942,0.2517275810241699
1789761172532007200,12.162007080078125,0.24063551425933838,0.021558288484811783,0.1669602245092392
1789761172542057200,12.17205712890625,0.2564714550971985,0.09160901606082916,-0.14352867007255554
1789761172552106200,12.182106201171875,0.19641399383544922,0.07312002032995224,-0.3067399561405182
1789761172562156300,12.19215625,0.1950581669807434,0.09704452753067017,-0.16782069206237793
1789761172572206300,12.202206298828125,0.22269459068775177,0.132511705160141,0.12453287094831467
1789761172582255000,12.212255126953124,0.17873112857341766,0.1719408631324768,0.29226353764533997
1789761172592305200,12.22230517578125,0.11405014246702194,0.19473326206207275,0.2022164762020111
1789761172602355200,12.232355224609375,0.09711669385433197,0.19041042029857635,0.006499178241938353
1789761172612404200,12.242404296875,0.11317715793848038,0.13009381294250488,-0.2775211036205292
1789761172622454300,12.252454345703125,0.12628602981567383,0.06305060535669327,-0.3166181743144989
1789761172632504300,12.26250439453125,0.0897543877363205,0.05734984204173088,0.04495123028755188
1789761172642553000,12.272552978515625,0.006582002621144056,0.08391007781028748,0.31797850131988525
1789761172652603100,12.28260302734375,-0.051429636776447296,0.05115213245153427,0.33924996852874756
1789761172662653200,12.292653076171876,-0.03033180721104145,-0.0007994809420779347,0.07726283371448517
1789761172672702000,12.302701904296875,-0.012689163908362389,-0.040589772164821625,-0.26309022307395935
1789761172682752300,12.312752197265626,-0.07839147746562958,-0.04818590357899666,-0.24827691912651062
1789761172692801300,12.32280126953125,-0.1718822866678238,-0.014182131737470627,-0.028603682294487953
1789761172702851000,12.33285107421875,-0.24070581793785095,0.0434526689350605,0.11789601296186447
1789761172712901000,12.342901123046875,-0.2630004584789276,-0.017478859052062035,0.1612141877412796
