time,seconds_elapsed,z,y,x
1789761160423410700,0.05341064453125,-0.4076332151889801,-0.2715592682361603,0.21126234531402588
1789761160433460700,0.063460693359375,-0.35042423009872437,-0.2846311032772064,-0.2355603128671646
1789761160443509500,0.073509521484375,-0.3466004431247711,-0.15480627119541168,-0.45220422744750977
1789761160453559600,0.0835595703125,-0.40785515308380127,-0.13675828278064728,-0.2251044064760208
1789761160463609600,0.093609619140625,-0.3531879186630249,-0.12169518321752548,0.08395542949438095
1789761160473658600,0.10365869140625,-0.3281507194042206,-0.13849098980426788,0.45063623785972595
1789761160483708700,0.113708740234375,-0.3746018409729004,-0.17566046118736267,0.46346867084503174
1789761160493758700,0.1237587890625,-0.3419053852558136,-0.22334478795528412,0.009829525835812092
1789761160503807700,0.133807861328125,-0.24208931624889374,-0.35651350021362305,-0.32308024168014526
1789761160513857500,0.143857421875,-0.19001787900924683,-0.3651423752307892,-0.31112051010131836
1789761160523907600,0.153907470703125,-0.144353449344635,-0.19836322963237762,-0.06976010650396347
1789761160533956900,0.163956787109375,-0.09249536693096161,-0.24019765853881836,0.20828911662101746
1789761160544006700,0.174006591796875,-0.030900711193680763,-0.20768232643604279,0.21763601899147034
1789761160554056700,0.184056640625,-0.021521052345633507,-0.016597134992480278,0.08205834031105042
1789761160564105700,0.194105712890625,0.004833323415368795,0.10941459238529205,-0.18762212991714478
1789761160574155500,0.204155517578125,0.04089965298771858,0.2506905496120453,-0.31542015075683594
1789761160584205600,0.21420556640625,0.12647074460983276,-0.2220303863286972,0.033066991716623306
1789761160594254800,0.2242548828125,0.30208200216293335,-0.4593122601509094,0.10111221671104431
1789761160604305000,0.234304931640625,0.2206079065799713,-0.1149173229932785,0.30490607023239136
1789761160614354700,0.244354736328125,-0.13737845420837402,0.352782279253006,0.21115443110466003
1789761160624403700,0.25440380859375,-0.15969787538051605,0.6046475172042847,-0.38605090975761414
1789761160634453800,0.264453857421875,0.13673077523708344,0.27088662981987,-0.32526567578315735
1789761160644503600,0.274503662109375,0.45676735043525696,-0.22530876100063324,0.13751474022865295
1789761160654552600,0.284552490234375,0.6274129748344421,-0.31324824690818787,0.6098548173904419
1789761160664603000,0.294602783203125,0.33200952410697937,0.007842682301998138,0.6733182072639465
1789761160674652700,0.304652587890625,0.012168966233730316,0.23721937835216522,-0.012074796482920647
1789761160684701700,0.31470166015625,0.10364774614572525,0.29357239603996277,-0.7547580003738403
1789761160694751700,0.324751708984375,0.32730352878570557,0.04833775386214256,-0.7677878141403198
1789761160704801500,0.334801513671875,0.3171938955783844,-0.2138587087392807,0.23753154277801514
1789761160714850600,0.3448505859375,0.30827760696411133,-0.29773494601249695,0.5577672123908997
1789761160724900600,0.354900634765625,0.2509157657623291,-0.26425474882125854,0.43285539746284485
1789761160734950700,0.36495068359375,0.10689609497785568,-0.12589451670646667,-0.03788154572248459
1789761160744999700,0.374999755859375,0.03197231888771057,0.1889241337776184,-0.31552037596702576
1789761160755049700,0.3850498046875,-0.011896314099431038,0.20516857504844666,-0.3235820233821869
1789761160765099800,0.395099853515625,0.054247282445430756,-0.0953259989619255,0.16347287595272064
1789761160775148500,0.4051484375,0.3148329257965088,-0.29404518008232117,0.13576434552669525
1789761160785198600,0.415198486328125,0.27951276302337646,-0.22796256840229034,-0.1936766803264618
1789761160795248600,0.42524853515625,-0.0733758881688118,0.013341674581170082,-0.07480762898921967
1789761160805297700,0.435297607421875,-0.12057455629110336,0.19510188698768616,-0.014089686796069145
1789761160815347700,0.44534765625,0.0984441265463829,0.022692846134305,-0.10525210946798325
1789761160825397800,0.455397705078125,0.1331493854522705,-0.26330456137657166,-0.021892504766583443
1789761160835446500,0.465446533203125,0.15845796465873718,-0.34475454688072205,-0.038806650787591934
1789761160845496600,0.47549658203125,0.16675157845020294,-0.1286400705575943,-0.04850561544299126
1789761160855546600,0.485546630859375,0.044795822352170944,0.06791110336780548,0.023957667872309685
1789761160865595600,0.495595703125,-0.06322864443063736,0.1034853458404541,0.10607517510652542
1789761160875645700,0.505645751953125,-0.039737239480018616,-0.02065296098589897,0.1500815451145172
1789761160885695500,0.515695556640625,0.12484372407197952,-0.09683241695165634,-0.039569608867168427
1789761160895744500,0.52574462890625,0.235447496175766,0.0028508242685347795,-0.1358543485403061
1789761160905794600,0.535794677734375,0.08917363733053207,0.05807226896286011,-0.08671876043081284
1789761160915844400,0.54584423828125,0.004184106830507517,-0.02274857461452484,0.17218434810638428
1789761160925893600,0.5558935546875,0.1995924860239029,0.06695840507745743,0.29525354504585266
1789761160935943700,0.565943603515625,0.20928797125816345,0.12724868953227997,0.07231074571609497
1789761160945993700,0.57599365234375,-0.021703705191612244,-0.0005082066636532545,-0.0624270923435688
1789761160956042500,0.58604248046875,0.10833105444908142,0.03362785652279854,-0.15747147798538208
1789761160966092500,0.596092529296875,0.37842777371406555,-0.041256505995988846,-0.2527031898498535
1789761160976142600,0.606142578125,0.22576171159744263,-0.16828040778636932,0.17116212844848633
1789761160986191600,0.616191650390625,0.10691894590854645,-0.07918674498796463,0.4187311828136444
1789761160996241700,0.62624169921875,0.23612534999847412,0.031337663531303406,0.06799301505088806
1789761161006291700,0.636291748046875,0.22109101712703705,0.030257482081651688,-0.33059564232826233
1789761161016340500,0.646340576171875,0.20758627355098724,0.07228142768144608,-0.43036705255508423
1789761161026390500,0.656390625,0.2724694013595581,0.13278338313102722,0.05404648929834366
1789761161036440600,0.666440673828125,0.3014674484729767,0.12111575901508331,0.3966842591762543
1789761161046489600,0.676489501953125,0.2679092288017273,-0.05843057110905647,0.4217030704021454
1789761161056539600,0.68653955078125,0.20283646881580353,-0.06266824901103973,-0.026277342811226845
1789761161066589700,0.696589599609375,0.20685943961143494,-0.057735808193683624,-0.2876133322715759
1789761161076638500,0.706638427734375,0.30035510659217834,0.007725785486400127,-0.3297511041164398
1789761161086688500,0.7166884765625,0.2594801187515259,0.05310285463929176,0.13248762488365173
1789761161096738600,0.726738525390625,0.1678699404001236,0.020649975165724754,0.17431221902370453
1789761161106787300,0.736787353515625,0.1622229814529419,0.06973256915807724,0.14918184280395508
1789761161116837400,0.74683740234375,0.21348537504673004,0.12283743172883987,0.0781920775771141
1789761161126887700,0.7568876953125,0.2852306663990021,0.2062375247478485,-0.12706653773784637
1789761161136936700,0.766936767578125,0.3283039331436157,0.20617863535881042,-0.1780819594860077
1789761161146986500,0.776986572265625,0.3531115651130676,0.12937892973423004,0.06944260746240616
1789761161157036500,0.78703662109375,0.3969153165817261,0.002944203559309244,0.11106351017951965
1789761161167085600,0.79708544921875,0.3609386682510376,-0.024520976468920708,0.23279552161693573
1789761161177135400,0.80713525390625,0.22706495225429535,0.0799826830625534,0.1581551432609558
1789761161187185400,0.817185302734375,0.16016528010368347,0.10804014652967453,0.08913107216358185
1789761161197234700,0.827234619140625,0.2691399157047272,0.08062843233346939,-0.1491112858057022
1789761161207284500,0.837284423828125,0.36219286918640137,0.14573286473751068,-0.21391718089580536
1789761161217334500,0.84733447265625,0.2789357006549835,0.16734327375888824,-0.07753676176071167
1789761161227383600,0.857383544921875,0.16647759079933167,0.161627858877182,0.3581713140010834
1789761161237433300,0.867433349609375,0.2614944875240326,0.1965741664171219,0.24233077466487885
1789761161247483400,0.8774833984375,0.2844637334346771,0.12671811878681183,-0.0000829184427857399
1789761161257532700,0.88753271484375,0.23256328701972961,0.061080388724803925,-0.23218874633312225
1789761161267582700,0.897582763671875,0.3277382552623749,0.0457264669239521,-0.10301956534385681
1789761161277632500,0.907632568359375,0.3573438823223114,0.15406863391399384,0.08154772222042084
1789761161287682600,0.9176826171875,0.23241391777992249,0.190987229347229,0.19906742870807648
1789761161297731600,0.927731689453125,0.2338503748178482,0.19694018363952637,0.19880805909633636
1789761161307781400,0.937781494140625,0.3003242015838623,0.05625763535499573,-0.11726441234350204
1789761161317831400,0.94783154296875,0.3149346709251404,-0.010885382071137428,-0.32680144906044006
1789761161327880700,0.957880615234375,0.26476043462753296,0.1687416285276413,-0.06695601344108582
1789761161337930500,0.967930419921875,0.17320924997329712,0.2952043116092682,0.3063581883907318
1789761161347979500,0.9779794921875,0.2604674696922302,0.14318519830703735,0.12279526144266129
1789761161358029600,0.988029541015625,0.3237862288951874,0.08752702176570892,0.13687822222709656
1789761161368079600,0.99807958984375,0.24198535084724426,0.13269875943660736,-0.03649623319506645
1789761161378129400,1.00812939453125,0.18581591546535492,0.18542928993701935,0.024724731221795082
1789761161388178700,1.0181787109375,0.2191629409790039,0.16503028571605682,0.06330381333827972
1789761161398228700,1.028228759765625,0.2464875429868698,0.050634607672691345,0.023883294314146042
1789761161408278500,1.038278564453125,0.23143614828586578,0.22202207148075104,-0.07002376019954681
1789761161418327600,1.04832763671875,0.19633875787258148,0.20172123610973358,0.09566713124513626
1789761161428377600,1.058377685546875,0.21796336770057678,0.08765991777181625,0.3015976548194885
1789761161438427400,1.068427490234375,0.33612868189811707,0.12610413134098053,0.1618059128522873
1789761161448476700,1.0784765625,0.2315756231546402,0.16568003594875336,-0.20044365525245667
1789761161458526700,1.088526611328125,0.10930871218442917,0.2479005753993988,-0.11123261600732803
1789761161468576500,1.098576416015625,0.23545704782009125,0.2905668020248413,0.06590061634778976
1789761161478625500,1.10862548828125,0.356485515832901,0.1630278080701828,0.12475112825632095
1789761161488675600,1.118675537109375,0.2746327221393585,0.0424574576318264,0.2211034893989563
1789761161498725600,1.1287255859375,0.1625428944826126,0.06899499893188477,0.009109503589570522
1789761161508774400,1.1387744140625,0.22834615409374237,0.16657695174217224,-0.2881892919540405
1789761161518824700,1.14882470703125,0.30218374729156494,0.2716054916381836,-0.24646534025669098
1789761161528874800,1.158874755859375,0.24106340110301971,0.20917300879955292,-0.04956319183111191
1789761161538923500,1.168923583984375,0.3624122440814972,0.26550087332725525,0.09905783832073212
1789761161548973600,1.1789736328125,0.4561810791492462,0.23689904808998108,0.049326229840517044
1789761161559023600,1.189023681640625,0.3601590394973755,0.16681592166423798,-0.00009983591735363007
1789761161569072400,1.199072265625,0.2792668640613556,0.16737571358680725,-0.031348567456007004
1789761161579122400,1.209122314453125,0.29732465744018555,0.19165214896202087,0.16110862791538239
1789761161589172500,1.21917236328125,0.34576624631881714,0.28811025619506836,0.18104931712150574
1789761161599221500,1.229221435546875,0.32430174946784973,0.329900324344635,0.04328930377960205
1789761161609271600,1.239271484375,0.3364396393299103,0.46891361474990845,-0.03408271446824074
1789761161619321600,1.249321533203125,0.23744986951351166,0.4654294550418854,-0.04740901291370392
1789761161629370400,1.259370361328125,0.210824653506279,0.31376856565475464,-0.002841009758412838
1789761161639420400,1.26942041015625,0.3627196252346039,0.35312578082084656,0.04807024076581001
1789761161649470500,1.279470458984375,0.23643171787261963,0.4273699223995209,0.09744071960449219
1789761161659519500,1.28951953125,0.11033015698194504,0.31728988885879517,0.07133953273296356
1789761161669569500,1.299569580078125,0.26420867443084717,0.1928294599056244,0.01739693619310856
1789761161679619600,1.30961962890625,0.2760952115058899,0.20495103299617767,0.1912306249141693
1789761161689668600,1.319668701171875,0.04225316643714905,0.3623872399330139,0.27846404910087585
1789761161699718400,1.329718505859375,-0.07512505352497101,0.3922134339809418,0.23286378383636475
1789761161709768400,1.3397685546875,-0.046060383319854736,0.2623337507247925,0.08065027743577957
1789761161719817700,1.349817626953125,-0.0027238267939537764,0.1352117359638214,-0.17182591557502747
1789761161729867500,1.359867431640625,-0.001997316488996148,0.20832324028015137,-0.1874173879623413
1789761161739917600,1.36991748046875,-0.08704919368028641,0.3507516086101532,0.07211330533027649
1789761161749966600,1.379966552734375,-0.13648705184459686,0.2876543700695038,0.16953040659427643
1789761161760016400,1.390016357421875,-0.14146097004413605,0.21040762960910797,0.04396364837884903
1789761161770066400,1.40006640625,-0.19479236006736755,-0.004374177660793066,0.03000842221081257
1789761161780115700,1.41011572265625,-0.29279816150665283,-0.048480939120054245,-0.07427079975605011
1789761161790165800,1.420165771484375,-0.31425631046295166,-0.020196571946144104,-0.18456588685512543
1789761161800215600,1.430215576171875,-0.398827463388443,0.017980635166168213,0.02288084849715233
1789761161810264600,1.4402646484375,-0.40668487548828125,0.08339986205101013,-0.09252724051475525
1789761161820314600,1.450314697265625,-0.4104127883911133,0.12301871925592422,-0.05813823267817497
1789761161830364400,1.460364501953125,-0.5237497091293335,0.11026111245155334,-0.03855095058679581
1789761161840413700,1.47041357421875,-0.6145896315574646,0.08842838555574417,-0.05449408292770386
1789761161850463700,1.480463623046875,-0.6875131130218506,0.012155180796980858,0.1114240437746048
1789761161860513500,1.490513427734375,-0.7636921405792236,-0.023806728422641754,0.3392133414745331
1789761161870562600,1.5005625,-0.7725011110305786,-0.10067461431026459,0.1828453093767166
1789761161880613000,1.510613037109375,-0.721987247467041,-0.20960766077041626,-0.023370901122689247
1789761161890663200,1.5206630859375,-0.6623191237449646,-0.16988502442836761,-0.3488589823246002
1789761161900712000,1.5307119140625,-0.7656792402267456,-0.10754383355379105,-0.21342302858829498
1789761161910762000,1.540761962890625,-0.837899386882782,-0.0730697438120842,0.0482485331594944
1789761161920812000,1.55081201171875,-0.7372169494628906,-0.1646585762500763,0.033927492797374725
1789761161930861000,1.560861083984375,-0.7398441433906555,-0.29502859711647034,0.016291772946715355
1789761161940911000,1.5709111328125,-0.7976604104042053,-0.2519531548023224,0.11403250694274902
1789761161950961200,1.580961181640625,-0.7048125267028809,-0.20929008722305298,0.0006279144436120987
1789761161961010000,1.591010009765625,-0.6519198417663574,-0.3405742347240448,-0.023200929164886475
1789761161971060000,1.60106005859375,-0.6133748888969421,-0.3490864932537079,-0.14888109266757965
1789761161981110000,1.611110107421875,-0.5190916061401367,-0.17626644670963287,-0.2643607258796692
1789761161991159000,1.621158935546875,-0.5299469232559204,-0.09524350613355637,-0.13295477628707886
1789761162001209000,1.631208984375,-0.5428980588912964,-0.22339856624603271,0.11265879124403
1789761162011259100,1.641259033203125,-0.3821544647216797,-0.23397956788539886,0.18334707617759705
1789761162021308000,1.651307861328125,-0.3077596426010132,-0.2819916605949402,-0.0388253889977932
1789761162031358000,1.66135791015625,-0.3713918924331665,-0.25909966230392456,-0.07671551406383514
1789761162041408000,1.671407958984375,-0.31906455755233765,-0.11710965633392334,-0.11296936124563217
1789761162051457000,1.68145703125,-0.21718771755695343,-0.11132846772670746,-0.05769864842295647
1789761162061507000,1.691507080078125,-0.16398057341575623,-0.1767883002758026,0.010272888466715813
1789761162071557000,1.70155712890625,-0.12885107100009918,-0.15940478444099426,0.18624311685562134
1789761162081606100,1.711606201171875,-0.1213490441441536,-0.05103613808751106,0.14039365947246552
1789761162091656000,1.721656005859375,-0.07495305687189102,0.004578921012580395,-0.13513512909412384
1789761162101706000,1.7317060546875,-0.01405331026762724,-0.029364733025431633,-0.11344096809625626
1789761162111755000,1.741755126953125,-0.007109117694199085,0.004219058435410261,-0.011137503199279308
1789761162121805000,1.75180517578125,0.010356561280786991,-0.11757372319698334,-0.07807639241218567
1789761162131855000,1.761855224609375,0.08121475577354431,-0.2588677406311035,0.03629865124821663
1789761162141904100,1.771904052734375,0.09670942276716232,-0.21905769407749176,0.11757973581552505
1789761162151954000,1.781953857421875,0.03832307830452919,-0.11436325311660767,0.0577896311879158
1789761162162004000,1.79200390625,0.008983209729194641,-0.05352766066789627,-0.06555916368961334
1789761162172053000,1.802052978515625,0.08642073720693588,-0.056317057460546494,-0.19398769736289978
1789761162182103000,1.81210302734375,0.11817770451307297,-0.06257877498865128,-0.05809091031551361
1789761162192153000,1.822153076171875,0.107658751308918,-0.0962161049246788,0.1641182005405426
1789761162202202000,1.8322021484375,0.13601154088974,-0.12047503888607025,0.2331332415342331
1789761162212252200,1.842252197265625,0.15040166676044464,-0.20786692202091217,0.2676432728767395
1789761162222302000,1.852302001953125,0.20667174458503723,-0.24748823046684265,-0.028893262147903442
1789761162232351000,1.86235107421875,0.24433310329914093,-0.15054836869239807,-0.3030281662940979
1789761162242401000,1.872401123046875,0.11483251303434372,0.17087498307228088,-0.08215735852718353
1789761162252450800,1.882450927734375,-0.0009713179897516966,0.5001934766769409,0.19426490366458893
1789761162262500000,1.8925,0.1289825439453125,0.3666847348213196,0.05897453427314758
1789761162272550100,1.902550048828125,0.3976667523384094,-0.16914460062980652,-0.16531211137771606
1789761162282600200,1.91260009765625,0.4842018783092499,-0.3952593207359314,-0.16220657527446747
1789761162292649000,1.92264892578125,0.20424480736255646,-0.2232273668050766,0.02226872555911541
1789761162302699000,1.932698974609375,-0.15144003927707672,0.1663486361503601,0.03825207054615021
1789761162312749000,1.9427490234375,-0.27550873160362244,0.4085322320461273,0.36529624462127686
1789761162322798000,1.952798095703125,-0.10863377153873444,0.16509856283664703,0.2540162205696106
1789761162332848000,1.96284814453125,0.17313027381896973,-0.3802547752857208,-0.03409068286418915
1789761162342898200,1.972898193359375,0.30204084515571594,-0.645986020565033,-0.444921612739563
1789761162352947000,1.982947021484375,0.06456251442432404,-0.2515154182910919,-0.272325336933136
1789761162362997000,1.9929970703125,-0.2610780596733093,0.17532190680503845,0.20512785017490387
1789761162373047000,2.003047119140625,-0.28504306077957153,0.24057094752788544,0.27671894431114197
1789761162383096000,2.013095947265625,-0.08908131718635559,-0.01707734353840351,0.3252842426300049
1789761162393146000,2.02314599609375,0.11763803660869598,-0.5503050684928894,0.10210814327001572
1789761162403196200,2.033196044921875,0.23291820287704468,-0.1680268943309784,-0.33550894260406494
1789761162413245000,2.043244873046875,0.019984086975455284,0.14624714851379395,-0.39765727519989014
1789761162423295000,2.053294921875,-0.2923492193222046,0.5063435435295105,-0.17489269375801086
1789761162433345000,2.063344970703125,-0.29908275604248047,0.532174289226532,0.34592175483703613
1789761162443394000,2.07339404296875,0.02339213527739048,0.20619437098503113,0.22801247239112854
1789761162453444000,2.083444091796875,0.28690844774246216,-0.3120061755180359,-0.10335428267717361
1789761162463494100,2.093494140625,0.2350982129573822,-0.35822856426239014,-0.4455869793891907
1789761162473543000,2.10354296875,-0.01955110765993595,0.10308869928121567,-0.1314506232738495
1789761162483593000,2.113593017578125,-0.19434909522533417,0.46056920289993286,0.1255885362625122
1789761162493643000,2.12364306640625,-0.22962453961372375,0.3384523391723633,0.1479971706867218
1789761162503692000,2.133692138671875,-0.0982947126030922,0.0534149594604969,-0.05816052854061127
1789761162513742000,2.1437421875,0.07634074240922928,-0.225945845246315,-0.22748669981956482
1789761162523792100,2.153792236328125,-0.04289130121469498,-0.0978512242436409,-0.1896047443151474
1789761162533842200,2.16384228515625,-0.45331186056137085,0.194403275847435,0.3136080503463745
1789761162543891000,2.173890869140625,-0.6626999378204346,0.38592609763145447,0.3006693422794342
1789761162553941000,2.18394091796875,-0.5592374205589294,0.13864468038082123,0.19451813399791718
1789761162563991000,2.193990966796875,-0.3962453603744507,-0.2871948480606079,0.10019564628601074
1789761162574040000,2.2040400390625,-0.323822021484375,-0.4924611747264862,-0.2485562264919281
1789761162584090000,2.214090087890625,-0.3621765971183777,-0.4399002492427826,-0.36073803901672363
1789761162594140200,2.22414013671875,-0.5004636645317078,-0.2285078465938568,-0.050797462463378906
1789761162604189200,2.234189208984375,-0.6016384363174438,-0.10776966065168381,0.1656237691640854
1789761162614239000,2.244239013671875,-0.5298404097557068,-0.17193107306957245,0.3148854374885559
1789761162624289000,2.2542890625,-0.2879215478897095,-0.4564148485660553,0.3267632722854614
1789761162634338000,2.264338134765625,-0.08586006611585617,-0.43638017773628235,-0.16800597310066223
1789761162644387800,2.274387939453125,-0.13034816086292267,-0.2636503577232361,-0.41892847418785095
1789761162654438100,2.284438232421875,-0.2401484251022339,-0.04091954603791237,-0.3401188850402832
1789761162664487200,2.294487060546875,-0.20978139340877533,0.08754657953977585,-0.2373889684677124
1789761162674537000,2.304536865234375,-0.2485109567642212,0.11291079223155975,0.24706080555915833
1789761162684587000,2.3145869140625,-0.3474331796169281,0.008263361640274525,0.4635317027568817
1789761162694636000,2.324635986328125,-0.2874926030635834,-0.054462071508169174,0.3222392797470093
1789761162704686000,2.33468603515625,-0.16563767194747925,-0.12794680893421173,-0.09051014482975006
1789761162714735900,2.34473583984375,-0.14075522124767303,-0.22415988147258759,-0.4835841953754425
1789761162724785200,2.35478515625,-0.1915581077337265,-0.19378884136676788,-0.3367542028427124
1789761162734835200,2.364835205078125,-0.19411873817443848,-0.12525080144405365,-0.15363043546676636
1789761162744885000,2.374885009765625,-0.190701425075531,-0.049277398735284805,0.1557035893201828
1789761162754934000,2.38493408203125,-0.20513470470905304,-0.10315074771642685,0.2733128070831299
1789761162764984000,2.394984130859375,-0.22471581399440765,-0.1324336975812912,0.424802303314209
1789761162775033900,2.405033935546875,-0.17865724861621857,-0.1482430249452591,0.1279570311307907
1789761162785083100,2.415083251953125,-0.11156241595745087,-0.1952507644891739,-0.12812958657741547
1789761162795133200,2.42513330078125,-0.08830928802490234,-0.22014786303043365,-0.3729385435581207
1789761162805183000,2.435182861328125,-0.04889007285237312,-0.26876702904701233,-0.3445029854774475
1789761162815232000,2.44523193359375,0.054896775633096695,-0.2814024090766907,0.03244989365339279
1789761162825282000,2.455281982421875,0.101189024746418,-0.23085647821426392,0.3442251682281494
1789761162835332000,2.46533203125,0.002089604502543807,-0.1190846711397171,0.47331365942955017
1789761162845381000,2.475381103515625,-0.10869879275560379,0.07710357755422592,0.2756922245025635
1789761162855431200,2.48543115234375,-0.041529349982738495,0.09263353794813156,-0.3315255343914032
1789761162865481200,2.495481201171875,0.17701999843120575,-0.16614697873592377,-0.6083667874336243
1789761162875530000,2.505530029296875,0.31925782561302185,-0.30012235045433044,-0.3732006549835205
1789761162885580000,2.515580078125,0.19468288123607635,-0.2430846095085144,0.29759329557418823
1789761162895629800,2.5256298828125,0.012053685262799263,-0.025194350630044937,0.7925556302070618
1789761162905679000,2.53567919921875,-0.0011541596613824368,0.17449602484703064,0.48038196563720703
1789761162915729200,2.545729248046875,0.07921631634235382,0.20040220022201538,-0.2888007164001465
1789761162925779000,2.555779052734375,0.13079188764095306,0.011554860509932041,-0.7187668681144714
1789761162935828000,2.565827880859375,0.24339380860328674,-0.18631693720817566,-0.6650261878967285
1789761162945878000,2.5758779296875,0.37303170561790466,-0.3080500066280365,0.015507214702665806
1789761162955927800,2.585927734375,0.3374207317829132,-0.2275218814611435,0.5506619811058044
1789761162965976800,2.595976806640625,0.17536577582359314,0.03211124241352081,0.35188496112823486
1789761162976027100,2.606027099609375,0.0931239053606987,0.24555188417434692,-0.009654336608946323
1789761162986077200,2.6160771484375,0.1790250837802887,0.14135783910751343,-0.0940031111240387
1789761162996126000,2.6261259765625,0.3212442696094513,-0.02964932471513748,-0.11628897488117218
1789761163006176000,2.636176025390625,0.3814614713191986,-0.06804734468460083,-0.0600055456161499
1789761163016226000,2.64622607421875,0.3164989948272705,-0.01629440113902092,-0.016760073602199554
1789761163026274800,2.65627490234375,0.2372155338525772,0.051459234207868576,0.08434686809778214
1789761163036324900,2.666324951171875,0.26408204436302185,0.14144079387187958,-0.025575902312994003
1789761163046375000,2.676375,0.27898889780044556,0.08531352877616882,-0.04738309234380722
1789761163056424000,2.686423828125,0.24936413764953613,-0.06057283282279968,0.14783194661140442
1789761163066474000,2.696473876953125,0.274377703666687,-0.058988966047763824,0.3165728449821472
1789761163076524000,2.70652392578125,0.2769585847854614,0.07340316474437714,0.03711828589439392
1789761163086572800,2.71657275390625,0.18116046488285065,0.08747110515832901,-0.1702927201986313
1789761163096622800,2.726622802734375,0.13637834787368774,-0.007346488535404205,-0.0889187604188919
1789761163106673000,2.7366728515625,0.2151072472333908,-0.02947797067463398,-0.08980386704206467
1789761163116722000,2.746721923828125,0.21821995079517365,-0.037930045276880264,0.11371437460184097
1789761163126772000,2.75677197265625,0.1310531198978424,-0.052244316786527634,0.2573500871658325
1789761163136822000,2.766822021484375,0.07538080215454102,0.008665374480187893,0.1404288113117218
1789761163146870800,2.776870849609375,0.04595411196351051,0.1730760931968689,-0.2645929753780365
1789761163156920800,2.7869208984375,0.012601216323673725,0.1634410321712494,-0.36185720562934875
1789761163166971000,2.796970947265625,0.05354804918169975,0.0006959510501474142,-0.13499097526073456
1789761163177020200,2.807020263671875,0.13930609822273254,-0.0709281638264656,0.06175749748945236
1789761163187070000,2.817070068359375,0.09752807766199112,-0.04687022417783737,0.2896527051925659
1789761163197120000,2.8271201171875,-0.013500704430043697,-0.03935424983501434,0.24423779547214508
1789761163207169000,2.8371689453125,-0.0026701889000833035,0.04919091984629631,-0.003728445153683424
1789761163217218800,2.84721875,0.08019912987947464,0.05062370002269745,-0.2604111135005951
1789761163227268900,2.857268798828125,0.06734593957662582,-0.005889235530048609,-0.17423614859580994
1789761163237318100,2.867318115234375,0.05621020123362541,-0.014741582795977592,0.11717439442873001
1789761163247368000,2.877367919921875,0.09366060793399811,0.06598002463579178,0.2659038305282593
1789761163257418000,2.88741796875,0.06859759986400604,0.13623739778995514,0.2738618850708008
1789761163267467000,2.897467041015625,0.02871527150273323,0.18232908844947815,-0.0410057008266449
1789761163277517000,2.90751708984375,0.12522369623184204,0.09220345318317413,-0.42653608322143555
1789761163287566800,2.91756689453125,0.27800753712654114,-0.054008349776268005,-0.21358726918697357
1789761163297616100,2.9276162109375,0.3274770975112915,-0.0539388433098793,0.13914787769317627
1789761163307666200,2.937666259765625,0.21804897487163544,0.17938832938671112,0.4596821963787079
1789761163317716000,2.947716064453125,0.08779535442590714,0.3371925950050354,0.527555525302887
1789761163327765000,2.957764892578125,0.22086487710475922,0.21006812155246735,-0.06139865517616272
1789761163337815000,2.96781494140625,0.4656195044517517,0.05387425422668457,-0.594599187374115
1789761163347864800,2.97786474609375,0.46465203166007996,-0.01229884847998619,-0.47740548849105835
1789761163357913900,2.987913818359375,0.3169453740119934,0.0958918035030365,-0.24527102708816528
1789761163367964000,2.9979638671875,0.24166066944599152,0.35093116760253906,0.19766727089881897
1789761163378014000,3.008013916015625,0.2008455991744995,0.37931913137435913,0.2349770963191986
1789761163388063000,3.01806298828125,0.18092113733291626,0.14248807728290558,0.21813622117042542
1789761163398113000,3.028113037109375,0.20808857679367065,-0.015775324776768684,0.08846530318260193
1789761163408163000,3.0381630859375,0.16427113115787506,0.01980382204055786,-0.005016743205487728
1789761163418211800,3.0482119140625,0.0006547615048475564,0.12779633700847626,-0.00505962036550045
1789761163428262000,3.058261962890625,-0.11095104366540909,0.18520677089691162,-0.11253619939088821
1789761163438312000,3.06831201171875,-0.09571536630392075,0.09025014936923981,-0.015259445644915104
1789761163448362000,3.078362060546875,-0.03408209607005119,-0.07459863275289536,0.04054749757051468
1789761163458411000,3.088410888671875,-0.06077602505683899,-0.06074114143848419,0.00010500196367502213
1789761163468461000,3.0984609375,-0.228385791182518,-0.01716691069304943,-0.21716393530368805
1789761163478510800,3.1085107421875,-0.3608871102333069,0.005744529888033867,-0.05689036473631859
1789761163488559900,3.118559814453125,-0.3501386046409607,0.03389418497681618,-0.008396063931286335
1789761163498610000,3.12860986328125,-0.39282989501953125,-0.056319862604141235,0.26332518458366394
1789761163508660000,3.138659912109375,-0.5202634930610657,-0.13421089947223663,0.25042206048965454
1789761163518709000,3.148708984375,-0.5096076726913452,-0.09927662461996078,-0.21571765840053558
1789761163528759000,3.158759033203125,-0.4786956310272217,-0.12591691315174103,-0.46857210993766785
1789761163538809000,3.16880908203125,-0.597464382648468,-0.1393677443265915,-0.15714126825332642
1789761163548857900,3.17885791015625,-0.6959163546562195,0.01555074192583561,0.28417009115219116
1789761163558908000,3.188907958984375,-0.6456395983695984,-0.05341021716594696,0.5151276588439941
1789761163568958000,3.1989580078125,-0.5714547634124756,-0.16464868187904358,0.17878581583499908
1789761163579007000,3.209007080078125,-0.5257594585418701,-0.333777517080307,-0.45556771755218506
1789761163589057000,3.21905712890625,-0.4758393168449402,-0.27787333726882935,-0.6552408933639526
1789761163599107000,3.229107177734375,-0.47729021310806274,-0.17362870275974274,-0.35943740606307983
1789761163609155800,3.23915576171875,-0.5839791893959045,0.06640063226222992,0.30811551213264465
1789761163619206000,3.249205810546875,-0.6215039491653442,0.02283291518688202,0.5715676546096802
1789761163629256000,3.259255859375,-0.4419354796409607,-0.25215646624565125,0.20725785195827484
1789761163639305000,3.269304931640625,-0.2878071367740631,-0.22521352767944336,-0.25494787096977234
1789761163649355000,3.27935498046875,-0.3708573877811432,-0.16721652448177338,-0.3338848352432251
1789761163659405000,3.289405029296875,-0.38367411494255066,-0.3449742794036865,-0.359666109085083
1789761163669453800,3.299453857421875,-0.18931879103183746,-0.42631784081459045,-0.08417153358459473
1789761163679504000,3.30950390625,-0.13423237204551697,-0.2780112028121948,0.1362210214138031
1789761163689554000,3.319553955078125,-0.318199098110199,-0.16553445160388947,0.19820532202720642
1789761163699603200,3.329603271484375,-0.39598867297172546,-0.025828221812844276,0.05751131847500801
1789761163709653000,3.339653076171875,-0.24383848905563354,-0.05707250162959099,-0.06959779560565948
1789761163719703000,3.349703125,-0.079508937895298,-0.34138917922973633,-0.25594183802604675
1789761163729752000,3.359751953125,-0.10210858285427094,-0.37971794605255127,-0.3092487156391144
1789761163739801900,3.3698017578125,-0.28803932666778564,-0.12000726908445358,-0.15788236260414124
1789761163749852000,3.379851806640625,-0.38774073123931885,-0.03028729557991028,0.16744256019592285
1789761163759901000,3.38990087890625,-0.271879643201828,-0.13995707035064697,0.4043443202972412
1789761163769951000,3.399950927734375,-0.10836236923933029,-0.3289482891559601,0.36211538314819336
1789761163780001000,3.4100009765625,-0.04472639784216881,-0.3378576338291168,0.09567488729953766
1789761163790050000,3.420050048828125,-0.0353856198489666,-0.2364083230495453,-0.19593819975852966
1789761163800099800,3.430099853515625,-0.005515605676919222,-0.16673976182937622,-0.3093518316745758
1789761163810150000,3.44014990234375,0.030481699854135513,-0.05961738899350166,-0.20138603448867798
1789761163820199000,3.450198974609375,0.060574620962142944,-0.029378525912761688,0.029679151251912117
1789761163830249000,3.4602490234375,0.14301759004592896,-0.08274905383586884,0.32071375846862793
1789761163840299000,3.470299072265625,0.23598401248455048,-0.018800964578986168,0.3400307297706604
1789761163850348000,3.48034814453125,0.27353668212890625,0.05108791962265968,0.09816845506429672
1789761163860398000,3.490398193359375,0.33723577857017517,0.05468238890171051,-0.11400052905082703
1789761163870447900,3.50044775390625,0.4941326081752777,0.01645595021545887,-0.3195522725582123
1789761163880497000,3.510496826171875,0.6610445976257324,-0.11383068561553955,-0.36700713634490967
1789761163890547000,3.520546875,0.7494279146194458,-0.18431143462657928,-0.03746451437473297
1789761163900597000,3.530596923828125,0.7413689494132996,0.052343711256980896,0.4033118188381195
1789761163910646000,3.54064599609375,0.7009803056716919,0.4063507616519928,0.5313968062400818
1789761163920696000,3.550696044921875,0.7128894329071045,0.5071870684623718,0.10440366715192795
1789761163930746000,3.56074609375,0.8122280240058899,0.36862438917160034,-0.34119659662246704
1789761163940795000,3.570794921875,0.9363347887992859,0.28802675008773804,-0.3217983841896057
1789761163950845000,3.580844970703125,0.8906524181365967,0.33848339319229126,-0.04389069601893425
1789761163960895000,3.59089501953125,0.669679582118988,0.44302499294281006,0.23512549698352814
1789761163970944300,3.6009443359375,0.52628093957901,0.4853377044200897,0.3968568444252014
1789761163980994000,3.610994140625,0.5364145040512085,0.41298869252204895,0.13560979068279266
1789761163991044000,3.621044189453125,0.5451541543006897,0.22339902818202972,-0.1941651552915573
1789761164001093000,3.631093017578125,0.5088083744049072,0.03550635278224945,-0.3298273980617523
1789761164011143000,3.641142822265625,0.3907751739025116,0.05529313161969185,0.1471470445394516
1789761164021193000,3.65119287109375,0.24297186732292175,0.16873207688331604,0.33016109466552734
1789761164031242200,3.6612421875,0.15617434680461884,0.2565613090991974,0.08253572881221771
1789761164041292000,3.6712919921875,0.14828206598758698,0.19254076480865479,-0.0746389776468277
1789761164051342000,3.681342041015625,0.18489839136600494,-0.0029597957618534565,-0.08966067433357239
1789761164061391000,3.69139111328125,0.13777881860733032,0.016979292035102844,-0.05054975673556328
1789761164071441000,3.70144091796875,-0.05356951057910919,0.20562370121479034,0.04604826122522354
1789761164081491000,3.711490966796875,-0.1829860955476761,0.12800268828868866,-0.011312236078083515
1789761164091540200,3.721540283203125,-0.175370454788208,0.06487485766410828,-0.10186266899108887
1789761164101590300,3.73159033203125,-0.21819302439689636,0.03404902666807175,0.013095345348119736
1789761164111640000,3.74164013671875,-0.33254438638687134,-0.08072061836719513,0.11349266022443771
1789761164121689000,3.751689208984375,-0.36255180835723877,-0.15719620883464813,0.1775302290916443
1789761164131739100,3.7617392578125,-0.34591004252433777,-0.09165868163108826,-0.09713658690452576
1789761164141789000,3.771788818359375,-0.4143040180206299,-0.05254882574081421,-0.25700029730796814
1789761164151838000,3.781837890625,-0.440327525138855,-0.10323686897754669,-0.2934238612651825
1789761164161888000,3.791887939453125,-0.39391207695007324,-0.09660905599594116,0.19762523472309113
1789761164171938000,3.80193798828125,-0.3526337146759033,-0.15034152567386627,0.2337125688791275
1789761164181988000,3.811988037109375,-0.32164597511291504,-0.1929454356431961,0.007210720330476761
1789761164192037000,3.822037109375,-0.3371790945529938,-0.05161115527153015,-0.12409619241952896
1789761164202087200,3.832087158203125,-0.4436730742454529,0.03179931640625,0.1919453889131546
1789761164212137000,3.842136962890625,-0.4503742456436157,0.03234969452023506,-0.00873609073460102
1789761164222186000,3.85218603515625,-0.3213379681110382,-0.1084849163889885,-0.19259193539619446
1789761164232236000,3.862236083984375,-0.2026369869709015,-0.29131489992141724,-0.07949530333280563
1789761164242286000,3.8722861328125,-0.20893989503383636,-0.2994774878025055,0.043921440839767456
1789761164252335000,3.882335205078125,-0.33830922842025757,-0.05558265745639801,0.3657935857772827
1789761164262385200,3.89238525390625,-0.41195470094680786,0.222218856215477,0.290457546710968
1789761164272435000,3.90243505859375,-0.3200058043003082,0.08710083365440369,-0.21137098968029022
1789761164282484000,3.91248388671875,-0.1164470985531807,-0.3032386898994446,-0.625807523727417
1789761164292534000,3.922533935546875,0.03301869332790375,-0.3825247585773468,-0.29927241802215576
1789761164302583800,3.932583740234375,-0.03183406591415405,-0.21193544566631317,0.11101312190294266
1789761164312633000,3.942633056640625,-0.2503299117088318,0.03675520792603493,0.34121155738830566
1789761164322683100,3.95268310546875,-0.33290761709213257,0.1991070955991745,0.21335825324058533
1789761164332733200,3.962733154296875,-0.17843271791934967,0.1301015317440033,-0.0688035786151886
1789761164342782000,3.972781982421875,-0.010500436648726463,-0.18546602129936218,-0.1141609400510788
1789761164352832000,3.98283203125,0.06016461178660393,-0.4005526006221771,-0.18339803814888
1789761164362882000,3.992882080078125,0.024295026436448097,-0.3155628740787506,0.04626205563545227
1789761164372931000,4.00293115234375,-0.10862695425748825,0.0028123771771788597,0.07685121148824692
1789761164382981000,4.012981201171875,-0.2333446443080902,0.15246765315532684,-0.09711073338985443
1789761164393031200,4.02303125,-0.21360427141189575,0.1008874848484993,-0.26080670952796936
1789761164403080000,4.033079833984375,-0.05778590962290764,-0.17271903157234192,0.015967899933457375
1789761164413130000,4.0431298828125,0.0961279645562172,-0.4822246730327606,0.19929727911949158
1789761164423180000,4.053179931640625,0.10986321419477463,-0.393172025680542,0.18498465418815613
1789761164433229000,4.06322900390625,-0.04110625013709068,-0.043059010058641434,-0.12931035459041595
1789761164443279000,4.073279052734375,-0.17404964566230774,0.1838492453098297,-0.040055304765701294
1789761164453329200,4.0833291015625,-0.06719016283750534,0.1006733849644661,0.17022103071212769
1789761164463378000,4.0933779296875,0.15678727626800537,-0.14503437280654907,0.23810501396656036
1789761164473428000,4.103427978515625,0.2578146457672119,-0.22297322750091553,0.00235954113304615
1789761164483478000,4.11347802734375,0.20095910131931305,-0.10080709308385849,-0.18886208534240723
1789761164493527000,4.123527099609375,0.10883527249097824,0.16062329709529877,-0.23920312523841858
1789761164503577000,4.1335771484375,0.07431671023368835,0.14933709800243378,0.13319280743598938
1789761164513627100,4.143627197265625,0.08757089078426361,0.07434292137622833,0.4148252010345459
1789761164523676200,4.15367626953125,0.1154472604393959,0.1340821534395218,0.22625476121902466
1789761164533726000,4.163725830078125,0.2448633313179016,0.051841095089912415,-0.16098152101039886
1789761164543776000,4.17377587890625,0.4857771396636963,-0.19779430329799652,-0.28493037819862366
1789761164553825000,4.183824951171875,0.5899629592895508,-0.24980932474136353,-0.32103192806243896
1789761164563875000,4.193875,0.2638304531574249,0.11769650131464005,0.11993932723999023
1789761164573925000,4.203925048828125,-0.11819055676460266,0.49534353613853455,0.12002059817314148
1789761164583974100,4.21397412109375,-0.03506477549672127,0.4408206343650818,0.016738425940275192
1789761164594024000,4.22402392578125,0.2957329750061035,0.007318948395550251,0.14435052871704102
1789761164604074000,4.234073974609375,0.4414249360561371,-0.4611201584339142,0.19272899627685547
1789761164614123000,4.244123046875,0.3919420838356018,-0.4053356349468231,0.27330076694488525
1789761164624173000,4.254173095703125,0.3154797852039337,0.018143199384212494,-0.08435962349176407
1789761164634223000,4.26422314453125,0.17772850394248962,0.3692358732223511,-0.37432509660720825
1789761164644272000,4.274272216796875,-0.0009714605985209346,0.48959556221961975,-0.22229161858558655
1789761164654322200,4.284322265625,0.03477867692708969,0.249828040599823,0.05049123615026474
1789761164664372000,4.2943720703125,0.22315311431884766,-0.04952432960271835,0.2896324694156647
1789761164674421000,4.3044208984375,0.20165085792541504,-0.13767708837985992,0.153533935546875
1789761164684471000,4.314470947265625,-0.07509391009807587,-0.034375470131635666,0.09056296199560165
1789761164694520800,4.324520751953125,-0.15995632112026215,0.06452088803052902,-0.20752693712711334
1789761164704570000,4.334570068359375,-0.08044976741075516,-0.0773443654179573,-0.22498582303524017
1789761164714620200,4.3446201171875,-0.12431269884109497,-0.09700457751750946,-0.09385862201452255
1789761164724670000,4.354669921875,-0.17736899852752686,-0.06810581684112549,0.1841524839401245
1789761164734719000,4.364718994140625,-0.15205730497837067,-0.01537923701107502,0.14911437034606934
1789761164744769000,4.37476904296875,-0.12264668196439743,-0.10773100703954697,0.010668877512216568
1789761164754819000,4.384819091796875,-0.10267072916030884,-0.01953054964542389,-0.11091379076242447
1789761164764868000,4.3948681640625,-0.11308795213699341,0.06726479530334473,0.09081320464611053
1789761164774918100,4.404918212890625,-0.16766206920146942,0.07003955543041229,0.2847050726413727
1789761164784968200,4.41496826171875,-0.07178056240081787,0.08851204067468643,-0.05810952186584473
1789761164795017000,4.425016845703125,0.00626430194824934,-0.014331120997667313,-0.15811340510845184
1789761164805067000,4.43506689453125,-0.04106299951672554,-0.08016126602888107,-0.3228197991847992
1789761164815117000,4.445116943359375,-0.11615025252103806,0.12010381370782852,0.005388406105339527
1789761164825166000,4.455166015625,-0.15967349708080292,0.24226248264312744,0.365437388420105
1789761164835216100,4.465216064453125,-0.1628539264202118,0.07540471106767654,0.20376092195510864
1789761164845266200,4.47526611328125,-0.07798030972480774,-0.10835100710391998,-0.024640558287501335
1789761164855315000,4.48531494140625,0.08559200167655945,-0.23128162324428558,-0.26592716574668884
1789761164865365000,4.495364990234375,0.0693826675415039,-0.1847705841064453,-0.3785943388938904
1789761164875415000,4.5054150390625,-0.18296203017234802,-0.001361903385259211,-0.09221192449331284
1789761164885464300,4.51546435546875,-0.3419492840766907,0.05166296660900116,0.5626028776168823
1789761164895513600,4.525513671875,-0.20539124310016632,0.04064393788576126,0.555910050868988
1789761164905563600,4.535563720703125,-0.060376524925231934,-0.120306596159935,0.08561576157808304
1789761164915613700,4.54561376953125,-0.05914081633090973,-0.2980459928512573,-0.5960631966590881
1789761164925662500,4.555662353515625,-0.08325627446174622,-0.20099398493766785,-0.6579704880714417
1789761164935712500,4.56571240234375,-0.13758543133735657,0.038730766624212265,-0.20181354880332947
1789761164945762600,4.575762451171875,-0.29703181982040405,0.13458086550235748,0.5259743332862854
1789761164955811600,4.5858115234375,-0.3410961925983429,0.10166943818330765,0.6891162395477295
1789761164965861600,4.595861572265625,-0.1720517873764038,-0.10856475681066513,0.12045010179281235
1789761164975911700,4.60591162109375,-0.034196119755506516,-0.2676027715206146,-0.37537914514541626
1789761164985960400,4.61596044921875,-0.022689662873744965,-0.1485576033592224,-0.506009042263031
1789761164996010500,4.626010498046875,-0.07428368180990219,-0.05025111883878708,-0.30567750334739685
1789761165006060500,4.636060546875,-0.17370960116386414,0.2126963585615158,0.13086652755737305
1789761165016109600,4.646109619140625,-0.2022443264722824,0.2640340030193329,0.3087840974330902
1789761165026159600,4.65615966796875,-0.06367925554513931,0.020508702844381332,0.24742858111858368
1789761165036209700,4.666209716796875,0.11717604100704193,-0.09498188644647598,-0.0033048633486032486
1789761165046258400,4.676258544921875,0.164650097489357,-0.09664183109998703,-0.2885728180408478
1789761165056308500,4.68630859375,0.053111061453819275,0.09394197911024094,-0.19809527695178986
1789761165066358500,4.696358642578125,0.06256688386201859,0.23345912992954254,-0.1938861459493637
1789761165076407600,4.706407470703125,0.14156672358512878,0.12412391602993011,0.05783553048968315
1789761165086457600,4.71645751953125,0.16169382631778717,0.01897353306412697,0.3424701988697052
1789761165096507600,4.726507568359375,0.217494934797287,0.07514476031064987,0.35267120599746704
1789761165106556700,4.736556640625,0.2540750503540039,0.11246976256370544,-0.13120438158512115
1789761165116606500,4.7466064453125,0.1554577350616455,0.018281158059835434,-0.2977886199951172
1789761165126656500,4.756656494140625,0.18055324256420135,0.053437814116477966,-0.14437773823738098
1789761165136705500,4.76670556640625,0.3055558204650879,0.19074253737926483,0.08638666570186615
1789761165146755600,4.776755615234375,0.2554689347743988,0.13110797107219696,0.15293826162815094
1789761165156805600,4.7868056640625,0.17931894958019257,0.053891416639089584,0.1948106586933136
1789761165166854700,4.796854736328125,0.26651325821876526,0.03387083858251572,-0.04670662432909012
1789761165176904400,4.806904541015625,0.2301366925239563,0.011425699107348919,-0.18344441056251526
1789761165186954500,4.81695458984375,0.025655990466475487,0.12967537343502045,-0.21053461730480194
1789761165197003500,4.82700341796875,-0.16655473411083221,0.3134760856628418,0.26660820841789246
1789761165207053600,4.837053466796875,-0.10257495194673538,0.14055278897285461,0.4969373047351837
1789761165217103400,4.847103271484375,0.15833400189876556,-0.10132716596126556,-0.06301140785217285
1789761165227152600,4.857152587890625,0.16847239434719086,-0.2272651344537735,-0.6542879939079285
1789761165237202700,4.86720263671875,-0.13246837258338928,-0.021030720323324203,-0.4263060688972473
1789761165247252500,4.87725244140625,-0.32565486431121826,0.31209585070610046,0.11075044423341751
1789761165257301500,4.887301513671875,-0.38970598578453064,0.2991858720779419,0.4008801281452179
1789761165267351600,4.8973515625,-0.3814257085323334,-0.08147971332073212,0.6169404983520508
1789761165277401300,4.9074013671875,-0.14439137279987335,-0.3729945123195648,0.003228924237191677
1789761165287450600,4.91745068359375,-0.05854383483529091,-0.4322493076324463,-0.5035040378570557
1789761165297500700,4.927500732421875,-0.33079391717910767,-0.07549137622117996,-0.4631505310535431
1789761165307550500,4.937550537109375,-0.5314667820930481,0.0049637905322015285,-0.033072397112846375
1789761165317599500,4.947599609375,-0.42319193482398987,0.006736421026289463,0.3050122559070587
1789761165327649500,4.9576494140625,-0.3202245235443115,-0.08822737634181976,0.48886942863464355
1789761165337699600,4.967699462890625,-0.415907084941864,-0.2067261040210724,0.09520869702100754
1789761165347748600,4.97774853515625,-0.4164152145385742,-0.22428645193576813,-0.33556079864501953
1789761165357798700,4.987798583984375,-0.29190412163734436,-0.05150469392538071,-0.6633726954460144
1789761165367848700,4.9978486328125,-0.38086649775505066,0.07426334917545319,-0.5427700877189636
1789761165377897500,5.0078974609375,-0.5832072496414185,0.0012928890064358711,0.023223895579576492
1789761165387947500,5.017947509765625,-0.5759437084197998,-0.24702024459838867,0.6265712976455688
1789761165397997600,5.02799755859375,-0.37082168459892273,-0.35380303859710693,1.0441021919250488
1789761165408046600,5.038046630859375,-0.10540226101875305,-0.31370940804481506,0.5510900616645813
1789761165418096600,5.0480966796875,-0.024747686460614204,-0.4005356431007385,-0.5697201490402222
1789761165428146700,5.058146728515625,-0.21425077319145203,-0.32497459650039673,-1.1722816228866577
1789761165438196700,5.06819677734375,-0.2762136459350586,0.1312173455953598,-0.792677104473114
1789761165448245500,5.07824560546875,-0.10617639869451523,0.40562012791633606,0.1553722769021988
1789761165458295600,5.088295654296875,-0.04048483446240425,0.00034703616984188557,0.7794026136398315
1789761165468344600,5.098344482421875,-0.10236578434705734,-0.22571459412574768,0.49694883823394775
1789761165478394600,5.10839453125,-0.09796038269996643,-0.12545377016067505,0.09793727099895477
1789761165488444700,5.118444580078125,-0.06207162141799927,0.009191127493977547,-0.33011049032211304
1789761165498494700,5.12849462890625,-0.17061641812324524,-0.15771901607513428,-0.19084422290325165
1789761165508543500,5.13854345703125,-0.24263708293437958,-0.2262599915266037,-0.038168925791978836
1789761165518593500,5.148593505859375,-0.15812864899635315,-0.02421335130929947,0.03851909190416336
1789761165528643600,5.1586435546875,-0.17181622982025146,0.023332063108682632,0.23773472011089325
1789761165538692400,5.1686923828125,-0.17249837517738342,-0.13685005903244019,-0.055847570300102234
1789761165548742700,5.17874267578125,-0.06451358646154404,-0.2691252827644348,-0.2765969932079315
1789761165558792700,5.188792724609375,-0.10952876508235931,-0.28516921401023865,0.07371509820222855
1789761165568841500,5.198841552734375,-0.24431055784225464,-0.0748513713479042,0.6680354475975037
1789761165578891500,5.2088916015625,-0.21253879368305206,-0.02849607728421688,0.589566707611084
1789761165588941600,5.218941650390625,-0.07381340861320496,-0.12738937139511108,0.3987525999546051
1789761165598990300,5.228990234375,0.14088822901248932,-0.08231714367866516,-0.3235948383808136
1789761165609040400,5.239040283203125,0.3163311779499054,0.03989584371447563,-1.3578283786773682
1789761165619090400,5.24909033203125,0.22451402246952057,0.19903786480426788,-1.3731646537780762
1789761165629139700,5.2591396484375,0.05151960626244545,0.29191163182258606,-0.38348233699798584
1789761165639189500,5.269189453125,0.04534101113677025,0.2516641318798065,0.8679843544960022
1789761165649239600,5.279239501953125,0.18168874084949493,-0.12427407503128052,1.3502702713012695
1789761165659288600,5.28928857421875,0.26195722818374634,-0.324099600315094,0.5812355279922485
1789761165669338400,5.29933837890625,0.1976030319929123,-0.26559820771217346,-0.8229528665542603
1789761165679388400,5.309388427734375,-0.04957457631826401,-0.0053166113793849945,-0.8799375891685486
1789761165689437700,5.319437744140625,-0.15165700018405914,0.08007285743951797,-0.07080695778131485
1789761165699487500,5.329487548828125,-0.11248769611120224,-0.0019331366056576371,1.2376704216003418
1789761165709537500,5.33953759765625,0.08490926027297974,-0.2076956182718277,1.3168894052505493
1789761165719586600,5.349586669921875,0.33576592803001404,-0.22806786000728607,0.3777776062488556
1789761165729636400,5.35963623046875,0.3287314474582672,-0.01227456983178854,-1.3075871467590332
1789761165739686400,5.369686279296875,0.09469202160835266,0.2215694785118103,-1.842181921005249
1789761165749735700,5.379735595703125,0.001926399301737547,0.26119330525398254,-0.8751130104064941
1789761165759785700,5.38978564453125,-0.004832322243601084,0.12416276335716248,0.8515173196792603
1789761165769835500,5.39983544921875,-0.16725745797157288,0.02237701788544655,1.9049739837646484
1789761165779884500,5.409884521484375,-0.20508161187171936,-0.06469196826219559,1.6899330615997314
1789761165789934600,5.4199345703125,0.1246747151017189,-0.29352062940597534,-0.005159894470125437
1789761165799984400,5.429984375,0.31390997767448425,-0.4115171432495117,-1.3465231657028198
1789761165810033700,5.44003369140625,0.21981249749660492,-0.2362433224916458,-1.5189162492752075
1789761165820083700,5.450083740234375,0.31822603940963745,0.4452086091041565,-1.4926693439483643
1789761165830133500,5.460133544921875,0.45004427433013916,0.5419308543205261,-1.2507206201553345
1789761165840182500,5.4701826171875,0.13713085651397705,0.3996164798736572,0.07734682410955429
1789761165850232600,5.480232666015625,-0.08157165348529816,0.16787567734718323,1.368975043296814
1789761165860282600,5.49028271484375,-0.2282237708568573,-0.1565181016921997,2.4034423828125
1789761165870331600,5.50033154296875,-0.11580269038677216,0.10090091824531555,1.4102580547332764
1789761165880381700,5.510381591796875,0.06485272943973541,0.43368810415267944,-1.2690879106521606
1789761165890432000,5.520431884765625,-0.2563207745552063,-0.33198079466819763,-2.4196126461029053
1789761165900481000,5.53048095703125,-0.12359766662120819,-0.6772010922431946,-1.1893171072006226
1789761165910530800,5.54053076171875,0.60792076587677,-0.32032978534698486,0.2674223482608795
1789761165920580900,5.550580810546875,0.2182314395904541,-0.1910555511713028,1.2910021543502808
1789761165930630000,5.5606298828125,-0.7459191679954529,0.09717412292957306,1.2456756830215454
1789761165940680000,5.570679931640625,-0.6832903027534485,0.7849020957946777,0.1843743622303009
1789761165950729700,5.580729736328125,-0.1597232073545456,0.6768826842308044,-0.5413240194320679
1789761165960779000,5.590779052734375,0.04371388629078865,-0.41073209047317505,-0.8273941278457642
1789761165970829000,5.6008291015625,0.19564563035964966,-1.0333880186080933,-0.8990195989608765
1789761165980878800,5.61087890625,0.025007285177707672,-0.6399510502815247,0.08104780316352844
1789761165990928000,5.620927978515625,-0.4516415596008301,0.2023109346628189,1.0200238227844238
1789761166000978000,5.63097802734375,-0.7696574330329895,0.580181360244751,1.6682407855987549
1789761166011027700,5.64102783203125,-0.6727359294891357,0.14538969099521637,1.4708549976348877
1789761166021077000,5.651076904296875,-0.16714724898338318,-0.44309771060943604,0.1636476218700409
1789761166031127000,5.661126953125,0.2444906234741211,-0.6367819905281067,-1.8911701440811157
1789761166041177000,5.671177001953125,-0.07944280654191971,-0.32285428047180176,-2.1846532821655273
1789761166051227000,5.681226806640625,-0.5920720100402832,0.19011631608009338,-0.48925527930259705
1789761166061276000,5.69127587890625,-0.5894215106964111,0.34015747904777527,1.3862340450286865
1789761166071326000,5.701325927734375,-0.37598302960395813,-0.14583824574947357,1.910356879234314
1789761166081375700,5.711375732421875,-0.3451520502567291,-0.5147491097450256,1.060075044631958
1789761166091425000,5.721425048828125,-0.3222781717777252,-0.3860417306423187,-0.48148855566978455
1789761166101475000,5.73147509765625,-0.3693097233772278,-0.3091694414615631,-0.9984920620918274
1789761166111524900,5.74152490234375,-0.3201312720775604,-0.3135327398777008,-0.5709385871887207
1789761166121574000,5.751573974609375,-0.26116007566452026,-0.1686028391122818,0.09762680530548096
1789761166131624000,5.7616240234375,-0.3534409999847412,-0.1694771647453308,0.29368552565574646
1789761166141674000,5.771674072265625,-0.3573257625102997,-0.1309775710105896,0.002768087200820446
1789761166151723000,5.781722900390625,-0.2618645131587982,-0.022942718118429184,-0.3120090365409851
1789761166161773000,5.79177294921875,-0.25901690125465393,-0.1858968436717987,-0.07249131798744202
1789761166171823000,5.801822998046875,-0.45780083537101746,-0.3509480953216553,1.2013306617736816
1789761166181871900,5.811871826171875,-0.2588910162448883,-0.33389347791671753,0.8705589175224304
1789761166191922000,5.821921875,-0.1050063893198967,-0.5496425628662109,0.4239915907382965
1789761166201972000,5.831971923828125,-0.2709749937057495,-0.5247200727462769,0.22566832602024078
1789761166212021000,5.84202099609375,0.06918524205684662,-0.33663666248321533,-1.5568000078201294
1789761166222071000,5.852071044921875,0.201798215508461,0.3450007438659668,-2.0986297130584717
1789761166232121000,5.86212109375,-0.49106520414352417,0.5529741644859314,-0.875797688961029
1789761166242169900,5.872169921875,-0.9904084205627441,-0.19308364391326904,1.3192733526229858
1789761166252220000,5.882219970703125,-0.5718494653701782,-0.7261015176773071,2.9675238132476807
1789761166262270000,5.89227001953125,0.06684024631977081,-0.6110425591468811,3.0865023136138916
1789761166272318700,5.902318603515625,0.20419944822788239,-0.3146638572216034,0.2439662665128708
1789761166282369000,5.912369140625,-0.1440679281949997,-0.22124627232551575,-2.8751282691955566
1789761166292419000,5.922419189453125,0.022317063063383102,-0.09874167293310165,-3.8832550048828125
1789761166302467800,5.9324677734375,0.6408216953277588,-0.09502967447042465,-2.0168755054473877
1789761166312518000,5.942517822265625,0.37325653433799744,-0.10308094322681427,1.1509099006652832
1789761166322568000,5.95256787109375,-0.29436206817626953,0.21992112696170807,3.340437412261963
1789761166332616700,5.96261669921875,-0.1424092948436737,0.47333475947380066,2.693331003189087
1789761166342666800,5.972666748046875,0.38907644152641296,-0.11905399709939957,-0.12873677909374237
1789761166352716800,5.982716796875,0.39025649428367615,-0.8317175507545471,-2.222400665283203
1789761166362766000,5.99276611328125,0.650397002696991,-0.8982385396957397,-2.5544416904449463
1789761166372816000,6.00281591796875,0.9381390810012817,-0.24639442563056946,-1.229673981666565
1789761166382866000,6.012865966796875,0.5576949119567871,0.2996615171432495,0.6702947616577148
1789761166392915000,6.0229150390625,0.1619928628206253,0.6311672925949097,1.6552659273147583
1789761166402964700,6.03296484375,0.30838093161582947,0.6614423990249634,0.9761805534362793
1789761166413014800,6.043014892578125,0.4848899245262146,0.17920197546482086,-0.40874093770980835
1789761166423064000,6.05306396484375,0.5650036931037903,-0.12085630744695663,-1.3085253238677979
1789761166433113900,6.06311376953125,0.7531762719154358,0.15836201608181,-1.2019107341766357
1789761166443164000,6.073163818359375,0.7160118818283081,0.2798652946949005,-0.7034935355186462
1789761166453213000,6.083212890625,0.3188759684562683,0.275045245885849,0.6841713190078735
1789761166463263000,6.093262939453125,0.10735932737588882,0.021201742812991142,1.430923342704773
1789761166473312800,6.103312744140625,0.1986333131790161,-0.10424033552408218,1.358201503753662
1789761166483362000,6.113362060546875,0.5719916224479675,0.007878384552896023,0.0034585418179631233
1789761166493412000,6.123412109375,0.37677425146102905,0.33018559217453003,-0.5942993760108948
1789761166503462000,6.1334619140625,-0.19445355236530304,0.31355392932891846,-0.25433212518692017
1789761166513511000,6.143510986328125,0.16453683376312256,0.2997733950614929,-0.6218222379684448
1789761166523561000,6.15356103515625,0.8344603776931763,0.13836298882961273,-1.200127363204956
1789761166533610800,6.16361083984375,0.6334401965141296,-0.018152056261897087,-1.0439170598983765
1789761166543660800,6.173660888671875,0.23830266296863556,0.07202722877264023,0.587391197681427
1789761166553710000,6.1837099609375,0.16697123646736145,0.3614840805530548,1.8466302156448364
1789761166563759900,6.193759765625,0.2126445472240448,0.39570480585098267,1.791090965270996
1789761166573809000,6.203808837890625,0.0047254376113414764,-0.0014859649818390608,0.23867951333522797
1789761166583859000,6.21385888671875,-0.00030893427901901305,-0.4994133710861206,-1.2095669507980347
1789761166593909000,6.223908935546875,0.6479252576828003,-0.46233150362968445,-1.5591760873794556
1789761166603958800,6.233958740234375,0.7684995532035828,0.06525710970163345,-0.47904396057128906
1789761166614008000,6.244008056640625,0.3001648187637329,0.664064884185791,0.5503646731376648
1789761166624058000,6.25405810546875,0.06649074703454971,0.7420185208320618,0.9290710091590881
1789761166634108000,6.26410791015625,-0.018164221197366714,0.3692851662635803,0.34317532181739807
1789761166644157000,6.274156982421875,0.0704595223069191,0.043505504727363586,-0.28563421964645386
1789761166654207000,6.28420703125,0.19879938662052155,-0.07935596257448196,-0.22100302577018738
1789761166664256800,6.2942568359375,0.18542835116386414,-0.06879137456417084,-0.0000058785080909729
1789761166674305800,6.304305908203125,0.1533748060464859,0.13713622093200684,0.034277793020009995
1789761166684356000,6.314356201171875,-0.03062969446182251,0.20378857851028442,0.272085040807724
1789761166694406100,6.32440625,-0.10138961672782898,0.02794697880744934,0.26194292306900024
1789761166704455000,6.334454833984375,0.11438688635826111,-0.12929578125476837,-0.1292293667793274
1789761166714505000,6.3445048828125,0.07637638598680496,-0.09836423397064209,-0.21055831015110016
1789761166724555000,6.354554931640625,-0.12629912793636322,-0.014573747292160988,-0.014426792040467262
1789761166734603800,6.364603759765625,-0.10817577689886093,0.09637460112571716,0.0037287762388587
1789761166744653800,6.37465380859375,-0.08984289318323135,0.10024275630712509,0.09692704677581787
1789761166754704000,6.384703857421875,-0.20928992331027985,-0.005136663559824228,0.3552089333534241
1789761166764753000,6.3947529296875,-0.2572025656700134,-0.22408956289291382,0.47800061106681824
1789761166774803000,6.404802978515625,-0.14195507764816284,-0.3298865556716919,-0.10654352605342865
1789761166784853000,6.41485302734375,-0.2160896360874176,-0.13292445242404938,-0.1594569981098175
1789761166794901800,6.42490185546875,-0.30407699942588806,0.22756369411945343,0.0498695895075798
1789761166804951800,6.434951904296875,-0.2901967465877533,0.3142784833908081,0.26163381338119507
1789761166815001900,6.445001953125,-0.2365793138742447,0.12692297995090485,0.21838009357452393
1789761166825051000,6.45505078125,-0.36616045236587524,-0.1295182704925537,0.3587203025817871
1789761166835101000,6.465100830078125,-0.32766658067703247,-0.24899911880493164,-0.22981087863445282
1789761166845151000,6.47515087890625,-0.1307310163974762,-0.2579764127731323,-0.418348103761673
1789761166855199700,6.48519970703125,-0.10229937732219696,-0.019854653626680374,-0.18007802963256836
1789761166865249800,6.495249755859375,-0.36312052607536316,0.11558956652879715,0.43533799052238464
1789761166875299800,6.5052998046875,-0.3365413546562195,0.06988067179918289,0.03948972746729851
1789761166885348400,6.515348388671875,-0.15715451538562775,0.09805875271558762,-0.2627805471420288
1789761166895398400,6.5253984375,-0.19678261876106262,-0.04787208512425423,-0.051290664821863174
1789761166905448400,6.535448486328125,-0.15107806026935577,-0.1498144567012787,0.1593700796365738
1789761166915497500,6.54549755859375,-0.010584598407149315,-0.2504348158836365,0.2700515687465668
1789761166925547300,6.55554736328125,-0.11242921650409698,-0.23385947942733765,0.03681048005819321
1789761166935597300,6.565597412109375,-0.13184311985969543,0.02986057475209236,-0.34996119141578674
1789761166945646600,6.575646484375,-0.12735643982887268,0.08915924280881882,-0.33856862783432007
1789761166955696400,6.5856962890625,-0.048054419457912445,0.033194251358509064,-0.3005186915397644
1789761166965746400,6.595746337890625,0.008370280265808105,0.11550267785787582,-0.26009392738342285
1789761166975795500,6.60579541015625,-0.05906788259744644,0.15459494292736053,-0.1473146677017212
1789761166985845200,6.61584521484375,-0.16459490358829498,0.027408577501773834,-0.09099318087100983
1789761166995895300,6.625895263671875,-0.15839800238609314,-0.06886576116085052,-0.12664304673671722
1789761167005944600,6.635944580078125,-0.14472615718841553,-0.18287423253059387,-0.14255370199680328
1789761167015994400,6.645994384765625,-0.24169610440731049,-0.22256918251514435,0.26042813062667847
1789761167026044400,6.65604443359375,-0.22475723922252655,-0.06607066094875336,0.478843092918396
1789761167036093400,6.666093505859375,-0.15726794302463531,0.031663089990615845,0.2044576108455658
1789761167046143500,6.6761435546875,-0.19665148854255676,-0.046245936304330826,-0.12602993845939636
1789761167056193300,6.686193359375,-0.28927624225616455,-0.0930938720703125,-0.3797423839569092
1789761167066242600,6.69624267578125,-0.0900798887014389,-0.015523836016654968,-0.3828717768192291
1789761167076292600,6.706292724609375,0.057861097157001495,0.1165255457162857,-0.046325456351041794
1789761167086342400,6.71634228515625,-0.050527676939964294,0.14831046760082245,0.3320074677467346
1789761167096391400,6.726391357421875,-0.19699567556381226,0.07147374749183655,0.288756400346756
1789761167106441500,6.73644140625,-0.24499262869358063,-0.16262339055538177,0.08734957128763199
1789761167116491300,6.7464912109375,-0.15531760454177856,-0.3093518614768982,-0.08627600967884064
1789761167126540500,6.75654052734375,0.019863110035657883,-0.3189249038696289,-0.06847616285085678
1789761167136590600,6.766590576171875,0.05827707797288895,-0.1310921609401703,-0.057429902255535126
1789761167146640600,6.776640625,-0.06359000504016876,0.10128909349441528,-0.0635511577129364
1789761167156690400,6.7866904296875,-0.13247132301330566,0.17662033438682556,-0.2383008748292923
1789761167166739500,6.796739501953125,-0.014230744913220406,0.2715925872325897,-0.30305853486061096
1789761167176789500,6.80678955078125,-0.017575673758983612,0.04127230495214462,-0.1214274913072586
1789761167186839300,6.81683935546875,-0.06276821345090866,-0.18675948679447174,0.04055582359433174
1789761167196888300,6.826888427734375,0.04335769638419151,-0.14444346725940704,-0.1309855729341507
1789761167206938600,6.836938720703125,-0.02963184006512165,-0.0481918528676033,-0.15929628908634186
1789761167216988400,6.846988525390625,-0.16973382234573364,0.14317117631435394,-0.3497493267059326
1789761167227037400,6.857037353515625,-0.11276847124099731,0.2240312546491623,-0.35328951478004456
1789761167237087500,6.86708740234375,-0.1773059070110321,-0.1274021416902542,0.34065836668014526
1789761167247137300,6.87713720703125,-0.23483578860759735,-0.36068183183670044,0.7419928908348083
1789761167257186300,6.887186279296875,-0.07397472858428955,-0.15640965104103088,0.6205953359603882
1789761167267236400,6.897236328125,-0.15693871676921844,0.010806923732161522,-0.0590161457657814
1789761167277286700,6.90728662109375,-0.3851681351661682,-0.12378337979316711,-0.45684632658958435
1789761167287335400,6.91733544921875,-0.14459790289402008,-0.06684961915016174,-0.24798524379730225
1789761167297385500,6.927385498046875,0.1199173778295517,0.05139872431755066,0.04219384491443634
1789761167307435500,6.937435546875,-0.006621418986469507,-0.01356576755642891,0.257124662399292
1789761167317484300,6.947484375,-0.15643247961997986,0.02939155139029026,0.07211992144584656
1789761167327534300,6.957534423828125,-0.12012474238872528,0.12209861725568771,-0.23138713836669922
1789761167337584400,6.96758447265625,-0.11478562653064728,0.2243725210428238,-0.21407179534435272
1789761167347633400,6.97763330078125,-0.21087396144866943,0.14299452304840088,0.07909651845693588
1789761167357683500,6.987683349609375,-0.23364345729351044,-0.21583473682403564,0.2840310335159302
1789761167367733500,6.9977333984375,-0.015812678262591362,-0.32060736417770386,0.06783497333526611
1789761167377782300,7.0077822265625,0.06023894622921944,-0.14434978365898132,-0.025959957391023636
1789761167387832300,7.017832275390625,-0.1884964555501938,0.0739545151591301,-0.18570880591869354
1789761167397882400,7.02788232421875,-0.33038806915283203,0.21504026651382446,-0.31029707193374634
1789761167407931400,7.037931396484375,-0.12576432526111603,0.07268869131803513,-0.30274102091789246
1789761167417981400,7.0479814453125,0.026323748752474785,-0.18530476093292236,0.06101108714938164
1789761167428031500,7.058031494140625,-0.06243225559592247,-0.21252739429473877,0.4183942675590515
1789761167438080300,7.068080322265625,-0.16425740718841553,0.0026799908373504877,0.4418218433856964
1789761167448130300,7.07813037109375,-0.16528435051441193,0.13642273843288422,-0.01087439525872469
1789761167458180400,7.088180419921875,-0.08600711822509766,-0.049825698137283325,-0.49173370003700256
1789761167468229600,7.098229736328125,0.034156396985054016,-0.22624966502189636,-0.6080547571182251
1789761167478279400,7.108279541015625,0.013833018019795418,-0.138332337141037,-0.2142893373966217
1789761167488329500,7.11832958984375,-0.1851014941930771,-0.014130920171737671,0.5179303288459778
1789761167498378500,7.12837841796875,-0.29815372824668884,0.17867662012577057,0.8604772686958313
1789761167508428300,7.13842822265625,-0.24895446002483368,0.27520111203193665,0.41319283843040466
1789761167518478300,7.148478271484375,-0.12759633362293243,-0.002434507478028536,-0.5262817144393921
1789761167528527600,7.158527587890625,-0.0030063199810683727,-0.28759267926216125,-0.9055337309837341
1789761167538577400,7.168577392578125,0.07041676342487335,-0.2774606943130493,-0.5287100076675415
1789761167548627500,7.17862744140625,-0.10636790096759796,-0.051026519387960434,0.23970355093479156
1789761167558676500,7.188676513671875,-0.40849098563194275,0.1957038938999176,0.9646234512329102
1789761167568726500,7.1987265625,-0.4508384168148041,0.3465837240219116,0.8129561543464661
1789761167578776300,7.2087763671875,-0.26634714007377625,0.12230216711759567,0.07967126369476318
1789761167588825300,7.218825439453125,-0.05662619322538376,-0.3392667770385742,-0.7318969368934631
1789761167598875600,7.228875732421875,0.019166305661201477,-0.569552481174469,-0.6655250787734985
1789761167608925400,7.238925537109375,-0.1211361512541771,-0.19898058474063873,-0.3034040927886963
1789761167618974500,7.248974365234375,-0.4618164896965027,0.3188606798648834,0.35583826899528503
1789761167629024500,7.2590244140625,-0.6693974137306213,0.3982885479927063,0.3185204565525055
1789761167639074300,7.26907421875,-0.5117872357368469,0.06336411088705063,-0.0385013073682785
1789761167649123300,7.279123291015625,-0.29020848870277405,-0.2802483141422272,-0.2887701690196991
1789761167659173400,7.28917333984375,-0.3331221342086792,-0.3462963104248047,-0.25955769419670105
1789761167669223400,7.299223388671875,-0.568783700466156,-0.1463732123374939,-0.02988254465162754
1789761167679272400,7.3092724609375,-0.7384134531021118,-0.13000409305095673,0.25669729709625244
1789761167689322500,7.319322509765625,-0.712147057056427,-0.2763204872608185,0.46157220005989075
1789761167699372500,7.32937255859375,-0.6129403114318848,-0.3713013231754303,0.22920046746730804
1789761167709421300,7.33942138671875,-0.6256529688835144,-0.542255163192749,-0.09886246919631958
1789761167719471400,7.349471435546875,-0.696441113948822,-0.48883697390556335,-0.143772691488266
1789761167729521400,7.359521484375,-0.7272661328315735,-0.17572669684886932,-0.06656420230865479
1789761167739570400,7.3695703125,-0.7856675982475281,-0.13665199279785156,0.09148481488227844
1789761167749620500,7.379620361328125,-0.7228131294250488,-0.3769904375076294,0.26468953490257263
1789761167759670500,7.38967041015625,-0.4805205762386322,-0.6725353002548218,-0.078035868704319
1789761167769719300,7.39971923828125,-0.3801281750202179,-0.7226471304893494,-0.4450100362300873
1789761167779769300,7.409769287109375,-0.6368576884269714,-0.48856860399246216,-0.12372519075870514
1789761167789819400,7.4198193359375,-0.9339694976806641,-0.2528976798057556,0.3174920082092285
1789761167799868400,7.429868408203125,-0.8248289227485657,-0.6307616233825684,0.5413693785667419
1789761167809918500,7.43991845703125,-0.4726967215538025,-0.5244961380958557,0.025550030171871185
1789761167819968500,7.449968505859375,-0.29814913868904114,-0.7073429226875305,-0.38822078704833984
1789761167830018600,7.4600185546875,-0.23846955597400665,-0.8118280172348022,-0.12185407429933548
1789761167840067300,7.4700673828125,-0.3273126184940338,-0.32000187039375305,0.02726031094789505
1789761167850117400,7.480117431640625,-0.7093121409416199,0.38967663049697876,0.33709338307380676
1789761167860167400,7.49016748046875,-0.7899191379547119,0.5163816213607788,0.2721620500087738
1789761167870216400,7.500216552734375,-0.10344705730676651,-0.4979965090751648,0.5366517901420593
1789761167880266500,7.5102666015625,0.8131125569343567,-1.4243581295013428,0.06381713598966599
1789761167890316500,7.520316650390625,0.6461592316627502,-0.9598793983459473,-0.38436636328697205
1789761167900365300,7.530365234375,-0.7420339584350586,0.6903043985366821,-0.6815626621246338
1789761167910415400,7.540415283203125,-1.539241075515747,1.597400426864624,0.033445656299591064
1789761167920465400,7.55046533203125,-0.690832257270813,0.7094182968139648,0.7730283737182617
1789761167930514400,7.560514404296875,0.5815520882606506,-1.0028423070907593,0.8476930260658264
1789761167940564500,7.570564453125,0.9361658692359924,-1.8751753568649292,0.3241565525531769
1789761167950614500,7.580614501953125,0.39787086844444275,-0.9826465845108032,-0.33605435490608215
1789761167960663300,7.590663330078125,-0.26348018646240234,0.4466477036476135,-0.7383373379707336
1789761167970713300,7.60071337890625,-0.47299566864967346,0.7482422590255737,-0.4320892095565796
1789761167980763400,7.610763427734375,-0.07777725905179977,-0.040743157267570496,0.2703320384025574
1789761167990812400,7.6208125,0.5862416625022888,-0.8903351426124573,0.3589093089103699
1789761168000862500,7.630862548828125,0.7927117943763733,-0.9249162673950195,0.30407029390335083
1789761168010912500,7.64091259765625,0.42889392375946045,-0.25144559144973755,0.3024761378765106
1789761168020961500,7.65096142578125,0.11624225229024887,0.35069167613983154,0.08760830760002136
1789761168031011300,7.66101123046875,0.19692470133304596,0.41614049673080444,0.01850067637860775
1789761168041061400,7.671061279296875,0.5160385370254517,0.00862144771963358,-0.035268813371658325
1789761168051110400,7.6811103515625,0.7634790539741516,-0.24744437634944916,0.013804527930915356
1789761168061160400,7.691160400390625,0.7241135835647583,-0.13824838399887085,0.18247796595096588
1789761168071210500,7.70121044921875,0.5359945297241211,0.25210249423980713,0.1792260855436325
1789761168081259500,7.711259521484375,0.40912479162216187,0.5088397264480591,0.05040551722049713
1789761168091309300,7.721309326171875,0.47075045108795166,0.42945611476898193,-0.311101496219635
1789761168101359400,7.731359375,0.6264841556549072,0.07283782958984375,-0.4539731740951538
1789761168111408400,7.741408447265625,0.6695623397827148,-0.15053753554821014,-0.06107325851917267
1789761168121458400,7.75145849609375,0.5034969449043274,0.10069017857313156,0.383576899766922
1789761168131508200,7.76150830078125,0.2938461899757385,0.22867782413959503,0.32358866930007935
1789761168141557500,7.7715576171875,0.2542162239551544,0.12256788462400436,-0.18679653108119965
1789761168151607600,7.781607666015625,0.3350575566291809,-0.06862745434045792,-0.6654841899871826
1789761168161657300,7.7916572265625,0.31978803873062134,-0.15626275539398193,-0.5649349689483643
1789761168171706400,7.801706298828125,0.1022539883852005,-0.1116228923201561,0.086570605635643
1789761168181756400,7.81175634765625,-0.13417452573776245,0.021476034075021744,0.7604677677154541
1789761168191806200,7.82180615234375,-0.17511186003684998,-0.03186836838722229,0.8248805999755859
1789761168201855500,7.83185546875,-0.09007126092910767,-0.10742038488388062,0.12227614223957062
1789761168211905500,7.841905517578125,-0.09628180414438248,-0.32203298807144165,-0.7916749119758606
1789761168221955600,7.85195556640625,-0.17175525426864624,-0.3951234519481659,-1.0799208879470825
1789761168232004400,7.86200439453125,-0.21416392922401428,-0.2535092532634735,-0.2766001224517822
1789761168242054400,7.872054443359375,-0.30154386162757874,-0.12261328101158142,0.32329022884368896
1789761168252104400,7.8821044921875,-0.4627264440059662,-0.03859223797917366,0.5449770092964172
1789761168262153500,7.892153564453125,-0.5568755865097046,-0.05286278948187828,0.20214508473873138
1789761168272203500,7.90220361328125,-0.5242221355438232,-0.12803079187870026,-0.3626665771007538
1789761168282253600,7.912253662109375,-0.4438950717449188,-0.2880193889141083,-0.7093166708946228
1789761168292302300,7.92230224609375,-0.3926661014556885,-0.5481711030006409,-0.5799946188926697
1789761168302352400,7.932352294921875,-0.465628981590271,-0.44321510195732117,-0.05237257480621338
1789761168312402400,7.94240234375,-0.6544842720031738,-0.08504661917686462,0.445840060710907
1789761168322451500,7.952451416015625,-0.769011378288269,0.008798911236226559,0.46551817655563354
1789761168332501500,7.96250146484375,-0.6162900328636169,-0.14372564852237701,0.17447009682655334
1789761168342551600,7.972551513671875,-0.3785131275653839,-0.3649062216281891,-0.13446378707885742
1789761168352600300,7.982600341796875,-0.34524092078208923,-0.37785860896110535,-0.36602842807769775
1789761168362650400,7.992650390625,-0.44296881556510925,-0.24829715490341187,-0.17343449592590332
1789761168372700400,8.002700439453125,-0.45508480072021484,-0.16512936353683472,0.09540186822414398
1789761168382749400,8.01274951171875,-0.3869169354438782,-0.14935599267482758,0.2402472048997879
1789761168392799500,8.022799560546876,-0.3005868196487427,-0.1550520807504654,0.14104562997817993
1789761168402849500,8.032849609375,-0.21190513670444489,-0.15069355070590973,-0.012064017355442047
1789761168412898600,8.042898681640626,-0.08346794545650482,-0.2770993113517761,-0.24892190098762512
1789761168422948400,8.0529482421875,0.07015330344438553,-0.38593390583992004,-0.18339002132415771
1789761168432998400,8.062998291015624,0.15085355937480927,-0.3116232752799988,-0.07343479990959167
1789761168443047400,8.07304736328125,0.09226401150226593,-0.15884248912334442,0.10957203060388565
1789761168453097200,8.08309716796875,-0.004508609417825937,0.057170845568180084,0.41195014119148254
1789761168463147500,8.0931474609375,0.05060337856411934,0.18712618947029114,0.5527634620666504
1789761168473196500,8.103196533203125,0.28847798705101013,0.015607733279466629,0.0703723132610321
1789761168483246300,8.113246337890626,0.4337339699268341,-0.12458053231239319,-0.1793096959590912
1789761168493296400,8.12329638671875,0.4241461455821991,-0.034113869071006775,-0.1897430568933487
1789761168503345400,8.133345458984374,0.3990602195262909,0.1663028597831726,-0.09033738076686859
1789761168513395200,8.143395263671875,0.3722570240497589,0.27518168091773987,0.10051237791776657
1789761168523445200,8.1534453125,0.35155999660491943,0.15438814461231232,0.13497234880924225
1789761168533494500,8.16349462890625,0.3722597658634186,-0.0036204885691404343,0.29891037940979004
1789761168543544600,8.173544677734375,0.45817068219184875,-0.009172912687063217,0.06805345416069031
1789761168553594400,8.183594482421874,0.3954746127128601,0.07932689040899277,0.12384703755378723
1789761168563643400,8.193643310546875,0.2694950997829437,0.11756402254104614,-0.0028078430332243443
1789761168573693400,8.203693359375,0.28025469183921814,0.1143174096941948,-0.2832069396972656
1789761168583743200,8.2137431640625,0.3173077702522278,0.16612973809242249,-0.23739631474018097
1789761168593792500,8.22379248046875,0.2432580441236496,0.05255984887480736,0.23399478197097778
1789761168603842600,8.233842529296876,0.18032169342041016,-0.10416079312562943,0.5508060455322266
1789761168613892400,8.243892333984375,0.1713057905435562,-0.01587226428091526,0.5978941917419434
1789761168623942400,8.2539423828125,0.10174109786748886,0.0858924463391304,0.18154758214950562
1789761168633991400,8.263991455078125,0.0019557217601686716,0.10033853352069855,-0.4447588622570038
1789761168644041500,8.27404150390625,0.026953483000397682,0.03053334727883339,-0.6134101748466492
1789761168654091300,8.28409130859375,0.1475197821855545,-0.1329556554555893,-0.3533581793308258
1789761168664140500,8.294140625,0.16023585200309753,-0.23155838251113892,0.3790401518344879
1789761168674190600,8.304190673828124,0.016164451837539673,0.02991144359111786,0.7377163767814636
1789761168684240400,8.314240478515625,-0.1436113566160202,0.3173147141933441,0.388342946767807
1789761168694289400,8.324289306640624,-0.028939740732312202,-0.007576794363558292,-0.26471537351608276
1789761168704339500,8.33433935546875,0.28503844141960144,-0.3124634623527527,-0.4740848243236542
1789761168714389200,8.34438916015625,0.3460334241390228,-0.04823414236307144,-0.36485904455184937
1789761168724438500,8.3544384765625,0.08331552147865295,0.08422749489545822,0.10684029757976532
1789761168734488600,8.364488525390625,0.04739008843898773,0.06506253778934479,0.2588779628276825
1789761168744538400,8.374538330078124,0.2245909720659256,0.24440886080265045,0.371286004781723
1789761168754587400,8.38458740234375,0.1830531805753708,0.24965044856071472,0.30850863456726074
1789761168764637400,8.394637451171874,0.12717846035957336,0.01714690960943699,-0.002306499984115362
1789761168774687500,8.4046875,0.3280494809150696,-0.007825507782399654,-0.2923439145088196
1789761168784736500,8.414736572265625,0.41938525438308716,0.14957131445407867,-0.33699658513069153
1789761168794786600,8.42478662109375,0.20800259709358215,0.20056042075157166,-0.16608618199825287
1789761168804836600,8.434836669921875,0.1019752249121666,0.28047892451286316,0.16828088462352753
1789761168814885400,8.444885498046874,0.2063576579093933,0.35103461146354675,0.2920159697532654
1789761168824935400,8.454935302734375,0.28108569979667664,0.058258116245269775,0.19446037709712982
1789761168834985500,8.4649853515625,0.318470299243927,-0.1176682710647583,-0.12584424018859863
1789761168845034200,8.4750341796875,0.2833346724510193,0.09827467799186707,-0.25534817576408386
1789761168855084500,8.48508447265625,0.15080508589744568,0.16620217263698578,-0.0012849774211645126
1789761168865134600,8.495134521484376,0.15096674859523773,0.09595411270856857,-0.031155258417129517
1789761168875183400,8.505183349609375,0.2260262370109558,0.16053372621536255,-0.10156998783349991
1789761168885233700,8.515233642578124,0.1337253302335739,0.1618727594614029,-0.005653041414916515
1789761168895283500,8.525283447265625,0.09587492048740387,-0.010927711613476276,-0.038277048617601395
1789761168905332500,8.53533251953125,0.22281315922737122,0.023062212392687798,0.005201985128223896
1789761168915382500,8.545382568359376,0.17689025402069092,0.07669170200824738,0.2211194485425949
1789761168925432300,8.555432373046875,0.01537246722728014,0.02744612842798233,0.07362319529056549
1789761168935481600,8.565481689453126,0.06180599331855774,0.05676484853029251,-0.19567708671092987
1789761168945531600,8.57553173828125,0.16665410995483398,0.0578431636095047,-0.3758836090564728
1789761168955581700,8.585581787109374,0.09529482573270798,-0.007170452736318111,-0.1016920804977417
1789761168965630500,8.59563037109375,0.0076699024066329,0.026605086401104927,0.2846662700176239
1789761168975680500,8.605680419921875,0.00992763414978981,0.11741569638252258,0.2790309488773346
1789761168985730600,8.61573046875,0.04089700058102608,0.03687771409749985,0.17472131550312042
1789761168995779600,8.625779541015625,0.13233038783073425,-0.024087756872177124,-0.060754261910915375
1789761169005829600,8.63582958984375,0.1596972942352295,0.05586140230298042,-0.2141033262014389
1789761169015879700,8.645879638671875,0.0279634278267622,0.23319648206233978,-0.1072467491030693
1789761169025928400,8.655928466796874,-0.0461033396422863,0.24103230237960815,0.10186918079853058
1789761169035978500,8.665978515625,-0.002648617373779416,0.26103606820106506,0.08737722784280777
1789761169046028500,8.676028564453125,0.0026156532112509012,0.11726798117160797,0.14581869542598724
1789761169056077600,8.68607763671875,-0.0416385792195797,0.11389044672250748,0.13160032033920288
1789761169066127600,8.696127685546875,-0.0987362191081047,0.21479468047618866,0.013606308028101921
1789761169076177700,8.706177734375,-0.19365404546260834,0.23227372765541077,-0.07733406126499176
1789761169086226400,8.716226318359375,-0.23591388761997223,0.11153080314397812,-0.2541399896144867
1789761169096276500,8.7262763671875,-0.2235380858182907,0.09013929218053818,-0.2723802924156189
1789761169106326500,8.736326416015626,-0.28752025961875916,0.004309339914470911,-0.17909614741802216
1789761169116375600,8.74637548828125,-0.39421311020851135,-0.13693395256996155,0.13504043221473694
1789761169126425600,8.756425537109376,-0.4280182123184204,-0.24293549358844757,0.26476621627807617
1789761169136475600,8.7664755859375,-0.4280942678451538,-0.3546108603477478,0.1835406869649887
1789761169146524400,8.7765244140625,-0.5060916543006897,-0.44265231490135193,-0.048657920211553574
1789761169156574500,8.786574462890625,-0.6064834594726562,-0.4807976484298706,-0.20546339452266693
1789761169166624500,8.79662451171875,-0.6600390672683716,-0.3188161849975586,-0.27320781350135803
1789761169176673500,8.806673583984375,-0.7319945096969604,-0.1589050590991974,-0.022165335714817047
1789761169186723600,8.8167236328125,-0.7419440746307373,-0.30123448371887207,0.12275217473506927
1789761169196773600,8.826773681640624,-0.5700415372848511,-0.386309951543808,-0.012956922873854637
1789761169206822700,8.83682275390625,-0.4444234371185303,-0.3634171783924103,-0.02343219891190529
1789761169216872400,8.84687255859375,-0.581409752368927,-0.2680348753929138,0.03655162826180458
1789761169226922500,8.856922607421875,-0.7314985990524292,-0.13385628163814545,0.11770879477262497
1789761169236971500,8.866971435546875,-0.641680896282196,-0.13621698319911957,0.04457364231348038
1789761169247021300,8.877021240234376,-0.4924269914627075,-0.2149064689874649,-0.05197739601135254
1789761169257071600,8.887071533203125,-0.465690553188324,-0.2517334520816803,-0.14241577684879303
1789761169267120600,8.89712060546875,-0.4509637951850891,-0.21127815544605255,-0.16595731675624847
1789761169277170700,8.907170654296875,-0.3862450122833252,-0.1410711705684662,-0.1966763287782669
1789761169287220500,8.917220458984374,-0.3609257936477661,-0.18422769010066986,0.11966566741466522
1789761169297269500,8.92726953125,-0.372249573469162,-0.2553727924823761,0.23015156388282776
1789761169307319600,8.937319580078125,-0.3436488211154938,-0.3248994052410126,0.19883278012275696
1789761169317369300,8.947369384765626,-0.2907676696777344,-0.3561724126338959,0.08067905902862549
1789761169327418600,8.957418701171875,-0.2740885615348816,-0.2822675406932831,-0.268700510263443
1789761169337468700,8.96746875,-0.3243374526500702,-0.15370894968509674,-0.4467424750328064
1789761169347518500,8.9775185546875,-0.3927077054977417,-0.010161900892853737,-0.32758891582489014
1789761169357567500,8.9875673828125,-0.41515034437179565,0.09314123541116714,0.03777207434177399
1789761169367617500,8.997617431640625,-0.33131667971611023,-0.12750272452831268,0.34506598114967346
1789761169377667600,9.00766748046875,-0.19305627048015594,-0.3912522792816162,0.12368739396333694
1789761169387716600,9.017716552734376,-0.17492254078388214,-0.5019428133964539,-0.2663048505783081
1789761169397766700,9.0277666015625,-0.3081100583076477,-0.30734163522720337,-0.33676162362098694
1789761169407816700,9.037816650390624,-0.4538816511631012,-0.12334759533405304,-0.25761085748672485
1789761169417865500,9.047865478515625,-0.477609246969223,-0.11691588908433914,0.1381920576095581
1789761169427915500,9.05791552734375,-0.3313106298446655,-0.33779340982437134,0.4690176546573639
1789761169437965600,9.067965576171876,-0.155533105134964,-0.5048375725746155,0.27934539318084717
1789761169448014600,9.0780146484375,-0.15121158957481384,-0.5487256646156311,-0.2769785523414612
1789761169458064600,9.088064697265626,-0.29691457748413086,-0.3179478049278259,-0.25260818004608154
1789761169468114700,9.09811474609375,-0.4062402546405792,-0.055793412029743195,0.21458829939365387
1789761169478163500,9.10816357421875,-0.29948121309280396,-0.1527971476316452,0.21771278977394104
1789761169488213500,9.118213623046875,-0.05047750100493431,-0.4702909588813782,-0.06030204892158508
1789761169498263600,9.128263671875,0.059176504611968994,-0.5083160996437073,-0.24259912967681885
1789761169508312600,9.1383125,-0.07538450509309769,-0.21516147255897522,-0.15228521823883057
1789761169518362600,9.148362548828125,-0.21321816742420197,0.019620584324002266,0.1926896870136261
1789761169528412700,9.15841259765625,-0.07082507014274597,-0.13592906296253204,0.2822701930999756
1789761169538461400,9.16846142578125,0.24533028900623322,-0.4224248230457306,-0.03776390850543976
1789761169548511500,9.178511474609374,0.2962073087692261,-0.333408921957016,-0.21642419695854187
1789761169558561500,9.1885615234375,0.08208135515451431,-0.05305340886116028,-0.08130188286304474
1789761169568610300,9.1986103515625,0.0654778778553009,0.0829094871878624,0.1729184091091156
1789761169578660600,9.20866064453125,0.27646833658218384,0.06955369561910629,0.11423103511333466
1789761169588710700,9.218710693359375,0.37946367263793945,-0.07082951068878174,0.13530570268630981
1789761169598759700,9.228759765625,0.3542291224002838,-0.09594296663999557,0.11273464560508728
1789761169608809500,9.2388095703125,0.4113328754901886,-0.10397852212190628,0.19950415194034576
1789761169618859500,9.248859619140624,0.5619563460350037,-0.029803931713104248,0.18880245089530945
1789761169628909600,9.25890966796875,0.551544189453125,0.1308150440454483,-0.3161107897758484
1789761169638958300,9.268958251953125,0.34369632601737976,0.2693895399570465,-0.6472271680831909
1789761169649008600,9.279008544921876,0.3056160509586334,0.34380999207496643,-0.4264258146286011
1789761169659058700,9.28905859375,0.4817156195640564,0.31081223487854004,0.24446821212768555
1789761169669107500,9.299107421875,0.5170709490776062,0.029131796211004257,0.7891290783882141
1789761169679157500,9.309157470703125,0.4589320123195648,-0.1677936464548111,0.6140634417533875
1789761169689207600,9.31920751953125,0.5288608074188232,-0.09005384147167206,0.1627921164035797
1789761169699256600,9.329256591796875,0.515927255153656,0.15984417498111725,-0.3599173426628113
1789761169709306400,9.339306396484375,0.319138765335083,0.3314018249511719,-0.6270001530647278
1789761169719356400,9.3493564453125,0.26115214824676514,0.18775001168251038,-0.16442959010601044
1789761169729405700,9.35940576171875,0.4594769775867462,0.04277870059013367,0.37983906269073486
1789761169739455500,9.36945556640625,0.558098554611206,-0.05157223343849182,0.5393492579460144
1789761169749505500,9.379505615234375,0.3777937591075897,-0.034808963537216187,0.2342039793729782
1789761169759554600,9.389554443359375,0.18841440975666046,0.1311795711517334,-0.2117590606212616
1789761169769604400,9.399604248046876,0.23736144602298737,0.2568000853061676,-0.450480580329895
1789761169779654400,9.409654296875,0.3597249984741211,0.09414345026016235,-0.46173977851867676
1789761169789703700,9.41970361328125,0.308557391166687,-0.02621038816869259,-0.19716112315654755
1789761169799753700,9.429753662109375,0.1883654147386551,-0.010893761180341244,0.3242480456829071
1789761169809803500,9.439803466796874,0.15258930623531342,-0.03210477530956268,0.649233341217041
1789761169819852500,9.4498525390625,0.09483502060174942,0.14997774362564087,0.4115120768547058
1789761169829902600,9.459902587890625,-0.08867382258176804,0.2285362035036087,0.011304456740617752
1789761169839952400,9.469952392578126,-0.19153189659118652,0.10784471035003662,-0.4793669283390045
1789761169850001700,9.480001708984375,-0.05748354643583298,0.05247439816594124,-0.9014717936515808
1789761169860051700,9.4900517578125,0.02140997163951397,-0.06957049667835236,-0.43281275033950806
1789761169870101500,9.5001015625,-0.08757670223712921,-0.10521557182073593,0.7490962147712708
1789761169880150500,9.510150634765624,-0.19242441654205322,-0.021972205489873886,1.023561716079712
1789761169890200600,9.52020068359375,-0.23156355321407318,0.15388962626457214,0.3609147369861603
1789761169900250400,9.53025048828125,-0.27117034792900085,0.16475461423397064,-0.31272557377815247
1789761169910299600,9.540299560546876,-0.23784515261650085,-0.03503412753343582,-0.8844220638275146
1789761169920349700,9.550349609375,-0.1199336051940918,-0.18503889441490173,-0.5735886096954346
1789761169930399700,9.560399658203124,-0.06714548915624619,-0.1535118669271469,0.03734637424349785
1789761169940448500,9.570448486328125,-0.20135721564292908,-0.005234908312559128,0.6105439066886902
1789761169950498600,9.58049853515625,-0.3174166977405548,0.1253393441438675,0.6146430373191833
1789761169960548600,9.590548583984376,-0.22560489177703857,0.02906801924109459,0.1487426608800888
1789761169970597600,9.60059765625,-0.09652864933013916,-0.08750440180301666,-0.1905137002468109
1789761169980647700,9.610647705078126,-0.11455709487199783,-0.239564448595047,-0.24001260101795197
1789761169990697700,9.62069775390625,-0.15935972332954407,-0.18696755170822144,-0.45596620440483093
1789761170000746500,9.63074658203125,-0.14503256976604462,0.016821598634123802,-0.3306286036968231
1789761170010796500,9.640796630859375,-0.1561795026063919,0.10294049978256226,0.05492178350687027
1789761170020846600,9.6508466796875,-0.13586373627185822,-0.08804260194301605,0.42651045322418213
1789761170030895400,9.660895263671875,0.02933560684323311,-0.20712904632091522,0.16805893182754517
1789761170040945400,9.6709453125,0.11939512193202972,-0.138416588306427,0.0006373580545186996
1789761170050995700,9.68099560546875,0.006217429880052805,0.0031815601978451014,-0.0516548752784729
1789761170061044500,9.69104443359375,-0.03843192756175995,-0.03695152327418327,-0.3214520514011383
1789761170071094500,9.701094482421874,0.06739836931228638,-0.01194710098206997,-0.2375294715166092
1789761170081144600,9.71114453125,0.11492833495140076,0.03922279179096222,-0.1827438622713089
1789761170091193300,9.721193359375,-0.004747194703668356,-0.02786223590373993,0.2874649167060852
1789761170101243400,9.731243408203126,-0.04323609173297882,0.059154171496629715,0.6153862476348877
1789761170111293400,9.74129345703125,0.06001625955104828,0.11893095821142197,0.3317345678806305
1789761170121342700,9.7513427734375,0.09354938566684723,0.04325658455491066,-0.015227887779474258
1789761170131392500,9.761392578125,0.08130443096160889,-0.050112511962652206,-0.6146865487098694
1789761170141442600,9.771442626953124,0.14624571800231934,-0.07326525449752808,-0.5786291360855103
1789761170151491600,9.78149169921875,0.16512513160705566,0.026473328471183777,0.0729936733841896
1789761170161541400,9.791541259765625,0.04810211807489395,0.13676130771636963,0.5193093419075012
1789761170171591400,9.80159130859375,-0.06199109926819801,0.1608586609363556,0.30748578906059265
1789761170181640700,9.811640625,-0.027027985081076622,0.06257588416337967,0.07493959367275238
1789761170191690500,9.8216904296875,0.10229698568582535,-0.10894233733415604,-0.11907568573951721
1789761170201740500,9.831740478515625,0.14539788663387299,-0.08797518163919449,-0.3056832551956177
1789761170211789600,9.84178955078125,0.05416891351342201,-0.02653578482568264,-0.3736697733402252
1789761170221839600,9.851839599609375,-0.019811077043414116,0.09308731555938721,-0.05476725846529007
1789761170231889400,9.861889404296875,0.0025597424246370792,0.16141977906227112,0.3065906763076782
1789761170241938700,9.871938720703126,-0.003422293346375227,0.06348743289709091,0.5792115330696106
1789761170251988700,9.88198876953125,0.013400629162788391,-0.0948105975985527,0.21330761909484863
1789761170262038500,9.89203857421875,0.1248694583773613,-0.09703115373849869,-0.5040056705474854
1789761170272087600,9.902087646484375,0.12705379724502563,0.03627629950642586,-0.7022188901901245
1789761170282137600,9.9121376953125,0.00309744686819613,0.09966780990362167,-0.26198968291282654
1789761170292187400,9.9221875,0.0022843838669359684,0.06721586734056473,0.5006842017173767
1789761170302236700,9.932236572265625,0.09064187854528427,0.15253350138664246,0.8274510502815247
1789761170312286700,9.94228662109375,0.08363137394189835,0.12274257838726044,0.32049012184143066
1789761170322336500,9.95233642578125,0.0698120966553688,0.020188016816973686,-0.35429009795188904
1789761170332385500,9.962385498046874,0.14353026449680328,0.0879894345998764,-0.6665052771568298
1789761170342435600,9.972435546875,0.1398026943206787,0.1967419534921646,-0.21443143486976624
1789761170352485600,9.982485595703125,-0.0011035597417503595,0.22121720016002655,0.47399914264678955
1789761170362534400,9.992534423828126,-0.07847707718610764,0.21979203820228577,0.5542002320289612
1789761170372584700,10.002584716796875,0.014545277692377567,0.12397842109203339,0.108456552028656
1789761170382634800,10.012634765625,0.09730936586856842,0.033801786601543427,-0.09711696207523346
1789761170392683500,10.02268359375,0.029766812920570374,0.0789298564195633,-0.5516487956047058
1789761170402733600,10.032733642578124,-0.0556388720870018,-0.05546589940786362,-0.3477104604244232
1789761170412783600,10.04278369140625,-0.016848064959049225,0.010050259530544281,0.1238299161195755
1789761170422832400,10.052832275390625,-0.07268193364143372,0.12480417639017105,0.5543442368507385
1789761170432882400,10.06288232421875,-0.2622404098510742,0.01467394270002842,0.2700536549091339
1789761170442932500,10.072932373046875,-0.2764091193675995,-0.07620324939489365,-0.2294495552778244
1789761170452981500,10.0829814453125,-0.16383305191993713,-0.05821945145726204,-0.548237144947052
1789761170463031600,10.093031494140625,-0.250556617975235,-0.23323240876197815,-0.37626662850379944
1789761170473081600,10.10308154296875,-0.43773236870765686,-0.2909790575504303,0.16358940303325653
1789761170483130400,10.11313037109375,-0.4978443384170532,-0.16311883926391602,0.6401589512825012
1789761170493180400,10.123180419921875,-0.4988296926021576,-0.11099864542484283,0.3939835727214813
1789761170503230500,10.13323046875,-0.5396260619163513,-0.1681775003671646,-0.09302207827568054
1789761170513279500,10.143279541015625,-0.5338435769081116,-0.21847236156463623,-0.6965380311012268
1789761170523329500,10.15332958984375,-0.49386218190193176,-0.1894248127937317,-0.663589358329773
1789761170533379600,10.163379638671875,-0.5539926290512085,-0.16854801774024963,0.27204087376594543
1789761170543428600,10.1734287109375,-0.7190752625465393,-0.019561652094125748,0.9330583214759827
1789761170553478400,10.183478515625,-0.7898194789886475,-0.19591191411018372,0.6602643728256226
1789761170563528400,10.193528564453125,-0.507215678691864,-0.4735107123851776,-0.14857296645641327
1789761170573577700,10.20357763671875,-0.26397451758384705,-0.44441354274749756,-1.2933889627456665
1789761170583627500,10.21362744140625,-0.5158030390739441,-0.28522059321403503,-1.3656328916549683
1789761170593677600,10.223677490234374,-0.7689341306686401,-0.14407092332839966,-0.004852675832808018
1789761170603726600,10.2337265625,-0.6167709827423096,0.009748704731464386,1.3878337144851685
1789761170613776400,10.2437763671875,-0.43588006496429443,-0.099327452480793,1.6980656385421753
1789761170623826400,10.253826416015626,-0.4112623631954193,-0.46762579679489136,0.42183196544647217
1789761170633875700,10.263875732421875,-0.37100547552108765,-0.5198625922203064,-1.2532590627670288
1789761170643925800,10.27392578125,-0.31542056798934937,-0.27724966406822205,-1.7543542385101318
1789761170653975600,10.2839755859375,-0.32559439539909363,-0.19683311879634857,-0.7421026825904846
1789761170664024600,10.294024658203124,-0.39454954862594604,-0.08695945888757706,0.7480361461639404
1789761170674074600,10.30407470703125,-0.44966578483581543,-0.00806331355124712,1.299820899963379
1789761170684124400,10.31412451171875,-0.4092216193675995,-0.03463270515203476,0.8472138047218323
1789761170694173700,10.324173583984376,-0.19435030221939087,-0.21903423964977264,-0.2871895134449005
1789761170704223700,10.3342236328125,-0.0388321653008461,-0.3842388391494751,-0.8719445466995239
1789761170714273500,10.3442734375,-0.03003973886370659,-0.4329741597175598,-0.6602120399475098
1789761170724322600,10.354322509765625,-0.07083667069673538,-0.26717767119407654,-0.14366532862186432
1789761170734372600,10.36437255859375,-0.15572865307331085,-0.019768426194787025,0.38701000809669495
1789761170744422400,10.37442236328125,-0.25710177421569824,0.09536672383546829,0.7306084632873535
1789761170754471400,10.384471435546875,-0.19830714166164398,-0.032898034900426865,0.5982314944267273
1789761170764521500,10.394521484375,0.04232541471719742,-0.21252687275409698,-0.15929028391838074
1789761170774571800,10.40457177734375,0.13887937366962433,-0.2639700770378113,-0.7801424264907837
1789761170784620500,10.41462060546875,0.020605674013495445,-0.19615022838115692,-0.7874158620834351
1789761170794670600,10.424670654296875,-0.07245103269815445,-0.06446170806884766,-0.021213483065366745
1789761170804720600,10.434720703125,-0.04956187680363655,0.016977379098534584,0.6687632203102112
1789761170814769400,10.444769287109375,-0.03632223606109619,-0.07220256328582764,0.939929187297821
1789761170824819500,10.4548193359375,0.018478335812687874,-0.18964509665966034,0.22272154688835144
1789761170834869500,10.464869384765626,0.11190575361251831,-0.21670734882354736,-0.7838425040245056
1789761170844918500,10.47491845703125,0.039905939251184464,-0.04819953069090843,-0.46717023849487305
1789761170854968600,10.484968505859374,-0.10768485069274902,0.027594298124313354,0.49707862734794617
1789761170865018600,10.4950185546875,-0.03339046239852905,-0.08830615133047104,0.19777268171310425
1789761170875067400,10.5050673828125,0.11384213715791702,-0.2840370535850525,-0.12524107098579407
1789761170885118000,10.515117919921876,0.0875159204006195,-0.18834692239761353,-0.47419729828834534
1789761170895168000,10.52516796875,-0.1061781793832779,0.17388612031936646,-0.25379249453544617
1789761170905217000,10.535217041015626,-0.2176896333694458,0.28849732875823975,0.07784928381443024
1789761170915267000,10.54526708984375,-0.0415436290204525,-0.1093994677066803,0.6038446426391602
1789761170925317000,10.555317138671874,0.23670347034931183,-0.46732187271118164,0.8035542964935303
1789761170935366100,10.5653662109375,0.19649213552474976,-0.3423495888710022,0.07851851731538773
1789761170945416000,10.575416015625,-0.12395404279232025,-0.11405131965875626,-0.8425996899604797
1789761170955466000,10.585466064453126,-0.20015878975391388,0.0248679481446743,-0.816892683506012
1789761170965515300,10.595515380859375,-0.01545496005564928,0.07805932313203812,-0.1386961191892624
1789761170975565000,10.60556494140625,-0.04103915020823479,-0.055598076432943344,0.6872819662094116
1789761170985615000,10.615614990234375,-0.1942523717880249,-0.17050375044345856,0.8558872938156128
1789761170995664100,10.6256640625,-0.11297589540481567,-0.1241048276424408,0.016594791784882545
1789761171005714000,10.6357138671875,0.024032186716794968,-0.12530075013637543,-0.5027750730514526
1789761171015764000,10.645763916015625,-0.02390604466199875,-0.23425360023975372,-0.5150099396705627
1789761171025813000,10.65581298828125,-0.09224122017621994,-0.279173880815506,-0.032223932445049286
1789761171035863000,10.665863037109375,-0.05150950700044632,-0.13523294031620026,0.1663419008255005
1789761171045913000,10.6759130859375,-0.0859602838754654,0.00005160481669008732,0.17285005748271942
1789761171055962000,10.685962158203125,-0.1722022294998169,-0.0008791700238361955,0.035058099776506424
1789761171066012200,10.69601220703125,-0.08874081075191498,-0.10091879963874817,-0.029182836413383484
1789761171076062000,10.70606201171875,0.07782207429409027,-0.19556061923503876,0.005902444943785667
1789761171086111000,10.716111083984375,0.07940160483121872,-0.2530485987663269,-0.11637607961893082
1789761171096161000,10.7261611328125,-0.062335822731256485,-0.08072874695062637,-0.2750634551048279
1789761171106211000,10.736211181640625,-0.15506036579608917,0.10277142375707626,-0.1534574329853058
1789761171116260000,10.746260009765624,-0.11279972642660141,0.10926980525255203,0.0655721127986908
1789761171126310100,10.75631005859375,0.011975728906691074,-0.11123412847518921,0.3440173268318176
1789761171136360000,10.76635986328125,0.11839378625154495,-0.31417393684387207,0.4070921838283539
1789761171146409000,10.776408935546876,0.13013751804828644,-0.210309237241745,0.05240374058485031
1789761171156459000,10.786458984375,0.03496572747826576,-0.04238520935177803,-0.5032895803451538
1789761171166509000,10.796509033203124,-0.04093323275446892,0.02355831488966942,-0.379203736782074
1789761171176558000,10.80655810546875,0.017633670940995216,0.02808489091694355,0.18341751396656036
1789761171186608000,10.816608154296874,0.1379275619983673,-0.06551185995340347,-0.07247177511453629
1789761171196658200,10.826658203125,0.14523129165172577,-0.13579054176807404,-0.06990368664264679
1789761171206707000,10.83670703125,0.06411252915859222,0.01889874041080475,0.18177779018878937
1789761171216757000,10.846757080078126,-0.018175145611166954,0.17388112843036652,0.4920733571052551
1789761171226807000,10.85680712890625,0.03577633202075958,0.08056049048900604,0.05732756108045578
1789761171236856000,10.86685595703125,0.2059406042098999,-0.2092558890581131,-0.3564586937427521
1789761171246906000,10.876906005859375,0.23301270604133606,-0.2412383258342743,-0.1559455841779709
1789761171256956200,10.8869560546875,0.04526570439338684,-0.05424659326672554,0.0447545051574707
1789761171267005000,10.8970048828125,-0.09009537845849991,0.19356700778007507,0.11266288161277771
1789761171277055000,10.907054931640625,-0.05569026246666908,0.18224696815013885,0.20316162705421448
1789761171287105000,10.91710498046875,0.07944813370704651,-0.1311488002538681,0.036079950630664825
1789761171297154000,10.927154052734375,0.190514475107193,-0.23654712736606598,-0.25526055693626404
1789761171307204000,10.9372041015625,0.11078429222106934,-0.13427504897117615,-0.10101256519556046
1789761171317254100,10.947254150390625,-0.06580272316932678,0.009305808693170547,-0.05382348224520683
1789761171327303000,10.957302978515624,-0.10880285501480103,0.03723315894603729,0.16305233538150787
1789761171337353000,10.96735302734375,-0.07287494838237762,-0.02391781285405159,0.2914329469203949
1789761171347403000,10.977403076171875,-0.08769164234399796,-0.07213769108057022,0.01088034175336361
1789761171357452000,10.9874521484375,-0.08305800706148148,-0.11750144511461258,-0.29898005723953247
1789761171367502000,10.997502197265625,-0.05575110390782356,-0.06685171276330948,-0.3168339431285858
1789761171377552100,11.00755224609375,-0.10142964124679565,0.0071207815781235695,0.05775243416428566
1789761171387601200,11.01760107421875,-0.13152065873146057,-0.10890161991119385,0.43408140540122986
1789761171397651000,11.02765087890625,-0.05296778306365013,-0.1461145132780075,0.26429450511932373
1789761171407701000,11.037700927734376,-0.0010089430725201964,-0.09334151446819305,-0.16047009825706482
1789761171417750000,11.04775,-0.05161033570766449,-0.12875090539455414,-0.4630123972892761
1789761171427800000,11.057800048828126,-0.09036098420619965,-0.013179046101868153,-0.3708062767982483
1789761171437850000,11.06785009765625,-0.08788850903511047,0.02983020432293415,0.14246076345443726
1789761171447899100,11.077899169921874,-0.0783967450261116,-0.03721896931529045,0.46372827887535095
1789761171457949200,11.08794921875,-0.04239293560385704,-0.08800625056028366,0.328294038772583
1789761171467998000,11.097998046875,0.004989685025066137,-0.17648367583751678,-0.0424971878528595
1789761171478048000,11.108048095703126,0.006648035254329443,-0.12685087323188782,-0.38211682438850403
1789761171488098000,11.11809814453125,-0.04372106119990349,0.014118069782853127,-0.3607478737831116
1789761171498147000,11.12814697265625,-0.12508569657802582,0.14568941295146942,0.0434536412358284
1789761171508197000,11.138197021484375,-0.15466707944869995,0.07081497460603714,0.4257330000400543
1789761171518247200,11.1482470703125,-0.04010961204767227,-0.17508693039417267,0.3599236309528351
1789761171528296000,11.1582958984375,0.10147252678871155,-0.295212060213089,0.10884028673171997
1789761171538346000,11.168345947265625,0.05309726297855377,-0.15523099899291992,-0.2028568983078003
1789761171548396000,11.17839599609375,-0.14094968140125275,0.032064732164144516,-0.3148355185985565
1789761171558445000,11.188445068359375,-0.18303242325782776,0.09982114285230637,-0.17518918216228485
1789761171568495000,11.1984951171875,-0.047469351440668106,-0.01401680987328291,0.11381203681230545
1789761171578545200,11.208545166015625,0.029262177646160126,-0.10397705435752869,0.42345723509788513
1789761171588595200,11.21859521484375,-0.04511186480522156,-0.11639616638422012,0.20242950320243835
1789761171598644000,11.22864404296875,-0.1148986667394638,-0.009733369573950768,-0.11185972392559052
1789761171608694000,11.238694091796875,-0.06452731043100357,0.01965872012078762,-0.21656274795532227
1789761171618743000,11.248742919921876,-0.00452069565653801,-0.06373577564954758,-0.2298644334077835
1789761171628793000,11.25879296875,-0.05927293375134468,-0.09089593589305878,0.06687084585428238
1789761171638843100,11.268843017578124,-0.09396673738956451,-0.1449575573205948,0.33305537700653076
1789761171648892200,11.27889208984375,-0.025285163894295692,-0.16467341780662537,0.12396052479743958
1789761171658942000,11.28894189453125,-0.02791743353009224,-0.0440460704267025,-0.24891477823257446
1789761171668992000,11.298991943359376,-0.1572028249502182,0.0336945466697216,-0.3309205174446106
1789761171679041000,11.309041015625,-0.2164621502161026,0.040201183408498764,-0.03580233454704285
1789761171689091000,11.319091064453126,-0.13440091907978058,-0.0465136393904686,0.18650828301906586
1789761171699141000,11.32914111328125,-0.09446709603071213,-0.15057000517845154,0.1966051310300827
1789761171709190100,11.339190185546874,-0.15768258273601532,-0.2070077657699585,0.11049342900514603
1789761171719240000,11.349239990234375,-0.19471970200538635,-0.1493082493543625,-0.13224197924137115
1789761171729290000,11.3592900390625,-0.1933142989873886,-0.07587622106075287,-0.25953710079193115
1789761171739339000,11.369339111328125,-0.20258690416812897,-0.14069996774196625,-0.17376309633255005
1789761171749389000,11.37938916015625,-0.22804106771945953,-0.13767611980438232,0.07363137602806091
1789761171759439000,11.389439208984374,-0.25686368346214294,-0.1416061371564865,0.12456486374139786
1789761171769488100,11.399488037109375,-0.23585082590579987,-0.2205333113670349,0.030616670846939087
1789761171779538200,11.4095380859375,-0.1782250702381134,-0.19035783410072327,0.0856144055724144
1789761171789588000,11.419587890625,-0.238839253783226,-0.17273826897144318,-0.015060218051075935
1789761171799637000,11.429636962890624,-0.3512214720249176,-0.170175239443779,-0.13723060488700867
1789761171809687000,11.43968701171875,-0.30874642729759216,-0.1364034116268158,-0.09680583328008652
1789761171819736800,11.44973681640625,-0.24967537820339203,-0.0821007564663887,-0.0764443650841713
1789761171829786000,11.4597861328125,-0.2894945740699768,-0.1659657061100006,-0.010275525040924549
1789761171839836200,11.469836181640625,-0.269943505525589,-0.2610146999359131,0.15743225812911987
1789761171849886000,11.479885986328124,-0.18409284949302673,-0.2713411748409271,0.024672778323292732
1789761171859935000,11.48993505859375,-0.14871035516262054,-0.20336024463176727,-0.19634269177913666
1789761171869985000,11.499985107421875,-0.18094676733016968,-0.21031883358955383,-0.2492004930973053
1789761171880035000,11.51003515625,-0.22889591753482819,-0.14468681812286377,-0.005873058456927538
1789761171890084400,11.52008447265625,-0.18975695967674255,-0.18618497252464294,0.12426026910543442
1789761171900134100,11.530134033203124,-0.1145532876253128,-0.17784501612186432,-0.0008915234357118607
1789761171910184200,11.54018408203125,-0.12331592291593552,-0.15502125024795532,-0.059354815632104874
1789761171920233200,11.550233154296874,-0.15965980291366577,-0.1644834727048874,-0.13096588850021362
1789761171930283000,11.560282958984375,-0.12292297184467316,-0.14627592265605927,-0.12288524955511093
1789761171940333000,11.5703330078125,-0.07171837240457535,-0.14798247814178467,0.061585523188114166
1789761171950382300,11.58038232421875,-0.0725211575627327,-0.18668688833713531,0.1792626827955246
1789761171960432400,11.590432373046875,-0.10189662128686905,-0.1324276477098465,0.17231608927249908
1789761171970482200,11.600482177734374,-0.1168312206864357,-0.12081817537546158,0.09932170063257217
1789761171980531200,11.61053125,-0.07355538755655289,-0.18221895396709442,-0.0029434198513627052
1789761171990581200,11.620581298828125,0.028808096423745155,-0.2091997265815735,-0.33807605504989624
1789761172000631000,11.630631103515626,0.0496332161128521,-0.1296526938676834,-0.35143446922302246
1789761172010680300,11.640680419921875,-0.005336449481546879,-0.12407995015382767,-0.08824270963668823
1789761172020730400,11.65073046875,0.04631342738866806,-0.1108965054154396,0.07261408120393753
1789761172030780200,11.6607802734375,0.1127181202173233,0.007737293373793364,0.2800661623477936
1789761172040829200,11.6708291015625,0.047038983553647995,-0.04070454090833664,0.2668001651763916
1789761172050879200,11.680879150390625,0.043922170996665955,-0.13538417220115662,-0.16017748415470123
1789761172060929000,11.690928955078125,0.15718108415603638,-0.08981403708457947,-0.32616353034973145
1789761172070978000,11.70097802734375,0.14464682340621948,-0.06299953162670135,-0.16117745637893677
1789761172081028000,11.711028076171875,0.03800906240940094,-0.09428901225328445,0.004169158637523651
1789761172091078400,11.721078369140624,0.04975753650069237,-0.07427661865949631,0.2513141334056854
1789761172101127200,11.731127197265625,0.12614285945892334,-0.020203260704874992,0.20817118883132935
1789761172111177200,11.74117724609375,0.1158796176314354,-0.013548459857702255,-0.10760343074798584
1789761172121227300,11.751227294921875,0.0961165651679039,-0.0949983149766922,-0.14787627756595612
1789761172131276000,11.761276123046875,0.15769162774085999,-0.11325819045305252,-0.011161240749061108
1789761172141326000,11.771326171875,0.19545552134513855,-0.08145658671855927,-0.08666292577981949
1789761172151376100,11.781376220703125,0.15347148478031158,-0.07612089067697525,-0.0375232920050621
1789761172161425200,11.791425048828126,0.13302746415138245,-0.012258283793926239,0.1721697449684143
1789761172171475200,11.80147509765625,0.1298174411058426,0.00547193456441164,0.14701691269874573
1789761172181525200,11.811525146484374,0.11212845146656036,-0.01911330409348011,0.05011221393942833
1789761172191574000,11.821573974609375,0.14563621580600739,-0.042204633355140686,-0.12089542299509048
1789761172201624000,11.8316240234375,0.21027034521102905,-0.1143675148487091,-0.26015982031822205
1789761172211674000,11.841674072265626,0.2093431055545807,-0.07734933495521545,-0.11194296926259995
1789761172221723100,11.85172314453125,0.1399078369140625,0.036261919885873795,0.16857710480690002
1789761172231773200,11.861773193359374,0.0866389349102974,0.06098335236310959,0.3219199478626251
1789761172241823200,11.8718232421875,0.12780635058879852,-0.004478476010262966,0.16934452950954437
1789761172251872000,11.8818720703125,0.23300446569919586,-0.07203024625778198,-0.06279047578573227
1789761172261922000,11.891922119140625,0.25430816411972046,-0.04818030446767807,-0.24426279962062836
1789761172271972000,11.90197216796875,0.1720292717218399,-0.017701491713523865,0.022437073290348053
1789761172282021400,11.912021484375,0.14914153516292572,-0.030942196026444435,0.2308233082294464
1789761172292071200,11.9220712890625,0.2071174830198288,0.023593034595251083,0.1094120591878891
1789761172302121200,11.932121337890624,0.18444864451885223,0.04325168952345848,-0.046571679413318634
1789761172312170200,11.942170166015625,0.13259677588939667,0.07441968470811844,-0.05354790389537811
1789761172322220000,11.952219970703124,0.1635083556175232,0.07441196590662003,-0.11163491010665894
1789761172332270000,11.96227001953125,0.23093503713607788,0.06844794005155563,-0.07590898871421814
1789761172342319400,11.9723193359375,0.25604572892189026,-0.010605329647660255,0.024543581530451775
1789761172352369200,11.982369140625,0.22387991845607758,0.04271811991930008,0.11154326796531677
1789761172362419200,11.992419189453125,0.15509046614170074,0.14155548810958862,0.08859054744243622
1789761172372468200,12.00246826171875,0.14677375555038452,0.0630873441696167,-0.01594509370625019
1789761172382518300,12.012518310546875,0.24756109714508057,0.006551889702677727,-0.10580281168222427
1789761172392568000,12.022568115234375,0.2907243072986603,0.05195142701268196,-0.058815211057662964
1789761172402617300,12.032617431640626,0.20518864691257477,0.05402975529432297,0.05329987406730652
1789761172412667400,12.04266748046875,0.18297763168811798,0.07114093005657196,0.20471520721912384
1789761172422717200,12.05271728515625,0.2935526371002197,0.018926462158560753,0.0782182589173317
1789761172432766200,12.06276611328125,0.3446037173271179,0.0687822625041008,0.010280275717377663
1789761172442816300,12.072816162109374,0.25215232372283936,0.1632874757051468,-0.005433173850178719
1789761172452866000,12.082865966796875,0.174383744597435,0.21782149374485016,-0.11825796961784363
1789761172462915000,12.0929150390625,0.2431899607181549,0.21448054909706116,0.0561058409512043
1789761172472965000,12.102965087890626,0.31327947974205017,0.08188550919294357,0.15731199085712433
1789761172483015200,12.11301513671875,0.3022878170013428,-0.03370499983429909,-0.023415973410010338
1789761172493064200,12.123064208984376,0.3003344237804413,0.06198589876294136,-0.09910409152507782
1789761172503114200,12.1331142578125,0.25713077187538147,0.22381819784641266,0.01305866427719593
1789761172513164300,12.143164306640625,0.16819027066230774,0.22292983531951904,0.12198033183813095
1789761172523213000,12.153213134765625,0.16893914341926575,0.06432686746120453,0.23366984724998474
1789761172533263000,12.16326318359375,0.2477700114250183,0.035950567573308945,0.1421079933643341
1789761172543313200,12.173313232421876,0.2501029372215271,0.09910210222005844,-0.18566428124904633
1789761172553362200,12.183362060546875,0.1918279230594635,0.05625978857278824,-0.3166247010231018
1789761172563412200,12.193412109375,0.19904296100139618,0.10605903714895248,-0.1463933140039444
1789761172573462300,12.203462158203125,0.22290080785751343,0.13347913324832916,0.133104145526886
1789761172583511000,12.213510986328124,0.16845807433128357,0.17451152205467224,0.3010007441043854
1789761172593561000,12.22356103515625,0.10906946659088135,0.19776783883571625,0.18528273701667786
1789761172603611100,12.233611083984375,0.09940245747566223,0.167450949549675,-0.04679418355226517
1789761172613660200,12.24366015625,0.11499347537755966,0.11904678493738174,-0.30049678683280945
1789761172623710200,12.253710205078125,0.1253686100244522,0.053634487092494965,-0.3110961616039276
1789761172633760300,12.26376025390625,0.08128625899553299,0.05454827472567558,0.0776837170124054
1789761172643809000,12.27380908203125,-0.005465148948132992,0.08198655396699905,0.35136932134628296
1789761172653859000,12.283859130859375,-0.05108674243092537,0.0430041141808033,0.3018830418586731
1789761172663909000,12.2939091796875,-0.025805886834859848,-0.01095978356897831,0.030448321253061295
1789761172673958100,12.303958251953125,-0.01636584661900997,-0.043228354305028915,-0.30223533511161804
1789761172684008200,12.31400830078125,-0.09079667180776596,-0.04895121976733208,-0.23535828292369843
1789761172694057200,12.32405712890625,-0.18372441828250885,-0.0009375932859256864,0.016329962760210037
1789761172704107300,12.334107177734374,-0.24764028191566467,0.04604243114590645,0.11100240796804428
1789761172714157000,12.344156982421875,-0.2604307234287262,-0.0412912555038929,0.11734049767255783
1789761172724206300,12.354206298828124,-0.22475393116474152,-0.13962821662425995,0.0067287711426615715
