time,seconds_elapsed,z,y,x
1789564026558143700,0.042143798828125,1.35464701500535,-0.21676585113704203,0.5787083080369979
1789564026568114000,0.052114013671875,1.354993636485934,-0.2182555051729083,0.5744696110213175
1789564026578082800,0.062082763671875,-0.2863713022828102,0.7472793795213103,0.8287414188079536
1789564026588052700,0.072052734375,0.28473113386034965,-0.12432400654405355,0.598697568424791
1789564026598021600,0.082021728515625,-0.6587719517678022,-0.1250014674142003,0.25446866379929706
1789564026607991800,0.09199169921875,-1.295876846128702,0.9946861603766679,-0.5508597124509513
1789564026617960700,0.101960693359375,-1.2952403017908334,0.9917650122329592,-0.5597936180781573
1789564026627930600,0.1119306640625,-0.9844576118290423,0.2795435020893812,-0.4366008805863559
1789564026637899500,0.1218994140625,-0.5110369667589664,0.09987199459373951,-1.2685334966510533
1789564026647870000,0.131869873046875,0.6083890874862671,-1.31193833861351,-0.7570733360439539
1789564026657838800,0.1418388671875,0.09286416165828704,-0.605285860773921,-0.46508196538966146
1789564026667807700,0.151807861328125,0.09271277048885822,-0.6056617083489895,-0.4735822653725743
1789564026677777700,0.161777587890625,0.8132166635483503,-0.6155129480168223,0.2812927569095045
1789564026687746800,0.171746826171875,1.0556126305043696,-1.1957999766126275,0.9882536431111395
1789564026697716700,0.181716796875,0.23279870204925535,-0.11332885753810405,-0.32185159832369536
1789564026707685600,0.191685546875,-0.872869460478425,0.38819852259755133,-0.5627060714587568
1789564026717655600,0.201655517578125,-0.8727882119357585,0.387328169503808,-0.5678651347223669
1789564026727624700,0.211624755859375,0.12886720293164253,-0.3636149932220578,0.11243958054818212
1789564026737595000,0.221594970703125,-0.04095569524466991,-0.08014028916358948,1.4583809457242487
1789564026747563800,0.231563720703125,0.5931336506873369,-0.17242869676053524,0.9989872916366904
1789564026757533700,0.24153369140625,0.26276713933348655,0.23863486085683105,1.8088304601639509
1789564026767502800,0.2515029296875,0.2630880418509245,0.23799188677817582,1.8123421215467155
1789564026777471700,0.2614716796875,-0.9078519265323877,1.0483008461862802,-0.09145323541443795
1789564026787441700,0.271441650390625,0.5178770419120788,-0.22694003914892671,-0.32615210852921006
1789564026797410800,0.281410888671875,0.6882008753478527,-0.2634486918568611,0.8734002794194966
1789564026807380700,0.291380615234375,0.31337153741121293,0.867214795717597,0.2495505514184013
1789564026817349600,0.301349609375,0.3135118226647377,0.8679711670428514,0.26067270607119425
1789564026827319600,0.311319580078125,-0.5700228242129087,-0.1431216459944844,-0.23681864174772052
1789564026837288700,0.321288818359375,0.3698094639480114,-0.08505261112451552,-1.2596744828909634
1789564026847259000,0.3312587890625,0.8052841169834136,0.656198594148457,-0.6861530029073357
1789564026857227800,0.341227783203125,0.9263736716508865,0.23877339254468677,1.2880802009031176
1789564026867197700,0.35119775390625,1.167859538024664,0.18614684098958967,0.09464640543255955
1789564026877166800,0.361166748046875,0.0433089803725481,0.8219041201338172,0.0907956665548496
1789564026887135700,0.3711357421875,-1.4787246455729006,1.0701482285961508,0.6053035060284659
1789564026897105700,0.381105712890625,-1.869073624202609,1.113563007430732,-0.7435897312231361
1789564026907074800,0.39107470703125,-0.8285603631526232,0.2465963412553072,-1.1337503476738928
1789564026917044700,0.401044677734375,-0.82813716930449,0.24578911652565,-1.1232594949282706
1789564026927013600,0.411013671875,0.5468447777211666,-0.40654286532253026,-2.1546780337661504
1789564026936983800,0.42098388671875,0.5473164868861436,-0.40743426120430226,-2.1418165063664314
1789564026946952700,0.43095263671875,-0.6794283708274365,-0.2828831679061055,-0.49169539315756405
1789564026956923000,0.4409228515625,0.895926510939002,-0.9591144962579011,-1.1244728162407875
1789564026966891800,0.450891845703125,1.9654115994513033,-1.2740408618956804,0.8890407700132578
1789564026976861700,0.46086181640625,1.9650643934488294,-1.2724182291299104,0.9024338470064103
1789564026986830600,0.47083056640625,0.8802771063864231,-0.4782809445828199,-0.03375479655568488
1789564026996800800,0.48080078125,0.05361643937528133,-0.2560682262167334,0.9384104386642574
1789564027006769700,0.490769775390625,0.053905193188786504,-0.25679800179600715,0.9483773406010121
1789564027016738600,0.500738525390625,-0.6046680211365223,0.044750411352515215,0.8519396313048899
1789564027026708700,0.510708740234375,-0.34860008718073365,0.28043489797115323,-0.882978620430082
1789564027036678000,0.520677978515625,-0.9432932422697543,0.44175387943536043,-0.8133096025288105
1789564027046647800,0.530647705078125,-1.4436837273299694,1.0592039329946041,-0.957795741809532
1789564027056616700,0.54061669921875,-0.7901812403976917,0.8137751742139459,-1.44503908746168
1789564027066586600,0.550586669921875,0.7966875535517931,0.18668927730321883,-1.607852399136871
1789564027076555800,0.5605556640625,2.8051526973098513,-1.3906196611404418,-0.8078251067031175
1789564027086525700,0.570525634765625,2.625034615090489,-0.9504767240330576,0.6533886512942612
1789564027096494600,0.58049462890625,0.5097697233021259,0.45417467733025546,0.07837345302100293
1789564027106464500,0.590464599609375,-0.9131237294554709,0.5982526011362671,0.606104447147809
1789564027116433700,0.60043359375,-0.9361375252962112,0.16686609419733284,-0.39930871281791475
1789564027126403800,0.61040380859375,-0.5009229845017195,-0.09579875380545853,0.7017206474605947
1789564027136372700,0.620372802734375,0.1630839453101158,0.388120781186223,-0.33756511762104924
1789564027146342000,0.630341796875,0.474312040951848,-0.7247738254636525,-1.5828487446531652
1789564027156311800,0.640311767578125,0.20946341916918754,-1.6095494123131036,0.9981411231361329
1789564027166280700,0.65028076171875,1.2671096013277767,-3.046623073853552,0.670090560574457
1789564027176250600,0.660250732421875,1.029621280157566,-2.581610191644728,0.2616472684580833
1789564027186219800,0.6702197265625,-0.7374392457693815,-1.0727119416043163,1.563493617450446
1789564027196189700,0.680189697265625,-0.5953957504004239,-1.0871183603584766,1.3979878518208861
1789564027206158600,0.69015869140625,0.5781991164058446,-1.4792653283208608,0.27430302588632327
1789564027216128800,0.700128662109375,0.5536632255643605,-0.6590121902644633,-0.0674297602076549
1789564027226098000,0.710097900390625,-0.07463701557219028,0.11919336565732955,-0.07742958716647699
1789564027236067800,0.72006787109375,-0.20851883179545402,0.05772241338938474,0.682104458168894
1789564027246036700,0.73003662109375,-0.08335165242552757,-0.02755874579399824,0.04822520219045691
1789564027256006000,0.740005859375,0.20446166535913943,0.30804274360388517,-0.3175467772692442
1789564027265975800,0.749975830078125,0.5734522141396999,0.7268295889496803,0.06464832192873582
1789564027275944700,0.75994482421875,1.0360919374763966,-0.06127163030356168,0.08051429184144362
1789564027285914600,0.76991455078125,0.2543167063742876,0.8218263787224889,-0.7978354084126651
1789564027295883800,0.7798837890625,-0.3443237250357866,0.429469859662652,-1.241950610151887
1789564027305854000,0.78985400390625,-0.9395727604418992,0.1679816542237997,-1.2047273063685744
1789564027315822800,0.79982275390625,-1.226312311515212,0.2040630214303732,-1.6353545924380422
1789564027325792800,0.809792724609375,-1.1497189011782407,0.23600948078930375,-1.85109314635396
1789564027335761700,0.81976171875,-1.1502139912188052,0.23808599480241535,-1.8686879858858882
1789564027345731800,0.82973193359375,0.28317221398055553,-0.7142635373651981,-0.7763594896636903
1789564027355700700,0.83970068359375,0.5483879155099392,-0.3653022156566381,-1.2790866009779274
1789564027365670700,0.849670654296875,0.9344739759981632,-0.35588498349189757,-1.9662414744041858
1789564027375639600,0.8596396484375,0.7278174309432506,-1.0609490230962633,-0.5543851100981235
1789564027385609700,0.869609619140625,-0.10912731419503688,0.3719491063252091,-0.39690665664486585
1789564027395578600,0.87957861328125,0.06563245586156845,0.4738555293560028,0.2468375296000391
1789564027405547500,0.889547607421875,0.1416430978745222,0.5206824547216296,-0.26110238445904105
1789564027415517700,0.899517578125,0.23440263011455534,0.4316822750151157,-0.25328086052052673
1789564027425486800,0.90948681640625,-0.29944939504265783,0.888048617170751,0.5817242948573083
1789564027435456800,0.919456787109375,-0.7609837874859571,0.28340660725831984,1.8290221843212842
1789564027445425700,0.92942578125,-1.0679103865414856,0.05095364990681409,1.046116999341175
1789564027455395600,0.9393955078125,-0.9220371037513017,-0.03367898223996162,0.8708039793159812
1789564027465364700,0.94936474609375,-0.25036709196567536,-0.20484949563294647,1.101321000168845
1789564027475334700,0.959334716796875,1.3094313242286444,-0.8304957151293754,0.693155575145781
1789564027485303600,0.969303466796875,2.019800192242861,-1.033858479335904,0.7364931970909238
1789564027495273700,0.979273681640625,2.3350801936239,-0.6070923256739974,1.199300532079488
1789564027505243000,0.989242919921875,1.9287784435808657,-0.2115416867479682,0.8346903903402387
1789564027515213300,0.99921337890625,0.7052028635531663,0.12163783619999885,1.0841666709460318
1789564027525182200,1.00918212890625,-0.7434855401962995,0.42376375697553154,0.087956698535569
1789564027535152000,1.019152099609375,-1.0142477699369192,-0.4897121469184756,-0.10544755710321478
1789564027545121300,1.029121337890625,-1.1763181542903185,-0.036597792296111584,-0.8466581107053905
1789564027555091200,1.03909130859375,-1.027517585876584,-0.7562742946207522,-1.3144333702996371
1789564027565060000,1.04906005859375,-0.3947258785396814,-1.8199962895616888,-1.1189894163936376
1789564027575029200,1.059029296875,0.5037684370607137,-2.1432766420468687,0.04967827794244513
1789564027584999400,1.06899951171875,1.106515719267726,-1.7624609231770036,-1.4051989522434771
1789564027594968300,1.07896826171875,1.6487632323265076,-1.6875719786703585,-0.39406536880433557
1789564027604938200,1.088938232421875,2.637478501600027,-1.5699775726422667,-0.3593715104334056
1789564027614907400,1.098907470703125,1.9667899020671844,-0.9907748321518302,-0.05779384379093535
1789564027624877300,1.108877197265625,1.0347428609549998,-1.0168313566893339,-0.0563193051258102
1789564027634846200,1.11884619140625,0.05729542014896869,0.6661518328860402,-1.6308130034856498
1789564027644816100,1.128816162109375,-1.3671487691819666,1.3645102373719216,-1.0904097300540656
1789564027654785300,1.138785400390625,-1.260443713697791,0.14512830964177845,-0.11766155298016964
1789564027664755500,1.14875537109375,-0.047096682217717165,-1.3113038401022552,-0.7842202131014316
1789564027674724400,1.158724365234375,-0.3800952956408262,-0.6121218442738056,0.28827414022944864
1789564027684694300,1.1686943359375,-0.6360831500977278,0.5922033840999007,0.5255842552885412
1789564027694663200,1.1786630859375,-0.3708306236892938,0.35991467739939687,-0.476637195963785
1789564027704633300,1.18863330078125,0.23453180945217608,0.32158231639564033,-0.46818807817883784
1789564027714602200,1.198602294921875,0.9191513191819191,0.1012578959941864,-0.5141966728989035
1789564027724572200,1.208572265625,0.25642215422093867,0.4224348464593291,-2.003587308588624
1789564027734541000,1.218541015625,0.014940379500389098,0.6907596199199557,-1.0934721132993697
1789564027744511200,1.22851123046875,-0.464166494512558,0.8267647119075059,-0.8115183351978659
1789564027754480000,1.238480224609375,0.17202946830987928,-0.4974658297851681,-1.364343064111471
1789564027764449000,1.248448974609375,-0.1514157193481922,-0.9422139226004481,0.18709168409164995
1789564027774419200,1.258419189453125,0.047204818767309184,-0.3321498876392841,0.8250303623955696
1789564027784388400,1.268388427734375,0.6871697787344455,-0.6543728400260209,0.48760103651601816
1789564027794358300,1.278358154296875,-0.07392214530110358,-0.1821490035250783,0.5313871694136411
1789564027804327200,1.2883271484375,-0.2567798816174269,-0.13783259967565537,0.08435049073714762
1789564027814297000,1.298297119140625,-0.9625023851305246,0.18153174840956926,0.6615653088133782
1789564027824266200,1.308266357421875,0.028114333850145338,-0.15814473534226417,1.152013661051914
1789564027834236200,1.318236083984375,0.48061844761967654,-0.4144841797158122,0.5123716494288295
1789564027844205000,1.328205078125,1.1318301932662724,0.08920067071467637,1.0960207748688757
1789564027854175200,1.33817529296875,0.904800137746334,0.7208458383649587,0.34269645262751725
1789564027864144400,1.348144287109375,0.8936579814851283,-0.15967150651812553,0.266253812405467
1789564027874114300,1.3581142578125,-0.22883447459340095,0.36637978176027536,0.8283214398302138
1789564027884083200,1.368083251953125,-0.7904653180360793,0.16512626479268072,0.9365048973038792
1789564027894053000,1.37805322265625,-1.359360015001893,-0.0450911876142025,0.26136512704845516
1789564027904022300,1.388022216796875,-0.6849900966078043,-0.5846840945109725,0.21848659224873407
1789564027913992200,1.3979921875,-0.8782827176988124,-0.7063552484586835,-0.7830084992241114
1789564027923961000,1.407961181640625,-0.2511889297425747,-0.6304048122003674,-0.18463795253029092
1789564027933931300,1.41793115234375,-0.042815643897652626,-0.9735273447528481,-1.0134220597025005
1789564027943900400,1.427900390625,0.6255114872008561,-1.3525383522883057,-1.0202151539087294
1789564027953870300,1.437870361328125,0.05241115523874759,-0.5087266439899802,-1.7401200581617653
1789564027963839200,1.447839111328125,0.7133844164431095,-0.6562906563460826,-1.3600674326188862
1789564027973809200,1.45780908203125,1.1989888357818126,-1.396408473674953,-0.6726370301868766
1789564027983778300,1.4677783203125,1.0281190589010716,-0.8262041554152965,-2.1936014925308522
1789564027993748200,1.477748291015625,0.0026888006925582884,-0.042670974729955194,-2.5127111352026463
1789564028003717000,1.487717041015625,0.3751718677639961,-0.2945680527418852,-0.8019812029805033
1789564028013687000,1.49768701171875,-0.3145820822447538,0.12199030289947986,-2.303102170082927
1789564028023656200,1.50765625,-0.589334258404374,-0.109610129275918,-3.1344337515145537
1789564028033626400,1.51762646484375,-1.769042055132985,0.6562550005108118,-2.7746017839625474
1789564028043595300,1.52759521484375,-0.9821212778359651,-0.011829846264421939,-2.629112239792943
1789564028053565200,1.537565185546875,0.3780529761582613,-0.41033085942864417,-0.710402331892401
1789564028063534300,1.547534423828125,1.1052414615482091,-0.6867486307129264,-1.4246912959598004
1789564028073504300,1.557504150390625,1.6162749211758374,-0.9330489116311073,-1.4248894488804043
1789564028083473200,1.56747314453125,1.3008020275712013,-0.9224871856063603,-1.500763897293061
1789564028093443000,1.577443115234375,1.360217508614063,-0.33703181446194647,-1.6391776578575372
1789564028103412200,1.587412109375,2.061781138882041,-0.3380132267147302,-1.088110367070511
1789564028113382400,1.59738232421875,1.3714531883776186,0.3235965788275003,-0.08629077461734413
1789564028123351300,1.607351318359375,-0.19324469029605387,1.3174617782101035,-0.8610276315152645
1789564028133321200,1.6173212890625,-0.08381108663082122,0.6769067433953285,-0.26116744905188677
1789564028143290400,1.627290283203125,-1.3483704189538954,0.7630375051453709,-1.2606591100141404
1789564028153260300,1.63726025390625,-2.9734412255257365,2.2044877743348477,-1.2518190932154654
1789564028163229200,1.647229248046875,-2.1319851404428483,1.6340736127167939,-0.9157666451796889
1789564028173199000,1.65719921875,-0.4677940373599529,0.5227084075912833,-1.081737982494384
1789564028183168300,1.667168212890625,0.17182897730171678,-0.04628039739876985,-1.8848221052154897
1789564028193138200,1.67713818359375,0.8313251516908406,-1.3223428282499312,-1.6679777820147572
1789564028203107000,1.687107177734375,-0.13225918345749377,-1.0294400783717632,-0.6970903573114424
1789564028213077200,1.6970771484375,-1.268935063189268,-0.47534109173864125,-0.07537829892616718
1789564028223046400,1.70704638671875,-0.7414303612321614,-0.7732906036123633,-0.3521190916197374
1789564028233016300,1.717016357421875,1.0981558872014283,-1.664413513661921,-0.5821110291525721
1789564028242985200,1.726985107421875,1.8435832091152666,-1.646102488684654,-0.2301398215709254
1789564028252955100,1.736955078125,1.9511796604812144,-1.1861442595168947,-0.07903090314958244
1789564028262924300,1.74692431640625,0.5501718763172626,-0.638427082875371,0.03558784806858748
1789564028272894200,1.756894287109375,-0.6894961758553981,-0.43880788911134,0.23371585342679171
1789564028282863000,1.766863037109375,-1.263623512777686,0.31435674905627964,-0.09654336162768304
1789564028292833300,1.776833251953125,-0.05521218413412571,-0.972783248387277,-0.08944153026584535
1789564028302802400,1.786802490234375,0.1260188277631998,-0.7764417611196637,-0.01190890285000205
1789564028312772400,1.7967724609375,-0.34901042154729367,0.7734153990358114,-0.5394286197131499
1789564028322741200,1.8067412109375,-0.3515215275853872,0.9587696283429861,0.30011304658316074
1789564028332711200,1.816711181640625,0.43983752442002294,0.32265199145376683,0.5143849254800007
1789564028342680300,1.826680419921875,-0.3728589146465063,0.9674898181542754,1.384044228272885
1789564028352650200,1.836650146484375,-0.3391577205747366,1.2225418530657888,1.1811260660286993
1789564028362619100,1.846619140625,-0.7860317195028066,2.115655352410674,0.4402760985003784
1789564028372589300,1.85658935546875,-0.04458148452639579,0.6360831500977278,0.9613139059983193
1789564028382558500,1.866558349609375,-1.1669465148329734,0.44254093815982337,0.8477610304459929
1789564028392528400,1.8765283203125,-0.3777566235601902,-0.30103929458260537,1.7426187431097029
1789564028402497300,1.886497314453125,0.5276993477463722,-0.9300225495472549,1.4691729733735321
1789564028412467200,1.89646728515625,-0.3447048333078623,0.5968441956430673,0.9606482816964388
1789564028422436400,1.906436279296875,-0.7054238128274679,-0.036303193263709545,1.0926150580786167
1789564028432406300,1.91640625,0.46698564358651634,-1.4121893956527114,0.9597614158593117
1789564028442375200,1.926375244140625,0.2317342876881361,-0.7644161000221967,2.823644924072921
1789564028452345000,1.936344970703125,0.27215748349130153,0.29730010805428025,2.4575714317828417
1789564028462314200,1.946314208984375,0.5454243895292282,0.16905425189137457,1.17438755155392
1789564028472284400,1.956284423828125,0.2923760956555605,0.29361148266941306,0.9613464930936694
1789564028482253300,1.96625341796875,-0.6468862836629152,-0.03487520628720522,0.34956330618970094
1789564028492223200,1.97622314453125,-1.195600946909189,0.17882687336504458,-0.22188167804712428
1789564028502192400,1.9861923828125,-1.449199275881052,-0.5166936773464084,-0.022231029698904604
1789564028512162300,1.996162353515625,-0.5167746336281299,-0.6968722575813532,-0.5744307037830353
1789564028522130200,2.006130126953125,1.192747895565629,-0.8796762178838252,-0.2464027914445847
1789564028532100400,2.016100341796875,2.018567435577512,-1.1607546744555235,-0.5108748349998146
1789564028542069500,2.026069580078125,1.981210641607642,-1.3424524270817637,-0.4793477700967341
1789564028552039400,2.036039306640625,1.6326163996458052,-1.5959277141958474,0.520942530429922
1789564028562008300,2.04600830078125,1.3364865044146776,-0.8472291155263781,0.03792193073907401
1789564028571978200,2.055978271484375,1.0175918196678162,-0.30593028149455787,-0.40324035317841916
1789564028581947400,2.065947509765625,0.052257425981760024,0.26836305964440105,0.16346165604870766
1789564028591917300,2.075917236328125,-0.5237170001119374,0.11036328573077916,-0.11221043883427045
1789564028601886200,2.08588623046875,-0.3150046915709972,-0.8397273615941405,0.8070727539658547
1789564028611856400,2.0958564453125,-0.7865805855572223,0.27765578864663837,0.006522376089624595
1789564028621825500,2.105825439453125,0.13614099332690238,-0.21833149301856755,0.6330942704800516
1789564028631795500,2.11579541015625,0.21571195816993713,-0.32815672634989024,0.2302633383527398
1789564028641765400,2.125765380859375,-0.3314163126677275,0.5088306888863444,0.23471343136308714
1789564028651734300,2.135734375,0.47911213470995423,-0.4667193938657641,0.6521070870511233
1789564028661704200,2.1457041015625,0.35232992135882374,-0.365537485717237,0.27721295851627364
1789564028671673300,2.15567333984375,-0.759249511039257,0.8090326558619737,0.22023292445940895
1789564028681643300,2.165643310546875,-0.14706512292325497,-0.013852876524627208,0.42751722775753587
1789564028691612200,2.175612060546875,0.7538461906909942,-0.7175725157827139,-0.1321001204382628
1789564028701582300,2.185582275390625,0.40232875475883484,-0.022005203320086,1.0838996905729175
1789564028711551500,2.195551513671875,0.6623679304331541,0.10170856237113475,0.4580236443759873
1789564028721521400,2.205521484375,0.6607979046374559,-0.5637029735416174,1.1060514627568423
1789564028731490300,2.215490234375,-0.5097089330255985,-0.21479016714990137,0.2704289061330259
1789564028741460200,2.225460205078125,-0.9693699328124522,-0.23403292001932857,0.4492203063258901
1789564028751429400,2.235429443359375,-0.5201180988371372,-0.5807151908800006,-0.05949685288311447
1789564028761399300,2.2453994140625,0.018846154767274855,-0.8609361538395285,0.3674299849329516
1789564028771368200,2.2553681640625,0.5487345369905233,-0.202933140617609,0.1821268647585064
1789564028781338400,2.26533837890625,1.3921622144073247,-0.4199193565070629,0.14703072746330872
1789564028791307500,2.2753076171875,0.6610767215788365,0.6059668287754059,-0.3349432446848601
1789564028801277400,2.28527734375,0.8040238877892494,0.07415332370847463,0.506129722831957
1789564028811246300,2.295246337890625,-0.4205418723195791,0.5508201110929251,0.6556181639119982
1789564028821216300,2.30521630859375,-1.1492138742655515,0.9656079499304294,0.9360255893543362
1789564028831185400,2.315185302734375,-1.073023784032464,0.5305220039516687,-0.14587708218246698
1789564028841155300,2.3251552734375,-0.8013841869354248,0.025206629709899425,0.5744818494483829
1789564028851124200,2.335124267578125,-0.8013672358006239,0.025150807869434355,0.5701796587424353
1789564028861094400,2.345094482421875,0.6822451818138361,-0.21780776140540836,0.10421222488828934
1789564028871064300,2.355064208984375,0.2567898184895515,-0.18351649248600005,-0.6727069536179304
1789564028881033500,2.365033447265625,-0.05130991599857807,0.24068419460207222,-2.322733191617578
1789564028891003400,2.37500341796875,0.517628620108962,-0.03958440689146518,-2.5576360263392326
1789564028900972300,2.38497216796875,0.51766953664124,-0.03979191216230392,-2.566921448817849
1789564028910942200,2.394942138671875,0.19145897592306135,0.07013999641388655,-2.810287429849803
1789564028920911400,2.404911376953125,-0.13273147714436054,0.5101873641923069,-2.149328489431739
1789564028930881300,2.41488134765625,-0.5174275445789098,0.9927484703123569,-2.711025091587007
1789564028940850200,2.42485009765625,-0.10885083534121513,0.0406599271684885,-1.4872691865563392
1789564028950820400,2.4348203125,-0.10983166307210922,0.04347936850339174,-1.5033831398807465
1789564028960789500,2.44478955078125,-0.31042320899963377,-0.715138566634059,-1.398119515376538
1789564028970759400,2.454759521484375,-0.3116968821972608,-0.7116159454658627,-1.4161236663617194
1789564028980728300,2.464728271484375,1.4717390244692563,-0.9552332709103822,-1.4432849372707306
1789564028990698200,2.4746982421875,0.7029641447156667,-0.556435612887144,-1.7651941475331783
1789564029000667400,2.48466748046875,0.9454571423053741,-0.5069283623963594,-1.1004152104355394
1789564029010637300,2.49463720703125,0.40896775438189503,-0.26831834371984004,-1.4744519366897642
1789564029020606200,2.504606201171875,-0.05589899735450744,-0.174549634437263,0.3549108412301168
1789564029030576400,2.514576416015625,0.5279810872972012,-0.8518959382936357,-1.395321262960136
1789564029040546300,2.52454638671875,-0.37686990385353564,-0.4845698155939579,0.3460708609640598
1789564029050515500,2.534515380859375,-0.37729718935489653,-0.48398441692143673,0.33615948860682543
1789564029060485400,2.5444853515625,0.12646890961825846,-0.6158776896759868,-0.426513603672944
1789564029070454300,2.554454345703125,0.40956747384071346,-0.05376549245715141,-0.5551170776344836
1789564029080424200,2.564424072265625,0.4292115009874105,0.5670847249343991,-1.024636477482319
1789564029090393300,2.574393310546875,0.4625356784403324,-1.0396256645604967,-0.3253489023875445
1789564029100363300,2.58436328125,0.4624649512916803,-1.039725910064578,-0.3287858545662835
1789564029110332200,2.594332275390625,-0.6937099941581487,0.05896773727536201,-0.13867016474464908
1789564029120302300,2.60430224609375,-0.04695873505175113,-0.5141445773854851,-1.1353059065528213
1789564029130271500,2.614271484375,0.748430595383048,-0.6943909621596336,-1.4275743040502071
1789564029140241400,2.624241455078125,1.0413134715169667,-0.6285258665859699,-1.3116573297150431
1789564029150210300,2.634210205078125,0.6738765819191932,-0.8215797104850411,-0.7024174706183374
1789564029160180200,2.64418017578125,-0.02359948677420616,-0.6940270972833037,0.21924888185812158
1789564029170149400,2.6541494140625,-0.8948077360421418,-0.11179302627295255,-0.4196359364558011
1789564029180119300,2.664119384765625,-0.9358493560045957,-0.16615853044986723,-1.3213492871679364
1789564029190089500,2.67408935546875,-0.2658914088338613,-0.813178085103631,-0.3612219240730628
1789564029200058400,2.684058349609375,-1.2111129888176917,0.42880408923029895,-1.6792957332342862
1789564029210028300,2.6940283203125,-1.2109236037254332,0.42753655351251363,-1.6851630178324877
1789564029219997400,2.70399755859375,0.48358197360038757,0.0659109805420041,0.014259374966286122
1789564029229967400,2.71396728515625,1.4654384630203245,0.16288754595518112,-0.9372856724180281
1789564029239936300,2.723936279296875,0.773600692474842,0.9900292744815349,-0.3679674162779003
1789564029249906200,2.73390625,0.7748404634028673,0.9852113528057932,-0.37369032396934926
1789564029259875300,2.743875244140625,-0.6271341199666262,1.2957467900082469,0.17847075340375304
1789564029269845200,2.75384521484375,-1.0826795011281967,1.001066216802597,0.29130718778241427
1789564029279814100,2.763814208984375,-0.9094768973857164,0.2510162035241723,-0.5381974704829976
1789564029289784300,2.773784423828125,-1.056076156362891,1.140089195306599,0.4509138854360208
1789564029299753500,2.78375341796875,-0.46081952217221256,0.6010822716042399,-0.26584552386552096
1789564029309723400,2.793723388671875,-0.4611807567000389,0.6022179976359009,-0.2665643031267449
1789564029319693300,2.803693359375,0.6438040997385979,-1.3413780758485196,-0.42463462152592835
1789564029329662200,2.813662109375,0.49409518430829047,-0.6496864357754588,0.04710256396923214
1789564029339632400,2.82363232421875,0.4940367321193218,-0.6494187247499823,0.04769786298125982
1789564029349601300,2.833601318359375,1.0442997938513756,-0.19727818359583615,1.1971253799974917
1789564029359571500,2.843571533203125,0.060095280000567436,0.12146014154553413,0.9547770515754819
1789564029369540400,2.853540283203125,0.8253343868434428,-0.9231158388987183,0.3905994827920571
1789564029379510500,2.863510498046875,-1.0749509527027605,-0.29382074150592086,1.3547174498930572
1789564029389479400,2.8734794921875,-1.295733638265729,-0.7649623357281088,1.194660305058211
1789564029399449300,2.883449462890625,-1.3543050696998833,-0.5977841068416834,0.037299620422534645
1789564029409418200,2.893418212890625,0.18800035990178585,-0.7517123935326934,0.004714479567576199
1789564029419388400,2.903388427734375,0.1864852791637182,-0.7461015679135918,0.009650602529197931
1789564029429357300,2.913357421875,0.7522030996590853,-1.048683708024025,-0.49607119708899405
1789564029439327500,2.923327392578125,0.7241834583550691,-0.3892617679148912,-0.9725512662623077
1789564029449297400,2.93329736328125,0.7236392684757709,-0.38680648371726273,-0.9662854108005762
1789564029459266300,2.943266357421875,0.9965917017370461,-0.08188391796052455,-0.8995379794344306
1789564029469236500,2.953236572265625,0.9963596465468406,-0.08083148629814386,-0.896730228537321
1789564029479205400,2.963205322265625,-0.3401987540602684,-0.010934358729422092,-0.9943483067244291
1789564029489175300,2.97317529296875,-0.9769090961456298,0.3829679284676909,-0.32681685604825617
1789564029499144200,2.983144287109375,-0.879423119905591,-0.4206304273858666,-0.5712718013606966
1789564029509114600,2.993114501953125,-0.3495177865475416,-0.2028311415478587,-0.26114390377951785
1789564029519084000,3.003083984375,0.056663551986217496,-0.8642331495583057,-0.11685303134256973
1789564029529054000,3.013053955078125,1.006556630912423,-1.5636267423108219,-0.45371736201681195
1789564029539022800,3.02302294921875,1.0055465770870446,-1.5609081310018895,-0.4595399306904524
1789564029548992800,3.03299267578125,0.9056418492674827,-0.8060618233576416,0.2934987795425579
1789564029558963000,3.042962890625,0.10434884774684905,-0.07098200019598007,-0.7184947451941669
1789564029568931800,3.052931884765625,-0.34099253478646274,-0.004203296908736229,0.2827135469602421
1789564029578901800,3.06290185546875,-0.9158855953842401,0.211198864659667,-0.5499263040583581
1789564029588870700,3.07287060546875,1.29623515804708,-1.145054124237597,0.37454617361370474
1789564029598840800,3.0828408203125,1.295742406094074,-1.1442021835833787,0.3681968776522204
1789564029608810000,3.09281005859375,0.4684884493649006,-0.07037175934314728,0.5415030878996476
1789564029618780000,3.10277978515625,0.08668401171863079,-0.7650500140115618,0.1714563445970416
1789564029628748800,3.112748779296875,-0.6357289298325777,-0.301679638312757,0.2614975577890873
1789564029638718700,3.12271875,-1.4326976384133099,0.43044250408709045,-0.2806969464408234
1789564029648687900,3.13268798828125,-0.2859393406063318,0.055635377982258795,-0.07170465191472321
1789564029658657800,3.14265771484375,0.48256782812178134,0.6374760657608509,0.8043827842295169
1789564029668628000,3.1526279296875,0.4835854807317257,0.6343214011222124,0.8061303585492074
1789564029678596900,3.162596923828125,-0.6265601194709539,2.3014167012140154,1.0803661096192896
1789564029688567000,3.172567138671875,0.7579594712287188,0.4022279247328639,0.38575065452139823
1789564029698536000,3.182535888671875,-0.591072626504302,1.0440592630937695,0.09946998966410756
1789564029708505900,3.192505859375,-0.7677151415675878,1.2189882522374391,0.3882192731246352
1789564029718474800,3.202474853515625,-0.7666156558930873,1.2162000828236341,0.3957040393894538
1789564029728445000,3.21244482421875,-1.059487426111102,1.1440069532722235,1.2595878275208174
1789564029738413800,3.222413818359375,-1.177159865811467,0.9382996717661619,-0.21031329573048277
1789564029748383700,3.2323837890625,-0.5438146162450314,0.4410989226579666,0.4188976122438907
1789564029758352600,3.2423525390625,-0.264424258890748,0.5634194804251194,-0.013453867269679903
1789564029768323000,3.252322998046875,0.39081191996634,0.8212567621409893,-0.06052698594871908
1789564029778293000,3.26229296875,0.916644889318943,0.20404460899084806,-0.18386209105327725
1789564029788262000,3.272261962890625,0.9465174650132655,-0.27662878368645905,-0.03173707265825942
1789564029798231800,3.282231689453125,1.3197078035712242,0.01077536877542734,-0.36310890686344355
1789564029808201000,3.292200927734375,0.5223246689707041,-0.3944610901236534,-1.6219567662045358
1789564029818171000,3.3021708984375,0.3002297317653894,-0.8715776671022176,-1.4429200494810939
1789564029828139800,3.312139892578125,-2.326775891137123,0.4319344962105155,-1.3496210035368799
1789564029838110000,3.32210986328125,-1.9827198771268129,-0.08503186059743166,-1.3161705693557857
1789564029848078800,3.332078857421875,-1.0646411556124686,-1.0093626282438635,-0.06877543919556774
1789564029858049000,3.342049072265625,1.37204764713943,-2.4645427321001887,-1.2611933630213141
1789564029868019000,3.35201904296875,1.7564087835311888,-1.8397411467343567,-0.2156475876968354
1789564029877987800,3.36198779296875,1.2578425912886857,-0.37698125527352094,0.45132337955236435
1789564029887957800,3.371957763671875,1.118971880736947,-0.8328001926794648,0.9909286344740539
1789564029897927000,3.381927001953125,0.04840542672872543,-0.18681465724855661,1.0250616440918296
1789564029907896800,3.391896728515625,-0.5817722987174987,-0.4249997285112738,0.9131061937987804
1789564029917865700,3.40186572265625,-0.6475380255699157,0.15149667562991379,1.2606154170028865
1789564029927836000,3.4118359375,-0.42433834199309345,0.03460281908661127,0.6779983380243182
1789564029937805000,3.42180517578125,0.8283382448345422,-0.04682166466861963,0.24307724548475815
1789564029947775000,3.43177490234375,0.9100900608479976,-0.7303492875084281,-0.4498620748281479
1789564029957743900,3.441743896484375,1.046701009774208,-1.0242074384152888,-0.1356781159223523
1789564029967713800,3.4517138671875,1.0467045169055462,-1.0243985770732165,-0.11950471489513292
1789564029977683700,3.46168359375,-0.40520226436853407,0.6180103177905082,-0.17410229252856224
1789564029987652900,3.47165283203125,-0.33497137480080125,-0.21773732651770114,-0.4122213858829811
1789564029997623000,3.481623046875,-1.0672808564662932,0.49149727676957844,-0.3696109822338447
1789564030007592000,3.491592041015625,-0.17325696427822113,0.04005173214226961,-1.0117162056326865
1789564030017561900,3.501561767578125,1.1254366928368806,-1.150007362730801,0.51727096577771
1789564030027531000,3.511531005859375,1.9390888251930474,-1.371045776620507,0.18180682075759394
1789564030037501000,3.5215009765625,1.2608873658120632,-1.4833318471074104,-0.23191753530055284
1789564030047469800,3.5314697265625,1.2601450230121611,-1.4816262122333048,-0.2180503379896283
1789564030057439700,3.541439697265625,-1.0893524030208588,-0.5515180302292109,-0.6524468403995036
1789564030067409700,3.55140966796875,-0.6046119070351124,-0.5445604661762714,-0.4572640581803396
1789564030077378800,3.56137890625,-0.26340251462757586,-0.29975042381584643,0.021658910633064805
1789564030087349000,3.571348876953125,0.5256038367718457,0.5666618233472108,0.2153090947237797
1789564030097318000,3.58131787109375,0.4122323091357946,0.9554320083528757,0.3850783082177862
1789564030107287800,3.591287841796875,0.5966466272443532,0.6125464994266628,0.8595715874880552
1789564030117257000,3.601257080078125,-0.1355383512586355,0.9142229228690266,2.2351158445715904
1789564030127227000,3.611226806640625,-0.6527133823812008,0.6835831524193287,-0.4786643178772181
1789564030137195800,3.62119580078125,-1.1188567299246788,1.484431040520966,0.9843273365128785
1789564030147165700,3.631165771484375,-1.7993512686789035,2.0621151931419965,-0.35194121430218217
1789564030157136000,3.641135986328125,-1.614603188571334,1.9415172213837504,1.0832250061817466
1789564030167105000,3.65110498046875,-0.1265022273659706,0.22114070522040127,0.9625622986242175
1789564030177075000,3.661074951171875,-0.12729367000460623,0.2213677919745445,0.9832565654762089
1789564030187043800,3.6710439453125,0.9307973333120345,0.8141276409134268,1.007627182753384
1789564030197013800,3.681013671875,1.4699112245202064,0.18523937075585126,0.8044448896802961
1789564030206983000,3.69098291015625,1.3411106570839881,0.5937818854629993,0.8551809513136744
1789564030216952800,3.700952880859375,1.341935417470336,0.5886120816096663,0.8724626332432032
1789564030226921700,3.710921630859375,-0.13136603401005267,0.7469783507481217,1.2692252783074973
1789564030236891600,3.7208916015625,-0.2956605241537094,-0.44900399669408797,2.040632113999873
1789564030246861800,3.73086181640625,-2.351386600780487,0.8762743004858493,0.8858104097899049
1789564030256831000,3.7408310546875,-2.435203532630205,0.8616393336728214,3.9319580481514333
1789564030266801000,3.75080078125,-0.2208329544454813,-1.070204050436616,2.54927648653388
1789564030276769800,3.760769775390625,0.3399088312029838,-1.285746497258544,2.8285160372406244
1789564030286739700,3.77073974609375,1.1237819113671779,-1.3051859417438507,2.503966103211045
1789564030296708900,3.780708984375,0.8236264138817787,-0.2816150476664305,1.916675917854905
1789564030306678800,3.7906787109375,1.4204729476124047,-0.9573153378814458,2.3450294868387282
1789564030316647700,3.800647705078125,2.0348031155854462,-2.697979732052982,-0.17719583809711037
1789564030326617900,3.810617919921875,0.09544657936692237,-1.6642200369164346,0.31510822501070795
1789564030336588000,3.820588134765625,-1.7818962760090826,0.3409069023296237,0.07640161409191787
1789564030346557000,3.830556884765625,-1.2781909673124552,-0.11667261500805616,-1.3855984719775616
1789564030356526800,3.84052685546875,-1.2797159849226474,-0.11515519618242978,-1.3710158198736606
1789564030366495700,3.850495849609375,2.63064660975337,-2.7739026957824824,-2.8032807659581302
1789564030376466000,3.8604658203125,2.631938987651467,-2.778244816640019,-2.8032342964679002
1789564030386434800,3.870434814453125,0.03668751640617847,0.9176520205348729,0.5869460480935871
1789564030396404700,3.88040478515625,-2.968617750892043,1.8294190746843815,-0.12489654573500156
1789564030406374000,3.890373779296875,-3.511563767609,0.236984463301301,0.23925372340753673
1789564030416343800,3.90034375,-1.584962083545327,-1.2822928496733308,1.3891864134669303
1789564030426314000,3.91031396484375,-1.585682214513421,-1.277842300005257,1.3807994011327624
1789564030436283000,3.920282958984375,3.464754085639119,-0.8951447129115462,1.4279174183994532
1789564030446252800,3.930252685546875,2.125127529633045,-0.2126785818234086,2.4501956423178313
1789564030456221700,3.9402216796875,0.5799450832903384,-0.27603257135897874,1.5359927393235264
1789564030466192000,3.95019189453125,-0.19036708903312682,-1.4720087813213467,-0.3817052150554955
1789564030476160800,3.960160888671875,-1.85983993191123,0.37725335021317,-0.7746952827785164
1789564030486131000,3.970130859375,-1.5768442435413599,1.3236188395351172,-0.685214260752499
1789564030496099800,3.980099853515625,0.6073007077276706,0.5901888294070958,0.44835203559137876
1789564030506070000,3.990070068359375,1.446207692849636,-0.4377583800584078,0.5300555920163169
1789564030516040000,4.0000400390625,0.43174540337920186,0.424824079683423,0.2599106173912063
1789564030526008800,4.0100087890625,-0.43121991820037364,1.5027107935771344,-0.2586643436571583
1789564030535978800,4.019978759765625,-0.09995791931152344,0.818431767848134,0.3500362939963117
1789564030545948000,4.029947998046875,-0.9066828827530146,0.5156716408222913,0.2197049367962405
1789564030555918000,4.03991796875,-0.7647790881156921,0.7159560204967856,0.4093088594371453
1789564030565887000,4.049886962890625,0.14775485875308514,1.4958675035536289,1.0990390997767447
1789564030575857000,4.05985693359375,0.14933949759602547,1.4944099982216954,1.0715504966095089
1789564030585826000,4.069825927734375,-0.3056991030871868,1.6804799745827912,0.6882047478053719
1789564030595796000,4.0797958984375,0.4185065670996904,-0.03266571354418993,-0.3507625624442473
1789564030605766000,4.089765869140625,-0.556491726988554,0.6598097703829408,-0.4013997302804142
1789564030615734800,4.09973486328125,-0.5014467161148787,0.3043468116953969,-0.8100196210727095
1789564030625704700,4.10970458984375,-0.24353403107523916,1.7299296496674417,-1.6043476058863102
1789564030635673900,4.119673828125,-0.24337445659935472,1.7314163810938596,-1.627797601187229
1789564030645644000,4.12964404296875,1.528139541605115,-0.2888628268375993,-1.3795004473634063
1789564030655613000,4.139613037109375,0.4921019646644592,-0.09755202721357345,-1.2781215553380547
1789564030665582800,4.149582763671875,0.49277007318437094,-0.09852087224572896,-1.2983463049821555
1789564030675552000,4.159552001953125,-1.157484274482727,-0.7022486899226904,-1.4133892729617654
1789564030685522000,4.16952197265625,-1.109739942011237,-0.7752782702982425,-2.1763538590013978
1789564030695491800,4.179491943359375,0.31361352947354315,-1.1078072203829883,-1.3718661530926823
1789564030705460700,4.189460693359375,1.312755500215292,-1.0674898230418561,-1.177206262236461
1789564030715431000,4.199430908203125,1.4121908569574355,-0.72012541513592,-0.7114852317582816
1789564030725400000,4.209400146484375,0.8136147229552269,0.4752227260559797,-0.9602326866328715
1789564030735370000,4.219369873046875,0.8134884662270545,0.4758317978650331,-0.9795048117272556
1789564030745339000,4.2293388671875,-0.45218204220831393,-0.23297727348655461,0.6881240107193589
1789564030755308800,4.239308837890625,-0.6094488256722689,-1.070651209682226,0.5650336010908708
1789564030765278000,4.24927783203125,-1.0529232452899218,-0.2568772045120597,1.3240455405145883
1789564030775248000,4.259247802734375,-1.235083646991849,0.8987751783683896,2.542001527094841
1789564030785217800,4.2692177734375,-0.12194178758263587,-0.9854510067805647,0.5345157862955704
1789564030795186700,4.279186767578125,-0.577719223934412,-0.5443620209947229,2.4725553581640125
1789564030805156900,4.289156982421875,-1.3016186046510934,0.35396073743104933,0.01119074464328587
1789564030815126000,4.2991259765625,0.9673229371547698,-1.197222118370235,0.3709492816329002
1789564030825096000,4.309095947265625,0.9736895495772361,-0.7162398058742284,-0.2757232496814802
1789564030835064800,4.31906494140625,0.23055179990530011,-0.29309593436270953,-1.6416763428054748
1789564030845034800,4.32903466796875,0.04157528844773769,-0.7800394933506846,-0.9571761486064642
1789564030855004000,4.33900390625,1.3860574677914381,-1.2750333800643683,-0.34834815824627874
1789564030864973800,4.348973876953125,0.7805792993158102,-0.1435077227026224,-0.8922212997455149
1789564030874944000,4.358944091796875,0.7085106729269027,-1.2733058256193994,-0.7452391789305954
1789564030884913000,4.368912841796875,-0.33670039055049417,-0.2968482726335525,-0.2532305551053956
1789564030894882800,4.3788828125,-0.35250995410084723,-0.21999562683850526,-0.8911212295491248
1789564030904852000,4.38885205078125,0.00647241088449955,-0.5123804903224111,-0.11765494057629257
1789564030914822000,4.39882177734375,-0.2383908229678869,-0.3640387715920806,0.359250697065331
1789564030924790800,4.408790771484375,0.8750982424438,-0.36610797908157106,0.3294468026930466
1789564030934760700,4.4187607421875,0.8747446067005396,-0.36493396686613555,0.3296807941120118
1789564030944729900,4.428729736328125,0.22296002960205077,-0.24558833325654267,0.9259979702062904
1789564030954699800,4.43869970703125,-0.16186697073578835,0.02554185301363468,0.4163881136409938
1789564030964670000,4.448669921875,0.5306494297236204,-0.32010376827567816,-0.27085244704103095
1789564030974638800,4.458638916015625,0.531194788646698,-0.321791867493093,-0.2652084680709988
1789564030984608800,4.46860888671875,-0.780047968918085,0.8567910168588161,-0.691670524219796
1789564030994578000,4.478577880859375,-0.7970709999114275,1.0885407943770289,0.2945953060749918
1789564031004547800,4.4885478515625,-0.8581254803329705,1.1530480456009506,-0.08925594456586987
1789564031014516700,4.498516845703125,-0.07287351303100585,0.4390831989213824,-0.18658479401543734
1789564031024486700,4.508486572265625,-1.3582067533135413,1.2337129431605338,-0.7425313082113861
1789564031034455800,4.518455810546875,-0.26615152107477186,0.5258627799689769,-0.3510869355604052
1789564031044426000,4.528426025390625,0.7208493454962969,0.17639146291166544,0.4909739104826003
1789564031054395000,4.538394775390625,0.830884422186017,-0.5127417248502374,0.6323992739532143
1789564031064364800,4.54836474609375,0.4564876304477453,-0.07505290289670229,1.5087186556898056
1789564031074335000,4.5583349609375,-0.5313865118265152,-0.1030287050589919,-0.6232132201958447
1789564031084304000,4.568303955078125,-0.5315525160431862,-0.10247866996079683,-0.6191885677896439
1789564031094273800,4.578273681640625,0.14335633153319358,0.028493104034662244,0.9812008750554173
1789564031104242700,4.58824267578125,-0.09979191509485244,-1.363624978969991,0.8541901136454194
1789564031114212900,4.598212890625,-0.09958557886779308,-1.3643831038609147,0.862592908070609
1789564031124181800,4.608181640625,-0.1165899051606655,-0.5547726481109857,0.38942316902168095
1789564031134152000,4.61815185546875,0.4167676144778728,0.07284165658801793,0.9719581226747482
1789564031144120800,4.628120849609375,1.0156716652601956,-1.1671017053946853,0.8928650775417685
1789564031154091000,4.638091064453125,1.015967433336377,-1.1681681655824183,0.8982203209646046
1789564031164061000,4.64806103515625,-0.3912392054677009,0.5265174444854259,1.6399898510232567
1789564031174029800,4.65802978515625,-0.567407673278451,0.1686737281411886,0.37450792396254834
1789564031183999700,4.667999755859375,-0.8479898707658052,0.709629155562818,0.6197473707161844
1789564031193969000,4.677968994140625,-0.6192430744558572,0.5200213604643941,-0.13167579407896846
1789564031203939000,4.68793896484375,-0.43749826781749723,-0.4428443050205707,1.3002448320798574
1789564031213908000,4.697907958984375,-0.8570160577863455,0.9421496251925826,1.4853636451959609
1789564031223878000,4.7078779296875,0.7721049009591341,-0.6181631702646613,0.06556993941883556
1789564031233846800,4.7178466796875,1.1392319939553737,-0.4499216960608959,0.8659167917963116
1789564031243817000,4.72781689453125,0.2269762795060873,0.2055328017219901,1.5505122630633412
1789564031253785900,4.737785888671875,0.21729133631587028,-0.24281360784620046,0.6817011380650103
1789564031263755800,4.747755859375,0.5528653531849383,-1.1924562191426753,0.5455127984650433
1789564031273725700,4.7577255859375,0.029496143597364424,-0.29778730704933404,0.9015118367906659
1789564031283694800,4.76769482421875,0.8121259457021951,-0.7898714437961578,0.36849275532625614
1789564031293665000,4.7776650390625,2.6956150487482544,-2.860348514831066,0.2628343958834186
1789564031303634000,4.787634033203125,0.6473059703797102,-0.7227940498232841,-1.2747861273050307
1789564031313603800,4.797603759765625,-1.1043237621814013,0.23110417309105394,-1.5727198570877312
1789564031323573000,4.807572998046875,-2.0618103649765254,0.9277730170547962,-1.0470588833011687
1789564031333543000,4.81754296875,-1.4928858573943375,-0.3158037329941988,0.27699684981387107
1789564031343511800,4.82751171875,0.38354455931186676,-0.1581584716066718,-0.5790773240124807
1789564031353481700,4.837481689453125,2.757351666215062,-0.36071781047582624,1.5132801183864473
1789564031363451000,4.847450927734375,2.492930914455652,0.5187485640496016,0.45932157523203637
1789564031373421000,4.857421142578125,0.6151806473225355,0.33911154334545135,-0.19187173970872534
1789564031383391000,4.867390869140625,-0.45823301281034945,-0.14662468567937612,-0.04700759742846712
1789564031393360000,4.87735986328125,-1.1565490394592284,0.4699915474042296,0.5797472226306796
1789564031403329800,4.887329833984375,-0.8930781357705593,0.5814873442962766,0.29214807731965553
1789564031413299000,4.897298828125,-1.182900455290079,1.7966046003192662,0.8749943436779082
1789564031423268900,4.907268798828125,-0.09801964472532272,1.36897978400141,-0.10674333253479562
1789564031433237800,4.91723779296875,0.061790978002548215,0.856586141936481,-0.9909322146706282
1789564031443208000,4.9272080078125,-0.5767237831562757,0.9448501163229346,-0.31354612679313865
1789564031453177000,4.937177001953125,0.33732816706001756,0.3952273983210325,-1.256938482055813
1789564031463147000,4.94714697265625,0.6995546285331249,-0.07667436661869287,0.4010307508375495
1789564031473116000,4.957115966796875,1.2763386174440383,-0.3725686995282769,-0.16760730448607356
1789564031483085800,4.9670859375,1.0742705692231656,-0.06329173795431851,-0.1832518684667535
1789564031493055700,4.9770556640625,0.35919162382185454,0.2604460029095411,-2.275079606169462
1789564031503025000,4.98702490234375,-2.022705266034603,0.4934478263154626,-0.5133435632009059
1789564031512994800,4.996994873046875,-0.4634983859926462,-0.42269466643929476,-1.3127877950496971
1789564031522964000,5.0069638671875,0.8534013744205236,-0.8319818620339036,-2.2842545540109276
1789564031532934000,5.016933837890625,0.4038245462745428,-0.5811290323778987,-0.8278107868943363
1789564031542903000,5.026903076171875,0.7177841127067804,-0.23381547787636517,-3.1376027369394897
1789564031552873000,5.036873046875,1.402592423006892,-0.37465836528390645,-3.212750624643266
1789564031562841900,5.046841796875,0.5976981821238995,0.11523702924698591,-2.7529399872526525
1789564031572812000,5.05681201171875,-0.48147009601294993,0.4899430330649018,-3.521650277337432
1789564031582781200,5.06678125,-1.6040771183818578,1.0303881728768347,-4.060672398608923
1789564031592751000,5.076751220703125,-1.3081950604319572,1.4971189649194478,-3.3603368488311767
1789564031602720000,5.086719970703125,-0.3315373086988926,0.019522738854587076,-2.7760847159966824
1789564031612690000,5.09668994140625,-0.559897151517868,0.5558230339467525,-1.7404007747992871
1789564031622659800,5.106659912109375,-0.9987135161966085,1.0239344666928052,-1.2447247510403394
1789564031632629000,5.11662890625,-0.1636158602297306,-0.7464806303590535,-3.043769730249047
1789564031642599000,5.126598876953125,-0.08687281228899955,0.3284340819865465,-1.1380110007930546
1789564031652568000,5.136568115234375,0.3079284695744514,-0.3720899761006236,-1.0531495283264667
1789564031662538000,5.1465380859375,0.5953934123128652,-0.7858774057239294,-0.4307601186688989
1789564031672507100,5.156507080078125,0.1365191789895296,-0.7901017454206943,-0.6571522416114807
1789564031682477000,5.16647705078125,-0.31721301527023316,-0.9218465496152639,-1.944230425865203
1789564031692446000,5.176446044921875,-0.3045399961799383,-0.6638342035934328,-1.1863048569060861
1789564031702416000,5.186415771484375,1.000049733236432,-1.3095789160057902,-0.9582890782844274
1789564031712385000,5.196385009765625,0.10502104791998862,-0.2908540006548166,-2.1506842879548667
1789564031722355000,5.20635498046875,-0.4352642251551151,0.15241291369199753,-1.1491541799675673
1789564031732323800,5.21632373046875,-0.11415537149012088,-0.2507771340712905,-1.7691121977597475
1789564031742294000,5.2262939453125,-0.16388474029898642,0.5463713149905205,-0.069125047217682
1789564031752263200,5.23626318359375,0.12314356458783149,-0.15785305891931056,0.24015739424899218
1789564031762233000,5.246233154296875,0.860581056791544,-0.15044541301131248,-0.10980287536904215
1789564031772203000,5.256203125,0.2953507275521755,-0.40611294947266574,-1.7083546544581651
1789564031782172000,5.266171875,-1.061507533761859,0.11232201858311891,-0.7668971031829714
1789564031792141800,5.276141845703125,-1.0547791022896766,-0.4267360507845878,-1.6089223664559422
1789564031802111000,5.286111083984375,0.6845943752884864,-1.424280815462768,0.16671236494034528
1789564031812081200,5.2960810546875,1.045814874589443,-0.7192045008987188,-2.2675307982251045
1789564031822050000,5.306050048828125,0.8289052310675382,0.1417260999828577,-1.4984586890906095
1789564031832020000,5.31602001953125,-0.31116964345276354,0.8837024046599864,-1.3744561695858835
1789564031841989000,5.325989013671875,-2.460171969670057,0.8626692612424492,-0.566774489941448
1789564031851959000,5.335958984375,-3.0678719058483837,1.1188216586112976,-0.13486958515159786
1789564031861928000,5.345927978515625,0.3305290084391832,-0.4792646949231624,0.5286439351201057
1789564031872521000,5.35652099609375,0.32984277974069115,-0.47345513186156746,0.5395584201052784
1789564031882489900,5.36648974609375,1.8524626811414957,0.16291735657155512,0.3461674532063305
1789564031892459800,5.376459716796875,2.5512977632284164,-0.7701581508055328,0.22263065151721237
1789564031902429200,5.38642919921875,-0.45316871515810486,0.40173809538930655,-0.15944346991591155
1789564031912399000,5.396399169921875,-1.8734967013418673,0.8258683475896715,0.9979263844069093
1789564031922368000,5.406367919921875,-2.1791782687723633,1.4043293298020958,-0.44377800567410886
1789564031932338000,5.416337890625,-0.6738742438316345,0.1954720109567046,0.22016309235990048
1789564031942307000,5.42630712890625,0.5011842657864094,-0.5069184255242347,-0.7929017514027654
1789564031952277000,5.436277099609375,1.3706494707792996,-0.027224691534042358,1.1075243117883802
1789564031962247000,5.446246826171875,1.453643395808339,0.2735641354188323,0.36320831211730836
1789564031972215800,5.4562158203125,1.3406114753901959,-1.098456915974617,-0.227577825595811
1789564031982186000,5.46618603515625,0.05660802240669727,0.18287644101679323,-0.045831776848435396
1789564031992155100,5.476155029296875,-1.4855869325578213,0.8720435310482978,0.3269436972983181
1789564032002125000,5.486125,-1.4319658170074223,0.29051351665407416,2.7053336019471286
1789564032012094000,5.496093994140625,-1.625300523674488,0.896428030720353,1.0430044202785937
1789564032022063900,5.50606396484375,0.09079846130013465,-0.5609653652712703,0.8077910583030432
1789564032032033000,5.516032958984375,0.5614250917375088,0.5565168614298105,0.9269692994564771
1789564032042003000,5.5260029296875,1.1428747343719006,-0.7818532647743821,1.4125935925394295
1789564032051971800,5.535971923828125,0.7010621104866266,-0.9211737649202346,0.5700224588867276
1789564032061942000,5.54594189453125,0.5523123954772949,-1.828532062716782,1.7503835318922996
1789564032071911200,5.5559111328125,-0.7652239092737436,0.03116729167997837,0.5002153842216357
1789564032081881000,5.565881103515625,0.5589391201406717,-0.8837205248385668,-0.5390334829157218
1789564032091850000,5.57585009765625,1.8580039486557245,-1.0629764372706412,0.379202803780511
1789564032101820000,5.58581982421875,1.8089859429866075,-0.977362100610137,-1.2646977178804575
1789564032111789000,5.5957890625,0.5315203673392533,-0.07850596596002578,-0.3922887510532513
1789564032121759000,5.605759033203125,-0.3032739217668772,0.0782914464265108,-1.1535520496003329
1789564032131729000,5.61572900390625,-0.35959435940384865,-0.4450023598372936,-0.13083539773207156
1789564032141697800,5.62569775390625,-1.1172627387315035,0.09119126001000404,-1.0157990910321473
1789564032151668000,5.63566796875,-0.1808785451978445,0.3679126904159784,0.3306866832189262
1789564032161637000,5.64563720703125,1.0385662186354399,-0.15043021544218063,0.001802994301356375
1789564032171607000,5.65560693359375,2.088947962749004,-0.873203222477436,0.7246668579578399
1789564032181576000,5.665575927734375,1.0911878017544745,0.3642369245126843,0.05144506841925904
1789564032191545900,5.6755458984375,0.15350246249437333,0.27445202416926623,0.374056563465856
1789564032201515000,5.685514892578125,-0.8053834857046603,0.518643350109458,2.0166307684265075
1789564032211485000,5.69548486328125,-1.3487334070473909,0.45001171243190763,1.239832448954135
1789564032221453800,5.705453857421875,-1.5713883162230253,1.0701339078098535,1.315958534040302
1789564032231424000,5.715424072265625,-1.2923574398308992,0.940039501170814,1.1614499632433055
1789564032241393200,5.72539306640625,-0.7968933052569628,0.730590110526979,1.9291050451867282
1789564032251363000,5.735363037109375,-0.14915712676644324,-0.1888417791619897,1.8079563076779246
1789564032261955000,5.745955078125,1.2556155628889798,0.01819587416499853,0.45973808361105617
1789564032271925000,5.755925048828125,1.407363290670514,0.273109669649601,-0.1777605227751657
1789564032281894000,5.765893798828125,-0.6355477280467748,0.3693351244345307,-0.3242598650418222
1789564032291863800,5.77586376953125,-1.0113532175391913,0.0036170214533805846,0.02034744444200769
1789564032301833000,5.7858330078125,-2.034678612422943,1.0654323059901594,-0.088315914636245
1789564032311803100,5.79580322265625,-0.8370435293376445,0.7379743755593895,0.24051442752573637
1789564032321772000,5.80577197265625,1.609755748540163,-0.21296499754935502,-1.102170091278851
1789564032331742000,5.815741943359375,3.6257144629240035,-1.6190940702497958,-2.0656785847119985
1789564032341711000,5.825711181640625,2.375720831570029,0.29720015481114387,-0.22743034341651944
1789564032351681000,5.835680908203125,0.49603521246016025,0.6995429380953312,-1.0974488349106162
1789564032361650000,5.84564990234375,-1.948306735393405,1.8535446311593056,-1.4281148406676947
1789564032371619800,5.855619873046875,-2.4956238068014382,1.158908754327893,-2.7318074751138686
1789564032381590000,5.865590087890625,-2.0159347489863633,-0.720576666034758,-2.222870403243601
1789564032391559000,5.875558837890625,-1.5675643740206955,0.010671031618118285,-1.535399887996912
1789564032401529000,5.885529052734375,-0.10328034173250197,-0.09094166916310786,-1.4158588779456913
1789564032411498000,5.895498046875,1.5248656345009803,0.03036035921126604,-0.5076730798164383
1789564032421468000,5.905468017578125,1.626381889170408,-0.28054829521775243,-1.443531459377706
1789564032431437000,5.91543701171875,0.2359124501556158,-0.18842793766409158,-0.9081311818651855
1789564032441407000,5.925406982421875,-0.8038070301681757,0.4432283359020948,-0.7269228201910853
1789564032451375900,5.9353759765625,-1.065798508954048,0.599638502536714,0.035766570202936415
1789564032461345800,5.945345703125,0.508393174251914,-0.7939914463356137,-1.219458134771511
1789564032471315000,5.95531494140625,0.5780079777479171,-1.065811952957511,-0.5046953791799024
1789564032481285000,5.96528515625,0.021657705056667326,0.025384616625308987,-0.37850798991676415
1789564032491254000,5.97525390625,-0.3195569480478763,0.24485972672104833,0.2584341881630942
1789564032501224000,5.985223876953125,-0.741229870223999,-0.22339549840986728,0.03213474847264588
1789564032511193300,5.995193359375,-0.7428267840266227,-0.6105681850910186,-0.10193884572936221
1789564032521163500,6.00516357421875,-0.8847481143206357,0.3408955041527748,0.42716677035205064
1789564032531132400,6.01513232421875,0.5327139610379934,-0.45768882293105123,-0.1672856347836554
1789564032541102300,6.025102294921875,1.7283733601361513,-1.283651570805907,-0.704260760397464
1789564032551071500,6.035071533203125,2.549445997881889,-2.4017206574842334,-0.6106922498621046
1789564032561041400,6.04504150390625,1.564398603466153,-1.441733762305975,-1.0566218806121497
1789564032571011300,6.05501123046875,1.1085714827537536,-1.4498597856163977,-0.8259632593315094
1789564032580980200,6.064980224609375,-0.34026889668703075,-0.27538521336615085,-0.43583712967224414
1789564032590950100,6.0749501953125,-0.6312614290297031,0.4157514231726527,-1.9247443657591938
1789564032600919300,6.084919189453125,-0.08826923508346081,0.48468584318906066,-1.9171750995486974
1789564032610889500,6.094889404296875,0.21190204449295996,0.3255006588831544,-0.8646724177584052
1789564032620858400,6.1048583984375,-0.37333471546471114,0.7478069105267524,-2.105096987386793
1789564032630828300,6.114828369140625,-0.28229893827736374,-0.1582806366816163,-1.0433687966115772
1789564032640797400,6.12479736328125,0.08215513611733913,-0.11316840627938508,0.23713395477458835
1789564032650767400,6.134767333984375,0.2588911746829748,0.3268351223573088,-0.7683924563072622
1789564032660736300,6.144736328125,0.5532078830122947,1.3843269907370208,-0.13235230510104448
1789564032670706200,6.1547060546875,0.2518868488788605,0.4124994356393814,-1.010592096973583
1789564032680675300,6.16467529296875,-1.664488040202856,1.0171671645149587,-0.39101927910670636
1789564032690645500,6.1746455078125,-1.7708657634288072,1.2801146288514136,0.7265865009088068
1789564032700614400,6.184614501953125,-0.0766354959130287,-0.02531272043287754,0.5037289087679236
1789564032710584300,6.194584228515625,0.26455110014081,-0.0870689193829894,-0.9175190418049692
1789564032720553500,6.204553466796875,0.07624328172504902,0.8582260180979967,-0.9808701817963271
1789564032730523400,6.2145234375,0.7782605009794235,1.2124988902181386,0.34727749680746345
1789564032740492300,6.2244921875,0.8597650642335415,0.23831804999262093,0.39367943822667
1789564032750462200,6.234462158203125,-0.4844780456572771,1.10957598362118,0.543336952263303
1789564032760432000,6.24443212890625,-0.4465665404140949,-0.04811375030577183,-0.5063317116774618
1789564032770401500,6.254401611328125,-1.0042097755253314,0.5425058717340231,1.3756154226236044
1789564032780371500,6.264371337890625,-1.1583628108829258,0.15396131217777728,2.5494132646560668
1789564032790340400,6.27434033203125,-0.6657710168749094,-0.29360183805823326,0.5102856734676287
1789564032800310300,6.284310302734375,-1.085371808952093,0.12565204027742147,1.7460563163429497
1789564032810279400,6.294279541015625,-0.8431278176873922,0.4800830255687237,1.9575202616795897
1789564032820249300,6.304249267578125,-0.09598726211488247,-0.4188210398763418,2.2985312089055774
1789564032830218200,6.31421826171875,0.4406295515805483,-0.8402271278098226,3.037205549427867
1789564032840188200,6.324188232421875,0.4061462672203779,-0.35365357117801904,1.008703214487061
1789564032850157300,6.3341572265625,0.7697124528646468,-1.6231564973831176,0.7720539744894951
1789564032860127500,6.34412744140625,-0.2581944245904684,-0.5043687410414218,1.412923993537575
1789564032870096400,6.354096435546875,1.3554419647753237,-1.2767092043220996,2.0466766548611224
1789564032880066300,6.36406640625,0.9304051191240549,0.0934127354517579,1.0774885083563626
1789564032890035500,6.374035400390625,0.9251333162009715,-0.6515954842671752,1.1376338380437343
1789564032900005400,6.38400537109375,0.246072609642148,0.42030192608386274,0.7964826055642217
1789564032909974300,6.393974365234375,-0.4738935232788324,0.16779636078476906,-0.351235184924677
1789564032919944200,6.403944091796875,-0.9180179312378167,-0.3108823509439826,0.16128226618301122
1789564032929913300,6.413913330078125,1.6301128923922776,-3.060070292186737,-0.46456090065762395
1789564032939883500,6.423883544921875,1.0761620820581912,-1.3268895317688583,0.4825249388281256
1789564032949853400,6.433853515625,-0.3275356718420982,1.1122270826518534,-0.4354123283889144
1789564032959822300,6.443822265625,1.275669924402237,-0.1546270826101303,0.14828030739929526
1789564032969792300,6.453792236328125,0.9869348155975342,-0.976509575434029,1.2610586307257412
1789564032979761400,6.463761474609375,0.07448094822764396,0.45335751572847366,-0.17068315000114961
1789564032989731300,6.4737314453125,-1.1060235518366097,1.5550640811488032,0.22865398519365115
1789564032999700200,6.4837001953125,-1.0764490823060273,1.8380355118602514,1.7065660174757242
1789564033009670100,6.493670166015625,-1.2287930224150418,0.42039281923770905,2.1389912198126315
1789564033019639300,6.503639404296875,-0.5314525628000497,-1.0186518501147628,3.038799540621042
1789564033029609500,6.513609375,0.4894394674569368,-0.4177770837813616,2.003754043457657
1789564033039578400,6.523578369140625,0.42007367028594017,0.9327665875583887,3.331872094108164
1789564033049548300,6.53354833984375,-0.03763911804258823,1.0899351713448762,1.7327980447106062
1789564033059517400,6.543517333984375,-0.12038345222473144,-0.15470365497767924,2.3498893479600547
1789564033069487400,6.5534873046875,-1.04770404933691,1.0040563385292887,0.8660226633235811
1789564033079456300,6.563456298828125,-1.5441121867626904,1.1796972753345967,2.0843165035560727
1789564033089426200,6.57342626953125,-1.4805699811786412,1.2337763637855648,0.1523770021283999
1789564033099395300,6.583395263671875,-0.06298164909183979,-0.17323241435885428,-0.23566910638641564
1789564033109365500,6.593365478515625,1.6160744301676748,-1.2720835903480647,1.0328297208100556
1789564033119334400,6.60333447265625,1.9018278928130865,-0.47088908076584335,1.0210017742417752
1789564033129304300,6.61330419921875,1.960990275877714,0.39124651199132204,0.3246057558700442
1789564033139273500,6.6232734375,0.7037070720374584,0.8530027304917573,0.3384260087667033
1789564033149243400,6.633243408203125,0.6294722075253725,-0.7382067230105399,0.09676310532558709
1789564033159212300,6.64321240234375,-1.1847656646400688,0.330952786809206,0.3620050372747704
1789564033169182200,6.65318212890625,-1.8164724993497132,0.9493199552133679,-0.19670312365423887
1789564033179151400,6.6631513671875,-1.150568796005845,1.5493603165492416,-0.475477212273702
1789564033189121300,6.673121337890625,0.31517303387522694,-0.4938075995385647,-0.6332955652058124
1789564033199090200,6.683090087890625,-0.11257540882229804,0.5301747979491949,-1.7083615225903688
1789564033209060400,6.693060302734375,0.23198738566637037,-0.340016675491631,-0.7533674672633409
1789564033219029500,6.703029541015625,-0.5942103400081395,1.3257795247003434,-0.880145735091716
1789564033228999400,6.71299951171875,1.0691688621699809,0.7827376463934779,-1.8400734474286435
1789564033238968300,6.72296826171875,0.12081015320420264,0.8729518780648707,-2.859872714012861
1789564033248938200,6.732938232421875,0.1798638151973486,0.6772703160107135,-2.332346092484891
1789564033258907400,6.742907470703125,1.1412538551717997,0.22722470130920408,-1.3118958146460353
1789564033268877300,6.752877197265625,-0.4452729934722185,1.142371753285825,-1.0612487366952001
1789564033278846200,6.76284619140625,-1.75129655508399,1.30224053594172,-2.016202167750895
1789564033288816400,6.77281640625,-1.4279881455481052,0.5068000598415732,-1.2525080983929335
1789564033298785500,6.78278564453125,-0.9670558106511831,-1.3405576993763446,-0.6744969057746231
1789564033308755500,6.79275537109375,-0.26351240474283694,-0.8640937410876154,-0.8846957996115088
1789564033318724400,6.802724365234375,0.7908218763887882,-1.5109236183881758,-0.9120167911268771
1789564033328694300,6.8126943359375,2.390816693893075,-1.8364347986653446,-0.9045642831638455
1789564033338663400,6.822663330078125,2.888629437419772,-2.4468232432752846,-1.3185375907480716
1789564033348633300,6.83263330078125,1.429444774097204,-1.2574495003178714,-1.391333654628694
1789564033358602200,6.842602294921875,0.0024058920979499816,-0.4345999160274863,-2.4027229663945735
1789564033368572400,6.852572509765625,-1.0816612639963625,0.2887538135051727,-3.4362758869126435
1789564033378542300,6.862542236328125,-0.42965047692656516,-0.5210273226365447,-1.2459748972319067
1789564033388511500,6.872511474609375,0.10095043748021125,-0.45969548657834525,-2.3911351121924818
1789564033398480400,6.88248046875,-0.6185819801986218,-0.4638359473839402,-0.8002948573287576
1789564033408450300,6.8924501953125,0.6283025792241096,-1.2005348961800335,-1.017140130377561
1789564033418420200,6.902420166015625,0.8096721228092908,-0.9420318440318107,-1.3311911744855343
1789564033428389400,6.912389404296875,1.4848960276842116,-0.883365720051527,-1.472723505461961
1789564033438359300,6.922359375,1.3741355593293905,-1.0038418189957736,-1.7786987951420246
1789564033448328200,6.932328125,-0.5023948106199503,1.059272906577587,-2.703277546200156
1789564033458298400,6.94229833984375,-2.778924031075835,2.743990957121551,0.04863176456419751
1789564033468267500,6.952267578125,-1.805402239280939,0.765484313775599,-0.29822610032539815
1789564033478237400,6.962237548828125,-1.1061696823090315,-0.6690425858914851,-0.7356241591714322
1789564033488206300,6.972206298828125,0.5545493607491254,0.5556517690330743,1.025472782175988
1789564033498175500,6.982175537109375,0.5766951415836811,1.1925021041110158,0.3907844474375248
1789564033508145400,6.9921455078125,1.7199404628336428,0.7990133661508559,1.1653792655162512
1789564033518114800,7.00211474609375,0.727063397705555,0.4207376871526241,0.17736158658545464
1789564033528083700,7.012083740234375,0.4144499851852655,0.1956473675236106,2.622961608208716
1789564033538053600,7.0220537109375,-1.7873083641856908,1.2105758132010698,0.7009658835705369
1789564033548022800,7.032022705078125,-1.1636311066746712,0.7257318568408488,2.9398858696654435
1789564033557991700,7.04199169921875,-1.0338310068070888,0.8941042639479041,2.5671517504423855
1789564033567961600,7.051961669921875,-0.555033344873786,0.6008128070130944,2.773270827619731
1789564033577931500,7.061931640625,0.23346096535027025,-1.08188981205523,0.45065724379383026
1789564033587900700,7.071900634765625,-0.6332406201481818,0.0189531222730875,1.7787703990735113
1789564033597870800,7.081870849609375,-0.3791933783650398,0.27057255238741634,1.626922864179313
1789564033607839700,7.09183984375,0.10564181016683578,-1.3833938015401364,0.29618155235312876
1789564033617809000,7.101808837890625,-0.3983902462661266,-0.5356383240520953,-0.5209240814577788
1789564033627778800,7.11177880859375,0.3532902908235788,-0.001542261005938053,-0.33770160348229106
1789564033637747700,7.121747802734375,0.9239338772833346,0.036682547970116136,0.85386731143184
1789564033647717600,7.131717529296875,0.6655027213275432,-0.0020256606087088584,-0.9006316198900342
1789564033657686800,7.141686767578125,-0.8123714448958634,0.44021161842942236,-1.5114482267841696
1789564033667656700,7.15165673828125,-0.7489028890699148,0.03369739467948675,-1.1072441066075116
1789564033677625600,7.16162548828125,-0.9874743293017149,-0.1516924904629588,-1.3307188807986676
1789564033687595800,7.171595703125,-0.4915618664383888,-0.2672258723080158,-1.6577889809556305
1789564033697565000,7.18156494140625,0.8086071239262819,-0.6297039704546332,-0.1862411864758469
1789564033707534800,7.191534912109375,1.0224608870089054,0.06347177069634198,-0.4932792648155242
1789564033717503700,7.201503662109375,2.0940221972733735,-1.2411509842067956,-0.5112681451663375
1789564033727473700,7.2114736328125,0.7428460732489823,-0.1793880143791437,-1.109082135689631
1789564033737442800,7.22144287109375,0.6900386121690273,-0.6913268984138965,0.07522601270759478
1789564033747412700,7.231412841796875,-1.3275105862766503,0.7251990651383996,0.24808270735554397
1789564033757381600,7.241381591796875,-0.20119711060523984,0.2776429291650653,-0.38003498028833416
1789564033767351600,7.2513515625,-0.5060813901782035,-0.21897329805344343,1.3022427278988062
1789564033777320700,7.26132080078125,-0.2155079600304365,-0.8384864216223359,0.9604325200539082
1789564033787291000,7.271290771484375,0.7141501401185989,-0.6625275049090386,0.5504493415517732
1789564033797259800,7.281259765625,1.6560241632401942,-0.6294821443974972,-0.7999453863039613
1789564033807229700,7.291229736328125,1.5691852532207964,-0.7957873898416757,1.133102989681065
1789564033817198800,7.30119873046875,1.6718758123666047,-0.6496142473220825,0.08427740723462775
1789564033827168800,7.311168701171875,0.6036562137454747,0.6078764617890119,0.040551279162243006
1789564033837137700,7.3211376953125,-0.1321931324839592,0.6840212515756487,0.8298345478069037
1789564033847107600,7.331107666015625,-0.9844044203370809,0.6514961155459285,1.8086765847764907
1789564033857076700,7.34107666015625,-1.5905729091644287,0.6504121197015047,-0.17211782244676724
1789564033867047000,7.351046875,-0.8901303918808698,1.2688733961299061,0.1816275917331688
1789564033877015800,7.361015869140625,0.2503781978815794,0.19954028330892323,1.131627948692441
1789564033886985700,7.37098583984375,0.5484674104869366,0.8579805189043282,1.8505480796918272
1789564033896955000,7.380954833984375,0.7616863827973603,-0.06757131496965885,0.24801026317384092
1789564033906924800,7.3909248046875,-0.7939765410274267,1.277180328965187,1.6349219001092015
1789564033916893700,7.400893798828125,-1.6386194394528866,1.1027736101299523,-0.7301551531758159
1789564033926863600,7.410863525390625,-0.12867431070804594,-0.7405225987374782,0.6147919402658939
1789564033936832800,7.420832763671875,-1.1313321806162595,1.1597598181992768,0.7298595312301069
1789564033946803000,7.430802978515625,-0.7774532762497663,0.9751303960353136,0.5780850615721196
1789564033956771800,7.440771728515625,-0.31258886260092256,0.09371464100778103,-0.8081223360840231
1789564033966741800,7.45074169921875,-0.09665010993778705,-0.20808891594558954,-0.3505393846802413
1789564033976711000,7.4607109375,-0.48917643260657784,-0.17589140443503856,-1.1178259255722165
1789564033986680800,7.470680908203125,-0.3780424547642469,-0.8501496791481972,-1.782181961082667
1789564033996649700,7.480649658203125,-0.7354810974389314,0.6179091955035925,-2.567385266937315
1789564034006619600,7.49061962890625,0.9166250155746937,-0.1854416153296828,-1.5615271396830677
1789564034016588800,7.5005888671875,0.8859124819248915,0.48499651657342907,-0.05519740669010207
1789564034026558700,7.510558837890625,0.0038221886366605756,1.5842238323986528,-0.11600878080446272
1789564034036527600,7.520527587890625,0.16173369974493979,0.9401075979709624,-1.185490325652808
1789564034046496500,7.53049658203125,-0.20336393325030802,0.3122404875546694,-0.43206206811293957
1789564034056467000,7.540467041015625,0.04026069871783256,-0.9046423168361186,-0.4331169109281152
1789564034066435800,7.550435791015625,0.24597324092090128,-1.2082917939171194,-1.5623345105431974
1789564034076405800,7.56040576171875,0.48223874229788777,-0.3124868635311723,0.38193065784182395
1789564034086374700,7.570374755859375,1.058051255828142,-0.5821244731560349,0.04912747565926984
1789564034096344800,7.5803447265625,0.9074363314688205,-0.658419777329266,-0.35815599716380236
1789564034106313700,7.590313720703125,0.6296902341902255,-0.9071943394064903,-1.3533867858111857
1789564034116283600,7.60028369140625,-0.38129999525547026,0.05011369195133447,-0.8726216231971978
1789564034126252500,7.61025244140625,0.3896726868033409,-0.2635270177900791,-0.6454556663379073
1789564034136222700,7.62022265625,-0.605013473573327,0.8136106313019991,-1.3088139229826627
1789564034146192000,7.63019189453125,-0.2022492500066757,-1.226567747581005,-1.0126758444450794
1789564034156161800,7.640161865234375,-0.3673731767117977,-1.1681064985230565,-0.48944509348012505
1789564034166130700,7.650130615234375,0.16417174054682254,-0.7367530170708895,-1.15597496589832
1789564034176100600,7.6601005859375,0.8344429914504289,-0.7162278231754898,-1.2462388088651
1789564034186069800,7.67006982421875,0.6983370694369078,-0.612950988574326,-1.0188600860379635
1789564034196039700,7.680039794921875,0.6062637658953667,-0.24747984609156845,-0.7440652397803962
1789564034206008600,7.690008544921875,-1.2938614146530627,1.1080237857431172,0.19010648360187188
1789564034215978500,7.699978515625,-1.530718452182412,0.19904227065891025,0.1295046697181184
1789564034225947600,7.70994775390625,-2.6290771684795615,0.4564776935756206,-1.5272870164290069
1789564034235917800,7.719917724609375,0.21779227157533168,0.045749943783879275,1.3447666953735053
1789564034245886700,7.72988671875,1.088572066298127,-0.44375294429808854,0.16357854216033593
1789564034255856600,7.739856689453125,1.5305278980463741,0.2499880295202136,0.05579884318197146
1789564034265825800,7.74982568359375,1.631619205302,-0.22423808671385048,0.6670952512159943
1789564034275794700,7.759794677734375,0.9536158988416195,-0.01939969699680805,0.8620707108274102
1789564034285764600,7.7697646484375,-0.7256143679410219,0.9822036954224109,1.0672692390937357
1789564034295733800,7.779733642578125,-0.3429956913024187,0.567459695726633,-0.27290273063434284
1789564034305703700,7.78970361328125,-0.7977180656433105,0.9891209274649619,0.7237978200383484
1789564034315672600,7.799672607421875,-0.2719651757895946,0.9217670546382665,0.6563837414570153
1789564034325642800,7.809642822265625,-0.1188081657320261,0.2673214416369796,1.1201068761162458
1789564034335612000,7.81961181640625,0.13418869021534918,-0.2760769950225949,0.37090756138302383
1789564034345581800,7.829581787109375,0.19056582647562026,-0.37375644800812,1.0578442620139568
1789564034355550700,7.83955078125,0.5092138429850339,-0.8536977270185947,1.278807491775602
1789564034365520600,7.849520751953125,-0.332323490640521,0.11771657110303639,1.0715678130704909
1789564034375489800,7.85948974609375,0.33895372243523597,-0.6188789173185825,0.06550947336929384
1789564034385459700,7.869459716796875,0.3843032687246799,0.1451817933946848,1.177228401003033
1789564034395428600,7.8794287109375,0.6935667862951755,0.42019641988277434,2.565897366467118
1789564034405398800,7.889398681640625,0.34873218912780285,0.8351780277267098,1.9038851176038383
1789564034415368000,7.899367919921875,-1.1320727698504924,0.7765946135938168,0.9171528388410806
1789564034425336800,7.9093369140625,-2.6169173596084114,1.1022545546919107,1.2539334550209342
1789564034435306800,7.919306640625,0.853225433331728,-1.4109507937684653,-1.1118578840132802
1789564034445276000,7.92927587890625,0.8310480883151292,-0.8934393702983856,-0.37757074559926984
1789564034455245800,7.939245849609375,-0.938724619179964,1.102736785250902,1.6057959049984811
1789564034465214700,7.949214599609375,-0.13212182081341742,0.29534166746288537,-0.858702330372855
1789564034475184600,7.9591845703125,0.6794201875209808,-0.7182257189944387,-0.7757133007146417
1789564034485153800,7.96915380859375,0.7709931403249501,-0.656413113681972,-0.13626949681108816
1789564034495123700,7.979123779296875,1.0800514907121657,-0.04566664941459894,-1.2015148471280932
1789564034505092600,7.989092529296875,-1.013255836290121,1.5206538620248435,-0.49993386386651545
1789564034515062800,7.999062744140625,0.5686141264587641,-0.9360875486746429,0.4392602725213393
1789564034525031700,8.00903173828125,0.24005671035349369,-1.748547548636794,0.17605496096629647
1789564034535001900,8.019001953125,-0.6521002189189196,-0.48417146392613647,0.4402699975531548
1789564034544970800,8.028970703125,0.46726153791844843,-0.22652882799953222,0.6314379546403884
1789564034554940700,8.038940673828124,1.2918278629988431,-0.8920981848224997,0.8498471890702843
1789564034564909800,8.048909912109375,1.1039800633102654,-1.0829729311168192,0.8154197996158152
1789564034574878700,8.058878662109375,0.42010464994609353,-0.32511107504367825,1.2274364932395516
1789564034584848600,8.0688486328125,0.010231471157073974,-0.2787953140705824,1.1842523082904517
1789564034594817500,8.078817626953125,-1.0153589460492134,0.196193018707633,0.44710451974831517
1789564034604787700,8.08878759765625,1.4579238496065139,-2.524692664897442,-0.7173435293324292
1789564034614756900,8.0987568359375,-3.5197055730104445,4.419118464760482,-0.02539090023562312
1789564034624726800,8.108726806640625,1.378076990431547,0.06585778905004262,-0.7089639696523546
1789564034634695700,8.11869580078125,2.7850077349036932,-3.87795407076329,1.3862752021953462
1789564034644665600,8.12866552734375,-2.057671949997544,4.609136594225466,0.24438304912000894
1789564034654634800,8.138634765625,0.28648820666074754,0.6579539133831859,-0.17015790228433905
1789564034664604700,8.148604736328124,-0.09457096557617187,-0.030464988629519938,-0.47510706378705797
1789564034674573600,8.158573486328125,-2.191840766468644,3.067815499486029,-0.7711252422720194
1789564034684543700,8.168543701171876,-1.0571212815016509,2.007899326568842,-0.1352098682229407
1789564034694513000,8.178512939453125,0.7552168945223092,0.06129822604954242,0.9403267936795949
1789564034704481800,8.188481689453125,-0.17813187683820725,0.07040273900330066,0.2457661009762436
1789564034714451700,8.19845166015625,-0.6313222193062306,0.27313743443936106,-1.2366582028321922
1789564034724420900,8.2084208984375,-0.66599371971488,-0.6941025006070732,-0.8494774059098213
1789564034734390800,8.218390869140626,-0.8969856646031141,0.39553777944445606,-1.0359395964588969
1789564034744359700,8.228359619140624,0.5592436560451984,-0.7198489362820982,-0.538228815469332
1789564034754329600,8.23832958984375,0.4252905281513929,-0.8704489553332329,-1.8279978097096083
1789564034764298800,8.248298828125,-0.005824176108837127,0.8952274227589369,-1.133679328264296
1789564034774268700,8.2582685546875,-0.37417116628885266,0.5414829584270715,-0.16377311488436533
1789564034784237600,8.268237548828125,-0.6339169119745492,-0.4090253297880292,-1.3386409059695898
1789564034794207700,8.278207763671874,-0.41851124327480793,-1.0462889218419789,-1.892141488318145
1789564034804177000,8.288177001953125,-0.07233633741438389,-0.7503054493442177,-0.9905416809830814
1789564034814145800,8.298145751953125,0.26656653161644933,-0.6220321206524968,-0.4771051788017153
1789564034824115700,8.30811572265625,0.7409756032019853,-1.4649258373230696,-0.1487206441784743
1789564034834084900,8.3180849609375,1.206110650485754,-1.5729092421799897,-0.40338016350790856
1789564034844054800,8.3280546875,1.5292477951079606,-2.162677508087456,-0.034502116924803705
1789564034854023700,8.338023681640625,-0.397483068293333,-0.3604360709249973,0.13617417407729662
1789564034863993600,8.34799365234375,-0.1652589512616396,-0.6063362466096878,1.3797586599081755
1789564034873962800,8.357962646484374,-0.35981238606870175,-1.0112217001140118,0.562848913995549
1789564034883933000,8.367932861328125,0.49619537145793435,-2.63764041416347,1.1088473040204494
1789564034893901800,8.37790185546875,1.4299153142184018,-2.4924361166760325,-0.2862127872528508
1789564034903871700,8.387871826171875,0.671788085207343,-0.9573045242264866,1.0768344283618032
1789564034913841000,8.3978408203125,1.8139602242678403,-1.1526511552378536,0.9614652971677482
1789564034923809800,8.407809814453126,3.5590994257658717,-2.4343103831827637,-0.4304009665003046
1789564034933779700,8.41777978515625,3.375993267646432,-2.2293480748251078,0.8259273112352937
1789564034943748600,8.42774853515625,-0.43057869768738743,0.34470746365636584,1.321608668756485
1789564034953718800,8.43771875,-4.401621094253659,1.3616197766274214,-0.5075078427847475
1789564034963687700,8.447687744140625,-5.36470800127387,1.5559364800691604,-0.1648365976637229
1789564034973657900,8.457657958984376,-1.3222837915390728,-1.018802364501357,2.604053494121134
1789564034983626800,8.467626708984374,3.318337782013416,-1.8558236820071934,-1.8071062667198479
1789564034993596700,8.4775966796875,5.8547419274926185,-2.584937290240824,-2.6242282671436667
1789564035003565800,8.48756591796875,5.243992540615797,-1.9763398207008838,-1.9883330408334732
1789564035013534700,8.49753466796875,0.004350011903047561,0.24081892689764497,0.32797676667310294
1789564035023504600,8.507504638671875,-4.567144249409437,1.7578753489524126,-2.1380007474705574
1789564035033473800,8.517473876953124,-6.0124517785489555,2.9658082464292645,-0.4714670998495072
1789564035043443700,8.527443603515625,-3.1294752523243425,1.876658672504127,-1.1804344305027274
1789564035053412600,8.53741259765625,1.6283184101909398,-0.5920353340566158,-0.8102570100251585
1789564035063382500,8.547382568359374,3.7909278214782476,0.21815584419071674,2.9655948959395286
1789564035073351700,8.5573515625,2.3798177454948424,1.1474138391062616,-0.9875757438495755
1789564035083321900,8.56732177734375,0.21178864724636076,1.6313775055006146,0.8976529694054275
1789564035093290800,8.577290771484375,-1.6115379557818172,2.2227242727711793,1.5126123021274804
1789564035103260000,8.587260009765625,-4.577168799817562,5.025042331176996,2.2280070354796946
1789564035113229800,8.597229736328124,-1.6918804895192383,1.452144389422238,0.18968707087971268
1789564035123198700,8.60719873046875,0.3045446723550558,1.7197174677327274,-1.4572843826591968
1789564035133168600,8.617168701171876,2.071216491225362,0.5456953154250979,2.8645900979235766
1789564035143137800,8.6271376953125,0.7170821019172668,0.03321545638144016,1.4659887903794646
1789564035153107700,8.637107666015625,-2.019752845969796,1.2644745766490697,-3.4166049717590212
1789564035163076600,8.64707666015625,-3.061144643419981,1.3763324848517775,0.047622902615484776
1789564035173046800,8.657046875,-0.9709241765171289,0.03947130190581083,0.6681021632362156
1789564035183016000,8.667015869140625,1.992783005979657,-1.0642609241232275,-0.1811327208883129
1789564035192984800,8.67698486328125,3.175381847974658,-1.1566253195658325,-0.4246195700872689
1789564035202954800,8.686954833984375,3.895980433580279,-1.7280869444102047,0.12214666250497103
1789564035212923600,8.696923583984375,0.7411866156041622,0.20215134259015322,-0.032748405125271524
1789564035222893800,8.706893798828125,-1.8929349767833947,1.1426432637035846,-0.34229875854682174
1789564035232862700,8.71686279296875,-3.0268191799700257,1.2074229021281002,-1.1775682274166495
1789564035242832600,8.72683251953125,-1.5528788460642098,-0.8609782394155859,0.5513546928936616
1789564035252801500,8.736801513671875,-0.044698973426222796,-0.4735486553639173,-1.487837487963587
1789564035262772000,8.74677197265625,1.3331675891250372,0.028869536131620407,-1.4677569690957664
1789564035272740900,8.756740966796874,2.254765716937184,-1.269828504897654,-1.2531697771720587
1789564035282709800,8.766709716796875,1.0229600687026976,-0.28430910905599593,-0.2363483025559224
1789564035292679700,8.7766796875,1.5540373684495687,-0.7126359361633658,0.3923046062095091
1789564035302648800,8.78664892578125,1.1996774025678634,-0.8868205366805195,1.370774704594165
1789564035312618800,8.79661865234375,-0.9404232397913932,-0.33476854570508,-1.0263516839023679
1789564035322587600,8.806587646484376,-3.354147346541285,1.268724343048036,0.1209872359373141
1789564035332557600,8.8165576171875,-4.043833492010831,0.9261837020367384,-0.6781227681215852
1789564035342526700,8.826526611328125,-0.7332073072880506,-1.1590960935935377,1.3726809766069055
1789564035352495600,8.83649560546875,3.574256078365445,-3.2970702453181144,0.5487438528081402
1789564035362465500,8.846465576171875,5.380781184196472,-2.5795477061569687,0.8953381165917962
1789564035372435000,8.85643505859375,3.169866883945465,-0.3949126332834363,-1.3343766726538537
1789564035382404900,8.86640478515625,-0.49559682104289526,1.184373742713034,-0.7323997172322124
1789564035392373800,8.876373779296875,-2.7885499375551936,2.1033502898499368,-1.2084767950952053
1789564035402343700,8.88634375,-2.0314391921103,1.3980673467978835,-0.2990002447693609
1789564035412312800,8.896312744140625,-1.1934510753989218,1.3559668654322623,1.308392482700199
1789564035422281700,8.90628173828125,-1.0146744709163904,2.0732515041843054,1.845026101399958
1789564035432251600,8.916251708984374,-1.2824188141405581,2.118331293621659,0.07204565650527366
1789564035442220800,8.926220703125,-0.09346855729222298,0.23291531416624783,0.30491650134213266
1789564035452190700,8.936190673828126,0.4212333617150783,0.5108265388786792,0.9777340757276862
1789564035462159600,8.94615966796875,-0.44146307979524135,1.5117480865135788,0.8584344732169061
1789564035472129800,8.9561298828125,-0.8983686433941125,2.014791424170136,-0.9665350016474723
1789564035482099000,8.966098876953126,-0.5047960265427828,1.0592208841294048,-1.600033395949006
1789564035492068900,8.97606884765625,0.9106021020233631,-1.0029986461699008,0.011295465393085033
1789564035502037800,8.986037841796875,0.40225452047884463,-0.04142331275641918,-0.015337653455976395
1789564035512006700,8.996006591796874,-0.500634815210104,0.4885752518430352,-0.43382140593566
1789564035521977000,9.00597705078125,-2.0031857420504093,0.5168573434755206,-0.7375522046245634
1789564035531946200,9.0159462890625,-1.35742583206892,-0.09961129783093929,-0.9317631096042692
1789564035541916200,9.025916259765625,1.0076005870074034,-1.07183778911829,0.23785437800362705
1789564035551885000,9.035885009765625,1.9031606027215717,-0.2491664840042591,-0.2672655101986602
1789564035561855000,9.04585498046875,0.6003372984558344,1.045128645890951,-1.5675214116618037
1789564035571824000,9.05582421875,-1.035725442251563,1.1850769225463271,-0.2122686675819568
1789564035581793000,9.06579296875,-0.5768085388302803,0.4151981732040643,0.2704181290106848
1789564035591763000,9.075762939453124,-0.3071510554611683,-0.18296704190969465,0.8925868451222777
1789564035601732000,9.085732177734375,0.10362111799418926,-0.813931533819437,0.7828216714151203
1789564035611702300,9.095702392578126,0.6944166811227798,-1.0165095773890613,0.950925636844337
1789564035621671200,9.105671142578124,0.76573419688344,-1.1967156301528215,1.5167108234874904
1789564035631641000,9.11564111328125,0.01606090796291828,-1.0143234655216335,2.0416801617480815
1789564035641610200,9.1256103515625,1.2427601729691027,-1.1306491667881606,1.8295131827086208
1789564035651579100,9.1355791015625,1.6246020200163125,-0.36539486237615343,1.2799858879052102
1789564035661549000,9.145549072265625,2.260917225304246,-0.910777458590269,0.6873940890096127
1789564035671518200,9.155518310546874,-0.04738192889988422,-0.8250798275604844,-1.4705116746313869
1789564035681488100,9.165488037109375,-3.703644090300798,1.0871315121009946,-1.529665582128614
1789564035691457000,9.17545703125,-3.729611475250125,0.3429281790241599,0.35760585246775295
1789564035701426000,9.185426025390624,-0.569658667075634,-0.8155264017954468,-0.415992392321676
1789564035711396000,9.19539599609375,4.551228887397051,-4.002384460291267,-2.0656023046053944
1789564035721365200,9.205365234375,5.513880910131335,-3.679231533578038,-0.6099392760703339
1789564035731335200,9.215335205078125,3.8945027622431514,-2.586192843259871,-0.6957189958930016
1789564035741304000,9.225303955078125,0.48884442417323587,-0.7834560237959027,-0.553625268174149
1789564035751274000,9.23527392578125,-2.940247396454215,0.1994265938013792,-2.321534044960886
1789564035761243100,9.2452431640625,-3.5796933009833096,0.6556330692201853,-0.09454869894543662
1789564035771212000,9.2552119140625,-1.7856442303657531,0.370375281137228,1.1320037962675094
1789564035781182000,9.265181884765624,0.6255401287734508,0.1570730144575238,-0.44741322037130593
1789564035791151000,9.275151123046875,2.532165777257085,-0.5563160781607032,-2.2258030956946313
1789564035801121000,9.28512109375,1.2404817066431044,0.9364335856333375,-0.9019256052233279
1789564035811090000,9.29508984375,-0.23192717991173267,1.9251421329051255,-0.20588663839465007
1789564035821060000,9.30506005859375,-3.4781840605765577,3.7717820992425084,-0.7474061477061361
1789564035831029200,9.315029296875,-3.544856380879879,3.8492452781513333,-1.5773692903287708
1789564035840998100,9.324998046875,-1.494171805551648,1.5899319809123873,-1.3967062875777483
1789564035850968000,9.334968017578126,0.5066758489400148,0.9389555053263902,1.2407586238883435
1789564035860937200,9.344937255859374,1.6972312028974295,-0.5191197354495525,-0.0942575705117546
1789564035872776000,9.35677587890625,1.6974159118145704,-0.5205076826766133,-0.11030865120040252
1789564035882746000,9.36674609375,1.2604390375226735,-0.49100598612129687,-1.777690056490898
1789564035892715300,9.37671533203125,-1.4800485876530407,0.2752951969951391,-0.2842003331855871
1789564035902684200,9.38668408203125,-1.479800165849924,0.2738505511447787,-0.29397562154037876
1789564035912654000,9.396654052734375,-1.8775579594314098,0.9037567661732435,-0.8316082794811576
1789564035922623200,9.406623291015626,0.6480196716070175,-0.10913988141566515,-1.3223470660336314
1789564035932593200,9.41659326171875,2.566408823120594,-1.1884551668077707,0.3748039842996746
1789564035942562000,9.42656201171875,2.051747820645571,-0.36783787161409853,-0.6406153136346489
1789564035952532000,9.436531982421876,0.82955463488698,0.34738808104246854,-1.3375202313765884
1789564035962501000,9.446501220703125,-0.8608727332144975,-0.369763578979671,1.1267955600999295
1789564035972470000,9.456469970703125,-2.1093039375573395,0.3014972674831748,0.7700490644078701
1789564035982440000,9.46643994140625,-1.5299287631094456,0.05297843373268842,-2.6862866639107463
1789564035992409300,9.476409423828125,-0.44479543908834457,-0.35136224537044763,-2.8907720024064183
1789564036002379300,9.486379150390626,0.9410252973377704,-0.5955675998359918,-2.053636703132093
1789564036012348200,9.49634814453125,2.271472521588206,-0.9916188817605376,-1.7234084312051534
1789564036022317000,9.506317138671875,1.3329676826387642,0.01992518217563629,-2.542600369770825
1789564036032287200,9.516287353515626,0.20343290683329104,-0.4592608945533633,-1.343156775958836
1789564036042256100,9.526256103515625,-0.4376730398625135,0.5864207090452314,-0.8060917070392519
1789564036052226000,9.53622607421875,-3.307552184104919,2.3536451933622358,-1.9275965403199196
1789564036062195000,9.54619482421875,-2.8243419664263723,1.779282586379349,1.4298837500363588
1789564036072164000,9.5561640625,-0.046207624423503874,-0.3128042589172721,3.1963921950384973
1789564036082134000,9.566134033203125,3.3987446131587027,-2.5194208619743583,2.1317745664320884
1789564036092103000,9.57610302734375,2.5146856501460073,-0.3052481444492936,-0.17303564967773855
1789564036102073000,9.586072998046875,2.131457901698351,-0.6889069777905941,0.24926669297572224
1789564036112042200,9.596042236328126,-0.26137247010469433,-0.1033662664502859,2.6677710562720893
1789564036122012200,9.60601220703125,-2.1236124488949772,1.218941782747209,2.032989782553166
1789564036131981000,9.61598095703125,-2.68210265622437,0.49587066954821346,0.5733830213610083
1789564036141950200,9.6259501953125,-2.3901088378846644,1.7140052275657653,1.4909388149797915
1789564036151920000,9.635920166015625,0.33113574216067787,-0.8601341898068785,-0.5760903075583279
1789564036161889000,9.645888916015625,1.2895277693629263,-0.8705328342244029,0.11474537327252328
1789564036171859000,9.65585888671875,-0.13966624484360218,1.0114829813987016,-0.15299096930827943
1789564036181828000,9.665828125,-1.3108932134747504,2.7405674124136565,0.2202300931815058
1789564036191797000,9.675796875,-1.2959715386748314,1.5240639627292751,0.4094663880864158
1789564036201767200,9.68576708984375,-0.6528595128536224,1.0568985786616802,-0.21652890057601035
1789564036211736300,9.695736328125,0.18390870667397974,1.2637404171556235,0.09858874985016881
1789564036221706200,9.705706298828124,2.2539128995001314,-0.318485227163136,1.5958327293887733
1789564036231675100,9.715675048828125,1.0002040470153093,1.0281892015278338,1.9173175767593085
1789564036241644000,9.72564404296875,-0.7238041036486625,1.318971305990219,-0.5527891461435706
1789564036251614200,9.7356142578125,-2.0415479136705397,0.5741904652863741,-0.4137323384352028
1789564036261583000,9.7455830078125,-2.8447470410734415,2.0496458799302575,1.1903324319217354
1789564036271553000,9.755552978515626,-0.5803121630370617,1.129891626419127,-1.5596964171245693
1789564036281522000,9.76552197265625,1.175090073800087,-0.011524141316115856,-1.8522705195702611
1789564036292115200,9.776115234375,2.0747797366648912,-0.09438917926847934,-1.1507503631178289
1789564036302084000,9.786083984375,1.4479641811281443,0.534128504011035,-1.7805961531959473
1789564036312053200,9.79605322265625,-0.5513888508915901,0.9530924594894051,-0.811809134837985
1789564036322023200,9.806023193359374,-1.3355816645294427,0.7325909289553761,-0.27453403989691283
1789564036331992000,9.815991943359375,-0.12719605484902857,0.25928368113189937,0.13805661768987773
1789564036341962000,9.8259619140625,1.8326280998587607,-1.3788549890667199,-0.6012544863659888
1789564036351931100,9.83593115234375,3.2998025928914547,-2.1825220262423155,-1.4837524106070399
1789564036361900000,9.845900146484375,1.8203741829633713,-0.5541609459534287,-0.21010270345341414
1789564036371870000,9.855869873046874,-0.4076619324803352,0.6897177096515894,0.9401568439401685
1789564036381839000,9.865839111328125,-1.8422756336480377,0.11361907265633343,1.0276979108795523
1789564036391809300,9.875809326171876,-2.2384593097805974,-0.4991615277871489,-1.1852965566463767
1789564036401778200,9.885778076171874,-1.5102432349085806,-0.1012944286122918,0.8059121857538819
1789564036411748000,9.895748046875,1.2052426354795693,-1.690995523378253,0.15003358080741017
1789564036421717200,9.90571728515625,1.2515396917521953,-1.2066387660130857,-1.9521280472472309
1789564036431686100,9.91568603515625,2.8279502200514077,-3.3597640173792835,-2.9177222609132527
1789564036441656000,9.925656005859375,1.6420657805144785,-1.9246593178242444,-1.5992328932210802
1789564036451625200,9.935625244140626,-1.1470534813612698,-0.012845160786807537,-1.7866284190975128
1789564036461595100,9.94559521484375,-0.1029395654708147,-1.4765800347596405,-2.1089790895171463
1789564036471564000,9.95556396484375,0.03447860818505287,-1.1165502065479755,-2.5875980338826774
1789564036481533000,9.965532958984374,0.22099486700892448,-1.985913996993005,-2.3288499209322033
1789564036491503000,9.975503173828125,-0.9563286649316549,-0.3588467559069395,1.005600791492313
1789564036501472000,9.985471923828126,-1.1409113253444432,-0.38517917477637525,-0.2300642721166834
1789564036511442200,9.995442138671875,0.25345921276211736,-1.7795035356536506,-1.313168318799883
1789564036521410800,10.005410888671875,0.5448077189356089,-1.065386713282764,-0.023970694706775247
1789564036531380000,10.0153798828125,1.0061755226403475,0.3821171568572521,0.5558272717304528
1789564036541350000,10.025349853515625,-0.4819675241410732,2.228290674726665,0.7034995667666196
1789564036551318800,10.03531884765625,-1.310547176516056,3.1221295657366515,-0.4260288523633033
1789564036561289000,10.0452890625,-1.3496107744038104,3.2013919030219316,0.6977950715146959
1789564036571257900,10.0552578125,0.28122750965356824,1.48819068531543,-0.15592501346617937
1789564036581226800,10.065226806640625,1.3048510107010602,1.2882803996503351,-0.35726208053138103
1789564036591197000,10.075197021484374,0.7564590035378933,2.939406269454956,0.790276298270002
1789564036601166000,10.085166015625,-1.178597789660096,3.5233459753394123,-0.1748919816015288
1789564036611136000,10.095135986328126,-1.6918097623705863,1.3930077253207565,-1.3421503753952682
1789564036621105000,10.10510498046875,-1.0309487293690442,-0.25114742868840695,-0.5716319399099796
1789564036631074000,10.115073974609375,1.4444108725607394,-1.8324656027734278,-1.2479456127829849
1789564036641044000,10.1250439453125,2.182587200433016,-2.493022392131388,-0.15762871211152524
1789564036651012900,10.135012939453125,-0.5563876820921898,-0.549949173477292,0.6855947845026851
1789564036660982800,10.144982666015625,-2.9314456658393144,-0.2616881119251251,0.6208004599656909
1789564036670952000,10.154951904296874,-1.4062486074268816,-1.9081150102585553,2.3121312797129154
1789564036680920800,10.1649208984375,0.293799990978837,-1.357377609013021,2.254451974812895
1789564036690890800,10.174890869140626,1.5712959617644549,-1.151779340839386,1.5899106458634138
1789564036700860000,10.18485986328125,0.4343932875394821,-0.6076593119069934,2.0633397665008903
1789564036710830000,10.194830078125,0.007530980026721954,-1.1772501744434236,2.275601584216952
1789564036720799000,10.204799072265626,-0.4218330811738968,-1.207016951675713,1.3391758896291255
1789564036730768000,10.214767822265625,0.6878092456817626,-1.9380764332801101,0.9137310476988554
1789564036740737800,10.22473779296875,0.8598626793891191,-1.6573483975812793,-0.44904177142120894
1789564036750707000,10.23470703125,1.5662123748898504,-1.4473130237430334,-0.1209377799055539
1789564036760676900,10.2446767578125,0.7788719108760357,-0.46040071223825213,-2.1411801081590354
1789564036770645800,10.254645751953126,0.04663607896864414,-0.023040391586720943,-1.3036983335345982
1789564036780615000,10.264614990234374,-0.08554244046807288,-1.1879381571963428,-0.5012635415676981
1789564036790584800,10.274584716796875,0.3951233534246683,-0.23140607864707707,-0.06573656012343708
1789564036800553700,10.2845537109375,2.0043430953919885,-0.7502312150642275,-0.8024598533429205
1789564036810524000,10.29452392578125,2.4391081388533116,0.1537365635111928,-0.0069847077881917356
1789564036820493000,10.3044931640625,1.7675521088361739,-0.16464344971179962,-0.3407037809729576
1789564036830462000,10.3144619140625,-0.17801380341649053,0.9599038930699229,0.5171070073876529
1789564036840431900,10.324431884765625,-0.8734721025466918,0.7764677723437547,1.1541969964403658
1789564036850401000,10.334401123046876,-1.5976859560400247,0.8042039205312729,0.09663620927659794
1789564036860371000,10.344370849609374,-0.7142068387418985,-1.1274208523914218,-0.916620631660521
1789564036870339800,10.35433984375,-1.0867284842580556,0.8820952617242932,0.2379000803088769
1789564036880309000,10.36430908203125,-0.09766834706962108,0.8343006603702903,-0.09335291328961029
1789564036890279000,10.37427880859375,-0.3583054886370897,1.2080252519354224,0.5925626458663493
1789564036900247800,10.384247802734375,-1.3699667492121457,1.929388099911809,-0.4670871311996132
1789564036910218000,10.394218017578124,-1.2844821764111518,1.539585064727068,-0.39896727896910156
1789564036920187000,10.404186767578125,-0.7024345678836107,1.000430549247563,-1.2934652549423276
1789564036930156000,10.414156005859375,-0.36448505405485626,0.6779261495709419,-0.5218159522635862
1789564036940126000,10.4241259765625,-0.36434126166999337,0.9605503742799162,0.27407299825642256
1789564036950094800,10.4340947265625,-0.9868255100041627,0.8803525097101926,-0.6369103947021066
1789564036960064800,10.444064697265626,-0.6778174284994601,0.15380232222378254,-0.9939525854051112
1789564036970034000,10.454033935546875,-0.39198797800838947,-0.24542379034459588,-1.015410164779797
1789564036980002800,10.4640029296875,0.09684884738028049,0.0133107324719429,-1.2397079457916318
1789564036989972700,10.47397265625,1.5989736577630043,-0.4325625649809837,0.12761513877762481
1789564036999942000,10.48394189453125,1.2427139957398174,-0.0036786885127425193,-0.3314582886459306
1789564037009910800,10.493910888671875,0.4098410300850868,-0.959478361134231,-0.1808455927763134
1789564037019881000,10.503880859375,-0.6335539238810539,-0.5365279663681983,-0.7375525699507445
1789564037029850000,10.51385009765625,-1.0709674360245465,-0.40117520080953833,-0.25284075207021084
1789564037039820000,10.523820068359376,-0.917877645984292,-0.17890841416865585,-0.45020087832845745
1789564037049789000,10.533788818359374,-0.09747311675846576,-0.3843155436843633,-0.011022100944956764
1789564037059757800,10.5437578125,0.16458207491338253,0.23981939446628092,-0.5915533957585692
1789564037069728000,10.55372802734375,1.101655419754982,-0.28596126017719503,0.28471283101867884
1789564037079697000,10.56369677734375,2.692273921626806,-0.8201029159307479,-0.06464953663828782
1789564037089666800,10.573666748046875,2.908223195683956,-0.2751519891321659,-0.10828690871498547
1789564037099635700,10.5836357421875,2.277560317069292,0.3850131705597043,0.2623353237874806
1789564037109604900,10.59360498046875,-0.15442016186118124,1.4783333081677554,-0.09740997012807055
1789564037119574800,10.60357470703125,-2.6211101351231334,1.7427856241092086,-0.2513325759969652
1789564037129544000,10.6135439453125,-2.510844756808877,-0.06346826356500387,0.35570462195631114
1789564037139513900,10.623513916015625,-1.495456584665179,0.042843116426467896,1.0733772736452518
1789564037149483000,10.63348291015625,0.7593629082858562,-0.8577411571905016,-0.16298830291591584
1789564037159452000,10.643451904296874,1.2953542835593224,0.16007833375334737,-0.46433286405541
1789564037169421800,10.653421875,1.8045073362678288,-0.739329297299683,-1.2984309145256876
1789564037179391000,10.663390869140626,1.3593582614362238,-1.4737760832548141,-0.9155909232866019
1789564037189359900,10.67335986328125,-0.24345979679524898,-1.054438910549879,-0.6089085082504898
1789564037199329800,10.683329833984375,-0.6624579468041658,-1.6874363695919512,-1.3243730189032852
1789564037209299000,10.693298828125,-0.37152445117235183,-2.07616154641211,-0.7488350114654749
1789564037219268900,10.703268798828125,-0.42876492626368995,-1.4529019297912715,-1.3322756087213754
1789564037229237800,10.71323779296875,-0.49979485725462436,-0.10580313820838927,0.24934779538791627
1789564037239207000,10.72320703125,-0.19928513950407503,-0.13176467793881894,-0.017140106617927083
1789564037249177000,10.733177001953125,-1.227188509827852,0.9257654766246676,0.6407229387275875
1789564037259146000,10.74314599609375,-1.1632336317896843,0.9323591758012771,1.6378569306477904
1789564037269116000,10.753115966796875,-0.20002163708508014,0.6025882922530174,0.38323322834037243
1789564037279084800,10.763084716796875,0.919444164648652,0.16803806058615445,1.902866734341532
1789564037289054000,10.773053955078124,1.3335188867807388,0.6437061923220754,2.1719927411824465
1789564037299024000,10.78302392578125,-0.10650164186656474,1.4448206224054096,0.7109278170712292
1789564037308992800,10.79299267578125,-0.47319151248931884,0.8573428055226803,0.6767401546567678
1789564037318962000,10.8029619140625,-1.2004016251891851,1.4069377587348222,0.9764699740760028
1789564037328931800,10.812931884765625,-0.48906245083808897,1.0072978046685457,0.732942299676314
1789564037338900700,10.822900634765626,0.050497430571913714,1.3327838505044578,0.8968562660697847
1789564037348871000,10.832870849609375,0.5631880097568035,0.3277212575420737,-0.7658305699300021
1789564037358840000,10.842840087890625,0.429050172945857,-0.09957008903771639,0.7324534932460636
1789564037368809000,10.85280908203125,0.026167291435599326,0.18330518782287836,0.5072797331172972
1789564037378779000,10.86277880859375,-0.7628244469165801,0.15382015014141798,1.4322482872106135
1789564037388748000,10.872748046875,-1.2224883693128823,-0.21818448576331137,-0.09984877811493352
1789564037398717000,10.882717041015624,-1.1284019723832606,0.425225061699748,0.880369606975466
1789564037408686800,10.892686767578125,-1.1080600261002778,0.5117416078969836,1.3642749673113226
1789564037418656000,10.902656005859376,0.34990357099473474,-0.4517684929713607,0.978184522908926
1789564037428626000,10.9126259765625,1.2764368171215057,-0.9621057870283722,0.09206048059258609
1789564037438594800,10.9225947265625,1.2007535073667763,-0.07221592590510845,0.4083033356564119
1789564037448563700,10.932563720703126,1.3771698124587535,-0.35528935568630693,0.4808388854373246
1789564037458534000,10.942533935546875,0.28090076191723345,1.1094666780278086,-0.33670298436637963
1789564037468503000,10.9525029296875,-0.6252145500808954,-0.6122706050947309,-1.0000028253547846
1789564037478472000,10.962471923828126,-2.2575778517484664,0.27658406776189803,0.0039202421836555005
1789564037488441900,10.97244189453125,-0.5848427922040224,-0.5134373058989644,-1.016108083916083
1789564037498411000,10.982410888671875,1.2067337508201599,-1.0468637991204857,-0.890228883819282
1789564037508381000,10.992380859375,1.4493822312325237,-0.16245324619114399,-0.3396711865222081
1789564037518349800,11.002349853515625,1.919467594400048,-0.5928785068824887,-1.0476955737695097
1789564037528318500,11.012318359375,0.6174041685909032,0.5343737109437584,-0.19638156354967504
1789564037538288400,11.022288330078124,-0.3951479033440351,0.6810261614128947,0.28897085378933696
1789564037548257300,11.03225732421875,0.6161696583598851,-1.2108379712685942,-1.0769352583877743
1789564037558226400,11.042226318359376,0.3175105369120836,-0.3699190618023276,0.6910229470312595
1789564037568196400,11.0521962890625,-0.9384417105853557,1.0611556515842675,1.6404168442636726
1789564037578165200,11.062165283203125,-1.4229600882530211,1.5853773863479494,1.1235411614138633
1789564037588134400,11.072134521484376,-1.2171090143620966,0.7893383598327637,1.0607337729103863
1789564037598104600,11.0821044921875,-1.5882412513464688,0.9716223879143595,0.3063334372016601
1789564037608073500,11.092073486328125,-0.13237374974787233,-0.42333676373511553,0.3489313649617135
1789564037618043400,11.10204345703125,0.09130115012526512,0.5447124418675899,0.2229220904781483
1789564037628012500,11.112012451171875,2.0046102218955753,-0.4965314715445041,1.6228369100399314
1789564037637981400,11.1219814453125,0.49913960821628567,0.4057572679027915,-0.0023973982642404735
1789564037647951400,11.131951416015625,-0.9631126259833573,0.38922085138261314,-0.4717750698201358
1789564037657920300,11.141920166015625,-0.8753869962573051,0.24760142664462326,-0.2147385648268275
1789564037667889400,11.151889404296876,-1.423374514272809,0.9239876532971858,-0.19988252087533473
1789564037677859300,11.161859375,-0.24257249256670474,0.4010299471199512,-0.6375988884229212
1789564037687828200,11.171828125,0.7792804916769266,0.13170534896701575,-0.4204433803811669
1789564037697797400,11.18179736328125,0.9423989237785338,-0.9103048726424574,0.17584394856411964
1789564037707767300,11.191767333984375,0.7192056699424981,-0.6817506762951612,-0.43846448250114917
1789564037717736200,11.201736083984375,-0.8153279566138982,0.9569546878755092,-1.3399721545733512
1789564037727706400,11.211706298828124,-0.5504682289153338,0.14475216980576514,-0.5589030624466017
1789564037737675500,11.221675537109375,-0.4359609752476215,0.3442784245893359,-0.3872914542226121
1789564037747644400,11.23164453125,-0.5164584072858095,0.26967560354769227,-0.39147232010383154
1789564037757614300,11.2416142578125,-0.709263537120819,0.1252086804240942,-1.0985930365096777
1789564037767583500,11.25158349609375,0.2307756717890501,0.1462330560132861,-0.761852240883559
1789564037777552400,11.261552490234376,0.7330296126335859,1.320530518130958,-0.3857794422244653
1789564037787522300,11.271522216796875,1.0485182883292437,1.5563152502536772,-0.172693393845018
1789564037797491200,11.2814912109375,0.34490064814090726,1.7319570638418196,0.09524569563311525
1789564037807460400,11.29146044921875,-0.9590051906645297,1.6520359703868626,-0.5429323535177857
1789564037817430300,11.30143017578125,-1.844160716742277,1.1552025932863355,0.5694153233064339
1789564037827399200,11.311399169921875,-1.563356400936842,0.4802496143072843,0.9344596552118658
1789564037837369300,11.321369384765624,0.7404682382017373,-1.2576485300213098,0.17981444136397912
1789564037847338500,11.33133837890625,1.5543249532192944,-0.9378028281599282,-1.0621637326482682
1789564037857307400,11.341307373046876,1.8653245008021593,-1.0212594022646546,-1.0638997626606375
1789564037867277300,11.35127734375,1.9613731377154588,-1.125529339556396,0.0004623933473601937
1789564037877246500,11.36124658203125,0.7943681706935167,-0.8502166069045662,-0.6615144554089755
1789564037887215400,11.37121533203125,-0.14717910469174383,-1.9244664256006478,-1.9296476276308296
1789564037897185300,11.381185302734375,-0.6299111834645271,-1.6617124380096793,-1.093533195836842
1789564037907154400,11.391154541015625,-0.8852297603577375,-0.7877037443682551,-1.3369696117565035
1789564037917123300,11.401123291015624,-1.1790554702997207,0.33698651401549573,-1.118022324927151
1789564037927093200,11.41109326171875,-0.5080775324314832,-0.6417226172894239,-0.3489899632811546
1789564037937062100,11.421062255859376,-0.26716742011904715,-0.43471448231786486,-0.7333452544540167
1789564037947031300,11.43103125,0.49306817934811115,-0.3019248452454805,-0.5862861959453671
1789564037957001500,11.44100146484375,-0.27265140448808667,0.29576106191873547,-1.9064115673415363
1789564037966970400,11.450970458984376,0.6353191799879073,-0.09625994157642126,-0.4831646249711513
1789564037976939500,11.460939453125,0.4895183779120445,0.5522273475423455,-0.007959617234952747
1789564037986909400,11.470909423828125,0.31696108633577824,0.7537135042220353,0.4862665365092456
1789564037996878300,11.48087841796875,-0.5011854348301887,1.7776123150795697,-1.401344761033356
1789564038006848300,11.49084814453125,-0.5915057572245598,1.8556708295330404,-0.2915384392550215
1789564038016817400,11.5008173828125,-0.4882540570646524,1.5090595780819653,0.5471539167355746
1789564038026786300,11.510786376953124,0.6637818888843059,0.5513362439215183,-0.20750729839904233
1789564038036756200,11.520756103515625,0.2992500730782747,0.7157026302576065,0.3361044704839587
1789564038046725400,11.530725341796876,-0.5427893648505211,0.5195467286899685,0.12497467073881997
1789564038056694300,11.5406943359375,-1.3053525304824114,0.7792410364493727,0.46223307876456526
1789564038066664400,11.55066455078125,-0.9305208544582128,0.31423166137188674,1.28459308943972
1789564038076633300,11.56063330078125,-0.9649071081846952,-0.7286646954223513,0.12122936499696224
1789564038086602500,11.5706025390625,-0.5236030183434486,-0.20046938085258006,0.4193356383349746
1789564038096572400,11.580572509765625,-0.8428905018001794,0.24608166973143814,0.5326207297965884
1789564038106541300,11.590541259765626,-0.2698930456906557,0.0016229250267148017,1.298325992846489
1789564038116510500,11.600510498046875,0.019808277797698972,-0.03984656495898962,-0.14806439962629228
1789564038126480400,11.61048046875,0.78904668340981,-0.018636603669822217,0.37754875296317036
1789564038136449300,11.62044921875,1.5949007092356682,-0.029459903240203856,-0.030769506267737595
1789564038146418400,11.63041845703125,1.546131125369668,0.4569102397739887,0.9140089878574014
1789564038156388400,11.640388427734376,-0.2813216176778078,0.5311810523822903,-1.139059852258861
1789564038166357200,11.650357177734374,-2.622677822831273,1.2949746365919708,0.23686898369546977
1789564038176326400,11.660326416015625,-1.1121546019375323,-0.26733079398721454,-0.7550241484291851
1789564038186296600,11.670296630859376,0.001423310801386833,-0.3970928999319672,0.4107045881118625
1789564038196265500,11.680265380859375,0.4788619593411684,0.0997720413506031,-0.721558808939904
1789564038206234400,11.690234375,2.27139127304554,-0.2805427422598004,-0.7168279079604893
1789564038216204300,11.700204345703124,3.2008675868868828,-1.1051909004047513,-0.9742736330755054
1789564038226173400,11.71017333984375,1.8479226996243,-1.1689499636098741,-0.47665407403334975
1789564038236142300,11.720142333984375,-0.031764088529348374,-1.3993851513981819,-0.21549060703683642
1789564038246112300,11.7301123046875,-1.3697171583652497,-0.04543137935400009,-0.26695465415120123
1789564038256081400,11.740081298828125,-1.1888117251604795,0.6314975758731365,0.7793840981818735
1789564038266050300,11.75005029296875,-0.35068741484880445,-0.2471332246109843,0.9583309446647763
1789564038276020200,11.760020263671874,1.1186965709269046,-0.6973436744853854,0.8999092238996177
1789564038285989400,11.7699892578125,0.7707365352153778,-0.14246902730464933,1.1477886637680232
1789564038295958300,11.779958251953126,1.2437258031308651,-0.712309188427031,0.3651908642366528
1789564038305928400,11.789928466796875,-1.003968367984891,-0.00265431390106678,0.6692025987587868
1789564038315897300,11.7998974609375,-0.6847258927136659,0.8912012359827757,0.5888276971217244
1789564038325866500,11.809866455078126,1.1535212160706518,-0.7431815888136625,0.36995658080112187
1789564038335836400,11.81983642578125,-0.09125088124275207,0.9646206924587487,0.6317315307594835
1789564038345805300,11.829805419921875,-1.3673469221025705,2.2052581741854547,-1.8027233754605054
1789564038355774500,11.8397744140625,-1.9588503412395715,1.758337121245265,-0.12908663610229268
1789564038365744400,11.849744384765625,-2.5759283466160294,1.8827385769397018,-1.054234035627544
1789564038375713300,11.85971337890625,-0.9242430893629788,1.3818582625359297,-0.09198339676838367
1789564038385682400,11.869682373046874,0.620066081276536,-0.3776519941419363,0.7570953286800534
1789564038395652400,11.87965234375,0.9899252295851707,0.25457652635425326,0.5330563447348773
1789564038405621200,11.889621337890626,0.4742904136419296,0.8723562502592802,-0.9485212791163474
1789564038415591400,11.89959130859375,0.4259720806747675,-0.5102046075880527,-0.07953247772986069
1789564038425560600,11.909560546875,-0.6938771674185991,-0.020540975986421108,-0.6501695431172847
1789564038435529500,11.919529541015624,-1.0092395863860846,-0.12609013943374156,-0.32980953505821525
1789564038445498400,11.929498291015625,-0.954709539297223,0.15556027180701493,-1.4036841637663542
1789564038455468500,11.939468505859375,-0.23158757269382477,0.06525163985043764,-1.6550649628192184
1789564038465437400,11.9494375,0.2118611279606819,0.3050353784814477,-1.140751458607614
1789564038475407400,11.959407470703125,1.1839146007686854,-0.7410714647918939,-1.6783509997300803
1789564038485376300,11.969376220703126,1.219078268608451,0.23920915361344813,-1.1450061934426425
1789564038495345400,11.979345458984374,0.9495388586610555,-0.009000468057394026,-1.64508001376912
1789564038505314300,11.989314208984375,-0.512689994663,0.6760577253505587,-0.3181789376929402
1789564038515284200,11.9992841796875,-1.8225018426418302,0.8408551965802907,1.4873063036963343
1789564038525254000,12.00925390625,-0.4578530735820532,-0.47405923523455856,1.34700512195006
1789564038535223800,12.019223876953125,0.21998305961787698,0.10553279683440923,0.1261869508717209
1789564038545192700,12.029192626953124,0.18757775057554243,0.37288492587059735,-0.3158801957638934
1789564038555161600,12.03916162109375,1.3382546831309794,0.07435615280419587,0.394628701775521
1789564038565131800,12.0491318359375,1.4383797757029533,0.012542962969839573,-0.27248896220168095
1789564038575100700,12.0591005859375,1.3702525804162025,-1.3696563680887222,-1.2172066295176744
1789564038585069600,12.069069580078125,-0.3116980512410402,0.6089242172762751,-0.8322177896816283
1789564038595038700,12.079038818359376,-0.2884919476985931,0.014563362881541251,-0.10673199829002841
1789564038605009000,12.0890087890625,-1.1454881317406893,0.3788382813170552,-0.3396675697930157
1789564038614977800,12.098977783203125,-0.12523673747479916,-0.782190826165676,-1.1189153282441198
1789564038624947000,12.108947021484376,-0.3024877398252487,-0.5197358215212822,-0.958360316889733
1789564038634916900,12.118916748046875,0.10914017367660998,-0.7895444037988781,-0.6397444490842521
1789564038644885800,12.1288857421875,-0.6380448055595159,-0.8917866346552967,-1.1924900483470409
1789564038654854700,12.138854736328126,-0.673656801688671,-0.9131710757285356,-0.6922017084870487
1789564038664824800,12.148824951171875,0.1225549510449171,-1.4608783154979348,0.10432705604014918
1789564038674793700,12.158793701171875,1.7672955037266016,-1.421375157149136,-0.19275414856644346
1789564038684762600,12.1687626953125,1.0504098011642693,0.10155103372186422,-1.6730289279244839
1789564038694732500,12.178732666015625,-0.4263087652832269,1.1095698461413384,-2.054237007112801
1789564038704701700,12.18870166015625,-0.7671528315097094,0.560400717125833,1.0229657677911221
1789564038714670600,12.198670654296874,-0.9789064074426889,0.9518649635210633,-0.6455958785261958
1789564038724640800,12.208640869140625,0.9064981738358735,-0.3920592896789312,0.4508818463299423
1789564038734610000,12.21860986328125,0.18704291304647921,1.4953551701173184,0.19814784256983548
1789564038744578800,12.228578857421875,0.7052122159034013,1.4424135612636804,-0.05109855653652921
1789564038754548700,12.238548828125,-0.6513567070752382,1.357461195643246,-0.04602313470207155
1789564038764518000,12.248517822265624,-0.6145248137623072,0.8066966141298413,-0.2743148807208985
1789564038774486800,12.25848681640625,-1.544217400702834,1.473927474424243,0.7855188015446066
1789564038784456700,12.268456787109375,-1.7153566421747206,1.300321550577879,-0.9031220484662801
1789564038794425600,12.278425537109374,-1.6095394754409789,0.7607686834305525,-1.175736847271025
1789564038804394800,12.288394775390625,-0.1799111614704132,0.7379401810288428,0.9485089310914278
1789564038814364700,12.29836474609375,1.1280845769971608,-0.5872063064649701,-0.07786286401720717
1789564038824333600,12.30833349609375,1.8192694365918636,-0.6119894500657915,-0.8588654850453138
1789564038834302700,12.318302734375,2.9563159032016992,-0.6479556664600968,0.3724910311821848
1789564038844273000,12.32827294921875,4.1014176659733055,-0.593928015935421,1.4992093613274395
1789564038854241800,12.33824169921875,1.6081933215290307,0.9259002089202404,0.3358903528092429
1789564038864211000,12.3482109375,-1.6042507213830948,1.616551692290604,0.5022819978952408
1789564038874179800,12.358179931640626,-2.6559020470410584,2.051098416826129,1.1500463065017015
1789564038884149800,12.368149658203125,-1.946896284073591,0.22831600367724894,0.30451084315069016
1789564038894119000,12.378118896484375,-1.2893249402672051,-0.726498165038228,0.4514433526702225
1789564038904087800,12.388087890625,0.5642033242791891,0.07040332352519035,-1.3483213191151617
1789564038914057700,12.3980576171875,2.5313340026080606,-1.0688678333967923,-1.6255108054243028
1789564038924026600,12.408026611328125,1.8714280783742665,-1.2588351094573735,-1.3145153494946658
1789564038933995800,12.417995849609374,0.2671820331662893,-0.643095074686408,-1.2708256992414593
1789564038943965700,12.427965576171875,-0.46025721211433407,0.2869976174876094,-0.8082771613195538
1789564038953934600,12.4379345703125,-1.0666945810109376,0.5257777320340276,0.5024056242749094
1789564038963903700,12.44790380859375,-0.383219565141201,-0.2453887190312147,0.9112776631973684
1789564038973874000,12.4578740234375,-0.4464601574301719,-0.41373657621890303,1.0858220369376241
1789564038983842800,12.4678427734375,-0.89662033842206,-0.4295046387150883,1.3310362761847674
1789564038993812000,12.47781201171875,-1.3308154730409383,-0.8520786013841628,0.5430533860815688
1789564039003782000,12.487781982421875,-1.7179320456206797,0.610522592383623,0.25166423737043514
