time,seconds_elapsed,z,y,x
1789564026555650800,0.03965087890625,0.0917043536901474,0.07520047575235367,0.02449309267103672
1789564026565620700,0.049620849609375,0.08128846436738968,0.05904388055205345,0.04297037050127983
1789564026575589600,0.059589599609375,0.1528119146823883,0.08861615508794785,-0.06254273653030396
1789564026585559800,0.069559814453125,0.04402551427483559,0.06701552122831345,-0.0999487042427063
1789564026595529000,0.079529052734375,-0.0635233148932457,0.04928658902645111,-0.026746392250061035
1789564026605499000,0.089498779296875,-0.05378786474466324,0.012251339852809906,-0.04253760725259781
1789564026615467800,0.0994677734375,-0.11562380194664001,0.03612871095538139,-0.06988267600536346
1789564026625437700,0.109437744140625,-0.17302663624286652,0.03712206706404686,0.03978656232357025
1789564026635406800,0.11940673828125,-0.15995211899280548,-0.005019792355597019,0.08237077295780182
1789564026645376800,0.129376708984375,-0.1438642293214798,0.056052617728710175,-0.030771493911743164
1789564026655345700,0.139345703125,-0.18093515932559967,0.030340595170855522,-0.013262808322906494
1789564026665314600,0.149314453125,-0.23664529621601105,0.03912822902202606,0.04673954099416733
1789564026675284700,0.15928466796875,-0.21551178395748138,0.015108113177120686,0.032774459570646286
1789564026685253600,0.169253662109375,-0.13829343020915985,0.007065100129693747,-0.020236030220985413
1789564026695223800,0.179223876953125,-0.2016015648841858,0.00449861166998744,-0.011384746991097927
1789564026705192700,0.189192626953125,-0.22596469521522522,-0.010928814299404621,0.031026359647512436
1789564026715163000,0.199162841796875,-0.1916743665933609,-0.03658011555671692,-0.011905129067599773
1789564026725131800,0.2091318359375,-0.25755804777145386,0.02267681621015072,-0.0031649006996303797
1789564026735101700,0.219101806640625,-0.2577817440032959,-0.02129277214407921,-0.030824758112430573
1789564026745070600,0.229070556640625,-0.24315646290779114,-0.06457925587892532,-0.03833993151783943
1789564026755040800,0.239040771484375,-0.2505105137825012,-0.09967519342899323,-0.0032024511601775885
1789564026765009700,0.249009765625,-0.23229342699050903,-0.13391146063804626,0.03211212903261185
1789564026774978600,0.258978515625,-0.15159457921981812,-0.13509950041770935,0.01841176487505436
1789564026784948700,0.26894873046875,-0.1761382818222046,-0.06383384019136429,0.00675377668812871
1789564026794918000,0.27891796875,-0.14712393283843994,-0.1403840035200119,0.03272918611764908
1789564026804887800,0.2888876953125,-0.11632367968559265,-0.11985423415899277,-0.002368082758039236
1789564026814856700,0.298856689453125,-0.13683614134788513,-0.18794193863868713,0.037043504416942596
1789564026824826600,0.30882666015625,-0.024224646389484406,-0.17845016717910767,-0.016937704756855965
1789564026834795800,0.318795654296875,-0.02075294964015484,-0.1683165729045868,-0.05626486986875534
1789564026844765700,0.328765625,-0.07437809556722641,-0.1188289150595665,0.011989285238087177
1789564026854734600,0.338734619140625,0.08338943123817444,-0.14954954385757446,-0.03188789263367653
1789564026864704800,0.348704833984375,0.1381770521402359,-0.13285818696022034,-0.07922770828008652
1789564026874674000,0.358673828125,0.09402529895305634,-0.13235856592655182,-0.04987035319209099
1789564026884642800,0.368642822265625,0.1684798300266266,-0.16795624792575836,-0.04946688562631607
1789564026894612700,0.37861279296875,0.22953492403030396,-0.1721946746110916,-0.03718332201242447
1789564026904582000,0.388581787109375,0.17555078864097595,-0.08899351954460144,-0.05409466102719307
1789564026914551800,0.3985517578125,0.07286594808101654,-0.052622996270656586,-0.06296085566282272
1789564026924520700,0.408520751953125,-0.06935084611177444,0.05403047800064087,-0.005409678909927607
1789564026934490600,0.41849072265625,0.2758544981479645,-0.22175396978855133,0.025181252509355545
1789564026944459800,0.428459716796875,0.20335444808006287,-0.18041318655014038,0.07499194890260696
1789564026954429700,0.4384296875,0.1143667921423912,-0.024994298815727234,0.06655000150203705
1789564026964398600,0.448398681640625,0.13497406244277954,-0.0759083479642868,0.04163932055234909
1789564026974368800,0.45836865234375,0.22399234771728516,-0.1400660276412964,0.02617541141808033
1789564026984338000,0.468337890625,0.1599760800600052,-0.075595423579216,0.033966489136219025
1789564026994307800,0.478307861328125,0.034263964742422104,-0.009400958195328712,0.006116481963545084
1789564027004276700,0.48827685546875,0.030973095446825027,-0.08025915175676346,-0.022670691832900047
1789564027014245600,0.49824560546875,-0.0041641187854111195,-0.13837385177612305,-0.01396029070019722
1789564027024215800,0.5082158203125,-0.08568427711725235,-0.1398734748363495,0.022967366501688957
1789564027034184700,0.518184814453125,-0.09569376707077026,-0.07244570553302765,0.01637098379433155
1789564027044154600,0.528154541015625,-0.1295473426580429,-0.07369845360517502,0.02900049276649952
1789564027054123500,0.53812353515625,-0.23121990263462067,-0.09606368094682693,0.10015802830457687
1789564027064094000,0.548093994140625,-0.1689717173576355,-0.08453725278377533,0.01649135909974575
1789564027074062800,0.558062744140625,-0.09363807737827301,-0.03790051117539406,-0.0701705664396286
1789564027084032800,0.56803271484375,-0.1029953584074974,-0.09858623147010803,-0.016647418960928917
1789564027094001700,0.578001708984375,-0.0103154880926013,-0.14902091026306152,-0.0037622477393597364
1789564027103971800,0.587971923828125,0.10874219238758087,-0.07371150702238083,-0.05992431938648224
1789564027113940700,0.597940673828125,0.08687364310026169,-0.09933590888977051,-0.03521045297384262
1789564027123910700,0.60791064453125,0.08295906335115433,-0.06756839156150818,0.04733822122216225
1789564027133879600,0.617879638671875,0.1520739495754242,-0.03418327122926712,0.04162227734923363
1789564027143848700,0.6278486328125,0.22811998426914215,-0.08793065696954727,0.018923889845609665
1789564027153819000,0.63781884765625,0.29348328709602356,0.018251974135637283,-0.01005103625357151
1789564027163787800,0.647787841796875,0.3758479356765747,0.03960679844021797,-0.02900209091603756
1789564027173757700,0.6577578125,0.5441197752952576,-0.021763619035482407,-0.0037864823825657368
1789564027183726800,0.667726806640625,0.6707985997200012,-0.05780977010726929,0.0025308020412921906
1789564027193696800,0.67769677734375,0.5652751326560974,0.0065593658946454525,0.029866285622119904
1789564027203665700,0.687665771484375,0.5350282788276672,0.026519225910305977,0.03370603173971176
1789564027213635600,0.697635498046875,0.5523073673248291,0.06940197944641113,-0.0191356111317873
1789564027223604700,0.707604736328125,0.36577531695365906,0.07638425379991531,-0.013492639176547527
1789564027233574700,0.71757470703125,0.2436392903327942,0.06347431242465973,0.010810569860041142
1789564027243543600,0.72754345703125,0.2692815363407135,0.062426891177892685,-0.010683802887797356
1789564027253512700,0.7375126953125,0.19315268099308014,0.09521865844726562,-0.053936999291181564
1789564027263483000,0.74748291015625,0.10494053363800049,0.09681655466556549,-0.07827430218458176
1789564027273451800,0.75745166015625,0.10909505933523178,0.06331478804349899,-0.040820665657520294
1789564027283421700,0.767421630859375,0.13826413452625275,0.10045017302036285,-0.026100043207406998
1789564027293390800,0.777390869140625,0.13968652486801147,0.08150418102741241,0.012894759885966778
1789564027303360800,0.78736083984375,0.09065213799476624,0.15116101503372192,-0.010276073589920998
1789564027313329700,0.79732958984375,-0.008855276741087437,0.13720020651817322,-0.04980989918112755
1789564027323299600,0.807299560546875,-0.1328619122505188,0.1722862869501114,-0.007529022637754679
1789564027333268700,0.817268798828125,-0.1725616455078125,0.1277845948934555,-0.006982808467000723
1789564027343239000,0.827239013671875,-0.23337866365909576,0.08046607673168182,-0.010059824213385582
1789564027353207800,0.837207763671875,-0.2689467668533325,0.10461749136447906,0.013124324381351471
1789564027363177700,0.847177734375,-0.23125985264778137,0.16221846640110016,-0.030711306259036064
1789564027373147000,0.85714697265625,-0.18595388531684875,0.1632365882396698,-0.07256581634283066
1789564027383116800,0.86711669921875,-0.2176327258348465,0.09861499071121216,-0.06892766803503036
1789564027393085700,0.877085693359375,-0.2936100363731384,0.05631333962082863,0.02840208075940609
1789564027403054600,0.8870546875,-0.2520713806152344,0.06310546398162842,0.027347201481461525
1789564027413024800,0.897024658203125,-0.24439775943756104,0.130944162607193,0.00015712650201749057
1789564027422993700,0.90699365234375,-0.24700286984443665,0.0649811327457428,0.05491464585065842
1789564027432963800,0.9169638671875,-0.20498724281787872,0.04398689791560173,0.091856949031353
1789564027442932700,0.9269326171875,-0.15459276735782623,0.06259973347187042,0.06118852272629738
1789564027452903000,0.93690283203125,-0.13974565267562866,0.007710916455835104,0.07313492894172668
1789564027462871800,0.946871826171875,-0.12405483424663544,0.002281796419993043,0.06356272846460342
1789564027472841700,0.956841796875,-0.10819384455680847,0.0054541537538170815,0.046731818467378616
1789564027482810600,0.966810546875,-0.030067887157201767,-0.028426848351955414,0.006906109396368265
1789564027492780800,0.97678076171875,-0.012287292629480362,-0.011438010260462761,-0.05029486119747162
1789564027502749700,0.986749755859375,0.004938832018524408,-0.016466591507196426,-0.07902105152606964
1789564027512720400,0.996720458984375,0.019827499985694885,-0.04050614684820175,-0.008726646192371845
1789564027522689300,1.006689208984375,0.10746041685342789,-0.05245015770196915,-0.015930229797959328
1789564027532659200,1.0166591796875,0.16954855620861053,-0.03654469549655914,-0.034098315984010696
1789564027542628400,1.02662841796875,0.13046346604824066,0.0627770945429802,0.013482519425451756
1789564027552598300,1.036598388671875,0.17063698172569275,0.055922653526067734,0.086429163813591
1789564027562567200,1.046567138671875,0.30840736627578735,0.003971838392317295,0.017659155651926994
1789564027572536300,1.056536376953125,0.317286878824234,0.07864581048488617,-0.03507569432258606
1789564027582506200,1.06650634765625,0.22035421431064606,0.09749672561883926,0.014821290038526058
1789564027592475100,1.07647509765625,0.1793615072965622,0.10186191648244858,0.06471960991621017
1789564027602445000,1.086445068359375,0.2506505846977234,0.07402868568897247,0.024838503450155258
1789564027612414200,1.096414306640625,0.22406958043575287,0.14813381433486938,-0.11022717505693436
1789564027622384400,1.10638427734375,0.03893354907631874,0.14024046063423157,-0.07909375429153442
1789564027632353300,1.116353271484375,-0.10023792088031769,0.08952535688877106,-0.000746750389225781
1789564027642323200,1.1263232421875,-0.1546146124601364,0.08466508984565735,0.016154201701283455
1789564027652292400,1.136292236328125,-0.16799086332321167,0.11437424272298813,-0.05980181321501732
1789564027662262300,1.14626220703125,-0.2796385586261749,0.106267049908638,-0.08630532771348953
1789564027672231200,1.156231201171875,-0.3470357060432434,0.06781553477048874,-0.02401665225625038
1789564027682201000,1.166201171875,-0.2773303985595703,0.0322578065097332,-0.028306473046541214
1789564027692170200,1.176170166015625,-0.30457693338394165,0.028728317469358444,-0.025135712698101997
1789564027702140400,1.186140380859375,-0.31504902243614197,0.011515508405864239,-0.0585021935403347
1789564027712109300,1.196109375,-0.32972490787506104,0.01678137667477131,-0.021641645580530167
1789564027722079200,1.206079345703125,-0.3072318434715271,0.007817975245416164,-0.03112170100212097
1789564027732048400,1.21604833984375,-0.26054608821868896,0.00005273058923194185,-0.03537290543317795
1789564027742018300,1.226018310546875,-0.3196890652179718,0.04639492928981781,-0.005526592023670673
1789564027751987200,1.2359873046875,-0.3367423415184021,0.030655380338430405,0.03401868790388107
1789564027761956000,1.2459560546875,-0.24729235470294952,-0.026036927476525307,0.03497449681162834
1789564027771926300,1.25592626953125,-0.18740610778331757,-0.007404120173305273,-0.0123645244166255
1789564027781895200,1.265895263671875,-0.23614968359470367,0.021039238199591637,0.006648315116763115
1789564027791865300,1.275865234375,-0.1885659247636795,-0.03678491339087486,0.05717593804001808
1789564027801834200,1.285834228515625,-0.08167329430580139,-0.051899950951337814,0.02165069989860058
1789564027811804400,1.295804443359375,-0.08135903626680374,-0.03407115116715431,0.008901349268853664
1789564027821773300,1.305773193359375,-0.10329363495111465,-0.022880814969539642,-0.0004034689045511186
1789564027831743200,1.3157431640625,-0.0342586375772953,-0.10233276337385178,-0.0513761043548584
1789564027841712000,1.325712158203125,0.003019758267328143,-0.1066524088382721,-0.03243650123476982
1789564027851682300,1.335682373046875,-0.0008034756756387651,-0.06598727405071259,-0.045221008360385895
1789564027861651200,1.345651123046875,0.034875690937042236,-0.09915640950202942,-0.04231523349881172
1789564027871621000,1.35562109375,0.029955502599477768,-0.08892854303121567,-0.06578194350004196
1789564027881590000,1.365590087890625,0.04880296066403389,-0.04524790495634079,-0.04351019114255905
1789564027891560200,1.375560302734375,0.05776529386639595,-0.11481686681509018,-0.0019289276096969843
1789564027901529300,1.385529296875,0.10373811423778534,-0.10879545658826828,0.035900477319955826
1789564027911499300,1.395499267578125,0.14125539362430573,-0.060324594378471375,0.0340125598013401
1789564027921468200,1.40546826171875,0.19133293628692627,-0.03618037328124046,0.02064349316060543
1789564027931438000,1.41543798828125,0.18883995711803436,-0.0585370808839798,0.03538568690419197
1789564027941407200,1.4254072265625,0.2060740739107132,-0.030967237427830696,0.07242652773857117
1789564027951377200,1.435377197265625,0.17305833101272583,-0.030190393328666687,0.08195371925830841
1789564027961346000,1.445345947265625,0.18142998218536377,0.005368666257709265,-0.008704009465873241
1789564027971316200,1.455316162109375,0.08321845531463623,0.07521006464958191,0.014326474629342556
1789564027981285400,1.465285400390625,0.021868281066417694,0.06304101645946503,0.027480093762278557
1789564027991255300,1.47525537109375,0.012060390785336494,0.054370030760765076,0.019765716046094894
1789564028001224200,1.48522412109375,-0.013291037641465664,0.09088596701622009,0.04242761805653572
1789564028011194000,1.495194091796875,-0.06209852546453476,0.12311660498380661,-0.008718123659491539
1789564028021163300,1.505163330078125,-0.1301787793636322,0.09216508269309998,0.07669904083013535
1789564028031133200,1.51513330078125,-0.14368979632854462,0.16215269267559052,0.06788637489080429
1789564028041102000,1.52510205078125,-0.22550874948501587,0.15842506289482117,0.06144924461841583
1789564028051072000,1.535072021484375,-0.22039948403835297,0.13068744540214539,0.0642373114824295
1789564028061041400,1.54504150390625,-0.24254420399665833,0.08823611587285995,0.05161632224917412
1789564028071011300,1.55501123046875,-0.32836881279945374,0.060691043734550476,0.08298969268798828
1789564028080980200,1.564980224609375,-0.3612987995147705,0.12455311417579651,0.03447755053639412
1789564028090950100,1.5749501953125,-0.3439600467681885,0.12880831956863403,-0.06790608167648315
1789564028100919300,1.584919189453125,-0.3796969950199127,0.011908058077096939,-0.09067157655954361
1789564028110889200,1.59488916015625,-0.5386354923248291,0.011957593262195587,-0.014523549005389214
1789564028120858000,1.604858154296875,-0.5861455202102661,0.06981450319290161,-0.07036497443914413
1789564028130828000,1.614828125,-0.47243064641952515,0.09759259968996048,-0.11857591569423676
1789564028140797200,1.624797119140625,-0.47024765610694885,0.07382629066705704,-0.01727858930826187
1789564028150767400,1.634767333984375,-0.5479720234870911,0.06848105788230896,-0.020964670926332474
1789564028160736300,1.644736328125,-0.6594953536987305,0.029998645186424255,-0.02468191087245941
1789564028170706200,1.6547060546875,-0.6467891335487366,-0.01618189923465252,0.00711676524952054
1789564028180675300,1.66467529296875,-0.5134047269821167,-0.0618647001683712,0.032220520079135895
1789564028190645200,1.674645263671875,-0.3587419092655182,-0.03205700218677521,-0.03592044860124588
1789564028200614100,1.6846142578125,-0.32900238037109375,0.024924257770180702,-0.014181865379214287
1789564028210584000,1.694583984375,-0.2806045114994049,-0.04687536507844925,0.041076596826314926
1789564028220553200,1.70455322265625,-0.2762800455093384,-0.04198739677667618,0.03721155226230621
1789564028230523400,1.7145234375,-0.26405081152915955,-0.011875567957758904,0.01290408056229353
1789564028240492300,1.7244921875,-0.268379271030426,-0.05685848742723465,0.0002540655550546944
1789564028250462200,1.734462158203125,-0.28926190733909607,-0.0699993222951889,0.029860427603125572
1789564028260431400,1.744431396484375,-0.219202920794487,-0.08101655542850494,0.01131151057779789
1789564028270401300,1.7544013671875,-0.16004186868667603,-0.09634677320718765,-0.0073074474930763245
1789564028280370200,1.7643701171875,-0.16592665016651154,-0.04616190120577812,-0.022555110976099968
1789564028290340000,1.774340087890625,-0.18169842660427094,-0.10320388525724411,-0.023927703499794006
1789564028300309200,1.784309326171875,-0.18620848655700684,-0.07853422313928604,-0.061772555112838745
1789564028310279200,1.794279052734375,-0.10856136679649353,-0.09481678903102875,-0.04189631715416908
1789564028320248000,1.804248046875,-0.03875778242945671,-0.12642665207386017,-0.06040342152118683
1789564028330218200,1.81421826171875,-0.04554298520088196,-0.14092649519443512,-0.017041301354765892
1789564028340187400,1.8241875,-0.006376673001796007,-0.12997184693813324,-0.019906064495444298
1789564028350157300,1.8341572265625,0.05267706140875816,-0.16818155348300934,0.04656217619776726
1789564028360126200,1.844126220703125,0.0937507301568985,-0.12587884068489075,0.017467673867940903
1789564028370096000,1.85409619140625,0.04944158345460892,-0.11960496008396149,0.009673133492469788
1789564028380065300,1.864065185546875,0.009090700186789036,-0.1377168595790863,0.06645199656486511
1789564028390035200,1.87403515625,0.1738591492176056,-0.23359358310699463,0.007613711059093475
1789564028400004000,1.884004150390625,0.17398138344287872,-0.21031728386878967,-0.013067332096397877
1789564028409974300,1.893974365234375,0.0935874730348587,-0.16407229006290436,0.028982648625969887
1789564028419943400,1.903943359375,0.12874093651771545,-0.14317527413368225,-0.0062821307219564915
1789564028429913300,1.913913330078125,0.1748056262731552,-0.21728970110416412,0.013578658923506737
1789564028439882200,1.92388232421875,0.21145525574684143,-0.20149663090705872,-0.004254399798810482
1789564028449852200,1.93385205078125,0.2467956691980362,-0.22141015529632568,0.012634036131203175
1789564028459821300,1.9438212890625,0.2680080235004425,-0.20889994502067566,0.020653346553444862
1789564028469791200,1.953791259765625,0.3233969807624817,-0.1909441202878952,0.01858566887676716
1789564028479760100,1.963760009765625,0.3098984658718109,-0.1676209568977356,0.014563496224582195
1789564028489730000,1.97372998046875,0.3225948214530945,-0.15093278884887695,0.027221767231822014
1789564028499699500,1.983699462890625,0.3807574510574341,-0.17222049832344055,0.0718880370259285
1789564028509669400,1.99366943359375,0.40278446674346924,-0.15395280718803406,0.05861377716064453
1789564028519637200,2.00363720703125,0.4238271713256836,-0.15846021473407745,0.05306961014866829
1789564028529607200,2.013607177734375,0.37157702445983887,-0.1106138601899147,0.08302085101604462
1789564028539576300,2.023576416015625,0.4236268997192383,-0.09351823478937149,0.03646613284945488
1789564028549546500,2.03354638671875,0.46210983395576477,-0.09330997616052628,-0.047572579234838486
1789564028559515400,2.043515380859375,0.3789835274219513,-0.033069003373384476,-0.052495963871479034
1789564028569485300,2.0534853515625,0.3392539620399475,-0.04892865940928459,-0.03840464726090431
1789564028579454500,2.063454345703125,0.35591310262680054,-0.07276768237352371,-0.004988633096218109
1789564028589424400,2.07342431640625,0.3740327060222626,-0.035404860973358154,-0.004319114610552788
1789564028599393300,2.083393310546875,0.39784616231918335,0.003204581793397665,0.026585271582007408
1789564028609363200,2.09336328125,0.38088956475257874,0.005630454979836941,0.03448580577969551
1789564028619332400,2.103332275390625,0.34847116470336914,0.06013097986578941,0.009513876400887966
1789564028629302300,2.11330224609375,0.31964829564094543,0.02960183471441269,0.008340221829712391
1789564028639272400,2.1232724609375,0.2574853301048279,0.036737509071826935,0.031076159328222275
1789564028649241300,2.133241455078125,0.2786462903022766,0.04190004616975784,-0.015614911913871765
1789564028659211500,2.14321142578125,0.2898014485836029,0.01062175165861845,-0.025718679651618004
1789564028669180400,2.153180419921875,0.21945007145404816,0.04832039400935173,-0.030612770467996597
1789564028679150300,2.163150390625,0.17625679075717926,0.06186283379793167,0.01613582670688629
1789564028689119200,2.173119140625,0.24565424025058746,0.017914818599820137,0.030795995146036148
1789564028699089400,2.18308935546875,0.2914949655532837,0.07563430815935135,-0.029991721734404564
1789564028709058300,2.193058349609375,0.2409215271472931,0.11761265248060226,-0.1276242733001709
1789564028719028500,2.203028564453125,0.1572657823562622,0.08494897931814194,-0.052200354635715485
1789564028728997400,2.212997314453125,0.14230334758758545,0.021952437236905098,-0.02310531958937645
1789564028738967300,2.22296728515625,0.12515152990818024,0.04373709484934807,-0.04182733967900276
1789564028748936400,2.2329365234375,0.10678982734680176,0.09572705626487732,-0.08675327152013779
1789564028758906400,2.24290625,0.053344979882240295,0.0727868527173996,-0.034393925219774246
1789564028768875300,2.252875244140625,0.08051827549934387,0.01369397435337305,-0.026623355224728584
1789564028778845200,2.26284521484375,0.07990628480911255,0.04820055142045021,-0.008177502080798149
1789564028788814300,2.272814453125,0.07645376026630402,0.07597705721855164,-0.06766773015260696
1789564028798784300,2.2827841796875,0.03477262705564499,0.11531674116849899,-0.08378464728593826
1789564028808753200,2.292753173828125,-0.01974228024482727,0.09269478172063828,-0.0841822549700737
1789564028818723300,2.302723388671875,-0.02618206851184368,-0.021621139720082283,-0.060091566294431686
1789564028828692500,2.3126923828125,-0.09369266778230667,0.028138693422079086,0.008990032598376274
1789564028838662400,2.322662353515625,-0.08033744990825653,-0.004811799619346857,-0.07233039289712906
1789564028848631300,2.33263134765625,-0.09299598634243011,0.024684574455022812,-0.04651237279176712
1789564028858601200,2.342601318359375,-0.09500454366207123,0.01847647875547409,-0.046131543815135956
1789564028868571400,2.3525712890625,-0.10393678396940231,-0.021449364721775055,0.009594038128852844
1789564028878540300,2.362540283203125,-0.098496213555336,-0.016377640888094902,0.0540270172059536
1789564028888510500,2.372510498046875,-0.10298869758844376,0.026334134861826897,-0.035172902047634125
1789564028898479400,2.382479248046875,-0.17149053514003754,0.09599310904741287,-0.019716180860996246
1789564028908449500,2.392449462890625,-0.1954086422920227,0.05624382942914963,-0.005135640036314726
1789564028918418400,2.40241845703125,-0.18112318217754364,0.007443002425134182,0.023266972973942757
1789564028928388400,2.412388427734375,-0.27502837777137756,0.07881651818752289,0.0381910614669323
1789564028938357200,2.422357177734375,-0.3319198787212372,0.10723431408405304,0.02081499993801117
1789564028948327400,2.432327392578125,-0.3193167448043823,0.08186503499746323,0.024023577570915222
1789564028958296300,2.44229638671875,-0.36665815114974976,0.06030222401022911,0.030113693326711655
1789564028968266200,2.452266357421875,-0.42773109674453735,0.08839883655309677,0.0654679536819458
1789564028978235100,2.462235107421875,-0.4218897223472595,0.08427280187606812,-0.00806272029876709
1789564028988205300,2.472205322265625,-0.4156339466571808,0.06418325006961823,0.014629809185862541
1789564028998174500,2.482174560546875,-0.40165263414382935,0.04845808073878288,-0.012914999388158321
1789564029008144400,2.492144287109375,-0.4154190421104431,0.00939003936946392,0.007445931900292635
1789564029018113300,2.50211328125,-0.4332273304462433,0.017586184665560722,0.016636766493320465
1789564029028083200,2.512083251953125,-0.4153929352760315,0.029682528227567673,-0.003925499506294727
1789564029038053400,2.522053466796875,-0.39492228627204895,0.009430785663425922,0.049255162477493286
1789564029048022300,2.532022216796875,-0.3397780656814575,0.01654195785522461,0.014327806420624256
1789564029057992400,2.541992431640625,-0.33656948804855347,0.0013257216196507215,0.013938185758888721
1789564029067961300,2.55196142578125,-0.34385937452316284,0.006895190104842186,-0.0018463695887476206
1789564029077931500,2.561931640625,-0.2583135664463043,-0.0280968826264143,-0.019411249086260796
1789564029087900400,2.571900390625,-0.2482052743434906,-0.012942164205014706,0.028193021193146706
1789564029097870300,2.581870361328125,-0.18332402408123016,-0.03374331444501877,0.04735925793647766
1789564029107839200,2.591839111328125,-0.07636561244726181,-0.014928615652024746,-0.004756139125674963
1789564029117809400,2.601809326171875,-0.06837479770183563,-0.002159024588763714,0.020356137305498123
1789564029127778300,2.6117783203125,-0.08416707813739777,0.011661183089017868,-0.025971679016947746
1789564029137748500,2.62174853515625,-0.10827134549617767,-0.007114901207387447,-0.018487131223082542
1789564029147717400,2.63171728515625,-0.13404008746147156,0.01540558785200119,-0.003373159794136882
1789564029157687600,2.6416875,-0.03249482437968254,-0.008964466862380505,-0.04951561987400055
1789564029167656400,2.651656494140625,-0.0003174488083459437,0.007998005487024784,-0.05059713125228882
1789564029177626400,2.66162646484375,-0.0008261125767603517,0.041672613471746445,-0.024092553183436394
1789564029187596300,2.67159619140625,-0.04586416110396385,-0.0010191916953772306,-0.031859926879405975
1789564029197565400,2.6815654296875,-0.0764593556523323,0.0327954962849617,0.020506607368588448
1789564029207535400,2.691535400390625,-0.04807458445429802,0.049321211874485016,-0.03231453150510788
1789564029217504300,2.701504150390625,-0.0211284551769495,0.04306731000542641,-0.06811060756444931
1789564029227474400,2.711474365234375,-0.03953995183110237,0.07948896288871765,-0.06053844466805458
1789564029237443300,2.721443359375,-0.06436008214950562,-0.005021123681217432,-0.04598187282681465
1789564029247413500,2.73141357421875,-0.1257920116186142,0.01212697010487318,0.00012490226072259247
1789564029257382400,2.74138232421875,-0.08992482721805573,0.024349015206098557,-0.06770900636911392
1789564029267352300,2.751352294921875,-0.02046825736761093,-0.005248557776212692,-0.09167585521936417
1789564029277321200,2.7613212890625,-0.07570834457874298,0.038532476872205734,-0.07499328255653381
1789564029287291400,2.77129150390625,-0.0909900963306427,-0.003910852130502462,-0.03562137857079506
1789564029297260300,2.78126025390625,-0.012310994789004326,-0.03223197162151337,-0.020246416330337524
1789564029307230500,2.79123046875,-0.012561065144836903,-0.03147323802113533,-0.015929166227579117
1789564029317200400,2.801200439453125,-0.023198263719677925,-0.0054429685696959496,0.023427827283740044
1789564029327169500,2.81116943359375,0.024093884974718094,-0.00857431348413229,0.023483222350478172
1789564029337139500,2.821139404296875,0.04754967615008354,-0.01329609751701355,0.028484106063842773
1789564029347108400,2.8311083984375,0.020432837307453156,-0.009498164057731628,0.012808206491172314
1789564029357078300,2.841078369140625,-0.02238013967871666,-0.0028370653744786978,0.02684679441154003
1789564029367047400,2.85104736328125,0.016279371455311775,-0.018965966999530792,-0.016526779159903526
1789564029377017300,2.861017333984375,0.020849620923399925,-0.06709035485982895,0.027403395622968674
1789564029386986200,2.870986328125,0.0014615427935495973,-0.05450505390763283,0.028255872428417206
1789564029396956400,2.880956298828125,0.011656922288239002,-0.07206061482429504,0.04530862718820572
1789564029406925300,2.89092529296875,0.06817878782749176,-0.045887596905231476,0.061538197100162506
1789564029416895500,2.9008955078125,0.09459841251373291,-0.054136473685503006,0.04470382258296013
1789564029426864400,2.910864501953125,0.09713160991668701,-0.000022903184799361043,0.025059280917048454
1789564029436834300,2.920834228515625,0.1369866132736206,-0.022485867142677307,0.018152639269828796
1789564029446804200,2.93080419921875,0.1698034107685089,-0.015356052666902542,-0.00015632755821570754
1789564029456773400,2.9407734375,0.11520089209079742,0.0062613580375909805,0.0013305152533575892
1789564029466743600,2.95074365234375,0.11443976312875748,0.010000170208513737,0.009880061261355877
1789564029476712400,2.96071240234375,0.10875391215085983,0.052982524037361145,-0.006060022860765457
1789564029486682400,2.970682373046875,0.07618211954832077,0.048528388142585754,0.029021797701716423
1789564029496651500,2.980651611328125,0.0657220184803009,0.06965870410203934,0.060452692210674286
1789564029506621400,2.990621337890625,0.06493612378835678,0.05817888304591179,0.06645306199789047
1789564029516590800,3.0005908203125,0.048883385956287384,0.05007275566458702,0.062073223292827606
1789564029526560800,3.010560791015625,-0.0014596786350011826,0.08180352300405502,-0.025600701570510864
1789564029536529700,3.02052978515625,-0.07276768237352371,0.04454030469059944,0.02809608355164528
1789564029546499800,3.030499755859375,-0.05277106910943985,0.03879080340266228,0.04182441160082817
1789564029556470000,3.040469970703125,-0.03577876836061478,0.054667770862579346,-0.006684001535177231
1789564029566439000,3.05043896484375,-0.10649900883436203,0.05458841100335121,0.01793212816119194
1789564029576408800,3.060408935546875,-0.1648414134979248,0.061470016837120056,0.025129055604338646
1789564029586378000,3.0703779296875,-0.1842436045408249,0.017910290509462357,-0.01671852543950081
1789564029596348000,3.080347900390625,-0.23070432245731354,-0.014947790652513504,0.0041641187854111195
1789564029606316800,3.09031689453125,-0.22953864932060242,-0.0372573584318161,0.008058725856244564
1789564029616286700,3.10028662109375,-0.17603814601898193,-0.0445895716547966,-0.032831981778144836
1789564029626256000,3.110255859375,-0.17354436218738556,-0.023015037178993225,-0.054195061326026917
1789564029636226000,3.12022607421875,-0.17661765217781067,-0.0650399848818779,0.014613830484449863
1789564029646195000,3.13019482421875,-0.1977788507938385,-0.010011621750891209,-0.011031345464289188
1789564029656164900,3.140164794921875,-0.15207289159297943,-0.09363141655921936,0.0020303940400481224
1789564029666134800,3.150134765625,-0.16755864024162292,-0.0718827098608017,0.020497284829616547
1789564029676104000,3.16010400390625,-0.1396969109773636,-0.11282987892627716,0.0023185480386018753
1789564029686073900,3.170073974609375,-0.15860030055046082,-0.06385141611099243,-0.07605987787246704
1789564029696042800,3.180042724609375,-0.20017410814762115,-0.10588302463293076,-0.03617291897535324
1789564029706013000,3.190012939453125,-0.15424630045890808,-0.18375597894191742,-0.04999818652868271
1789564029715982000,3.199982177734375,-0.17313556373119354,-0.1686076521873474,-0.042577821761369705
1789564029725952000,3.209951904296875,-0.14920173585414886,-0.16219183802604675,-0.022597987204790115
1789564029735921000,3.2199208984375,-0.09643332660198212,-0.15438398718833923,0.018965966999530792
1789564029745890800,3.229890869140625,0.018685802817344666,-0.15971136093139648,-0.0009512811084277928
1789564029755860000,3.23985986328125,0.019949739798903465,-0.1838899403810501,0.02586382068693638
1789564029765830000,3.249829833984375,-0.05692879483103752,-0.15303242206573486,0.0503140352666378
1789564029775799800,3.2597998046875,-0.0533875897526741,-0.15762345492839813,0.04078498110175133
1789564029785768700,3.269768798828125,0.025674736127257347,-0.20895054936408997,-0.006955377757549286
1789564029795739000,3.27973876953125,-0.054371897131204605,-0.17400455474853516,0.015982162207365036
1789564029805708000,3.2897080078125,-0.06527594476938248,-0.17959585785865784,0.013142965734004974
1789564029815678000,3.299677978515625,-0.025116804987192154,-0.14129960536956787,-0.056356750428676605
1789564029825646800,3.309646728515625,-0.022459503263235092,-0.12930898368358612,-0.04982801154255867
1789564029835616800,3.31961669921875,-0.007695736363530159,-0.132399320602417,0.029978672042489052
1789564029845586000,3.3295859375,0.00848323293030262,-0.1631591022014618,0.06061141565442085
1789564029855555800,3.339555908203125,0.009920541197061539,-0.12613369524478912,0.05474873259663582
1789564029865526000,3.349526123046875,0.0015398397808894515,-0.1550534963607788,0.042153578251600266
1789564029875495000,3.359494873046875,0.013855894096195698,-0.12105611711740494,0.03248044475913048
1789564029885464800,3.36946484375,0.03715109825134277,-0.13918691873550415,0.007384146563708782
1789564029895434000,3.37943408203125,0.03224901482462883,-0.13385872542858124,0.010072873905301094
1789564029905404000,3.38940380859375,0.05072283372282982,-0.1301521509885788,-0.04626097157597542
1789564029915372800,3.399372802734375,0.014142450876533985,-0.15014396607875824,0.03380643203854561
1789564029925342700,3.4093427734375,0.053692255169153214,-0.20586873590946198,0.07959016412496567
1789564029935312000,3.419311767578125,0.14258937537670135,-0.2008364349603653,0.044317662715911865
1789564029945281800,3.42928173828125,0.16797222197055817,-0.15757524967193604,0.0015195996966212988
1789564029955251000,3.4392509765625,0.12258743494749069,-0.08600492030382156,-0.06317843496799469
1789564029965220900,3.449220947265625,0.10580259561538696,-0.13932673633098602,-0.012517123483121395
1789564029975190800,3.459190673828125,0.14674043655395508,-0.19601398706436157,0.013412478379905224
1789564029985160000,3.469159912109375,0.12915319204330444,-0.1420905590057373,-0.004473578184843063
1789564029995129900,3.4791298828125,0.10775762051343918,-0.12545086443424225,0.026342924684286118
1789564030005098800,3.4890986328125,0.12178076058626175,-0.04344494640827179,0.033967286348342896
1789564030015068700,3.499068603515625,0.15015114843845367,-0.05497456714510918,0.02485315129160881
1789564030025037800,3.509037841796875,0.1267494261264801,-0.0687929093837738,0.06045455485582352
1789564030035008000,3.519008056640625,0.14493854343891144,-0.10965059697628021,0.02616955153644085
1789564030044977000,3.528976806640625,0.09962006658315659,-0.1371874213218689,0.025784458965063095
1789564030054946800,3.53894677734375,0.11273214221000671,-0.10775309801101685,-0.033793117851018906
1789564030064916700,3.548916748046875,0.05626380443572998,-0.09475234150886536,-0.03452255576848984
1789564030074886000,3.558885986328125,0.06853245198726654,-0.10003072768449783,-0.08600252866744995
1789564030084855800,3.568855712890625,-0.0003222425002604723,-0.052502620965242386,-0.07567771524190903
1789564030094824700,3.57882470703125,0.0438084676861763,-0.1169481873512268,-0.03591139614582062
1789564030104795000,3.588794921875,0.05427735298871994,-0.1105310395359993,-0.05457642674446106
1789564030114764000,3.598763916015625,0.07043501734733582,-0.14848561584949493,-0.06045988202095032
1789564030124734000,3.60873388671875,0.12368625402450562,-0.0669952780008316,-0.13221876323223114
1789564030134702800,3.618702880859375,0.1460685282945633,-0.15167394280433655,-0.03985527157783508
1789564030144672800,3.6286728515625,0.2680644690990448,-0.1247006505727768,-0.014937138184905052
1789564030154643000,3.638642822265625,0.24443185329437256,-0.12330915033817291,-0.035043470561504364
1789564030164611800,3.64861181640625,0.22997701168060303,-0.0795893669128418,-0.018367288634181023
1789564030174581800,3.658581787109375,0.26146170496940613,-0.15111733973026276,0.062422629445791245
1789564030184550700,3.668550537109375,0.33153584599494934,-0.1655825674533844,-0.00740385428071022
1789564030194520800,3.678520751953125,0.27287760376930237,-0.06131582334637642,-0.025707494467496872
1789564030204490000,3.688489990234375,0.2786944806575775,-0.04884983226656914,-0.0012037487467750907
1789564030214460000,3.6984599609375,0.38525819778442383,-0.13128133118152618,-0.04704021289944649
1789564030224428800,3.7084287109375,0.40307527780532837,-0.07705163955688477,-0.06901422142982483
1789564030234398700,3.718398681640625,0.40926793217658997,-0.10787506401538849,-0.09447270631790161
1789564030244369000,3.728368896484375,0.3437019884586334,-0.051595281809568405,0.0026937874499708414
1789564030254337800,3.738337890625,0.46927639842033386,-0.12308517843484879,0.0037563887890428305
1789564030264308000,3.748307861328125,0.51764315366745,-0.09224177896976471,0.018012290820479393
1789564030274276900,3.75827685546875,0.45107558369636536,-0.09375978261232376,0.061885204166173935
1789564030284247000,3.7682470703125,0.4991075396537781,-0.11765552312135696,0.018819760531187057
1789564030294216000,3.7782158203125,0.4772182106971741,-0.09393182396888733,0.0015371765475720167
1789564030304185900,3.788185791015625,0.5192676782608032,-0.10261479020118713,0.011888884007930756
1789564030314154800,3.79815478515625,0.5290526747703552,-0.0632130578160286,-0.002441585995256901
1789564030324125000,3.808125,0.5862405896186829,-0.043116576969623566,0.013791445642709732
1789564030334094800,3.8180947265625,0.7078636884689331,-0.033738523721694946,-0.0141373910009861
1789564030344063700,3.828063720703125,0.7341011762619019,0.05342727154493332,-0.019764117896556854
1789564030354034000,3.838033935546875,0.6831831336021423,0.07873023301362991,0.03086710162460804
1789564030364002800,3.8480029296875,0.6075538396835327,0.12164733558893204,0.09351743012666702
1789564030373973000,3.857972900390625,0.6223045587539673,0.12661466002464294,0.030460437759757042
1789564030383942000,3.86794189453125,0.6472160220146179,0.19567576050758362,-0.05644143745303154
1789564030393911800,3.877911865234375,0.49017876386642456,0.2578667104244232,-0.0054421694949269295
1789564030403881000,3.887880859375,0.5015621781349182,0.24251677095890045,0.07777149230241776
1789564030413851000,3.897850830078125,0.5127109885215759,0.23131711781024933,0.07477597147226334
1789564030423821000,3.907821044921875,0.5299312472343445,0.27570801973342896,0.001841575838625431
1789564030433790000,3.9177900390625,0.41475537419319153,0.23776142299175262,-0.03117016889154911
1789564030443759900,3.927759765625,0.30758604407310486,0.19248582422733307,0.09334832429885864
1789564030453729000,3.93772900390625,0.3548462390899658,0.15108992159366608,0.0253349170088768
1789564030463699000,3.947698974609375,0.28238749504089355,0.23732200264930725,-0.0881010964512825
1789564030473667800,3.957667724609375,0.16339531540870667,0.24325260519981384,0.005992378573864698
1789564030483637800,3.9676376953125,0.09194563329219818,0.24851340055465698,0.10976351797580719
1789564030493607000,3.97760693359375,0.13926148414611816,0.2670609951019287,0.0424148365855217
1789564030503576800,3.987576904296875,0.15073145925998688,0.29090559482574463,-0.03874233737587929
1789564030513547000,3.997547119140625,0.07959682494401932,0.2862546741962433,-0.02586675062775612
1789564030523516000,4.007515869140625,0.015990151092410088,0.24478311836719513,-0.03196059539914131
1789564030533485800,4.01748583984375,-0.06325726956129074,0.241244837641716,-0.010743457823991776
1789564030543455000,4.027455078125,-0.08764436095952988,0.18715497851371765,-0.02172580175101757
1789564030553425000,4.0374248046875,-0.18167684972286224,0.2369512915611267,0.03770823031663895
1789564030563393800,4.047393798828125,-0.17676758766174316,0.19432953000068665,-0.0118529312312603
1789564030573363700,4.05736376953125,-0.25656867027282715,0.21797600388526917,-0.07416211068630219
1789564030583332900,4.067332763671875,-0.35774269700050354,0.17008677124977112,-0.03314996510744095
1789564030593303000,4.077302978515625,-0.4653088450431824,0.12968023121356964,0.03656706586480141
1789564030603273000,4.08727294921875,-0.45596539974212646,0.11533218622207642,-0.003282346064224839
1789564030613241900,4.097241943359375,-0.40546441078186035,0.13465075194835663,-0.050155580043792725
1789564030623211800,4.107211669921875,-0.3568558692932129,0.1523975282907486,-0.1598101705312729
1789564030633181000,4.117180908203125,-0.4456541836261749,0.16949395835399628,-0.06775347888469696
1789564030643150800,4.12715087890625,-0.37720373272895813,0.0929160937666893,-0.022279739379882812
1789564030653119700,4.13711962890625,-0.31498298048973083,0.07125500589609146,-0.12088514119386673
1789564030663089700,4.147089599609375,-0.3803529441356659,0.11934024095535278,-0.04195756837725639
1789564030673058800,4.157058837890625,-0.321508526802063,0.11107086390256882,-0.03253557160496712
1789564030683029000,4.167029052734375,-0.25573617219924927,0.16577617824077606,0.028149612247943878
1789564030692999000,4.1769990234375,-0.2418576329946518,0.16865745186805725,0.03768026828765869
1789564030702967800,4.1869677734375,-0.29006829857826233,0.1854574829339981,0.03843047842383385
1789564030712937700,4.196937744140625,-0.2998253405094147,0.13988067209720612,-0.013340572826564312
1789564030722907000,4.206906982421875,-0.31549936532974243,0.10871103405952454,0.0065678879618644714
1789564030732876800,4.216876708984375,-0.3128865361213684,0.05289597064256668,0.020982246845960617
1789564030742845700,4.226845703125,-0.32475197315216064,0.09188811480998993,0.023368438705801964
1789564030752815900,4.23681591796875,-0.26473259925842285,0.0812663584947586,-0.030832480639219284
1789564030762785000,4.246784912109375,-0.3234582245349884,0.11082691699266434,-0.017359815537929535
1789564030772755000,4.2567548828125,-0.3346637487411499,0.0038192393258213997,0.02136041596531868
1789564030782724900,4.266724853515625,-0.37909671664237976,0.018484467640519142,0.04957980290055275
1789564030792693800,4.27669384765625,-0.3389900326728821,-0.03513694927096367,0.009856359101831913
1789564030802663700,4.28666357421875,-0.3360115587711334,-0.00017204020696226507,0.03485731780529022
1789564030812632800,4.2966328125,-0.25973036885261536,-0.052863214164972305,0.030825290828943253
1789564030822602800,4.306602783203125,-0.18832916021347046,-0.05041603744029999,0.03592178225517273
1789564030832571600,4.316571533203125,-0.1320672184228897,-0.03267938271164894,0.0790703147649765
1789564030842541800,4.326541748046875,-0.016832510009407997,-0.05498042702674866,0.10544546693563461
1789564030852511000,4.336510986328125,0.018441058695316315,-0.01079645473510027,-0.001648496720008552
1789564030862481000,4.34648095703125,-0.01791961118578911,-0.010251039639115334,0.015920110046863556
1789564030872450800,4.356450927734375,-0.03952876850962639,-0.011501659639179707,-0.00768774701282382
1789564030882419700,4.366419677734375,0.020541228353977203,-0.00017097493400797248,-0.09249664098024368
1789564030892390000,4.376389892578125,-0.048770733177661896,-0.023843280971050262,-0.022790798917412758
1789564030902358800,4.38635888671875,-0.08329355716705322,-0.016925454139709473,0.0410318560898304
1789564030912329000,4.396328857421875,-0.03466343879699707,-0.030495325103402138,0.016827981919050217
1789564030922297900,4.4062978515625,-0.036980919539928436,-0.06126522272825241,0.011146128177642822
1789564030932268000,4.41626806640625,-0.07596880197525024,-0.023732492700219154,0.02870621345937252
1789564030942237000,4.42623681640625,-0.05464726686477661,-0.0347856767475605,0.04206649214029312
1789564030952206800,4.436206787109375,0.06012725457549095,-0.03279709443449974,-0.006710899528115988
1789564030962176800,4.4461767578125,0.08771653473377228,-0.002172074280679226,-0.036987580358982086
1789564030972146000,4.45614599609375,0.061775483191013336,-0.028894765302538872,-0.03020424209535122
1789564030982115800,4.46611572265625,0.04631183668971062,-0.04266410693526268,-0.019773172214627266
1789564030992085000,4.4760849609375,0.028717931360006332,-0.06220078840851784,-0.006894657853990793
1789564031002055000,4.486054931640625,0.1005345955491066,-0.025662485510110855,-0.042930688709020615
1789564031012023800,4.49602392578125,0.08815542608499527,-0.00018855179951060563,-0.11612900346517563
1789564031021994000,4.505993896484375,0.13547952473163605,-0.009678193368017673,-0.04201110079884529
1789564031031963000,4.515962890625,0.1274237334728241,-0.0015041533624753356,-0.022045647725462914
1789564031041932800,4.525932861328125,0.23303964734077454,0.0034000577870756388,-0.027572238817811012
1789564031051901700,4.535901611328125,0.19278383255004883,0.0013440974289551377,-0.006786000914871693
1789564031061871900,4.545871826171875,0.23616300523281097,-0.02575569786131382,0.0025510420091450214
1789564031071842000,4.555842041015625,0.28557077050209045,0.012778645381331444,-0.07054154574871063
1789564031081811000,4.56581103515625,0.2397068738937378,0.06173926591873169,-0.054665908217430115
1789564031091780900,4.57578076171875,0.26118844747543335,-0.016940368339419365,0.005110339727252722
1789564031101750000,4.58575,0.25636014342308044,-0.040046218782663345,0.023240873590111732
1789564031111720000,4.595719970703125,0.24537354707717896,-0.01080071646720171,-0.007074953522533178
1789564031121688800,4.605688720703125,0.22408929467201233,0.02654212899506092,-0.04349954053759575
1789564031131658800,4.61565869140625,0.16724278032779694,0.020606474950909615,0.004972388036549091
1789564031141628000,4.6256279296875,0.17637236416339874,-0.018452243879437447,-0.0010721886064857244
1789564031151598000,4.63559814453125,0.1948874592781067,-0.03735935688018799,-0.021854698657989502
1789564031161568000,4.645568115234375,0.21681086719036102,-0.007819839753210545,-0.04487373307347298
1789564031171537000,4.655536865234375,0.23228144645690918,0.00009241169027518481,-0.005809952039271593
1789564031181506800,4.6655068359375,0.28283223509788513,0.005768406670540571,0.0555463507771492
1789564031191476000,4.67547607421875,0.29697415232658386,0.03225327655673027,0.015027685090899467
1789564031201446000,4.68544580078125,0.3279043734073639,0.0411708727478981,-0.0014732606941834092
1789564031211414800,4.695414794921875,0.31191688776016235,0.023381222039461136,0.022974558174610138
1789564031221384700,4.705384765625,0.31996920704841614,0.04905382916331291,0.0041555967181921005
1789564031231353900,4.715353759765625,0.362083375453949,0.048356082290410995,-0.05219263210892677
1789564031241324000,4.725323974609375,0.32322201132774353,0.09422663599252701,-0.07606227695941925
1789564031251293000,4.73529296875,0.29071733355522156,0.09310571104288101,-0.08010096102952957
1789564031261262800,4.745262939453125,0.30565711855888367,0.08755168318748474,-0.09931273758411407
1789564031271232800,4.755232666015625,0.2796524167060852,0.05730456858873367,-0.031806930899620056
1789564031281202000,4.765201904296875,0.2434249073266983,0.0434287004172802,0.02377670258283615
1789564031291171800,4.775171875,0.30433008074760437,0.07031304389238358,0.022460568696260452
1789564031301140700,4.785140625,0.36227405071258545,0.14029638469219208,-0.09719632565975189
1789564031311111000,4.79511083984375,0.27015718817710876,0.21407952904701233,0.01044198777526617
1789564031321080000,4.805080078125,0.20824135839939117,0.1667727380990982,0.08324482291936874
1789564031331050000,4.815050048828125,0.2448992282152176,0.2081819623708725,0.028365595266222954
1789564031341019000,4.825018798828125,0.26593393087387085,0.1803617775440216,-0.07699598371982574
1789564031350988800,4.83498876953125,0.11363735049962997,0.14934474229812622,0.01407800242304802
1789564031360958000,4.8449580078125,0.008164186961948872,0.17092753946781158,-0.006735667120665312
1789564031370927900,4.854927978515625,0.019106317311525345,0.17594386637210846,-0.11478810012340546
1789564031380897800,4.864897705078125,-0.0062544336542487144,0.1744208037853241,-0.07715044170618057
1789564031390866700,4.87486669921875,-0.04240844398736954,0.19675886631011963,-0.06943286955356598
1789564031400836900,4.8848369140625,-0.05048660933971405,0.16962657868862152,-0.05128129571676254
1789564031410806000,4.894805908203125,-0.034742534160614014,0.151565283536911,-0.03910798951983452
1789564031420776000,4.90477587890625,-0.09995882213115692,0.1495351642370224,0.039204392582178116
1789564031430744800,4.914744873046875,-0.11167220026254654,0.14127030968666077,0.08452101051807404
1789564031440714800,4.92471484375,-0.13334500789642334,0.17577634751796722,0.02834242582321167
1789564031450684000,4.934683837890625,-0.15700799226760864,0.20352968573570251,-0.013737649656832218
1789564031460653800,4.94465380859375,-0.21517515182495117,0.20084042847156525,0.004445614758878946
1789564031470622700,4.954622802734375,-0.18949909508228302,0.1120799332857132,-0.025200428441166878
1789564031480593000,4.964593017578125,-0.23339277505874634,0.12737447023391724,-0.0010751180816441774
1789564031490562800,4.974562744140625,-0.2591806948184967,0.12894226610660553,-0.06284074485301971
1789564031500532000,4.984531982421875,-0.21058332920074463,0.15499597787857056,-0.07449474185705185
1789564031510502000,4.994501953125,-0.27931714057922363,0.18240895867347717,-0.041789259761571884
1789564031520471000,5.004470947265625,-0.2771218717098236,0.07785564661026001,0.03244289383292198
1789564031530441000,5.01444091796875,-0.28504452109336853,0.10947349667549133,0.01817900314927101
1789564031540410000,5.02441015625,-0.2905538082122803,0.1974736601114273,-0.0458335354924202
1789564031550380000,5.034380126953125,-0.2800993025302887,0.19841428101062775,-0.05311674624681473
1789564031560349000,5.044348876953125,-0.28887414932250977,0.1779681295156479,-0.042506713420152664
1789564031570318800,5.05431884765625,-0.300961434841156,0.21223077178001404,-0.041069407016038895
1789564031580288000,5.0642880859375,-0.3533484637737274,0.22781053185462952,-0.0337451808154583
1789564031590258000,5.0742578125,-0.42056745290756226,0.24248214066028595,-0.052387308329343796
1789564031600226800,5.084226806640625,-0.5244573950767517,0.2504556477069855,-0.048416536301374435
1789564031610197000,5.094197021484375,-0.535132110118866,0.17705121636390686,0.041727740317583084
1789564031620167000,5.1041669921875,-0.5537580251693726,0.22169511020183563,-0.02592800371348858
1789564031630136000,5.114135986328125,-0.6206156015396118,0.19371327757835388,0.04008776322007179
1789564031640106000,5.12410595703125,-0.6677200198173523,0.20482105016708374,0.06048864498734474
1789564031650075000,5.134074951171875,-0.6721373796463013,0.15353550016880035,0.04331604763865471
1789564031660044800,5.144044921875,-0.6771409511566162,0.15155810117721558,-0.04676537588238716
1789564031670014000,5.154013916015625,-0.7880370616912842,0.11222933232784271,0.11182107031345367
1789564031679984000,5.163984130859375,-0.7871257662773132,0.07918589562177658,0.14580513536930084
1789564031689953000,5.173953125,-0.684331476688385,0.07961573451757431,-0.07385318726301193
1789564031699923000,5.1839228515625,-0.8487504720687866,0.017175525426864624,0.1663181334733963
1789564031709892000,5.19389208984375,-0.8052160739898682,-0.0070760189555585384,0.2098456472158432
1789564031719862000,5.203862060546875,-0.6135158538818359,0.025645442306995392,0.012316321022808552
1789564031729831000,5.213830810546875,-0.6301065683364868,0.019775569438934326,0.17146070301532745
1789564031739800800,5.22380078125,-0.6034550070762634,-0.010777812451124191,0.21337006986141205
1789564031749770000,5.23377001953125,-0.47209030389785767,-0.08699135482311249,0.06644080579280853
1789564031759740000,5.243739990234375,-0.47175633907318115,-0.07721569389104843,0.029833795502781868
1789564031769710000,5.2537099609375,-0.5038570165634155,-0.1564790904521942,0.1323617696762085
1789564031779679000,5.263678955078125,-0.4358886182308197,-0.11618120223283768,0.1275520920753479
1789564031789649000,5.27364892578125,-0.23725196719169617,-0.15770307183265686,0.045514486730098724
1789564031799618000,5.2836181640625,-0.2166031450033188,-0.1097739040851593,0.045942723751068115
1789564031809588000,5.293587890625,-0.2202490121126175,-0.058227088302373886,0.03723658621311188
1789564031819556900,5.303556884765625,-0.1513623595237732,-0.08656365424394608,0.006868558935821056
1789564031829526800,5.31352685546875,-0.12000736594200134,-0.14780889451503754,0.01423592772334814
1789564031839496000,5.323495849609375,-0.16275429725646973,-0.12375736236572266,0.04151228815317154
1789564031849466000,5.333466064453125,-0.18118417263031006,-0.11296676844358444,0.0648019015789032
1789564031859435000,5.34343505859375,-0.07856298238039017,-0.1561667025089264,0.044738441705703735
1789564031870028000,5.354028076171875,-0.08576071262359619,-0.1360531747341156,0.017825335264205933
1789564031879998000,5.363998046875,-0.09125294536352158,-0.12973056733608246,-0.009031311608850956
1789564031889966800,5.373966796875,-0.10033166408538818,-0.14236566424369812,-0.009751697070896626
1789564031899937000,5.38393701171875,-0.12767086923122406,-0.15333868563175201,-0.06740620732307434
1789564031909906000,5.393906005859375,-0.1344243884086609,-0.16187891364097595,-0.04049336537718773
1789564031919876000,5.4038759765625,-0.11271350085735321,-0.22180350124835968,0.04258847236633301
1789564031929846000,5.413845947265625,-0.061096109449863434,-0.21348564326763153,-0.007995608262717724
1789564031939815200,5.423815185546875,-0.04814356192946434,-0.20132192969322205,-0.007952199317514896
1789564031949785000,5.43378515625,-0.004971322603523731,-0.2482023537158966,0.017073525115847588
1789564031959754000,5.44375390625,0.00033156355493701994,-0.2219529002904892,-0.02804415114223957
1789564031969724000,5.453723876953125,0.07668013125658035,-0.2188953310251236,-0.044189564883708954
1789564031979693000,5.463693115234375,-0.008596683852374554,-0.15368489921092987,0.009194563142955303
1789564031989663000,5.4736630859375,0.06148173660039902,-0.2057289332151413,-0.014513429254293442
1789564031999632000,5.4836318359375,0.09772815555334091,-0.2249404340982437,-0.0005118595436215401
1789564032009602000,5.49360205078125,0.11869975179433823,-0.26173892617225647,-0.019096462056040764
1789564032019571000,5.503571044921875,0.049253832548856735,-0.2614632844924927,0.06252622604370117
1789564032029541000,5.513541015625,0.09117971360683441,-0.2819659113883972,0.040652088820934296
1789564032039510000,5.523510009765625,0.16441531479358673,-0.258853942155838,0.012428173795342445
1789564032049480000,5.53347998046875,0.16436150670051575,-0.24790380895137787,0.025733325630426407
1789564032059448800,5.54344873046875,0.24827611446380615,-0.2403430938720703,0.00577799417078495
1789564032069419000,5.5534189453125,0.24294421076774597,-0.20114775002002716,-0.056478191167116165
1789564032079389200,5.56338916015625,0.2874288558959961,-0.22549889981746674,-0.06750421226024628
1789564032089358000,5.573358154296875,0.24495036900043488,-0.2208343744277954,-0.010276872664690018
1789564032099328000,5.583327880859375,0.3066036105155945,-0.2303178906440735,-0.02750193141400814
1789564032109297200,5.593297119140625,0.39420244097709656,-0.19310075044631958,-0.056715477257966995
1789564032119267000,5.60326708984375,0.36724165081977844,-0.16583876311779022,-0.033661555498838425
1789564032129236000,5.613236083984375,0.346797913312912,-0.11553831398487091,0.06562747806310654
1789564032139206000,5.623205810546875,0.405679315328598,-0.12549054622650146,0.047577373683452606
1789564032149175000,5.633175048828125,0.42449936270713806,-0.09653373062610626,0.033235982060432434
1789564032159145000,5.64314501953125,0.3133232891559601,-0.0680174008011818,0.01014131773263216
1789564032169113900,5.65311376953125,0.3135741651058197,-0.10073113441467285,0.0070251524448394775
1789564032179084000,5.663083984375,0.27752241492271423,-0.09324446320533752,-0.011002317070960999
1789564032189053200,5.67305322265625,0.3240414559841156,-0.10253249853849411,-0.0064831990748643875
1789564032199023000,5.683023193359375,0.26728975772857666,-0.046713441610336304,-0.010089651681482792
1789564032208992000,5.692991943359375,0.3232068121433258,-0.08265519887208939,-0.025465944781899452
1789564032218962000,5.7029619140625,0.33517134189605713,-0.08965744823217392,-0.007752728182822466
1789564032228931000,5.71293115234375,0.29366251826286316,-0.10453120619058609,0.022422218695282936
1789564032238901000,5.72290087890625,0.24994325637817383,-0.12840883433818817,0.03533561900258064
1789564032248871200,5.73287109375,0.24130769073963165,-0.1372782289981842,0.048540905117988586
1789564032259463200,5.743463134765625,0.24346192181110382,-0.1169135719537735,-0.01595499739050865
1789564032269433000,5.75343310546875,0.19424962997436523,-0.09573158621788025,-0.029215410351753235
1789564032279402000,5.763402099609375,0.11370552331209183,-0.04638507589697838,-0.01974494196474552
1789564032289372000,5.773371826171875,0.061337660998106,-0.054422494024038315,-0.06274114549160004
1789564032299341000,5.783341064453125,0.08684834837913513,-0.09163697808980942,0.03332306817173958
1789564032309311000,5.79331103515625,0.12668603658676147,-0.0680946335196495,0.05988490581512451
1789564032319281200,5.80328125,0.2544434666633606,-0.07732728123664856,0.035836558789014816
1789564032329250000,5.81325,0.13925482332706451,0.02888251468539238,-0.004503138829022646
1789564032339220000,5.823219970703125,0.09109928458929062,-0.0034410704392939806,-0.03155126795172691
1789564032349189000,5.833189208984375,0.0748116597533226,-0.0065415226854383945,-0.06966403126716614
1789564032359159000,5.843158935546875,0.07536666095256805,-0.012938967905938625,-0.0315142497420311
1789564032369128000,5.8531279296875,0.11174677312374115,-0.0025039040483534336,-0.006968161091208458
1789564032379097900,5.863097900390625,0.06093845143914223,0.045459095388650894,-0.00863343570381403
1789564032389067000,5.87306689453125,0.02257162146270275,0.07369711995124817,0.036436304450035095
1789564032399037000,5.883036865234375,-0.0026911243330687284,0.09673026949167252,0.04784688353538513
1789564032409005800,5.893005859375,0.05144454911351204,0.06232516095042229,0.0232858806848526
1789564032418976000,5.90297607421875,-0.044385574758052826,0.09892791509628296,-0.002481267089024186
1789564032428945200,5.912945068359375,-0.11143305152654648,0.09763520956039429,0.014286527410149574
1789564032438915000,5.9229150390625,-0.131184384226799,0.08662650734186172,0.03761715069413185
1789564032448884000,5.932884033203125,-0.12775635719299316,0.08464085310697556,-0.03880651667714119
1789564032458854000,5.94285400390625,-0.21838293969631195,0.0986299067735672,-0.053464822471141815
1789564032468823000,5.952822998046875,-0.33261603116989136,0.047021303325891495,-0.01233443059027195
1789564032478793000,5.96279296875,-0.3139227628707886,0.013366937637329102,0.026313362643122673
1789564032488763100,5.97276318359375,-0.21432001888751984,0.009170062839984894,-0.017363278195261955
1789564032498732000,5.98273193359375,-0.24993020296096802,0.023693878203630447,-0.016997892409563065
1789564032508702000,5.992701904296875,-0.3478626310825348,0.050270892679691315,0.06377338618040085
1789564032518671400,6.00267138671875,-0.27807796001434326,-0.05095585808157921,0.15691131353378296
1789564032528641500,6.0126416015625,-0.20942886173725128,-0.030777353793382645,0.0711950808763504
1789564032538610400,6.0226103515625,-0.22180643677711487,-0.016397882252931595,0.049021072685718536
1789564032548580400,6.032580322265625,-0.34241780638694763,-0.010977815836668015,0.05771016702055931
1789564032558549500,6.042549560546875,-0.2222575694322586,-0.037881337106227875,0.018640263006091118
1789564032568519400,6.05251953125,-0.16939514875411987,-0.05355297401547432,-0.06413450837135315
1789564032578488300,6.06248828125,-0.2089952975511551,-0.04638827219605446,-0.014327540062367916
1789564032588458200,6.072458251953125,-0.21252824366092682,-0.0116135124117136,-0.008843558840453625
1789564032598427400,6.082427490234375,-0.16315270960330963,-0.06077173724770546,0.001985120354220271
1789564032608397300,6.092397216796875,-0.14904487133026123,-0.05945400521159172,-0.0026873957831412554
1789564032618366500,6.102366455078125,-0.14926005899906158,0.008612662553787231,-0.010029731318354607
1789564032628336400,6.11233642578125,-0.17171449959278107,0.013470801524817944,-0.02461639605462551
1789564032638305500,6.122305419921875,-0.12293657660484314,-0.043052129447460175,0.0075844163075089455
1789564032648275500,6.132275390625,-0.11580675840377808,-0.04568599537014961,-0.01697445660829544
1789564032658245400,6.142245361328125,-0.14151744544506073,-0.03940599411725998,-0.08685393631458282
1789564032668214300,6.15221435546875,-0.1633220762014389,-0.057735733687877655,-0.09503144025802612
1789564032678184200,6.16218408203125,-0.23654063045978546,-0.06421227753162384,-0.008026234805583954
1789564032688153300,6.1721533203125,-0.11110281944274902,-0.08002426475286484,-0.05758633092045784
1789564032698123500,6.18212353515625,-0.0910196527838707,-0.06431747227907181,-0.09658539295196533
1789564032708092400,6.192092529296875,-0.0484389066696167,-0.09503117203712463,-0.006325273774564266
1789564032718062300,6.202062255859375,-0.04081161320209503,-0.06812606006860733,-0.012947224080562592
1789564032728031500,6.212031494140625,0.051954012364149094,-0.03533482179045677,-0.08695860207080841
1789564032738001400,6.22200146484375,-0.014544853940606117,-0.04481673985719681,-0.1003417819738388
1789564032747970300,6.23197021484375,-0.034626152366399765,-0.0961153507232666,-0.0530853234231472
1789564032757940200,6.241940185546875,0.04868844151496887,-0.10578767955303192,-0.058521367609500885
1789564032767909400,6.251909423828125,0.056237973272800446,-0.10232210904359818,-0.0531175471842289
1789564032777879600,6.261879638671875,0.07801863551139832,-0.12364870309829712,-0.007393734063953161
1789564032787848400,6.271848388671875,0.1007780060172081,-0.07937391847372055,-0.0013611416798084974
1789564032797818400,6.281818359375,0.1469782590866089,-0.11672155559062958,0.04168379679322243
1789564032807787500,6.29178759765625,0.1653713881969452,-0.0936679020524025,0.044205278158187866
1789564032817757400,6.30175732421875,0.14279736578464508,-0.05467842519283295,0.023578563705086708
1789564032827726300,6.311726318359375,0.18766151368618011,-0.1763867437839508,0.02009168639779091
1789564032837696300,6.3216962890625,0.16933417320251465,-0.2148105651140213,0.10691153258085251
1789564032847666200,6.331666259765625,0.23641280829906464,-0.15696272253990173,0.03356621414422989
1789564032857635300,6.34163525390625,0.2837318480014801,-0.0978059247136116,-0.06821367144584656
1789564032867605500,6.35160546875,0.2717593312263489,-0.11734127253293991,0.021875470876693726
1789564032877574400,6.361574462890625,0.31810128688812256,-0.17595718801021576,0.09769273549318314
1789564032887544300,6.37154443359375,0.3848845660686493,-0.12253230810165405,-0.032221321016550064
1789564032897513500,6.381513427734375,0.4174100160598755,-0.10333171486854553,-0.014847655780613422
1789564032907483400,6.3914833984375,0.3207439184188843,-0.11966994404792786,0.08751679956912994
1789564032917452300,6.401452392578125,0.36985766887664795,-0.13568353652954102,0.0459618978202343
1789564032927422200,6.411422119140625,0.40153253078460693,-0.09397869557142258,-0.04158872365951538
1789564032937391400,6.421391357421875,0.27042561769485474,-0.0975784882903099,-0.019883427768945694
1789564032947361500,6.431361572265625,0.32731688022613525,-0.0884433165192604,-0.045412756502628326
1789564032957330400,6.441330322265625,0.36521047353744507,-0.025109346956014633,-0.13133858144283295
1789564032967300400,6.45130029296875,0.3066001534461975,-0.08934958279132843,-0.036786243319511414
1789564032977269500,6.46126953125,0.23247824609279633,-0.09171421080827713,0.03373665735125542
1789564032987239400,6.471239501953125,0.27168795466423035,-0.03899214044213295,0.05752640962600708
1789564032997208300,6.481208251953125,0.4013306498527527,-0.03768293187022209,-0.016209064051508904
1789564033007178200,6.49117822265625,0.3582172691822052,0.030605312436819077,-0.004113518632948399
1789564033017147400,6.5011474609375,0.29595282673835754,-0.010812699794769287,0.008919192478060722
1789564033027117300,6.511117431640625,0.26853159070014954,-0.06807173043489456,-0.03532576560974121
1789564033037086200,6.521086181640625,0.29196128249168396,-0.12850257754325867,-0.08380887657403946
1789564033047056400,6.531056396484375,0.2185608297586441,-0.10322412103414536,0.01655767112970352
1789564033057025500,6.541025634765625,0.23018553853034973,-0.10022753477096558,-0.06527887284755707
1789564033066995500,6.550995361328125,0.31878358125686646,-0.06561203300952911,-0.08611331135034561
1789564033076964400,6.56096435546875,0.37135571241378784,-0.09282847493886948,-0.01763438805937767
1789564033086934300,6.570934326171875,0.39716866612434387,-0.08093559741973877,0.04447771981358528
1789564033096903400,6.5809033203125,0.4335610270500183,-0.04038150981068611,0.007040865253657103
1789564033106873300,6.590873291015625,0.4248215854167938,0.001166198286227882,-0.055641159415245056
1789564033116842200,6.60084228515625,0.3922431468963623,-0.03158003091812134,-0.011267834343016148
1789564033126812400,6.6108125,0.4086165130138397,-0.023629162460565567,-0.027607392519712448
1789564033136782300,6.6207822265625,0.4478166699409485,-0.0153738958761096,-0.020908743143081665
1789564033146751500,6.63075146484375,0.42749619483947754,0.0557977519929409,-0.06754282116889954
1789564033156721400,6.640721435546875,0.36621659994125366,0.060091834515333176,0.009892578236758709
1789564033166690300,6.650690185546875,0.3428119421005249,0.06360161304473877,0.023375097662210464
1789564033176660200,6.66066015625,0.3622000217437744,0.08112628012895584,-0.0033188313245773315
1789564033186629400,6.67062939453125,0.27494341135025024,0.09227240830659866,-0.021630194038152695
1789564033196599300,6.680599365234375,0.10980399698019028,0.09796278178691864,0.12143322080373764
1789564033206568400,6.690568359375,0.15153412520885468,0.11504855751991272,0.0276769008487463
1789564033216538400,6.700538330078125,0.2264224886894226,0.12947356700897217,-0.008595352061092854
1789564033226507500,6.710507568359375,0.13533172011375427,0.23816516995429993,-0.13676238059997559
1789564033236477400,6.7204775390625,0.002478870330378413,0.19948408007621765,0.04963652789592743
1789564033246446300,6.7304462890625,0.019788619130849838,0.20500987768173218,0.029455892741680145
1789564033256416300,6.740416259765625,0.008639028295874596,0.2582469880580902,-0.0926646888256073
1789564033266385400,6.750385498046875,-0.1248878762125969,0.24822339415550232,-0.05921858176589012
1789564033276355300,6.760355224609375,-0.27264776825904846,0.19934479892253876,-0.004484763368964195
1789564033286324200,6.77032421875,-0.32177937030792236,0.16528509557247162,-0.005673332139849663
1789564033296294400,6.78029443359375,-0.35638368129730225,0.1896764636039734,-0.005572664551436901
1789564033306263600,6.790263671875,-0.47161734104156494,0.14057601988315582,0.16143469512462616
1789564033316233500,6.8002333984375,-0.46700340509414673,0.24733681976795197,-0.031006384640932083
1789564033326202400,6.810202392578125,-0.5010878443717957,0.1876753568649292,0.10570112615823746
1789564033336172300,6.82017236328125,-0.49675944447517395,0.14586958289146423,0.07351282984018326
1789564033346141400,6.830141357421875,-0.5167379379272461,0.2144894003868103,-0.06727730482816696
1789564033356111400,6.840111328125,-0.4927995800971985,0.17184419929981232,-0.11637347936630249
1789564033366080300,6.850080322265625,-0.6130040287971497,0.07192452251911163,0.04556535556912422
1789564033376050400,6.860050537109375,-0.5960889458656311,0.03912876173853874,0.05974535644054413
1789564033386019600,6.87001953125,-0.5040248036384583,0.10064511746168137,-0.060612212866544724
1789564033395989500,6.879989501953125,-0.589076578617096,0.10947535932064056,0.014504906721413136
1789564033405958400,6.88995849609375,-0.4864884316921234,0.08523499965667725,0.05453461408615112
1789564033415928300,6.89992822265625,-0.3931922912597656,0.07652167230844498,0.045038048177957535
1789564033425897500,6.9098974609375,-0.2652212679386139,0.1415126621723175,-0.02401558682322502
1789564033435867400,6.919867431640625,-0.19369223713874817,0.10052181035280228,-0.07731050252914429
1789564033445836300,6.929836181640625,-0.22284932434558868,0.11406078934669495,-0.030886810272932053
1789564033455806200,6.93980615234375,-0.19556044042110443,0.06587781757116318,-0.0065106297843158245
1789564033465775400,6.949775390625,-0.0977420061826706,0.034918833523988724,0.033791519701480865
1789564033475745500,6.95974560546875,-0.08169300109148026,0.1114085465669632,0.037035249173641205
1789564033485714400,6.96971435546875,0.048045024275779724,0.09733746945858002,0.02081846259534359
1789564033495684400,6.979684326171875,0.1082705482840538,0.11086047440767288,0.01967144012451172
1789564033505653500,6.989653564453125,0.14694656431674957,0.07515999674797058,-0.0006988134700804949
1789564033515623400,6.99962353515625,0.10250267386436462,0.1569957435131073,-0.03977084904909134
1789564033525591800,7.009591796875,0.16863802075386047,0.06820408999919891,-0.14405038952827454
1789564033535561700,7.019561767578125,0.061042316257953644,0.06806240975856781,-0.0646655485033989
1789564033545531000,7.02953076171875,0.03310868516564369,0.022427810356020927,-0.02040593884885311
1789564033555500800,7.039500732421875,0.08674048632383347,0.039801474660634995,-0.08223149180412292
1789564033565469700,7.0494697265625,0.10342945158481598,-0.024586303159594536,-0.003497795667499304
1789564033575439600,7.059439697265625,0.05632852017879486,0.012776781804859638,0.05040964484214783
1789564033585408800,7.06940869140625,0.08894771337509155,0.01007766742259264,0.015777098014950752
1789564033595378700,7.079378662109375,0.09261302649974823,0.01576165296137333,0.010499246418476105
1789564033605347600,7.08934765625,0.04273654520511627,0.03359604254364967,0.03440777584910393
1789564033615317800,7.09931787109375,0.06368603557348251,-0.012078766711056232,0.04057325795292854
1789564033625287000,7.109286865234375,0.05862149968743324,0.026495257392525673,-0.01769697107374668
1789564033635256800,7.1192568359375,0.05210474506020546,0.035582493990659714,-0.024805214256048203
1789564033645225700,7.129225830078125,0.05789259448647499,0.007796670310199261,0.008039817214012146
1789564033655195600,7.139195556640625,0.06408817321062088,-0.013413277454674244,0.02026958577334881
1789564033665164800,7.149164794921875,0.07626361399888992,0.027048662304878235,0.02786864899098873
1789564033675134700,7.159134765625,0.08062001317739487,0.032033566385507584,0.048773929476737976
1789564033685103600,7.169103515625,0.0497470498085022,0.06978493928909302,0.1044188141822815
1789564033695073800,7.17907373046875,0.1057509332895279,0.05613251030445099,0.06054350361227989
1789564033705043000,7.18904296875,0.07076658308506012,0.0593421533703804,0.03570100665092468
1789564033715012900,7.199012939453125,0.0016841830220073462,0.06244207173585892,-0.0008474178612232208
1789564033724981800,7.208981689453125,-0.0782599151134491,0.052026983350515366,0.07162491977214813
1789564033734951700,7.21895166015625,-0.06865762174129486,0.08075237274169922,0.02629099227488041
1789564033744920800,7.2289208984375,0.01293151080608368,0.04045075178146362,0.0527883805334568
1789564033754890800,7.238890869140625,-0.05901271849870682,0.12448014318943024,-0.019102854654192924
1789564033764859600,7.248859619140625,-0.10199160873889923,0.09277521073818207,0.004526575095951557
1789564033774829600,7.25882958984375,-0.11323787271976471,0.021389178931713104,0.011110441759228706
1789564033784798700,7.268798828125,-0.0614769421517849,-0.06663921475410461,0.04650038853287697
1789564033794769000,7.278768798828125,-0.1323617696762085,0.005453621037304401,0.02443104051053524
1789564033804737800,7.28873779296875,-0.14778625965118408,0.007720770314335823,-0.05771496146917343
1789564033814707700,7.298707763671875,-0.11225143820047379,-0.009546633809804916,-0.018824288621544838
1789564033824676900,7.3086767578125,-0.06768982857465744,-0.0116175077855587,-0.061155766248703
1789564033834646800,7.318646728515625,-0.05417375639081001,0.02592667192220688,-0.060500361025333405
1789564033844615700,7.32861572265625,0.0023302659392356873,-0.017716679722070694,-0.01727512665092945
1789564033854585600,7.338585693359375,0.09240663051605225,-0.005531651899218559,-0.0867583304643631
1789564033864554800,7.3485546875,0.09286709129810333,-0.03819026052951813,-0.026077939197421074
1789564033874525000,7.35852490234375,0.048601359128952026,-0.016379771754145622,-0.011085674166679382
1789564033884493800,7.368493896484375,0.0979292243719101,-0.03130386024713516,-0.10478420555591583
1789564033894462700,7.378462646484375,0.038424354046583176,-0.022068018093705177,-0.13657940924167633
1789564033904433000,7.388432861328125,-0.028837773948907852,-0.09187106788158417,-0.05872030556201935
1789564033914401800,7.39840185546875,-0.0037063213530927896,-0.08310341089963913,-0.025374066084623337
1789564033924371700,7.408371826171875,0.040232907980680466,-0.026574619114398956,-0.1664196103811264
1789564033934340600,7.418340576171875,-0.01025450136512518,-0.019527895376086235,-0.10665187984704971
1789564033944310800,7.428310791015625,-0.07755658030509949,-0.04572887346148491,-0.04296797513961792
1789564033954279700,7.43827978515625,0.01449665054678917,-0.05199156329035759,-0.05676101893186569
1789564033964249900,7.448249755859375,0.027789287269115448,-0.059003666043281555,-0.09188411384820938
1789564033974218800,7.45821875,-0.05582172051072121,-0.06261464208364487,0.000886566296685487
1789564033984188700,7.468188720703125,-0.07426571100950241,-0.05220887437462807,-0.030410369858145714
1789564033994157800,7.47815771484375,-0.028374116867780685,-0.07055406272411346,-0.03512869402766228
1789564034004127700,7.488127685546875,-0.11369647085666656,0.011662514880299568,-0.05355031043291092
1789564034014096600,7.4980966796875,-0.18665456771850586,0.020667728036642075,0.053166814148426056
1789564034024066600,7.508066650390625,-0.13928385078907013,-0.07269763946533203,0.005107410252094269
1789564034034035700,7.51803564453125,-0.1655985563993454,-0.035539351403713226,-0.01607510633766651
1789564034044005600,7.528005615234375,-0.2596733868122101,-0.020849354565143585,0.10699569433927536
1789564034053974500,7.537974609375,-0.2122691124677658,-0.05469333752989769,0.09697874635457993
1789564034063944700,7.54794482421875,-0.17817425727844238,-0.01619814522564411,0.020067984238266945
1789564034073913900,7.557913818359375,-0.2349209040403366,-0.03454892337322235,0.07028987258672714
1789564034083883800,7.5678837890625,-0.29103556275367737,-0.08323709666728973,0.13029488921165466
1789564034093852700,7.577852783203125,-0.18275409936904907,-0.11525735259056091,0.02370692789554596
1789564034103822600,7.587822509765625,-0.18117058277130127,-0.0824488028883934,-0.040169522166252136
1789564034113791700,7.597791748046875,-0.26468732953071594,-0.0960833877325058,0.006667756475508213
1789564034123761700,7.60776171875,-0.23937317728996277,-0.1322038471698761,0.008417985402047634
1789564034133730600,7.61773046875,-0.1794975847005844,-0.11711596697568893,0.03423147276043892
1789564034143700700,7.62770068359375,-0.11293427646160126,-0.10299962013959885,0.0033004553988575935
1789564034153670000,7.637669921875,-0.15850575268268585,-0.08777326345443726,0.0792175903916359
1789564034163638800,7.647638671875,-0.11499422788619995,-0.08922814577817917,0.10626225918531418
1789564034173608700,7.657608642578125,0.0025814019609242678,-0.08046075701713562,0.05125413089990616
1789564034183577900,7.667577880859375,0.007003048434853554,-0.019521502777934074,-0.006301837973296642
1789564034193547800,7.6775478515625,-0.028199946507811546,-0.043952543288469315,-0.007065632846206427
1789564034203516700,7.6875166015625,-0.05264616757631302,-0.12578162550926208,-0.0172002911567688
1789564034213486600,7.697486572265625,-0.11493483930826187,-0.08653195947408676,-0.015682822093367577
1789564034223455700,7.707455810546875,-0.045223936438560486,-0.10062461346387863,0.06729461997747421
1789564034233425700,7.71742578125,-0.010761567391455173,-0.14868667721748352,0.03188363090157509
1789564034243394800,7.727394775390625,0.08948753774166107,-0.0773075744509697,-0.029980270192027092
1789564034253364700,7.73736474609375,-0.006500510033220053,-0.06706691533327103,-0.03445917367935181
1789564034263334000,7.747333984375,0.06120769679546356,-0.1125132292509079,0.015358982607722282
1789564034273303800,7.7573037109375,0.09524715691804886,-0.09052164107561111,-0.05817648768424988
1789564034283272700,7.767272705078125,0.16171379387378693,-0.10459991544485092,-0.09899529069662094
1789564034293242600,7.77724267578125,0.10742765665054321,-0.07929801940917969,-0.10018119215965271
1789564034303211800,7.787211669921875,0.16785292327404022,-0.11764993518590927,-0.10119985789060593
1789564034313181700,7.797181640625,0.15434962511062622,-0.11022637039422989,-0.0716366395354271
1789564034323150600,7.807150634765625,0.18427076935768127,-0.12494459748268127,0.018432004377245903
1789564034333120800,7.817120849609375,0.27686649560928345,-0.10579434037208557,-0.02738235518336296
1789564034343090000,7.82708984375,0.29787614941596985,-0.09378987550735474,-0.024588167667388916
1789564034353058800,7.837058837890625,0.27174124121665955,-0.06162102147936821,-0.03279736265540123
1789564034363028700,7.84702880859375,0.3138974606990814,-0.09936520457267761,-0.022183598950505257
1789564034372998000,7.856997802734375,0.31674012541770935,-0.09763388335704803,-0.03213583305478096
1789564034382967800,7.8669677734375,0.2628641128540039,-0.06438564509153366,-0.02617887407541275
1789564034392936700,7.876936767578125,0.28101861476898193,-0.045051366090774536,-0.033185116946697235
1789564034402906600,7.88690673828125,0.35769689083099365,-0.06974285840988159,-0.03140079975128174
1789564034412875800,7.896875732421875,0.3556976616382599,-0.06327111274003983,-0.06584026664495468
1789564034422846000,7.906845947265625,0.3435954451560974,-0.06160557270050049,-0.022766832262277603
1789564034432814800,7.91681494140625,0.38336682319641113,-0.08241498470306396,0.019462913274765015
1789564034442784800,7.92678466796875,0.29188457131385803,-0.03628237545490265,0.025736788287758827
1789564034452753700,7.936753662109375,0.3434053063392639,-0.059367720037698746,0.03819878399372101
1789564034462723800,7.946723876953125,0.3535681962966919,-0.010667824186384678,-0.0010303769959136844
1789564034472692700,7.956692626953125,0.29761144518852234,0.0671105906367302,-0.011127219535410404
1789564034482662700,7.96666259765625,0.3577139377593994,0.004841094370931387,0.055989231914281845
1789564034492631600,7.976631591796875,0.4181370735168457,0.0028570392169058323,0.056170061230659485
1789564034502600700,7.9866005859375,0.37941256165504456,0.1329500675201416,-0.013050820678472519
1789564034512570600,7.996570556640625,0.31961074471473694,0.15185877680778503,0.05813121423125267
1789564034522539800,8.006539794921874,0.29530593752861023,0.06396300345659256,0.07779546082019806
1789564034532509700,8.016509765625,0.2971363365650177,0.05468454957008362,0.02684732712805271
1789564034542478800,8.026478759765626,0.20605888962745667,0.14435531198978424,-0.014183463528752327
1789564034552448800,8.03644873046875,0.16141152381896973,0.10735441744327545,0.04820454865694046
1789564034562417700,8.046417724609375,0.13720552623271942,0.09695051610469818,0.0462053120136261
1789564034572387600,8.0563876953125,0.1978454440832138,0.08192682266235352,0.011984224431216717
1789564034582356700,8.066356689453125,0.09461785107851028,0.12382873147726059,-0.040353283286094666
1789564034592326700,8.07632666015625,0.0969071015715599,0.11382350325584412,-0.07682660222053528
1789564034602295600,8.086295654296874,0.022291190922260284,0.0715080052614212,0.029084116220474243
1789564034612265700,8.096265625,0.07358314096927643,-0.012743491679430008,0.2901926636695862
1789564034622235000,8.10623486328125,0.20717714726924896,0.20788316428661346,-0.07537491619586945
1789564034632204800,8.116204833984375,-0.00379021093249321,0.21590858697891235,-0.11672262102365494
1789564034642173700,8.126173583984375,-0.1720612496137619,0.04725859314203262,0.36124715209007263
1789564034652142800,8.136142822265626,0.129801943898201,0.06986083835363388,-0.054002247750759125
1789564034662112800,8.14611279296875,0.03743419051170349,0.18190374970436096,-0.2971235513687134
1789564034672081700,8.15608154296875,-0.3614322245121002,0.18105660378932953,-0.011509116739034653
1789564034682051600,8.166051513671874,-0.2386605143547058,0.012515525333583355,0.03284822776913643
1789564034692020700,8.176020751953125,-0.055995892733335495,-0.03672046214342117,-0.059669721871614456
1789564034701991000,8.185990966796876,-0.12588362395763397,0.05465871840715408,-0.04393070563673973
1789564034711959800,8.195959716796875,-0.2414107620716095,0.13736797869205475,0.015263641253113747
1789564034721929700,8.2059296875,-0.10088559985160828,0.06920703500509262,0.0027827369049191475
1789564034731899000,8.21589892578125,-0.011487279087305069,0.08380941301584244,-0.06301571428775787
1789564034741868800,8.225868896484375,-0.11953092366456985,0.11733487993478775,-0.0645289272069931
1789564034751837700,8.235837646484375,-0.25064554810523987,0.12645141780376434,-0.040102411061525345
1789564034761806800,8.245806884765624,-0.15971775352954865,0.06647036969661713,-0.10393651574850082
1789564034771776800,8.25577685546875,-0.15685273706912994,0.012488361448049545,-0.10853739827871323
1789564034781745700,8.26574560546875,-0.3032967746257782,0.05197558179497719,-0.038399588316679
1789564034791715600,8.275715576171875,-0.34733691811561584,0.03250734135508537,0.061046041548252106
1789564034801684700,8.285684814453125,-0.2188338041305542,0.019101522862911224,-0.00908457487821579
1789564034811655000,8.295655029296874,-0.25149214267730713,0.08077580481767654,-0.0086041409522295
1789564034821623800,8.305623779296875,-0.3570888936519623,0.09831192344427109,0.04331418499350548
1789564034831593700,8.31559375,-0.37568601965904236,0.042005505412817,0.045406095683574677
1789564034841562600,8.325562744140624,-0.33240512013435364,-0.021379590034484863,0.04711185023188591
1789564034851532800,8.33553271484375,-0.35686197876930237,0.02153884805738926,0.04078204929828644
1789564034861501700,8.345501708984376,-0.34827250242233276,0.01401621662080288,-0.0005640574963763356
1789564034871470600,8.355470703125,-0.27671441435813904,-0.03347380459308624,0.06566449999809265
1789564034881440500,8.3654404296875,-0.13610564172267914,-0.11409781128168106,0.09962965548038483
1789564034891409700,8.37540966796875,-0.06571083515882492,-0.12835398316383362,0.051475975662469864
1789564034901379800,8.3853798828125,0.12592171132564545,-0.08410289138555527,0.14627119898796082
1789564034911348700,8.3953486328125,0.3158154785633087,-0.12442954629659653,0.0837220624089241
1789564034921318700,8.405318603515624,0.22635138034820557,0.006828078534454107,-0.059367187321186066
1789564034931287800,8.415287841796875,0.2451905757188797,0.06843870878219604,-0.09930980950593948
1789564034941257700,8.4252578125,0.18138045072555542,-0.051903411746025085,0.09381357580423355
1789564034951226600,8.4352265625,0.367531418800354,-0.11935622245073318,0.08857806771993637
1789564034961196500,8.445196533203125,0.11983878910541534,0.010224142111837864,0.02544783614575863
1789564034971165700,8.455165771484374,0.04375040903687477,0.09297654777765274,-0.023092003539204597
1789564034981134600,8.465134521484375,-0.14197604358196259,-0.1393408477306366,0.0023851271253079176
1789564034991104800,8.475104736328126,0.061324343085289,0.020850952714681625,0.024083498865365982
1789564035001074000,8.485073974609374,-0.1633596271276474,-0.00024394555657636374,0.023260582238435745
1789564035011043800,8.4950439453125,-0.11707255989313126,-0.00039787625428289175,-0.02329413779079914
1789564035021012700,8.5050126953125,-0.16243605315685272,0.11940282583236694,-0.10829637944698334
1789564035030982700,8.514982666015625,0.0615437887609005,-0.0017273263074457645,-0.004756139125674963
1789564035040951800,8.524951904296875,0.04747883602976799,0.07011490315198898,0.0473635196685791
1789564035050921700,8.534921630859374,0.06295526027679443,0.11503284424543381,0.04770893231034279
1789564035060890600,8.544890625,0.12808740139007568,-0.09783947467803955,-0.027088075876235962
1789564035070859800,8.55485986328125,0.10966364294290543,0.11423283070325851,-0.06345327198505402
1789564035080829700,8.56482958984375,0.09098663181066513,-0.13508272171020508,-0.04030454531311989
1789564035090798800,8.574798828125,0.08918074518442154,0.07338100671768188,-0.05203044414520264
1789564035100768800,8.584768798828126,0.06781446933746338,-0.09253446012735367,0.015419969335198402
1789564035110738000,8.594738037109375,0.09941872954368591,-0.021733524277806282,-0.097926564514637
1789564035120707800,8.604707763671875,-0.13730911910533905,0.07287367433309555,-0.0116737000644207
1789564035130676700,8.6146767578125,-0.13280704617500305,-0.09521226584911346,0.013260677456855774
1789564035140646700,8.624646728515625,-0.014317686669528484,-0.09798222035169601,-0.03092862106859684
1789564035150615800,8.63461572265625,-0.027410319074988365,-0.03928189352154732,0.032340895384550095
1789564035160584700,8.644584716796874,0.014913436025381088,-0.07829879969358444,0.024351412430405617
1789564035170554600,8.6545546875,0.12187157571315765,0.056514672935009,-0.039511989802122116
1789564035180523500,8.6645234375,0.08181790262460709,-0.07607905566692352,0.01967649906873703
1789564035190493700,8.67449365234375,0.09528391063213348,-0.0010705908061936498,0.023322366178035736
1789564035200462800,8.684462890625,0.16772162914276123,-0.04898485168814659,-0.0540805459022522
1789564035210432800,8.694432861328124,0.1376156508922577,-0.061882007867097855,-0.046596262603998184
1789564035220401700,8.704401611328125,0.08288556337356567,0.038537539541721344,-0.05500838905572891
1789564035230371800,8.714371826171876,0.05471064895391464,-0.0028304075822234154,0.012281700037419796
1789564035240340700,8.7243408203125,0.19545018672943115,-0.04658534377813339,0.0458601675927639
1789564035250309600,8.7343095703125,0.2537561058998108,0.009216668084263802,0.09991700947284698
1789564035260279600,8.744279541015626,0.1852169930934906,0.04701464623212814,-0.025047563016414642
1789564035270248700,8.754248779296875,0.12901657819747925,0.12586045265197754,0.0060387179255485535
1789564035280219000,8.764218994140625,0.1288253515958786,0.10796668380498886,0.01438000425696373
1789564035290187800,8.774187744140624,0.19870057702064514,0.09929729253053665,-0.04953799024224281
1789564035300157700,8.78415771484375,0.13053803145885468,0.04223134368658066,-0.006870689336210489
1789564035310126800,8.794126953125,0.09212113916873932,0.07324518263339996,-0.03584934398531914
1789564035320095700,8.804095703125,0.07574669271707535,0.1084175556898117,-0.04669240489602089
1789564035330065700,8.814065673828125,0.023263243958353996,0.11265704035758972,0.08944545686244965
1789564035340034800,8.824034912109376,0.002273007994517684,0.06638728082180023,0.0822402760386467
1789564035350004700,8.834004638671875,-0.022463230416178703,0.11247727274894714,0.046611178666353226
1789564035359973600,8.8439736328125,-0.07141772657632828,0.00631914846599102,0.03393479809165001
1789564035369943600,8.853943603515624,0.02533145621418953,0.11470954120159149,-0.03502749279141426
1789564035379913000,8.863912841796875,0.05902044475078583,0.026632409542798996,-0.08306080102920532
1789564035389881900,8.8738818359375,0.030772292986512184,0.1472533643245697,-0.06320507079362869
1789564035399851800,8.883851806640624,-0.0756010189652443,0.10459565371274948,-0.03550685942173004
1789564035409820700,8.893820556640625,-0.0669872909784317,0.06938227266073227,0.02046879008412361
1789564035419790800,8.903790771484376,-0.11739294230937958,0.0721261277794838,-0.020608339458703995
1789564035429759700,8.913759765625,-0.20569643378257751,0.05703159421682358,-0.0522400364279747
1789564035439729700,8.923729736328125,-0.3458887040615082,0.07136605679988861,-0.11565709114074707
1789564035449698600,8.933698486328124,-0.30212336778640747,0.013553625904023647,-0.0503728911280632
1789564035459668700,8.943668701171875,-0.24586063623428345,-0.0688278004527092,-0.043657466769218445
1789564035469637600,8.9536376953125,-0.1645260900259018,-0.016176041215658188,-0.10378338396549225
1789564035479606500,8.9636064453125,-0.27290451526641846,-0.00960042979568243,-0.06322530657052994
1789564035489576700,8.97357666015625,-0.19165438413619995,-0.006418484263122082,-0.04837951809167862
1789564035499545900,8.9835458984375,-0.03352547064423561,-0.04662209749221802,-0.09352968633174896
1789564035509515800,8.993515869140625,-0.07382655143737793,-0.06711459159851074,-0.11208073049783707
1789564035519484700,9.003484619140625,-0.1485290229320526,-0.01167343370616436,-0.04878724738955498
1789564035529455000,9.013455078125,-0.11154144257307053,-0.05372794345021248,0.03519793599843979
1789564035539424300,9.02342431640625,-0.03710955008864403,-0.03546078875660896,-0.1039104163646698
1789564035549393200,9.03339306640625,-0.0715000182390213,-0.06912980228662491,-0.08999327570199966
1789564035559363000,9.043363037109375,-0.2174748033285141,-0.020330306142568588,0.02785799652338028
1789564035569332200,9.053332275390625,-0.0582052506506443,-0.054919175803661346,0.03533774986863136
1789564035579302100,9.06330224609375,-0.0031704932916909456,-0.030342726036906242,0.00956687331199646
1789564035589271000,9.07327099609375,-0.0783187747001648,-0.042155176401138306,0.0946468785405159
1789564035599241000,9.083240966796875,-0.11343175172805786,-0.005943376570940018,0.06205431744456291
1789564035609210000,9.093210205078124,-0.008529838174581528,-0.07135460525751114,0.0294329896569252
1789564035619179000,9.103178955078125,0.0054762582294642925,-0.05705582723021507,-0.00020586235041264445
1789564035629149200,9.113149169921876,-0.03399898111820221,-0.09878303855657578,0.06963740289211273
1789564035639118000,9.1231181640625,0.0058094197884202,-0.1332174390554428,0.0341196209192276
1789564035649088300,9.133088134765625,0.08758284896612167,-0.14907443523406982,0.044202081859111786
1789564035659057200,9.14305712890625,0.14870531857013702,-0.11899562925100327,-0.01588122919201851
1789564035669027000,9.153027099609375,0.16576366126537323,-0.08627630025148392,-0.05772135406732559
1789564035678996000,9.162995849609375,0.1027681902050972,-0.01920006051659584,-0.02219877950847149
1789564035688965000,9.172965087890624,0.22327010333538055,-0.08492367714643478,0.07734991610050201
1789564035698935000,9.18293505859375,0.22948938608169556,-0.08275160193443298,0.1167449951171875
1789564035708904000,9.192904052734375,0.19476841390132904,0.0006045375484973192,0.04520103335380554
1789564035718874000,9.2028740234375,0.1004168838262558,-0.004028031136840582,0.08402059972286224
1789564035728843300,9.21284326171875,0.2555026113986969,0.014676947146654129,0.037275999784469604
1789564035738812200,9.222812255859376,0.35352185368537903,-0.05673305317759514,-0.03456197306513786
1789564035748782000,9.232781982421875,0.28514811396598816,0.19067354500293732,-0.1007780060172081
1789564035758751200,9.242751220703125,0.1499340981245041,0.12511584162712097,-0.0940476655960083
1789564035768721200,9.25272119140625,0.12780669331550598,0.046054575592279434,-0.025426264852285385
1789564035778690000,9.26268994140625,0.1903366595506668,0.010557036846876144,0.07649557292461395
1789564035788660000,9.272659912109376,0.14741715788841248,0.10668916255235672,-0.0014721954939886928
1789564035798629000,9.282629150390624,0.12500105798244476,0.2072884738445282,-0.1707717478275299
1789564035808598000,9.292597900390625,0.06700273603200912,0.1690947562456131,-0.1944003701210022
1789564035818568200,9.302568115234376,0.019217902794480324,0.10183847695589066,-0.06730686873197556
1789564035828537300,9.312537353515625,0.07627400010824203,0.052498627454042435,-0.010489924810826778
1789564035838507300,9.32250732421875,-0.04922134056687355,0.18511472642421722,-0.10731980204582214
1789564035848476200,9.33247607421875,-0.21232983469963074,0.17039303481578827,-0.01853613369166851
1789564035858445000,9.342445068359375,-0.10739915817975998,0.08634287863969803,-0.031137146055698395
1789564035869038000,9.3530380859375,-0.027958396822214127,0.08504325151443481,-0.05601666495203972
1789564035879007000,9.363007080078125,-0.040277913212776184,0.12112349271774292,-0.10078013688325882
1789564035888977200,9.37297705078125,-0.14136485755443573,0.1323295384645462,-0.019343603402376175
1789564035898946000,9.382946044921875,-0.0974610447883606,0.07268086075782776,0.03664989024400711
1789564035908915000,9.3929150390625,-0.05696501582860947,0.08136036992073059,0.02851046994328499
1789564035918885000,9.402885009765624,-0.13908731937408447,0.1382545381784439,-0.0223228819668293
1789564035928854300,9.412854248046875,-0.2383851408958435,0.1496930867433548,0.007753793615847826
1789564035938824200,9.42282421875,-0.15676963329315186,0.16251088678836823,-0.0093905720859766
1789564035948793000,9.43279296875,-0.12082415819168091,0.07962532341480255,-0.008044877089560032
1789564035958762200,9.44276220703125,-0.07456744462251663,0.05074254050850868,0.00034674355993047357
1789564035968732200,9.452732177734376,-0.1928890347480774,0.1044853925704956,0.010874751955270767
1789564035978701000,9.462701171875,-0.2020881175994873,0.10337299108505249,0.0628569945693016
1789564035988671000,9.4726708984375,-0.15703648328781128,0.08533886820077896,0.09224497526884079
1789564035998640000,9.48264013671875,-0.11720918118953705,0.11723607778549194,0.04255837947130203
1789564036008609000,9.492609130859375,-0.11613326519727707,0.15657629072666168,0.04520050063729286
1789564036018579000,9.502578857421875,-0.12927143275737762,0.23260794579982758,-0.07954303175210953
1789564036028548000,9.512548095703124,-0.025075258687138557,0.11932826042175293,-0.11332149803638458
1789564036038518300,9.522518310546875,-0.19186824560165405,0.1342608630657196,0.08011187613010406
1789564036048487200,9.532487060546876,-0.17217576503753662,0.1696348339319229,0.00953598041087389
1789564036058457000,9.54245703125,-0.2035699039697647,0.06127241253852844,0.05848940834403038
1789564036068426200,9.55242626953125,-0.21593229472637177,0.06305326521396637,0.032286301255226135
1789564036078395100,9.56239501953125,-0.14005857706069946,0.0035366779193282127,0.11433988809585571
1789564036088365000,9.572364990234375,-0.11783209443092346,0.06929172575473785,-0.03396036475896835
1789564036098334000,9.582333984375,-0.12299596518278122,0.06713856011629105,-0.048948898911476135
1789564036108304100,9.59230419921875,-0.15841147303581238,0.056349292397499084,-0.03008413314819336
1789564036118273000,9.60227294921875,-0.1371717005968094,-0.00956527516245842,0.026187662035226822
1789564036128242000,9.612241943359376,-0.027343740686774254,-0.08577003329992294,0.07890786230564117
1789564036138212000,9.622212158203125,-0.10147975385189056,-0.008724515326321125,0.03869839385151863
1789564036148181200,9.63218115234375,-0.1546524316072464,0.005849899724125862,-0.012124307453632355
1789564036158151200,9.642151123046874,-0.004418983124196529,-0.012118182145059109,0.017555290833115578
1789564036168120000,9.6521201171875,0.03832688182592392,-0.046852726489305496,-0.016344351693987846
1789564036178089200,9.662089111328125,-0.000636761833447963,0.021737519651651382,-0.04508918151259422
1789564036188059100,9.67205908203125,-0.08451514691114426,-0.03020717017352581,-0.0029372002463787794
1789564036198028000,9.682028076171875,-0.1310405731201172,0.003483414649963379,-0.04657495766878128
1789564036207998000,9.691998046875,-0.03765896335244179,0.04861200973391533,-0.08084584772586823
1789564036217967000,9.701967041015624,0.07994303852319717,-0.16340278089046478,-0.021509818732738495
1789564036227936000,9.71193603515625,-0.057019878178834915,-0.04163692519068718,-0.0954626053571701
1789564036237906200,9.72190625,-0.00276169809512794,0.05365470424294472,-0.13099689781665802
1789564036247875300,9.731875244140625,0.18489767611026764,-0.1824004352092743,-0.06637902557849884
1789564036257845200,9.74184521484375,0.1455598622560501,-0.06711698323488235,-0.014960307627916336
1789564036267814100,9.751814208984374,0.062314506620168686,-0.08690906316041946,0.012358931824564934
1789564036277784000,9.7617841796875,0.03802594542503357,-0.05131485313177109,0.0007342335302382708
1789564036288376000,9.7723759765625,0.06659314036369324,-0.017553161829710007,-0.04362976923584938
1789564036298345200,9.78234521484375,0.06826640665531158,-0.006809968966990709,0.028894765302538872
1789564036308314000,9.792314208984376,0.05210554599761963,0.06850609183311462,-0.005636846646666527
1789564036318284000,9.802283935546875,0.0012596751330420375,0.022055767476558685,0.038490667939186096
1789564036328253000,9.8122529296875,-0.07279990613460541,0.056820403784513474,0.020045081153512
1789564036338223000,9.82222314453125,-0.06108252704143524,0.044740039855241776,-0.08329728990793228
1789564036348192300,9.832192138671875,-0.1392580270767212,0.01303137931972742,-0.06726985424757004
1789564036358161200,9.8421611328125,-0.3178754448890686,-0.02666383422911167,0.006965231616050005
1789564036368131000,9.852131103515624,-0.23064865171909332,-0.08094251900911331,-0.00009267800487577915
1789564036378100200,9.862100341796875,-0.298682302236557,-0.07987245917320251,-0.010765296407043934
1789564036388070100,9.872070068359376,-0.37272801995277405,-0.054965246468782425,-0.01218848954886198
1789564036398039000,9.8820390625,-0.26382339000701904,-0.0686887800693512,-0.016571253538131714
1789564036408009000,9.892009033203125,-0.26707032322883606,-0.19107088446617126,0.08856208622455597
1789564036417978000,9.90197802734375,-0.16110873222351074,0.014304903335869312,-0.027422303333878517
1789564036427947000,9.911947021484375,-0.06643442064523697,-0.07695097476243973,-0.019727632403373718
1789564036437917000,9.9219169921875,-0.07324837893247604,-0.07062117010354996,0.03033127449452877
1789564036447886300,9.93188623046875,0.018156899139285088,0.003191798459738493,-0.03948136419057846
1789564036457856300,9.941856201171875,0.009978065267205238,-0.07356183230876923,0.04296504333615303
1789564036467825200,9.9518251953125,-0.10301213711500168,0.05163602903485298,0.02191142365336418
1789564036477794000,9.9617939453125,-0.1977144032716751,0.0335712768137455,-0.08878526091575623
1789564036487764200,9.97176416015625,-0.38531386852264404,-0.016808541491627693,0.01215812936425209
1789564036497733000,9.981733154296874,-0.4858261048793793,-0.0843721404671669,0.11672767996788025
1789564036507703000,9.991703125,-0.354983389377594,-0.061942730098962784,0.02509416826069355
1789564036517672000,10.001671875,-0.24868863821029663,-0.08589466661214828,-0.06717237830162048
1789564036527640800,10.011640869140624,-0.22537559270858765,-0.10826735198497772,-0.011374094523489475
1789564036537611000,10.021611083984375,-0.1540881097316742,-0.05445738136768341,-0.010698184370994568
1789564036547580000,10.031579833984376,-0.09713480621576309,-0.16548456251621246,0.009109608829021454
1789564036557550000,10.041550048828125,-0.09392915666103363,-0.152421236038208,0.050207510590553284
1789564036567519000,10.05151904296875,-0.15885914862155914,-0.11566800624132156,0.02623293548822403
1789564036577488000,10.06148779296875,-0.10565479099750519,-0.07512937486171722,-0.0798807144165039
1789564036587457800,10.071457763671875,-0.05669896677136421,-0.18158844113349915,-0.0661662369966507
1789564036597427000,10.081427001953125,-0.17351000010967255,-0.1426013559103012,-0.02845534309744835
1789564036607396900,10.09139697265625,-0.17165537178516388,-0.14494547247886658,-0.021946577355265617
1789564036617365800,10.10136572265625,-0.0781422033905983,-0.13232101500034332,-0.04625724256038666
1789564036627335000,10.1113349609375,0.13257108628749847,-0.13651390373706818,-0.10392506420612335
1789564036637305000,10.12130517578125,0.2144763469696045,-0.1977493017911911,-0.06029636412858963
1789564036647274000,10.13127392578125,0.3065756559371948,-0.18250936269760132,0.005288239102810621
1789564036657244000,10.141243896484376,0.34290221333503723,-0.19269302487373352,0.02010340429842472
1789564036667213000,10.151213134765625,0.3190637528896332,-0.15363509953022003,0.03374118730425835
1789564036677182000,10.161181884765625,0.28114351630210876,-0.13199637830257416,-0.013736585155129433
1789564036687151900,10.17115185546875,0.2552317678928375,-0.13324247300624847,0.04031333327293396
1789564036697121000,10.18112109375,0.30564460158348083,-0.19460730254650116,0.030546192079782486
1789564036707091000,10.191091064453126,0.35287177562713623,-0.1449718326330185,0.03542004153132439
1789564036717059800,10.201059814453124,0.46357643604278564,-0.1697043478488922,0.009732788428664207
1789564036727028700,10.21102880859375,0.5010255575180054,-0.13421319425106049,0.071757011115551
1789564036736999000,10.2209990234375,0.5671132206916809,-0.11746617406606674,0.06965018063783646
1789564036746967800,10.2309677734375,0.5918713212013245,-0.04223347455263138,0.030166957527399063
1789564036756938000,10.24093798828125,0.4991898238658905,0.05362088233232498,-0.024474449455738068
1789564036766907000,10.250906982421874,0.4120922088623047,0.04536961019039154,0.08638335764408112
1789564036776876000,10.2608759765625,0.38515326380729675,-0.0019230686593800783,0.0562765896320343
1789564036786846000,10.270845947265625,0.34461623430252075,0.06617289781570435,-0.053497314453125
1789564036796814800,10.28081494140625,0.20363888144493103,0.08423525094985962,-0.010153568349778652
1789564036806784800,10.29078466796875,0.1263566017150879,0.07688599079847336,0.004712196998298168
1789564036816754000,10.30075390625,0.09643865376710892,0.04041533172130585,0.015501994639635086
1789564036826722800,10.310722900390624,0.049920156598091125,0.08702065050601959,-0.11803928762674332
1789564036836692700,10.320692626953125,-0.0774143636226654,0.047382693737745285,0.01477734837681055
1789564036846662000,10.330661865234376,-0.16479560732841492,0.026388464495539665,0.0721500962972641
1789564036856632000,10.340632080078125,-0.08008018881082535,-0.02652854658663273,0.03297952190041542
1789564036866601000,10.35060107421875,-0.1473233997821808,0.07295862585306168,-0.07902078330516815
1789564036876570000,10.360570068359374,-0.24181689321994781,0.05264350399374962,-0.040168456733226776
1789564036886540000,10.3705400390625,-0.2739630937576294,-0.004861334338784218,-0.008893094025552273
1789564036896509000,10.380509033203126,-0.20961260795593262,-0.05452129989862442,-0.054668303579092026
1789564036906478800,10.390478759765625,-0.21546997129917145,-0.0400608666241169,-0.05233750492334366
1789564036916448000,10.400447998046875,-0.3039409816265106,-0.0031843415927141905,-0.017704961821436882
1789564036926417000,10.4104169921875,-0.17671991884708405,-0.03514866530895233,-0.04014182835817337
1789564036936386800,10.42038671875,-0.0745871514081955,-0.07170747965574265,-0.009817743673920631
1789564036946355700,10.430355712890625,-0.06564798206090927,-0.03255021944642067,0.00983345601707697
1789564036956326000,10.440325927734374,-0.04971295967698097,-0.026763170957565308,-0.009843043051660061
1789564036966295000,10.450294921875,-0.08690506964921951,0.0023339942563325167,0.004340153653174639
1789564036976264000,10.460263916015625,-0.054607052356004715,-0.0335872545838356,-0.007693339604884386
1789564036986233900,10.47023388671875,-0.10976218432188034,-0.0012338425731286407,0.02027677558362484
1789564036996203000,10.480203125,-0.05161978304386139,-0.02281130664050579,0.008703743107616901
1789564037006172000,10.490171875,-0.052983056753873825,-0.011033209972083569,0.03820624202489853
1789564037016141800,10.500141845703125,-0.0310460664331913,-0.031443145126104355,0.022185463458299637
1789564037026111000,10.510111083984375,-0.0558512806892395,-0.014735536649823189,0.03178882226347923
1789564037036081000,10.520080810546874,-0.06855083256959915,-0.05203044414520264,0.02371065504848957
1789564037046049800,10.5300498046875,-0.12961551547050476,-0.02786651812493801,0.04379195719957352
1789564037056019000,10.54001904296875,-0.15170323848724365,-0.04355812817811966,0.04585057869553566
1789564037065989000,10.549989013671874,-0.167310431599617,-0.09186414629220963,0.05102217197418213
1789564037075958000,10.5599580078125,-0.17833831906318665,-0.03719130903482437,-0.013460681773722172
1789564037085928000,10.569927978515626,-0.19154652953147888,-0.051902346312999725,-0.010634534992277622
1789564037095896800,10.579896728515624,-0.17964832484722137,-0.08175265043973923,-0.021742047742009163
1789564037105866000,10.589865966796875,-0.20153550803661346,-0.04634459689259529,-0.024469124153256416
1789564037115836000,10.5998359375,-0.1706034243106842,-0.08394310623407364,-0.011361311189830303
1789564037125804800,10.6098046875,-0.16005171835422516,-0.1570039987564087,0.04783010482788086
1789564037135775000,10.61977490234375,-0.08357958495616913,-0.16667766869068146,0.006536195985972881
1789564037145744000,10.629743896484374,-0.06913726031780243,-0.16395777463912964,0.006599313113838434
1789564037155712800,10.639712646484375,-0.10154420137405396,-0.13797704875469208,0.01017034612596035
1789564037165682700,10.6496826171875,-0.17311611771583557,-0.09955721348524094,0.016406936571002007
1789564037175651800,10.65965185546875,-0.08932721614837646,-0.1148994192481041,-0.03807015344500542
1789564037185620700,10.669620849609375,-0.0902412161231041,-0.10109172761440277,0.04375253990292549
1789564037195591000,10.6795908203125,-0.04608680307865143,-0.12431476265192032,0.016103869304060936
1789564037205560000,10.68956005859375,-0.02167014218866825,-0.08105410635471344,-0.005342034623026848
1789564037215530000,10.699530029296875,0.05096970871090889,-0.08148606866598129,-0.03700995072722435
1789564037225499000,10.709498779296876,0.07967725396156311,-0.08831761032342911,-0.08183121681213379
1789564037235468000,10.719468017578125,0.017116403207182884,-0.09570575505495071,-0.005061337724328041
1789564037245438000,10.72943798828125,0.1138157844543457,-0.17175312340259552,0.014475611969828606
1789564037255406800,10.73940673828125,0.12966425716876984,-0.14430338144302368,0.03130652382969856
1789564037265376800,10.749376708984375,0.09298480302095413,-0.09252407401800156,0.02742949314415455
1789564037275346000,10.759345947265626,0.1750088334083557,-0.12909406423568726,0.005587844643741846
1789564037285314800,10.769314697265624,0.20653799176216125,-0.1755358725786209,0.046542469412088394
1789564037295285000,10.779284912109375,0.22492659091949463,-0.15010587871074677,0.019777698442339897
1789564037305254000,10.78925390625,0.2407979667186737,-0.14264076948165894,-0.02905268967151642
1789564037315223000,10.79922314453125,0.24535197019577026,-0.09481412917375565,-0.041675541549921036
1789564037325193000,10.80919287109375,0.3370344936847687,-0.16179876029491425,0.00748987402766943
1789564037335161900,10.819161865234374,0.35093751549720764,-0.11347196996212006,0.018388861790299416
1789564037345131800,10.8291318359375,0.37619173526763916,-0.11045913398265839,-0.01907355897128582
1789564037355101000,10.839100830078126,0.3136439323425293,-0.04927007853984833,-0.01563754864037037
1789564037365069800,10.84906982421875,0.37753424048423767,-0.09826584905385971,-0.04670971632003784
1789564037375039700,10.859039794921875,0.35035666823387146,-0.12738245725631714,-0.005871205125004053
1789564037385009000,10.8690087890625,0.3101283013820648,-0.10373571515083313,0.002293247962370515
1789564037394977800,10.878977783203124,0.29250723123550415,-0.06716226041316986,0.004225371405482292
1789564037404948000,10.888947998046875,0.37312325835227966,-0.07391630113124847,0.0200986098498106
1789564037414917000,10.898917236328124,0.39248788356781006,-0.03273504227399826,0.024714933708310127
1789564037424887000,10.908886962890625,0.42104098200798035,-0.03303305059671402,0.04075941443443298
1789564037434856000,10.91885595703125,0.32854726910591125,0.03803792968392372,0.0031425300985574722
1789564037444824800,10.928824951171874,0.3732561469078064,0.02322383038699627,-0.005682120565325022
1789564037454795000,10.938794921875,0.33379900455474854,0.07462417334318161,0.0030945930629968643
1789564037464764000,10.948763916015626,0.379790723323822,0.035469844937324524,0.062298793345689774
1789564037474732800,10.95873291015625,0.3824611008167267,0.0685574859380722,0.06244686618447304
1789564037484702700,10.96870263671875,0.35708728432655334,0.10831848531961441,-0.012773585505783558
1789564037494672000,10.978671875,0.2737590968608856,0.09541014581918716,0.054130081087350845
1789564037504642000,10.98864208984375,0.22332869470119476,0.13540256023406982,0.026994599029421806
1789564037514611000,10.99861083984375,0.20277361571788788,0.16363340616226196,0.009972472675144672
1789564037524579300,11.008579345703126,0.1848801076412201,0.16527071595191956,0.02033350057899952
1789564037534549500,11.018549560546875,0.137163445353508,0.22430367767810822,0.015457252971827984
1789564037544518400,11.028518310546875,0.12390836328268051,0.1901065558195114,-0.05109700560569763
1789564037554487600,11.038487548828124,0.037942055612802505,0.12897290289402008,-0.062307849526405334
1789564037564457500,11.04845751953125,-0.05175773799419403,0.11894183605909348,-0.013390107080340385
1789564037574426400,11.05842626953125,-0.03446156904101372,0.10462574660778046,-0.049790993332862854
1789564037584395500,11.0683955078125,-0.04278261587023735,0.12778273224830627,-0.015321431681513786
1789564037594365400,11.078365478515625,-0.061169881373643875,0.15791772305965424,-0.019232017919421196
1789564037604334300,11.088334228515626,-0.10305128246545792,0.1449449360370636,0.046715039759874344
1789564037614304300,11.09830419921875,-0.08333190530538559,0.10561271011829376,0.010312026366591454
1789564037624273400,11.1082734375,-0.1096455380320549,0.0941920131444931,-0.016475912183523178
1789564037634242300,11.1182421875,-0.14603815972805023,0.10951051115989685,-0.040896300226449966
1789564037644212200,11.128212158203125,-0.10539193451404572,0.08672211319208145,-0.06605438143014908
1789564037654181400,11.138181396484375,-0.10949613153934479,0.06208281219005585,0.007282680366188288
1789564037664150500,11.148150634765624,-0.09030406177043915,0.08502061665058136,0.028653215616941452
1789564037674120400,11.158120361328125,-0.05944601446390152,0.10114419460296631,0.010448912158608437
1789564037684089300,11.16808935546875,-0.09688793122768402,0.13099956512451172,-0.0029981867410242558
1789564037694058500,11.17805859375,-0.07348114252090454,0.08383338153362274,-0.03044765442609787
1789564037704028400,11.1880283203125,-0.1462181955575943,0.08742571622133255,-0.021156683564186096
1789564037713997300,11.197997314453126,-0.11599158495664597,0.08495483547449112,-0.0017654094845056534
1789564037723967200,11.20796728515625,-0.11433562636375427,0.06295046955347061,0.010152769275009632
1789564037733936400,11.217936279296875,-0.11046525835990906,0.05501531437039375,0.0013851100811734796
1789564037743905300,11.2279052734375,-0.10632564127445221,0.10342386364936829,0.025292839854955673
1789564037753875200,11.237875244140625,-0.06179998442530632,0.07991640269756317,-0.004808337427675724
1789564037763844400,11.24784423828125,-0.08095237612724304,0.09879262000322342,-0.068694107234478
1789564037773813200,11.257813232421874,-0.16884121298789978,0.09307188540697098,-0.041369542479515076
1789564037783783400,11.267783447265625,-0.14361655712127686,0.022907180711627007,-0.0007571366732008755
1789564037793752300,11.27775244140625,-0.12951219081878662,0.049800045788288116,0.017615744844079018
1789564037803721500,11.287721435546874,-0.09343594312667847,0.10410775989294052,-0.059117116034030914
1789564037813691400,11.29769140625,-0.1176866888999939,0.07028907537460327,0.025562351569533348
1789564037823660300,11.307660400390626,-0.12214082479476929,0.002291117561981082,0.11748562008142471
1789564037833630200,11.317630126953125,-0.055087752640247345,-0.003668237943202257,0.08402565866708755
1789564037843599400,11.327599365234375,-0.07020225375890732,0.03531990572810173,0.03341761231422424
1789564037853568300,11.337568359375,-0.13493944704532623,0.10177989304065704,0.02564251236617565
1789564037863538200,11.3475380859375,-0.0662892758846283,0.051541220396757126,0.0073351445607841015
1789564037873507300,11.35750732421875,-0.10391893982887268,0.07034340500831604,-0.013068663887679577
1789564037883476200,11.367476318359374,-0.11507199704647064,0.07575228810310364,-0.05540173873305321
1789564037893446400,11.3774462890625,-0.18259111046791077,0.07599516212940216,0.004553738981485367
1789564037903415600,11.38741552734375,-0.14282453060150146,0.057369548827409744,0.02803376503288746
1789564037913384400,11.397384521484375,-0.12973135709762573,0.0739234909415245,-0.01595180295407772
1789564037923354400,11.407354248046875,-0.16395138204097748,0.09995216131210327,-0.010632936842739582
1789564037933323300,11.4173232421875,-0.21770036220550537,0.060030046850442886,0.034926027059555054
1789564037943292400,11.42729248046875,-0.1807522028684616,0.055513061583042145,0.05501877889037132
1789564037953262300,11.437262451171875,-0.1663767248392105,0.07276688516139984,-0.020735638216137886
1789564037963231200,11.447231201171874,-0.2723920941352844,0.10723751038312912,0.0035364115610718727
1789564037973200400,11.457200439453125,-0.22861453890800476,0.05546246096491814,-0.06732524186372757
1789564037983170300,11.46717041015625,-0.13482679426670074,0.00654578348621726,-0.0633893609046936
1789564037993139200,11.47713916015625,-0.1722244918346405,0.03930133208632469,-0.04639652743935585
1789564038003109400,11.487109375,-0.08385202288627625,0.01936943642795086,-0.0527697391808033
1789564038013078500,11.49707861328125,-0.08268662542104721,0.042935747653245926,-0.07775790989398956
1789564038023047400,11.50704736328125,-0.04199405387043953,0.013042032718658447,-0.03623363748192787
1789564038033017300,11.517017333984375,0.024025708436965942,-0.009472597390413284,-0.019054917618632317
1789564038042986500,11.526986572265624,0.052317798137664795,0.022845128551125526,-0.0430729016661644
1789564038052955400,11.536955322265625,0.005057342816144228,0.02803456410765648,-0.05247625708580017
1789564038062925300,11.54692529296875,0.019701533019542694,-0.018926287069916725,-0.009328787215054035
1789564038072894200,11.556894287109374,0.047450605779886246,-0.03073900379240513,-0.01750229485332966
1789564038082863400,11.56686328125,0.06379815191030502,-0.012577843852341175,-0.06660299748182297
1789564038092833300,11.576833251953126,0.017481522634625435,-0.08375055342912674,-0.03985953330993652
1789564038102802200,11.58680224609375,-0.00691969133913517,-0.06715346872806549,0.006405967753380537
1789564038112771300,11.596771240234375,0.051180895417928696,-0.0675974190235138,0.020772656425833702
1789564038122741500,11.606741455078126,0.12169501185417175,-0.011243066750466824,-0.0015369103057309985
1789564038132710400,11.61671044921875,0.13556554913520813,-0.03508927673101425,0.00945235788822174
1789564038142679600,11.626679443359375,0.12200180441141129,0.03398832678794861,0.010223343037068844
1789564038152649500,11.6366494140625,0.17921769618988037,0.00802943017333746,-0.023430224508047104
1789564038162618400,11.646618408203125,0.17725680768489838,0.011771172285079956,0.0024261397775262594
1789564038172587500,11.65658740234375,0.12798352539539337,-0.049543317407369614,0.08115451037883759
1789564038182557400,11.666557373046874,0.12200180441141129,-0.02538791485130787,0.08917035907506943
1789564038192526300,11.6765263671875,0.14760437607765198,0.02972540445625782,0.01170565839856863
1789564038202495200,11.6864951171875,0.10431069135665894,0.035950809717178345,0.002168878447264433
1789564038212465400,11.69646533203125,-0.011883823201060295,0.03254995495080948,0.07318206876516342
1789564038222434300,11.706434326171875,0.05644064024090767,0.056356750428676605,-0.008295213803648949
1789564038232403200,11.7164033203125,0.12523594498634338,0.06387165933847427,-0.04062119498848915
1789564038242373400,11.726373291015625,0.06396513432264328,0.09427696466445923,-0.027300329878926277
1789564038252342500,11.736342529296875,0.028309935703873634,0.05203497037291527,0.04271790385246277
1789564038262311400,11.7463115234375,0.007527424953877926,0.005025118589401245,-0.006644587032496929
1789564038272281300,11.75628125,0.051665857434272766,-0.0545111782848835,-0.0037015276029706
1789564038282250500,11.76625048828125,-0.05396736040711403,0.014660702086985111,-0.07124994695186615
1789564038292219400,11.776219482421874,-0.1011204943060875,-0.005845105741173029,0.014042848721146584
1789564038302189300,11.786189208984375,-0.04508572071790695,-0.014781076461076736,0.006050435826182365
1789564038312158500,11.796158447265626,0.004947354551404715,0.011260909959673882,-0.03918362036347389
1789564038322127400,11.80612744140625,0.002906573936343193,0.0034016557037830353,-0.012395682744681835
1789564038332097300,11.81609716796875,0.03483308106660843,0.012257198803126812,-0.0525931715965271
1789564038342066200,11.826066162109376,0.04339541122317314,-0.013520868495106697,-0.09222633391618729
1789564038352035300,11.836035400390625,0.023621972650289536,0.004788629710674286,-0.006937268190085888
1789564038362005500,11.846005615234375,-0.03425251320004463,-0.0005579322460107505,0.047631699591875076
1789564038371974400,11.855974365234376,0.045821018517017365,0.0035025894176214933,-0.010481935925781727
1789564038381943600,11.865943603515625,0.026646258309483528,0.016416257247328758,-0.06380560994148254
1789564038391913500,11.87591357421875,-0.04763596132397652,0.018135327845811844,-0.006354568526148796
1789564038401882400,11.88588232421875,-0.13028903305530548,0.0011371697764843702,-0.0033688987605273724
1789564038411852300,11.895852294921875,-0.07436664402484894,0.0004183826094958931,-0.06352491676807404
1789564038421821400,11.905821533203126,-0.06438138335943222,0.01238982379436493,-0.1430695354938507
1789564038431790300,11.915790283203124,-0.10697385668754578,0.014995727688074112,-0.0467669740319252
1789564038441759200,11.92575927734375,-0.08841881155967712,-0.005859486758708954,0.044985584914684296
1789564038451729400,11.9357294921875,0.0005422196118161082,0.009369799867272377,0.015866314992308617
1789564038461698300,11.9456982421875,-0.04650704935193062,0.0823846235871315,-0.05649363622069359
1789564038471668200,11.955668212890625,-0.16443128883838654,0.04454030469059944,0.013484117574989796
1789564038481637400,11.965637451171874,-0.13650085031986237,-0.02895415388047695,0.034449584782123566
1789564038491606500,11.9756064453125,-0.20462478697299957,0.025684058666229248,0.010485664010047913
1789564038501575400,11.985575439453125,-0.17733882367610931,0.0386216938495636,0.02275378257036209
1789564038511545300,11.99554541015625,-0.19668962061405182,0.0065079666674137115,-0.007212639320641756
1789564038521514800,12.0055146484375,-0.19405388832092285,-0.057851314544677734,0.030672691762447357
1789564038531485000,12.01548486328125,-0.22956235706806183,-0.08400142937898636,0.10835949331521988
1789564038541453800,12.025453857421875,-0.18439354002475739,-0.07533949613571167,0.09029421210289001
1789564038551422700,12.035422607421875,-0.15488359332084656,-0.03790823370218277,0.04740959405899048
1789564038561393000,12.045392822265624,-0.14662352204322815,0.0028101676143705845,-0.04271630570292473
1789564038571361800,12.05536181640625,-0.17154724895954132,-0.01161724142730236,-0.02923937886953354
1789564038581330700,12.06533056640625,-0.1467641443014145,-0.07545427978038788,-0.014402907341718674
1789564038591299800,12.0752998046875,-0.12852175533771515,-0.11728907376527786,0.0711575299501419
1789564038601269800,12.085269775390625,-0.06964565813541412,-0.07753180712461472,0.050992343574762344
1789564038611238700,12.09523876953125,-0.0277932807803154,-0.010919759050011635,-0.01750336028635502
