time,seconds_elapsed,z,y,x
1788957422473823500,0.035823486328125,-0.83160400390625,-0.4810791015625,-0.099884033203125
1788957422483873500,0.04587353515625,-0.838226318359375,-0.4956207275390625,-0.026214599609375
1788957422493923600,0.055923583984375,-0.85650634765625,-0.5325775146484375,0.042266845703125
1788957422503974400,0.065974365234375,-0.841339111328125,-0.5658721923828125,0.1192474365234375
1788957422514024400,0.0760244140625,-0.8619232177734375,-0.5535736083984375,0.15826416015625
1788957422524074500,0.086074462890625,-0.8739013671875,-0.513824462890625,0.1595001220703125
1788957422534124500,0.09612451171875,-0.8418121337890625,-0.471343994140625,0.1360321044921875
1788957422544175600,0.106175537109375,-0.90179443359375,-0.444580078125,0.0871124267578125
1788957422554225400,0.116225341796875,-0.96527099609375,-0.4057769775390625,0.085418701171875
1788957422564275500,0.126275390625,-0.981689453125,-0.2613983154296875,0.1607513427734375
1788957422574325500,0.136325439453125,-0.98724365234375,-0.26177978515625,0.18634033203125
1788957422584376600,0.14637646484375,-0.9658966064453125,-0.3457489013671875,0.2247467041015625
1788957422594426600,0.156426513671875,-0.9781951904296875,-0.428558349609375,0.2694244384765625
1788957422604476400,0.166476318359375,-0.85791015625,-0.430633544921875,0.339263916015625
1788957422614526500,0.1765263671875,-0.6854095458984375,-0.4215850830078125,0.418609619140625
1788957422624577500,0.18657763671875,-0.6486053466796875,-0.45037841796875,0.4346923828125
1788957422634627600,0.196627685546875,-0.8376922607421875,-0.5838623046875,0.395172119140625
1788957422644677600,0.206677734375,-0.87298583984375,-0.7440948486328125,0.333251953125
1788957422654727400,0.2167275390625,-0.6643829345703125,-0.7826690673828125,0.3380126953125
1788957422664777500,0.226777587890625,-0.445709228515625,-0.7214508056640625,0.3123016357421875
1788957422674828500,0.23682861328125,-0.3331756591796875,-0.66290283203125,0.2500457763671875
1788957422684878600,0.246878662109375,-0.385162353515625,-0.653900146484375,0.2747955322265625
1788957422694928600,0.2569287109375,-0.433074951171875,-0.6601715087890625,0.30194091796875
1788957422704978400,0.266978515625,-0.5171051025390625,-0.6873016357421875,0.270355224609375
1788957422715029500,0.277029541015625,-0.7057952880859375,-0.8233795166015625,0.2276153564453125
1788957422725079600,0.28707958984375,-0.89532470703125,-1.0217132568359375,0.1628570556640625
1788957422735129600,0.297129638671875,-0.9810791015625,-1.162567138671875,0.0780029296875
1788957422745179600,0.3071796875,-1.0209808349609375,-1.047760009765625,0.08892822265625
1788957422755230700,0.317230712890625,-1.03472900390625,-0.5850982666015625,0.083465576171875
1788957422765280500,0.327280517578125,-0.936767578125,-0.1267242431640625,0.0200347900390625
1788957422775330600,0.33733056640625,-0.890045166015625,0.1236572265625,0.0595855712890625
1788957422785380600,0.347380615234375,-0.9913787841796875,0.193572998046875,0.1963043212890625
1788957422795431700,0.357431640625,-0.917266845703125,0.171630859375,0.3556060791015625
1788957422805481700,0.367481689453125,-0.684906005859375,0.1567535400390625,0.500701904296875
1788957422815531500,0.377531494140625,-0.4404754638671875,0.1357421875,0.6263427734375
1788957422825581600,0.38758154296875,-0.3374786376953125,0.08404541015625,0.7445526123046875
1788957422835632600,0.397632568359375,-0.4404449462890625,0.0468292236328125,0.760528564453125
1788957422845682700,0.4076826171875,-0.464447021484375,-0.022918701171875,0.6475677490234375
1788957422855732500,0.417732421875,-0.551361083984375,-0.0939788818359375,0.5605926513671875
1788957422865782500,0.427782470703125,-0.69268798828125,-0.1346282958984375,0.4437408447265625
1788957422875833600,0.43783349609375,-0.7926177978515625,-0.2087860107421875,0.355194091796875
1788957422885883600,0.447883544921875,-0.8129119873046875,-0.3307037353515625,0.3733673095703125
1788957422895933700,0.45793359375,-1.078460693359375,-0.5089263916015625,0.3531341552734375
1788957422905983500,0.4679833984375,-1.21600341796875,-0.8264312744140625,0.3980560302734375
1788957422916034600,0.47803466796875,-1.4076385498046875,-1.0457305908203125,0.3136749267578125
1788957422926084600,0.488084716796875,-1.664764404296875,-1.2374725341796875,0.2550811767578125
1788957422936134700,0.498134765625,-1.6506195068359375,-1.34173583984375,0.2685089111328125
1788957422946184700,0.508184814453125,-1.652008056640625,-1.3729248046875,0.29302978515625
1788957422956235500,0.518235595703125,-1.6206512451171875,-1.470916748046875,0.1846771240234375
1788957422966285600,0.52828564453125,-1.5352325439453125,-1.62640380859375,-0.04193115234375
1788957422976335600,0.538335693359375,-1.423248291015625,-1.6988525390625,-0.2280120849609375
1788957422986385700,0.5483857421875,-1.327484130859375,-1.64312744140625,-0.3123931884765625
1788957422996436500,0.5584365234375,-1.2460784912109375,-1.6706085205078125,-0.2200164794921875
1788957423006486500,0.568486572265625,-1.025543212890625,-2.045135498046875,0.2797698974609375
1788957423016536600,0.57853662109375,0.5513153076171875,-2.1570892333984375,0.939605712890625
1788957423026586600,0.588586669921875,1.633270263671875,-1.359283447265625,1.3177032470703125
1788957423036637400,0.598637451171875,0.0592041015625,-0.986602783203125,1.0367431640625
1788957423046687500,0.6086875,-0.040924072265625,-1.1988525390625,0.5418243408203125
1788957423056737500,0.618737548828125,0.03094482421875,-1.082305908203125,0.1458892822265625
1788957423066787600,0.62878759765625,-0.337982177734375,-0.84124755859375,-0.020416259765625
1788957423076838400,0.63883837890625,-0.456695556640625,-0.6693878173828125,-0.176055908203125
1788957423086888400,0.648888427734375,-0.7197113037109375,-0.4881134033203125,-0.3259735107421875
1788957423096938500,0.6589384765625,-0.818878173828125,-0.4695281982421875,-0.3790283203125
1788957423106988500,0.668988525390625,-1.003875732421875,-0.4883270263671875,-0.3085784912109375
1788957423117039400,0.679039306640625,-1.026275634765625,-0.438873291015625,-0.08612060546875
1788957423127089400,0.68908935546875,-0.9810791015625,-0.4534149169921875,0.150299072265625
1788957423137139500,0.699139404296875,-0.762847900390625,-0.3105926513671875,0.358642578125
1788957423147189500,0.709189453125,-0.4512939453125,-0.2875518798828125,0.4724884033203125
1788957423157240600,0.719240478515625,-0.2526092529296875,-0.280059814453125,0.409027099609375
1788957423167290400,0.729290283203125,-0.0777130126953125,-0.3123779296875,0.1671600341796875
1788957423177340400,0.73934033203125,0.1042633056640625,-0.3530731201171875,0.136138916015625
1788957423187390500,0.749390380859375,-0.0183258056640625,-0.28466796875,0.1392364501953125
1788957423197441500,0.759441650390625,-0.042327880859375,-0.3075103759765625,0.308502197265625
1788957423207491600,0.76949169921875,-0.1051483154296875,-0.313873291015625,0.345703125
1788957423217541400,0.779541259765625,-0.2541351318359375,-0.3492889404296875,0.3579559326171875
1788957423227591400,0.78959130859375,-0.410919189453125,-0.3281707763671875,0.422393798828125
1788957423237642000,0.79964208984375,-0.307708740234375,-0.2111663818359375,0.7526702880859375
1788957423247692000,0.809692138671875,-0.274932861328125,-0.1385650634765625,0.9567413330078125
1788957423257742000,0.8197421875,-0.197967529296875,-0.0661163330078125,1.194122314453125
1788957423267792000,0.8297919921875,-0.1503143310546875,-0.072662353515625,1.198486328125
1788957423277843000,0.839843017578125,-0.14599609375,-0.445220947265625,1.110504150390625
1788957423287893000,0.84989306640625,-0.2450408935546875,-0.750244140625,1.1481781005859375
1788957423297943000,0.859943115234375,0.1037750244140625,-0.8120574951171875,1.307525634765625
1788957423307993000,0.8699931640625,0.2512969970703125,-0.9611968994140625,1.5322265625
1788957423318044000,0.8800439453125,0.3016357421875,-0.980712890625,1.7877960205078125
1788957423328094000,0.890093994140625,0.49139404296875,-0.9170989990234375,1.9998016357421875
1788957423338144000,0.90014404296875,0.406280517578125,-0.735076904296875,1.9207305908203125
1788957423348194000,0.910194091796875,0.1902923583984375,-0.5537261962890625,1.5724029541015625
1788957423358245000,0.9202451171875,-0.1091461181640625,-0.5335845947265625,1.352783203125
1788957423368295000,0.930294921875,-0.19970703125,-0.4187774658203125,1.29229736328125
1788957423378345000,0.940344970703125,-0.307342529296875,-0.198150634765625,1.1729888916015625
1788957423388395000,0.95039501953125,-0.4535980224609375,-0.1976776123046875,1.1038055419921875
1788957423398446000,0.960446044921875,-0.3440093994140625,-0.377655029296875,0.980133056640625
1788957423408496000,0.97049609375,-0.30419921875,-0.5040130615234375,0.8619842529296875
1788957423418546000,0.9805458984375,-0.339447021484375,-0.4920196533203125,0.7318267822265625
1788957423428596000,0.990595947265625,-0.415283203125,-0.4947357177734375,0.7428741455078125
1788957423438647000,1.00064697265625,-0.218170166015625,-0.47271728515625,0.88018798828125
1788957423448697000,1.010697021484375,0.0303955078125,-0.4741058349609375,1.0140838623046875
1788957423458747100,1.0207470703125,0.2267303466796875,-0.43841552734375,1.09503173828125
1788957423468797000,1.030796875,0.271697998046875,-0.4149322509765625,1.106292724609375
1788957423478848000,1.040847900390625,-0.069976806640625,-0.4008026123046875,1.15728759765625
1788957423488898000,1.05089794921875,-0.1873626708984375,-0.39996337890625,1.238189697265625
1788957423498948000,1.060947998046875,0.3857574462890625,-0.57177734375,1.434173583984375
1788957423508998100,1.070998046875,0.186279296875,-0.627197265625,1.787506103515625
1788957423519049200,1.08104931640625,-0.08148193359375,-0.2345428466796875,1.4863739013671875
1788957423529099000,1.09109912109375,-0.3102264404296875,-0.02923583984375,1.035919189453125
1788957423539149000,1.101149169921875,-0.452056884765625,-0.22528076171875,0.8777618408203125
1788957423549199000,1.11119921875,-0.1749267578125,-0.1856842041015625,0.652587890625
1788957423559250200,1.121250244140625,-0.17083740234375,0.03570556640625,0.3518829345703125
1788957423569300000,1.131300048828125,-0.230194091796875,0.2191314697265625,0.3229827880859375
1788957423579350000,1.14135009765625,0.1226654052734375,0.334716796875,0.3329925537109375
1788957423589400000,1.151400146484375,0.5440216064453125,0.313690185546875,0.2413330078125
1788957423599451100,1.161451171875,0.8210296630859375,0.3440704345703125,0.057220458984375
1788957423609501200,1.171501220703125,0.6712188720703125,0.4444122314453125,-0.169189453125
1788957423619551000,1.181551025390625,0.2830352783203125,0.530975341796875,-0.1737823486328125
1788957423629601000,1.19160107421875,0.0464019775390625,0.5663604736328125,0.0228729248046875
1788957423639652000,1.201652099609375,0.098358154296875,0.57470703125,0.132110595703125
1788957423649702100,1.2117021484375,0.0616607666015625,0.4498748779296875,0.076568603515625
1788957423659752200,1.221752197265625,0.0173187255859375,0.2985076904296875,0.2690582275390625
1788957423669802000,1.231802001953125,0.009918212890625,0.4106597900390625,0.43206787109375
1788957423679853000,1.24185302734375,-0.0194854736328125,0.2938079833984375,0.4765777587890625
1788957423689903000,1.251903076171875,0.1256866455078125,-0.4062652587890625,0.3943023681640625
1788957423699953200,1.261953125,0.271270751953125,-1.0897674560546875,0.3597412109375
1788957423710003200,1.272003173828125,-0.0985870361328125,-1.0015869140625,0.1129608154296875
1788957423720054300,1.28205419921875,0.333160400390625,-0.672607421875,-0.193878173828125
1788957423730104000,1.29210400390625,0.4951019287109375,-0.470062255859375,0.0265350341796875
1788957423740154000,1.302154052734375,0.2354278564453125,-0.79754638671875,-0.0875701904296875
1788957423750204200,1.3122041015625,0.087127685546875,-1.42333984375,-0.4164581298828125
1788957423760255000,1.3222548828125,-0.02496337890625,-1.844451904296875,-0.4393310546875
1788957423770305300,1.33230517578125,0.1855316162109375,-1.787261962890625,-0.47894287109375
1788957423780355000,1.34235498046875,0.2593841552734375,-1.5085906982421875,-0.231689453125
1788957423790405000,1.352405029296875,0.0927581787109375,-1.52752685546875,-0.0750579833984375
1788957423800456000,1.3624560546875,-0.008758544921875,-1.066864013671875,0.21600341796875
1788957423810506000,1.372506103515625,-0.0467681884765625,-0.967987060546875,0.417236328125
1788957423820556300,1.382556396484375,0.0473480224609375,-1.32672119140625,0.7855682373046875
1788957423830606000,1.392606201171875,0.0520782470703125,-2.6077880859375,1.2523651123046875
1788957423840657000,1.402656982421875,-0.1005859375,-3.7129058837890625,1.452880859375
1788957423850707000,1.41270703125,-0.138824462890625,-3.430206298828125,1.074432373046875
1788957423860757000,1.422757080078125,0.0307159423828125,-2.1208648681640625,0.4104461669921875
1788957423870807300,1.432807373046875,-1.322357177734375,-0.953033447265625,0.236114501953125
1788957423880857900,1.44285791015625,-2.0118408203125,-0.681976318359375,0.3201751708984375
1788957423890908000,1.452907958984375,-1.0934600830078125,-1.0634918212890625,0.2887420654296875
1788957423900958000,1.4629580078125,0.0494232177734375,-1.014556884765625,-0.2843170166015625
1788957423911008000,1.473008056640625,2.800933837890625,-1.0327301025390625,-1.23681640625
1788957423921059000,1.48305908203125,3.15380859375,-0.517669677734375,-1.848175048828125
1788957423931108900,1.49310888671875,2.0314788818359375,-0.7128753662109375,-1.8284912109375
1788957423941159000,1.503158935546875,0.14068603515625,-1.4164581298828125,-0.8293609619140625
1788957423951209000,1.513208984375,1.3149871826171875,-0.987640380859375,-0.3842315673828125
1788957423961260000,1.523260009765625,0.522491455078125,-1.0224456787109375,-0.297454833984375
1788957423971310000,1.53331005859375,-0.44732666015625,-1.189178466796875,-0.3524169921875
1788957423981359900,1.54335986328125,-0.0459136962890625,-0.96484375,-0.1790924072265625
1788957423991410000,1.553409912109375,-0.238372802734375,-0.8528900146484375,-0.154998779296875
1788957424001461000,1.5634609375,-0.1711273193359375,-0.8086090087890625,-0.103851318359375
1788957424011511000,1.573510986328125,-0.0536041259765625,-0.81976318359375,-0.0214385986328125
1788957424021561000,1.58356103515625,0.14361572265625,-0.811614990234375,0.00067138671875
1788957424031611000,1.59361083984375,0.5835418701171875,-0.8375701904296875,-0.06732177734375
1788957424041662000,1.603661865234375,0.519500732421875,-0.91143798828125,-0.0704498291015625
1788957424051712000,1.6137119140625,0.2051544189453125,-1.019073486328125,-0.0218353271484375
1788957424061762000,1.623761962890625,0.1247100830078125,-1.0150146484375,-0.0816802978515625
1788957424071812000,1.63381201171875,0.11090087890625,-0.925567626953125,-0.2409820556640625
1788957424081863200,1.64386328125,0.245147705078125,-0.9157257080078125,-0.3680267333984375
1788957424091913000,1.653912841796875,0.392578125,-0.9759979248046875,-0.33062744140625
1788957424101963000,1.663962890625,0.412994384765625,-1.163665771484375,-0.24493408203125
1788957424112013000,1.674012939453125,0.196441650390625,-1.1908111572265625,-0.2242279052734375
1788957424122064100,1.684064208984375,0.0836334228515625,-1.0727386474609375,-0.2023773193359375
1788957424132114200,1.6941142578125,0.06353759765625,-0.9327850341796875,-0.16510009765625
1788957424142164000,1.7041640625,0.090728759765625,-0.9476470947265625,-0.129425048828125
1788957424152214000,1.714214111328125,0.1865234375,-0.9965057373046875,-0.109466552734375
1788957424162265000,1.72426513671875,0.247833251953125,-1.0029449462890625,-0.0927734375
1788957424172315100,1.734315185546875,0.14825439453125,-0.9705657958984375,-0.1440277099609375
1788957424182365000,1.744364990234375,-0.4003753662109375,-1.0390472412109375,-0.3330078125
1788957424192416000,1.754416015625,-0.481201171875,-1.2107391357421875,-0.2957611083984375
1788957424202466000,1.764466064453125,1.18499755859375,-1.0100250244140625,-0.2620086669921875
1788957424212516000,1.77451611328125,1.290618896484375,-0.8851776123046875,-0.4389495849609375
1788957424222566100,1.784566162109375,0.449859619140625,-1.0788726806640625,-0.36907958984375
1788957424232617200,1.7946171875,0.06854248046875,-1.118804931640625,-0.2914886474609375
1788957424242667300,1.804667236328125,0.0962066650390625,-1.00830078125,-0.37591552734375
1788957424252717300,1.81471728515625,0.1649322509765625,-0.9745025634765625,-0.4300994873046875
1788957424262767400,1.824767333984375,0.188690185546875,-0.8696136474609375,-0.3785400390625
1788957424272818400,1.834818359375,0.1705780029296875,-0.801605224609375,-0.301666259765625
1788957424282868200,1.8448681640625,0.2463531494140625,-0.8261871337890625,-0.2404937744140625
1788957424292918300,1.854918212890625,0.2806243896484375,-0.903106689453125,-0.2229156494140625
1788957424302968300,1.86496826171875,0.2485809326171875,-0.9774017333984375,-0.21844482421875
1788957424313019400,1.875019287109375,0.247100830078125,-1.0859375,-0.20269775390625
1788957424323069400,1.8850693359375,0.2665252685546875,-1.217559814453125,-0.2416534423828125
1788957424333119200,1.895119140625,0.190765380859375,-1.48883056640625,-0.2973785400390625
1788957424343169300,1.905169189453125,0.1528472900390625,-1.63458251953125,-0.3950347900390625
1788957424353220400,1.915220458984375,0.2015533447265625,-1.553466796875,-0.3990020751953125
1788957424363270400,1.9252705078125,0.338653564453125,-1.487640380859375,-0.3131561279296875
1788957424373320200,1.9353203125,0.296783447265625,-1.4985504150390625,-0.2922515869140625
1788957424383370200,1.945370361328125,0.12811279296875,-1.490814208984375,-0.17181396484375
1788957424393421000,1.955421142578125,0.025665283203125,-1.4220123291015625,0.0006561279296875
1788957424403471000,1.96547119140625,0.110626220703125,-1.1869049072265625,0.1004791259765625
1788957424413521400,1.975521484375,0.2856597900390625,-1.0001068115234375,0.1017303466796875
1788957424423571200,1.9855712890625,0.3411865234375,-0.987945556640625,0.0796051025390625
1788957424433622000,1.9956220703125,0.3206329345703125,-1.0354766845703125,-0.0184326171875
1788957424443672000,2.005672119140625,0.3228912353515625,-1.090789794921875,-0.082977294921875
1788957424453722000,2.01572216796875,0.2563018798828125,-1.0394744873046875,-0.097503662109375
1788957424463772400,2.0257724609375,0.20794677734375,-0.9381103515625,-0.0890655517578125
1788957424473823200,2.0358232421875,0.2388458251953125,-0.535552978515625,0.0069732666015625
1788957424483873000,2.045873046875,-0.0780792236328125,-0.5684051513671875,0.145416259765625
1788957424493923000,2.055923095703125,-0.1832427978515625,-0.510833740234375,0.1641998291015625
1788957424503973000,2.06597314453125,-0.17156982421875,-0.3023681640625,0.1529388427734375
1788957424514024200,2.076024169921875,0.1172943115234375,-0.0968475341796875,0.1401214599609375
1788957424524074200,2.08607421875,-0.1314544677734375,-0.071807861328125,0.04486083984375
1788957424534124000,2.0961240234375,-0.42034912109375,-0.1933441162109375,-0.050384521484375
1788957424544174000,2.106174072265625,-0.363983154296875,-0.3847198486328125,-0.2006072998046875
1788957424554225200,2.11622509765625,-0.2058258056640625,-0.6048736572265625,-0.2724761962890625
1788957424564275200,2.126275146484375,-0.0662078857421875,-0.7030181884765625,-0.4194183349609375
1788957424574325200,2.1363251953125,0.0732574462890625,-0.7533416748046875,-0.6106414794921875
1788957424584375000,2.146375,0.22344970703125,-0.756683349609375,-0.692108154296875
1788957424594426000,2.156426025390625,0.2300262451171875,-0.7612762451171875,-0.5859375
1788957424604476200,2.16647607421875,0.17242431640625,-0.86810302734375,-0.29248046875
1788957424614526200,2.176526123046875,0.0536346435546875,-0.962982177734375,-0.0766754150390625
1788957424624576300,2.186576171875,0.032012939453125,-1.04315185546875,-0.0328826904296875
1788957424634627000,2.196626953125,0.1968994140625,-1.1307373046875,-0.087432861328125
1788957424644677000,2.206677001953125,0.2965240478515625,-1.257354736328125,-0.139892578125
1788957424654727200,2.21672705078125,0.237030029296875,-1.4233856201171875,-0.0631561279296875
1788957424664777200,2.226777099609375,0.115020751953125,-1.470977783203125,0.02874755859375
1788957424674828300,2.236828369140625,0.0245513916015625,-1.43328857421875,0.057464599609375
1788957424684878000,2.246878173828125,-0.0312652587890625,-1.2947998046875,0.016998291015625
1788957424694928100,2.25692822265625,-0.038177490234375,-1.208343505859375,0.0693206787109375
1788957424704978200,2.266978271484375,-0.0160675048828125,-1.105438232421875,0.1425323486328125
1788957424715029200,2.277029296875,-0.0787506103515625,-1.0795135498046875,0.3121795654296875
1788957424725079300,2.287079345703125,-0.0753326416015625,-1.0677337646484375,0.4471435546875
1788957424735129000,2.297129150390625,0.09283447265625,-0.8919830322265625,0.2750091552734375
1788957424745180200,2.30718017578125,0.2546234130859375,-0.8406982421875,0.0976104736328125
1788957424755230200,2.317230224609375,0.205780029296875,-0.882049560546875,-0.0168609619140625
1788957424765280300,2.3272802734375,0.0987548828125,-0.912506103515625,-0.048187255859375
1788957424775330300,2.337330322265625,0.0398712158203125,-0.9200439453125,-0.079132080078125
1788957424785381400,2.34738134765625,0.0517120361328125,-0.9056396484375,-0.1268310546875
1788957424795431200,2.35743115234375,0.0851898193359375,-0.896881103515625,-0.1420440673828125
1788957424805481200,2.367481201171875,0.1005706787109375,-0.877838134765625,-0.0702362060546875
1788957424815531300,2.37753125,0.1371612548828125,-0.84912109375,-0.0094146728515625
1788957424825582300,2.387582275390625,0.163421630859375,-0.83184814453125,0.0458984375
1788957424835632400,2.39763232421875,0.17230224609375,-0.851318359375,0.0867767333984375
1788957424845682200,2.40768212890625,0.194366455078125,-0.8665771484375,0.0787811279296875
1788957424855732200,2.417732177734375,0.20416259765625,-0.894439697265625,0.041534423828125
1788957424865783300,2.427783203125,0.19097900390625,-0.9299163818359375,0.023956298828125
1788957424875833300,2.437833251953125,0.1944122314453125,-0.9840240478515625,0.0084686279296875
1788957424885883400,2.44788330078125,0.211517333984375,-1.0516815185546875,-0.0167694091796875
1788957424895933200,2.45793310546875,0.2171173095703125,-1.121856689453125,-0.066619873046875
1788957424905984300,2.467984375,0.16162109375,-1.166168212890625,-0.0520477294921875
1788957424916034300,2.478034423828125,0.0954437255859375,-1.18914794921875,-0.0018157958984375
1788957424926084400,2.48808447265625,0.0778350830078125,-1.166748046875,0.0327911376953125
1788957424936134400,2.498134521484375,0.060394287109375,-1.1416168212890625,0.035125732421875
1788957424946185200,2.508185302734375,0.05743408203125,-1.1262359619140625,0.0173187255859375
1788957424956235300,2.5182353515625,0.0576629638671875,-1.1092987060546875,-0.0008544921875
1788957424966285300,2.528285400390625,0.0453948974609375,-1.0521697998046875,0.00811767578125
1788957424976335400,2.53833544921875,0.0577545166015625,-1.0026702880859375,0.0204315185546875
1788957424986386200,2.54838623046875,0.059967041015625,-0.9606170654296875,0.021209716796875
1788957424996436200,2.558436279296875,0.075103759765625,-0.9071044921875,0.0070343017578125
1788957425006486300,2.568486328125,0.1007080078125,-0.883758544921875,-0.00634765625
1788957425016536300,2.578536376953125,0.126129150390625,-0.8689727783203125,-0.00714111328125
1788957425026587100,2.588587158203125,0.16485595703125,-0.8546600341796875,0.011810302734375
1788957425036637200,2.59863720703125,0.20794677734375,-0.8529205322265625,0.0268402099609375
1788957425046687200,2.608687255859375,0.2491302490234375,-0.8689727783203125,0.025421142578125
1788957425056737300,2.6187373046875,0.243133544921875,-0.89984130859375,0.0328521728515625
1788957425066788000,2.6287880859375,0.216400146484375,-0.9300384521484375,0.0345001220703125
1788957425076838100,2.638838134765625,0.193145751953125,-0.968292236328125,0.013458251953125
1788957425086888200,2.64888818359375,0.1929168701171875,-1.0266265869140625,-0.012908935546875
1788957425096939300,2.658939208984375,0.171112060546875,-1.045684814453125,-0.0471649169921875
1788957425106989000,2.668989013671875,0.135467529296875,-1.0868377685546875,-0.045623779296875
1788957425117039000,2.6790390625,0.0886077880859375,-1.1258392333984375,-0.05426025390625
1788957425127089200,2.689089111328125,0.06048583984375,-1.105926513671875,-0.072967529296875
1788957425137140200,2.69914013671875,0.070892333984375,-1.0317230224609375,-0.06988525390625
1788957425147190300,2.709190185546875,0.1068878173828125,-0.9754486083984375,-0.0638580322265625
1788957425157240000,2.719239990234375,0.09539794921875,-0.9720916748046875,-0.051300048828125
1788957425167290000,2.7292900390625,0.052490234375,-0.9621429443359375,-0.0482635498046875
1788957425177341200,2.739341064453125,-0.0052490234375,-0.9319610595703125,-0.0524444580078125
1788957425187391200,2.74939111328125,-0.02838134765625,-0.9069976806640625,-0.013763427734375
1788957425197441300,2.759441162109375,-0.0078887939453125,-0.9154510498046875,0.01983642578125
1788957425207491000,2.769490966796875,0.0302581787109375,-0.94000244140625,0.0236968994140625
1788957425217542100,2.779542236328125,0.0364532470703125,-0.9674835205078125,-0.000244140625
1788957425227592200,2.78959228515625,0.0643157958984375,-1.0097198486328125,-0.05218505859375
1788957425237641500,2.799641357421875,0.0639495849609375,-1.100799560546875,-0.087249755859375
1788957425247691500,2.80969140625,0.028778076171875,-1.1933135986328125,-0.097686767578125
1788957425257742600,2.81974267578125,0.019866943359375,-1.248138427734375,-0.12774658203125
1788957425267792400,2.82979248046875,0.0132598876953125,-1.3004302978515625,-0.163604736328125
1788957425277842400,2.839842529296875,0.0147705078125,-1.3040008544921875,-0.1646728515625
1788957425287892500,2.849892578125,0.078765869140625,-1.2614898681640625,-0.182037353515625
1788957425297943600,2.859943603515625,0.1277313232421875,-1.1566619873046875,-0.1695556640625
1788957425307993600,2.86999365234375,0.1360931396484375,-1.0822601318359375,-0.148895263671875
1788957425318043400,2.88004345703125,0.1636199951171875,-1.03692626953125,-0.131622314453125
1788957425328093400,2.890093505859375,0.2212982177734375,-1.0258026123046875,-0.115692138671875
1788957425338144500,2.90014453125,0.2263336181640625,-1.021514892578125,-0.069244384765625
1788957425348194600,2.910194580078125,0.1797332763671875,-0.9981689453125,-0.0191650390625
1788957425358244600,2.92024462890625,0.1455078125,-0.9575653076171875,-0.0039215087890625
1788957425368294400,2.93029443359375,0.14093017578125,-0.905181884765625,-0.011810302734375
1788957425378345500,2.940345458984375,0.120208740234375,-0.84649658203125,-0.018402099609375
1788957425388395500,2.9503955078125,0.1021881103515625,-0.8033294677734375,-0.029632568359375
1788957425398445600,2.960445556640625,0.10784912109375,-0.7653045654296875,-0.0455322265625
1788957425408495600,2.97049560546875,0.1007080078125,-0.7409515380859375,-0.0563812255859375
1788957425418546400,2.98054638671875,0.0855865478515625,-0.7464447021484375,-0.0632171630859375
1788957425428596500,2.990596435546875,0.092987060546875,-0.779449462890625,-0.07373046875
1788957425438646500,3.000646484375,0.08172607421875,-0.843902587890625,-0.0695343017578125
1788957425448697600,3.010697509765625,0.0736541748046875,-0.8956451416015625,-0.0768890380859375
1788957425458747600,3.02074755859375,0.0818939208984375,-0.9136199951171875,-0.10760498046875
1788957425468797400,3.03079736328125,0.084228515625,-0.9418792724609375,-0.0912322998046875
1788957425478847500,3.040847412109375,0.092559814453125,-0.9701690673828125,-0.079437255859375
1788957425488898600,3.050898681640625,0.1211395263671875,-0.9985198974609375,-0.09832763671875
1788957425498948600,3.060948486328125,0.1769561767578125,-1.050140380859375,-0.099151611328125
1788957425508998700,3.07099853515625,0.2127532958984375,-1.138885498046875,-0.092041015625
1788957425519048400,3.08104833984375,0.2736968994140625,-1.24285888671875,-0.1396026611328125
1788957425529099500,3.091099609375,0.2528076171875,-1.3410186767578125,-0.176971435546875
1788957425539149600,3.101149658203125,0.1217193603515625,-1.39544677734375,-0.15740966796875
1788957425549199600,3.11119970703125,0.0424041748046875,-1.380401611328125,-0.137359619140625
1788957425559249700,3.121249755859375,0.055389404296875,-1.345672607421875,-0.1133575439453125
1788957425569300700,3.13130078125,0.11187744140625,-1.284942626953125,-0.0517578125
1788957425579350500,3.1413505859375,0.170318603515625,-1.2180633544921875,-0.0144195556640625
1788957425589400600,3.151400634765625,0.153045654296875,-1.1773529052734375,-0.0234527587890625
1788957425599450600,3.16145068359375,0.10028076171875,-1.1366119384765625,-0.0245819091796875
1788957425609501700,3.171501708984375,0.1033935546875,-1.0420074462890625,-0.0137481689453125
1788957425619551700,3.1815517578125,0.166290283203125,-0.9089508056640625,-0.0114593505859375
1788957425629601500,3.1916015625,0.204193115234375,-0.7987213134765625,-0.0062408447265625
1788957425639651600,3.201651611328125,0.1824493408203125,-0.731597900390625,-0.01446533203125
1788957425649702700,3.21170263671875,0.143280029296875,-0.6945953369140625,-0.0281524658203125
1788957425659752700,3.221752685546875,0.1087188720703125,-0.705596923828125,-0.03857421875
1788957425669802800,3.231802734375,0.080963134765625,-0.7536163330078125,-0.02667236328125
1788957425679852500,3.2418525390625,0.0969696044921875,-0.7715911865234375,-0.01611328125
1788957425689903600,3.251903564453125,0.145660400390625,-0.8427581787109375,0.006622314453125
1788957425699953700,3.26195361328125,0.2064361572265625,-0.8368072509765625,-0.00982666015625
1788957425710003700,3.272003662109375,0.227020263671875,-0.815277099609375,-0.0626373291015625
1788957425720053800,3.2820537109375,0.241668701171875,-0.8685760498046875,-0.0764007568359375
1788957425730104300,3.292104248046875,0.218109130859375,-0.950042724609375,-0.0751495361328125
1788957425740154600,3.302154541015625,0.1898040771484375,-1.026092529296875,-0.1001739501953125
1788957425750204700,3.31220458984375,0.18817138671875,-1.0779876708984375,-0.1036834716796875
1788957425760254700,3.322254638671875,0.1927642822265625,-1.106964111328125,-0.1171417236328125
1788957425770305500,3.332305419921875,0.19598388671875,-1.1207427978515625,-0.1007843017578125
1788957425780355300,3.342355224609375,0.15972900390625,-1.1223907470703125,-0.0588836669921875
1788957425790405600,3.352405517578125,0.1201629638671875,-1.1110076904296875,-0.01483154296875
1788957425800456400,3.36245654296875,0.146331787109375,-1.082061767578125,0.0157623291015625
1788957425810506500,3.372506591796875,0.197235107421875,-1.05975341796875,0.03717041015625
1788957425820556500,3.382556640625,0.203399658203125,-1.0400543212890625,0.0341033935546875
1788957425830606300,3.3926064453125,0.1803436279296875,-1.0362548828125,0.039825439453125
1788957425840657400,3.402657470703125,0.1768035888671875,-1.0339813232421875,0.0608673095703125
1788957425850707500,3.41270751953125,0.1832427978515625,-0.957244873046875,0.0828857421875
1788957425860757500,3.422757568359375,0.2405548095703125,-0.924957275390625,0.0648956298828125
1788957425870807600,3.4328076171875,0.2786865234375,-0.9270782470703125,0.0664520263671875
1788957425880858600,3.442858642578125,0.252593994140625,-0.9253387451171875,0.0137481689453125
1788957425890908400,3.452908447265625,0.1973876953125,-0.936981201171875,-0.040496826171875
1788957425900958500,3.46295849609375,0.1658477783203125,-0.9364471435546875,-0.055267333984375
1788957425911008500,3.473008544921875,0.1764984130859375,-0.915435791015625,-0.0256805419921875
1788957425921059600,3.4830595703125,0.1878662109375,-0.9077606201171875,-0.001495361328125
1788957425931109600,3.493109619140625,0.203582763671875,-0.928436279296875,-0.0016021728515625
1788957425941159400,3.503159423828125,0.1987152099609375,-0.9606475830078125,-0.0087890625
1788957425951209500,3.51320947265625,0.1678466796875,-0.9892730712890625,-0.0068359375
1788957425961260500,3.523260498046875,0.1515045166015625,-1.0064697265625,-0.00390625
1788957425971310600,3.533310546875,0.2080841064453125,-1.004486083984375,-0.0050201416015625
1788957425981360600,3.543360595703125,0.285858154296875,-0.9896087646484375,-0.035675048828125
1788957425991410400,3.553410400390625,0.357330322265625,-0.9575653076171875,-0.1009368896484375
1788957426001461500,3.56346142578125,0.3381195068359375,-0.9558868408203125,-0.1544342041015625
1788957426011511600,3.573511474609375,0.2868499755859375,-0.9716033935546875,-0.1898956298828125
1788957426021561600,3.5835615234375,0.2611236572265625,-0.9871826171875,-0.2112274169921875
1788957426031611400,3.593611328125,0.253692626953125,-0.9923553466796875,-0.223175048828125
1788957426041662500,3.603662353515625,0.2563018798828125,-0.985504150390625,-0.1912078857421875
1788957426051712500,3.61371240234375,0.2431488037109375,-0.9870758056640625,-0.113311767578125
1788957426061762600,3.623762451171875,0.213104248046875,-0.9665985107421875,-0.0577239990234375
1788957426071812600,3.6338125,0.193267822265625,-0.9255218505859375,-0.0258636474609375
1788957426081863700,3.64386376953125,0.1898651123046875,-0.8887786865234375,0.02239990234375
1788957426091913500,3.65391357421875,0.20050048828125,-0.85186767578125,0.0772857666015625
1788957426101963500,3.663963623046875,0.2454986572265625,-0.80645751953125,0.0978851318359375
1788957426112014600,3.6740146484375,0.2891998291015625,-0.7877044677734375,0.091156005859375
1788957426122064600,3.684064697265625,0.2673492431640625,-0.8064117431640625,0.0745849609375
1788957426132114700,3.69411474609375,0.2647857666015625,-0.8510589599609375,0.030548095703125
1788957426142164500,3.70416455078125,0.2979583740234375,-0.9130401611328125,-0.005645751953125
1788957426152215600,3.714215576171875,0.3289337158203125,-0.992767333984375,-0.0323638916015625
1788957426162265600,3.724265625,0.3292083740234375,-1.080902099609375,-0.050933837890625
1788957426172315600,3.734315673828125,0.300537109375,-1.1735076904296875,-0.0638580322265625
1788957426182365700,3.74436572265625,0.302154541015625,-1.23248291015625,-0.0707855224609375
1788957426192416800,3.754416748046875,0.3220062255859375,-1.2874908447265625,-0.0733642578125
1788957426202466600,3.764466552734375,0.3397674560546875,-1.2907257080078125,-0.0802154541015625
1788957426212516600,3.7745166015625,0.316314697265625,-1.2272796630859375,-0.076873779296875
1788957426222566700,3.784566650390625,0.3011932373046875,-1.1501617431640625,-0.066162109375
1788957426232617700,3.79461767578125,0.2993316650390625,-1.0880126953125,-0.07257080078125
1788957426242668000,3.80466796875,0.2621612548828125,-1.033477783203125,-0.0854949951171875
1788957426252717800,3.8147177734375,0.1916656494140625,-0.9892730712890625,-0.0784454345703125
1788957426262767900,3.824767822265625,0.1317901611328125,-0.9253692626953125,-0.06768798828125
1788957426272818700,3.834818603515625,0.1025543212890625,-0.864410400390625,-0.0660247802734375
1788957426282868700,3.84486865234375,0.110595703125,-0.8180389404296875,-0.0723724365234375
1788957426292919000,3.8549189453125,0.1394195556640625,-0.7859344482421875,-0.060150146484375
1788957426302968800,3.86496875,0.1874542236328125,-0.7552947998046875,-0.0450592041015625
1788957426313019600,3.87501953125,0.229217529296875,-0.723419189453125,-0.0621490478515625
1788957426323069700,3.885069580078125,0.25079345703125,-0.7312164306640625,-0.09222412109375
1788957426333119700,3.89511962890625,0.2494659423828125,-0.766021728515625,-0.113189697265625
1788957426343170000,3.905170166015625,0.2303009033203125,-0.794189453125,-0.119171142578125
1788957426353220900,3.915220947265625,0.22100830078125,-0.8070220947265625,-0.126953125
1788957426363270700,3.925270751953125,0.2051849365234375,-0.852020263671875,-0.1060333251953125
1788957426373320700,3.93532080078125,0.1732635498046875,-0.87261962890625,-0.0955352783203125
1788957426383370800,3.945370849609375,0.1586456298828125,-0.9090728759765625,-0.084442138671875
1788957426393421800,3.955421875,0.1481475830078125,-0.960723876953125,-0.0614471435546875
1788957426403472000,3.965471923828125,0.1525115966796875,-0.9816741943359375,-0.0522918701171875
1788957426413521700,3.975521728515625,0.17401123046875,-1.0106964111328125,-0.047943115234375
1788957426423571700,3.98557177734375,0.1929473876953125,-1.04156494140625,-0.0346832275390625
1788957426433622800,3.995622802734375,0.21075439453125,-1.0419769287109375,-0.03717041015625
1788957426443672800,4.0056728515625,0.2260284423828125,-1.0260009765625,-0.0613250732421875
1788957426453723000,4.015722900390625,0.2224884033203125,-1.0390167236328125,-0.0852813720703125
1788957426463774000,4.02577392578125,0.203826904296875,-1.079986572265625,-0.1049041748046875
1788957426473823700,4.03582373046875,0.181396484375,-1.128692626953125,-0.1190948486328125
1788957426483873800,4.045873779296875,0.1471405029296875,-1.1568603515625,-0.1331787109375
1788957426493923800,4.055923828125,0.10235595703125,-1.1831817626953125,-0.1291656494140625
1788957426503975000,4.065974853515625,0.0702667236328125,-1.184967041015625,-0.1237945556640625
1788957426514024700,4.076024658203125,0.11993408203125,-1.15045166015625,-0.1443023681640625
1788957426524074800,4.08607470703125,0.20184326171875,-1.1165771484375,-0.1914215087890625
1788957426534124800,4.096124755859375,0.2016448974609375,-1.1246185302734375,-0.2162933349609375
1788957426544175900,4.10617578125,0.14215087890625,-1.12908935546875,-0.215789794921875
1788957426554226000,4.116225830078125,0.1118621826171875,-1.1338653564453125,-0.2078399658203125
1788957426564275700,4.126275634765625,0.1161041259765625,-1.134979248046875,-0.1736907958984375
1788957426574325800,4.13632568359375,0.1155548095703125,-1.0885162353515625,-0.1311187744140625
1788957426584376800,4.146376953125,0.086700439453125,-1.0064239501953125,-0.0797119140625
1788957426594427000,4.156427001953125,0.0527496337890625,-0.917205810546875,-0.0345611572265625
1788957426604477000,4.166476806640625,0.02618408203125,-0.831756591796875,0.00274658203125
1788957426614526700,4.176526611328125,0.023223876953125,-0.7656402587890625,0.03955078125
1788957426624577800,4.186577880859375,0.036865234375,-0.7042388916015625,0.054351806640625
1788957426634627800,4.1966279296875,0.0800933837890625,-0.677398681640625,0.079376220703125
1788957426644678000,4.206677978515625,0.0810546875,-0.658233642578125,0.0736541748046875
1788957426654728000,4.21672802734375,0.086578369140625,-0.6345062255859375,0.05743408203125
1788957426664779000,4.226779052734375,0.12042236328125,-0.6248626708984375,0.0207977294921875
1788957426674828800,4.236828857421875,0.1322479248046875,-0.6878509521484375,-0.017791748046875
1788957426684878800,4.24687890625,0.108367919921875,-0.810699462890625,-0.0392608642578125
1788957426694929000,4.256928955078125,0.0889739990234375,-0.910736083984375,-0.0728759765625
1788957426704980000,4.26697998046875,0.09674072265625,-1.0033111572265625,-0.1087646484375
1788957426715030000,4.277030029296875,0.1387786865234375,-1.0948028564453125,-0.138641357421875
1788957426725079800,4.287079833984375,0.152587890625,-1.165771484375,-0.15185546875
1788957426735129900,4.2971298828125,0.1317291259765625,-1.1820220947265625,-0.152008056640625
1788957426745181000,4.307180908203125,0.1583404541015625,-1.1811370849609375,-0.165985107421875
1788957426755231000,4.31723095703125,0.217926025390625,-1.2091217041015625,-0.1942596435546875
1788957426765281000,4.327281005859375,0.2470245361328125,-1.2492828369140625,-0.207275390625
1788957426775330800,4.337330810546875,0.242950439453125,-1.2790069580078125,-0.218719482421875
1788957426785382000,4.3473818359375,0.203582763671875,-1.2728729248046875,-0.241668701171875
1788957426795432000,4.357431884765625,0.1134185791015625,-1.2793731689453125,-0.22430419921875
1788957426805482000,4.36748193359375,0.0502471923828125,-1.2672576904296875,-0.17529296875
1788957426815531800,4.37753173828125,0.0129241943359375,-1.2210845947265625,-0.12249755859375
1788957426825582800,4.387582763671875,0.0243988037109375,-1.1766815185546875,-0.0727691650390625
1788957426835633000,4.3976328125,0.094329833984375,-1.1360626220703125,-0.04266357421875
1788957426845683000,4.407682861328125,0.1532440185546875,-1.0819244384765625,-0.037841796875
1788957426855733800,4.417733642578125,0.134246826171875,-1.031585693359375,-0.053009033203125
1788957426865783800,4.42778369140625,0.1079864501953125,-1.0257720947265625,-0.0604705810546875
1788957426875833900,4.437833740234375,0.1250457763671875,-1.01220703125,-0.0773773193359375
1788957426885884000,4.4478837890625,0.153045654296875,-0.99365234375,-0.1029815673828125
1788957426895934700,4.457934814453125,0.161865234375,-0.9796142578125,-0.135498046875
1788957426905984800,4.46798486328125,0.1254730224609375,-0.9736175537109375,-0.15814208984375
1788957426916034800,4.478034912109375,0.078704833984375,-0.9647369384765625,-0.1486968994140625
1788957426926084900,4.4880849609375,0.0804443359375,-0.938507080078125,-0.1125335693359375
1788957426936135700,4.4981357421875,0.108245849609375,-0.8858489990234375,-0.075958251953125
1788957426946185700,4.508185791015625,0.109649658203125,-0.8311614990234375,-0.05072021484375
1788957426956235800,4.51823583984375,0.13543701171875,-0.7899627685546875,-0.04010009765625
1788957426966285800,4.528285888671875,0.13287353515625,-0.7839508056640625,-0.036529541015625
1788957426976337000,4.5383369140625,0.0599365234375,-0.7801361083984375,-0.03302001953125
1788957426986386700,4.54838671875,-0.011505126953125,-0.7987213134765625,-0.011016845703125
1788957426996436700,4.558436767578125,-0.0506134033203125,-0.8451080322265625,0.0230712890625
1788957427006486800,4.56848681640625,-0.015380859375,-0.9178466796875,0.059844970703125
1788957427016537900,4.578537841796875,0.0405426025390625,-0.9729461669921875,0.07928466796875
1788957427026588000,4.588587890625,0.0831146240234375,-1.020263671875,0.0917816162109375
1788957427036637700,4.5986376953125,0.079132080078125,-1.0377349853515625,0.0940704345703125
1788957427046687700,4.608687744140625,0.054595947265625,-1.0275421142578125,0.0926055908203125
1788957427056738800,4.61873876953125,0.08221435546875,-1.0218048095703125,0.092193603515625
1788957427066788900,4.628788818359375,0.1140594482421875,-1.007537841796875,0.0997314453125
1788957427076838700,4.638838623046875,0.1290130615234375,-0.995269775390625,0.102203369140625
1788957427086888700,4.648888671875,0.1219940185546875,-0.98199462890625,0.0880279541015625
1788957427096939800,4.658939697265625,0.0889892578125,-0.9827728271484375,0.0738372802734375
1788957427106989800,4.66898974609375,0.0807342529296875,-1.001800537109375,0.0652313232421875
1788957427117039900,4.679039794921875,0.1009979248046875,-1.017333984375,0.0530548095703125
1788957427127089700,4.689089599609375,0.1037750244140625,-1.052947998046875,0.0276947021484375
1788957427137140700,4.699140625,0.1062164306640625,-1.07708740234375,-0.0103759765625
1788957427147190800,4.709190673828125,0.1259613037109375,-1.07769775390625,-0.031585693359375
1788957427157240800,4.71924072265625,0.1387176513671875,-1.064697265625,-0.0112762451171875
1788957427167292000,4.7292919921875,0.19708251953125,-1.0435943603515625,0.0218658447265625
1788957427177342000,4.739342041015625,0.2380828857421875,-1.0318450927734375,0.0666656494140625
1788957427187391700,4.749391845703125,0.2082977294921875,-1.0176849365234375,0.095672607421875
1788957427197441800,4.75944189453125,0.1807403564453125,-0.977142333984375,0.0980377197265625
1788957427207492900,4.769492919921875,0.1795806884765625,-0.9142913818359375,0.0848388671875
1788957427217543000,4.77954296875,0.2005767822265625,-0.8605499267578125,0.070404052734375
1788957427227593000,4.789593017578125,0.2108306884765625,-0.8336944580078125,0.0457763671875
1788957427237642800,4.799642822265625,0.215850830078125,-0.82537841796875,0.00164794921875
1788957427247694300,4.8096943359375,0.2020263671875,-0.850341796875,-0.02642822265625
1788957427257744400,4.819744384765625,0.159393310546875,-0.884674072265625,-0.03515625
1788957427267794200,4.829794189453125,0.139892578125,-0.91400146484375,-0.010650634765625
1788957427277844200,4.83984423828125,0.1761016845703125,-0.94256591796875,-0.00079345703125
1788957427287895300,4.849895263671875,0.2241363525390625,-0.96319580078125,-0.019744873046875
1788957427297945300,4.8599453125,0.251129150390625,-0.9685211181640625,-0.0361175537109375
1788957427307995400,4.869995361328125,0.270965576171875,-0.96710205078125,-0.031341552734375
1788957427318045200,4.880045166015625,0.274932861328125,-0.9626617431640625,-0.030670166015625
1788957427328096300,4.89009619140625,0.2776947021484375,-0.97088623046875,-0.0388336181640625
1788957427338146300,4.900146240234375,0.2874603271484375,-1.0191650390625,-0.0363311767578125
1788957427348196400,4.9101962890625,0.2630615234375,-1.069580078125,-0.0528717041015625
1788957427358246400,4.920246337890625,0.2214813232421875,-1.0989227294921875,-0.0623931884765625
1788957427368297200,4.930297119140625,0.206695556640625,-1.113311767578125,-0.04644775390625
1788957427378347300,4.94034716796875,0.232025146484375,-1.15576171875,-0.0254669189453125
1788957427388397300,4.950397216796875,0.2415008544921875,-1.1916351318359375,0.005096435546875
1788957427398447400,4.960447265625,0.2155303955078125,-1.1873779296875,0.0338287353515625
1788957427408498200,4.970498291015625,0.2073974609375,-1.1892242431640625,0.0113983154296875
1788957427418548200,4.98054833984375,0.1890716552734375,-1.1295318603515625,0.0081634521484375
1788957427428598300,4.990598388671875,0.17584228515625,-1.090301513671875,0.0211639404296875
1788957427438649000,5.000649169921875,0.19537353515625,-1.0380859375,0.0245819091796875
1788957427448699100,5.01069921875,0.21044921875,-0.9784088134765625,0.011474609375
1788957427458749200,5.020749267578125,0.20269775390625,-0.925537109375,-0.00848388671875
1788957427468799200,5.03079931640625,0.16314697265625,-0.8692474365234375,-0.013336181640625
1788957427478850000,5.04085009765625,0.1624298095703125,-0.818206787109375,-0.026641845703125
1788957427488900000,5.050900146484375,0.2118682861328125,-0.7929840087890625,-0.048614501953125
1788957427498950100,5.0609501953125,0.2613677978515625,-0.7998809814453125,-0.066986083984375
1788957427509000200,5.071000244140625,0.2721405029296875,-0.829620361328125,-0.090667724609375
1788957427519051300,5.08105126953125,0.2152557373046875,-0.8758697509765625,-0.1049652099609375
1788957427529101000,5.09110107421875,0.1495513916015625,-0.9323577880859375,-0.1007080078125
1788957427539151000,5.101151123046875,0.1209259033203125,-0.9494476318359375,-0.10540771484375
1788957427549201200,5.111201171875,0.150543212890625,-0.9768829345703125,-0.084503173828125
1788957427559252200,5.121252197265625,0.1632232666015625,-1.0057373046875,-0.0911102294921875
1788957427569302300,5.13130224609375,0.14483642578125,-1.0065155029296875,-0.0941925048828125
1788957427579352000,5.14135205078125,0.1216278076171875,-0.995025634765625,-0.1015167236328125
1788957427589402000,5.151402099609375,0.083953857421875,-0.9911041259765625,-0.089813232421875
1788957427599453200,5.161453125,0.043243408203125,-0.9872894287109375,-0.0308685302734375
1788957427609503200,5.171503173828125,0.0439300537109375,-0.980865478515625,0.0074920654296875
1788957427619553300,5.18155322265625,0.0615081787109375,-0.946807861328125,0.01092529296875
1788957427629603000,5.19160302734375,0.0807037353515625,-0.91302490234375,0.001953125
1788957427639654100,5.201654052734375,0.0712432861328125,-0.9400482177734375,-0.0041046142578125
1788957427649704200,5.2117041015625,0.0537567138671875,-0.9840850830078125,0.0116424560546875
1788957427659754200,5.221754150390625,0.0027923583984375,-1.0105438232421875,0.021575927734375
1788957427669804300,5.23180419921875,0.01458740234375,-1.029327392578125,-0.00262451171875
1788957427679855000,5.241855224609375,0.0745391845703125,-1.056304931640625,-0.0302886962890625
1788957427689905200,5.2519052734375,0.104339599609375,-1.1181793212890625,-0.0650634765625
1788957427699955200,5.261955078125,0.1235504150390625,-1.174774169921875,-0.112579345703125
1788957427710005200,5.272005126953125,0.1283111572265625,-1.1766815185546875,-0.1214141845703125
1788957427720056300,5.282056396484375,0.1432037353515625,-1.1202545166015625,-0.097991943359375
1788957427730106000,5.292106201171875,0.1905670166015625,-1.0736541748046875,-0.086761474609375
1788957427740156200,5.30215625,0.233489990234375,-1.0793609619140625,-0.0880584716796875
1788957427750206200,5.312206298828125,0.214752197265625,-1.0874786376953125,-0.0882110595703125
1788957427760257300,5.32225732421875,0.164794921875,-1.0817108154296875,-0.091583251953125
1788957427770307300,5.332307373046875,0.1223907470703125,-1.0490570068359375,-0.1070556640625
1788957427780357000,5.342357177734375,0.1158599853515625,-1.00482177734375,-0.1100921630859375
1788957427790407200,5.3524072265625,0.1268157958984375,-0.9670867919921875,-0.103424072265625
1788957427800458200,5.362458251953125,0.1397705078125,-0.9288177490234375,-0.0920867919921875
1788957427810508300,5.37250830078125,0.136444091796875,-0.902618408203125,-0.0728607177734375
1788957427820558300,5.382558349609375,0.1198883056640625,-0.8920440673828125,-0.0538330078125
1788957427830609400,5.392609375,0.1313629150390625,-0.8935546875,-0.053558349609375
1788957427840659200,5.4026591796875,0.1464385986328125,-0.9021148681640625,-0.0717926025390625
1788957427850709200,5.412709228515625,0.15594482421875,-0.93182373046875,-0.0921783447265625
1788957427860759300,5.42275927734375,0.1124114990234375,-0.951873779296875,-0.1107177734375
1788957427870810400,5.432810302734375,0.0610198974609375,-0.9503936767578125,-0.1293487548828125
1788957427880860400,5.4428603515625,0.062347412109375,-0.958740234375,-0.1358489990234375
1788957427890910200,5.45291015625,0.110107421875,-0.9783477783203125,-0.1444244384765625
1788957427900960300,5.462960205078125,0.1732940673828125,-1.0022735595703125,-0.16497802734375
1788957427911011300,5.47301123046875,0.18963623046875,-1.0259857177734375,-0.1879119873046875
1788957427921061400,5.483061279296875,0.14654541015625,-1.0439453125,-0.1859130859375
1788957427931111400,5.493111328125,0.079193115234375,-1.04156494140625,-0.1588592529296875
1788957427941161200,5.5031611328125,0.0867919921875,-1.0442962646484375,-0.109619140625
1788957427951212300,5.51321240234375,0.1728057861328125,-1.045745849609375,-0.07598876953125
1788957427961262300,5.523262451171875,0.2472686767578125,-1.064422607421875,-0.0936279296875
1788957427971312400,5.5333125,0.2445526123046875,-1.1110687255859375,-0.1381988525390625
1788957427981362200,5.543362060546875,0.16375732421875,-1.162750244140625,-0.1602935791015625
1788957427991413000,5.5534130859375,0.096435546875,-1.1927032470703125,-0.160797119140625
1788957428001463300,5.56346337890625,0.0772705078125,-1.2018585205078125,-0.1459808349609375
1788957428011513300,5.573513427734375,0.1197052001953125,-1.1768951416015625,-0.1160125732421875
1788957428021563400,5.5835634765625,0.1759033203125,-1.1380767822265625,-0.09564208984375
1788957428031614200,5.5936142578125,0.2018280029296875,-1.08392333984375,-0.097564697265625
1788957428041664000,5.6036640625,0.1998138427734375,-1.0423736572265625,-0.10284423828125
1788957428051714300,5.61371435546875,0.1693115234375,-1.0117340087890625,-0.098175048828125
1788957428061764400,5.623764404296875,0.1473541259765625,-0.972076416015625,-0.0824737548828125
1788957428071815200,5.633815185546875,0.135894775390625,-0.9236907958984375,-0.059234619140625
1788957428081865200,5.643865234375,0.1260528564453125,-0.8707733154296875,-0.0403594970703125
1788957428091915000,5.6539150390625,0.1230010986328125,-0.8303070068359375,-0.0127105712890625
1788957428101965300,5.66396533203125,0.135894775390625,-0.818023681640625,0.014373779296875
1788957428112016100,5.67401611328125,0.1279296875,-0.8330078125,0.0372467041015625
1788957428122066200,5.684066162109375,0.110321044921875,-0.8646697998046875,0.05413818359375
1788957428132116200,5.6941162109375,0.0983428955078125,-0.8895721435546875,0.060150146484375
1788957428142166000,5.704166015625,0.0951080322265625,-0.9080352783203125,0.057861328125
1788957428152217000,5.714217041015625,0.09869384765625,-0.9315032958984375,0.04473876953125
1788957428162267100,5.72426708984375,0.0910186767578125,-0.93768310546875,0.0401611328125
1788957428172317200,5.734317138671875,0.1334381103515625,-0.9916229248046875,0.02642822265625
1788957428182368300,5.7443681640625,0.14422607421875,-1.063812255859375,-0.0011749267578125
1788957428192418300,5.754418212890625,0.0946807861328125,-1.1197967529296875,-0.018829345703125
1788957428202468000,5.764468017578125,0.061981201171875,-1.122314453125,-0.009979248046875
1788957428212518100,5.77451806640625,0.11785888671875,-1.0985565185546875,0.0131683349609375
1788957428222568200,5.784568115234375,0.208984375,-1.02386474609375,0.044189453125
1788957428232619300,5.794619384765625,0.2859649658203125,-0.941558837890625,0.05499267578125
1788957428242669300,5.80466943359375,0.3120574951171875,-0.956207275390625,0.02752685546875
1788957428252719400,5.81471923828125,0.2891693115234375,-0.97088623046875,-0.0255279541015625
1788957428262770400,5.8247705078125,0.225341796875,-0.9990997314453125,-0.03076171875
1788957428272820200,5.8348203125,0.1641845703125,-1.02001953125,-0.022308349609375
1788957428282870300,5.844870361328125,0.1630706787109375,-1.03631591796875,0.0028076171875
1788957428292920300,5.85492041015625,0.1774444580078125,-1.0665283203125,0.027679443359375
1788957428302971400,5.864971435546875,0.154205322265625,-1.086090087890625,0.0297393798828125
1788957428313021400,5.875021484375,0.09033203125,-1.0807952880859375,0.0167083740234375
1788957428323071200,5.8850712890625,0.0579833984375,-1.06512451171875,-0.009613037109375
1788957428333121300,5.895121337890625,0.0670013427734375,-1.06927490234375,-0.0278167724609375
1788957428343172400,5.90517236328125,0.0812835693359375,-1.060943603515625,-0.0283050537109375
1788957428353222400,5.915222412109375,0.119842529296875,-1.0249176025390625,-0.02374267578125
1788957428363272200,5.925272216796875,0.1549835205078125,-0.98895263671875,-0.0151214599609375
1788957428373322200,5.935322265625,0.1460418701171875,-0.9681549072265625,-0.008697509765625
1788957428383373300,5.945373291015625,0.1221160888671875,-0.95330810546875,-0.0077667236328125
1788957428393423400,5.95542333984375,0.0839080810546875,-0.9315948486328125,0.0070343017578125
1788957428403473400,5.965473388671875,0.0659637451171875,-0.9050140380859375,0.03399658203125
1788957428413523200,5.975523193359375,0.0887298583984375,-0.8674468994140625,0.067291259765625
1788957428423574300,5.98557421875,0.1323699951171875,-0.812255859375,0.0803985595703125
1788957428433624300,5.995624267578125,0.18975830078125,-0.76922607421875,0.0714111328125
1788957428443674400,6.00567431640625,0.240447998046875,-0.74981689453125,0.038848876953125
1788957428453724400,6.015724365234375,0.2811737060546875,-0.75567626953125,-0.00982666015625
1788957428463775500,6.025775390625,0.2672882080078125,-0.792236328125,-0.0346832275390625
1788957428473825300,6.0358251953125,0.2342987060546875,-0.86334228515625,-0.0440673828125
1788957428483875300,6.045875244140625,0.1830902099609375,-0.943206787109375,-0.075653076171875
1788957428493925400,6.05592529296875,0.1259002685546875,-1.0028228759765625,-0.1064453125
1788957428503976400,6.0659765625,0.1245880126953125,-1.0157318115234375,-0.1069183349609375
1788957428514026500,6.076026611328125,0.2001953125,-0.998199462890625,-0.090362548828125
1788957428524076300,6.086076171875,0.297454833984375,-0.972076416015625,-0.0783233642578125
1788957428534126300,6.096126220703125,0.354583740234375,-0.9364013671875,-0.0883331298828125
1788957428544177400,6.106177490234375,0.3463592529296875,-0.9156646728515625,-0.1145782470703125
1788957428554227500,6.1162275390625,0.2960968017578125,-0.9259033203125,-0.138671875
1788957428564277500,6.126277587890625,0.2513427734375,-0.973236083984375,-0.1484832763671875
1788957428574327300,6.136327392578125,0.26141357421875,-1.024688720703125,-0.1637115478515625
1788957428584378400,6.14637841796875,0.30419921875,-1.0639801025390625,-0.182159423828125
1788957428594428400,6.156428466796875,0.319000244140625,-1.1316680908203125,-0.1949005126953125
1788957428604478500,6.166478515625,0.2749786376953125,-1.1814117431640625,-0.194183349609375
1788957428614528500,6.176528564453125,0.2469482421875,-1.194671630859375,-0.2294464111328125
1788957428624579000,6.1865791015625,0.293701171875,-1.1901092529296875,-0.269989013671875
1788957428634629400,6.19662939453125,0.3642578125,-1.18621826171875,-0.2738494873046875
1788957428644679400,6.206679443359375,0.466400146484375,-1.1648406982421875,-0.2952117919921875
1788957428654730200,6.216730224609375,0.46258544921875,-1.1780548095703125,-0.3016357421875
1788957428664780300,6.2267802734375,0.306060791015625,-1.1931610107421875,-0.2438507080078125
1788957428674830000,6.236830078125,0.2048187255859375,-1.15765380859375,-0.1826019287109375
1788957428684880400,6.24688037109375,0.1675567626953125,-1.067962646484375,-0.1251678466796875
1788957428694931200,6.25693115234375,0.151824951171875,-0.9201812744140625,-0.0431976318359375
1788957428704981200,6.266981201171875,0.1616668701171875,-0.797698974609375,0.02850341796875
1788957428715031300,6.27703125,0.15869140625,-0.7041778564453125,0.0721588134765625
1788957428725081000,6.2870810546875,0.1276397705078125,-0.633697509765625,0.095428466796875
1788957428735132200,6.297132080078125,0.10650634765625,-0.5991363525390625,0.1016998291015625
1788957428745182200,6.30718212890625,0.0918426513671875,-0.554962158203125,0.08160400390625
1788957428755232300,6.317232177734375,0.0360870361328125,-0.538818359375,0.0598297119140625
1788957428765282300,6.3272822265625,-0.0155792236328125,-0.5996246337890625,0.0493927001953125
1788957428775333400,6.33733349609375,-0.0133056640625,-0.695526123046875,0.017822265625
1788957428785383200,6.347383056640625,0.00048828125,-0.7920379638671875,-0.038665771484375
1788957428795433200,6.35743310546875,0.0143890380859375,-0.8975982666015625,-0.090484619140625
1788957428805483300,6.367483154296875,0.0460357666015625,-0.9935455322265625,-0.1285858154296875
1788957428815534300,6.377534423828125,0.101837158203125,-1.013031005859375,-0.1483154296875
1788957428825584400,6.38758447265625,0.1820068359375,-0.966339111328125,-0.1566009521484375
1788957428835634200,6.39763427734375,0.2668609619140625,-0.9775543212890625,-0.1458282470703125
1788957428845684200,6.407684326171875,0.326171875,-1.0587615966796875,-0.123565673828125
1788957428855735300,6.4177353515625,0.3416900634765625,-1.141265869140625,-0.10736083984375
1788957428865785300,6.427785400390625,0.34375,-1.2213134765625,-0.1012420654296875
1788957428875835400,6.43783544921875,0.333221435546875,-1.2646942138671875,-0.095458984375
1788957428885885200,6.44788525390625,0.3393707275390625,-1.26019287109375,-0.1042633056640625
1788957428895936300,6.457936279296875,0.3305206298828125,-1.24066162109375,-0.1176910400390625
1788957428905986300,6.467986328125,0.318115234375,-1.21661376953125,-0.132049560546875
1788957428916036400,6.478036376953125,0.2944793701171875,-1.1849517822265625,-0.15313720703125
1788957428926086100,6.488086181640625,0.23883056640625,-1.1332244873046875,-0.1842041015625
1788957428936137200,6.49813720703125,0.167938232421875,-1.083740234375,-0.1830596923828125
1788957428946187300,6.508187255859375,0.0896453857421875,-1.0426025390625,-0.1525421142578125
1788957428956237300,6.5182373046875,0.0194091796875,-0.9796600341796875,-0.10943603515625
1788957428966287400,6.528287353515625,0.0135650634765625,-0.87347412109375,-0.0651702880859375
1788957428976338400,6.53833837890625,0.06353759765625,-0.787933349609375,-0.036376953125
1788957428986388200,6.54838818359375,0.140869140625,-0.729278564453125,-0.04669189453125
1788957428996438300,6.558438232421875,0.2160186767578125,-0.6985626220703125,-0.099517822265625
1788957429006488300,6.56848828125,0.2297210693359375,-0.731292724609375,-0.1425018310546875
1788957429016539400,6.578539306640625,0.2110443115234375,-0.808197021484375,-0.1475372314453125
1788957429026589400,6.58858935546875,0.2074432373046875,-0.8587188720703125,-0.1323089599609375
1788957429036639200,6.59863916015625,0.21160888671875,-0.867950439453125,-0.11090087890625
1788957429046689300,6.608689208984375,0.268768310546875,-0.8589630126953125,-0.0986328125
1788957429056740400,6.618740234375,0.3552093505859375,-0.88140869140625,-0.108001708984375
1788957429066790400,6.628790283203125,0.39849853515625,-0.9511871337890625,-0.1306304931640625
1788957429076840400,6.63884033203125,0.38165283203125,-1.0376739501953125,-0.13909912109375
1788957429086890200,6.64889013671875,0.3191680908203125,-1.112548828125,-0.1260528564453125
1788957429096941300,6.65894140625,0.205841064453125,-1.1741790771484375,-0.0849761962890625
1788957429106991400,6.668991455078125,0.170989990234375,-1.178070068359375,-0.0363311767578125
1788957429117041400,6.67904150390625,0.2222747802734375,-1.1442413330078125,0.0052490234375
1788957429127091500,6.689091552734375,0.2737274169921875,-1.123626708984375,0.038665771484375
1788957429137142500,6.699142578125,0.302734375,-1.1097259521484375,0.040802001953125
1788957429147192300,6.7091923828125,0.3009033203125,-1.1423797607421875,0.0050048828125
1788957429157242400,6.719242431640625,0.2513427734375,-1.1779022216796875,-0.0210723876953125
1788957429167292400,6.72929248046875,0.1982879638671875,-1.1447906494140625,0.007843017578125
1788957429177343500,6.739343505859375,0.1995849609375,-1.1122283935546875,0.0542144775390625
1788957429187393300,6.749393310546875,0.223480224609375,-1.0460052490234375,0.099761962890625
1788957429197443300,6.759443359375,0.2503814697265625,-0.964202880859375,0.1391448974609375
1788957429207494100,6.769494140625,0.288482666015625,-0.8914794921875,0.1502227783203125
1788957429217544200,6.779544189453125,0.3004608154296875,-0.8407440185546875,0.133514404296875
1788957429227594500,6.789594482421875,0.2651824951171875,-0.8400115966796875,0.1179962158203125
1788957429237644300,6.799644287109375,0.178863525390625,-0.82421875,0.068389892578125
1788957429247695000,6.809695068359375,0.1320953369140625,-0.7927398681640625,0.0235137939453125
1788957429257745200,6.8197451171875,0.1345367431640625,-0.7616424560546875,0.03070068359375
1788957429267795200,6.829795166015625,0.1555328369140625,-0.7548065185546875,0.012847900390625
1788957429277845200,6.83984521484375,0.1766510009765625,-0.750518798828125,-0.0084228515625
1788957429287896000,6.84989599609375,0.1537933349609375,-0.827972412109375,0.0031890869140625
1788957429297946000,6.859946044921875,0.1231231689453125,-0.936370849609375,0.04364013671875
1788957429307996200,6.86999609375,0.1386871337890625,-0.9979248046875,0.05572509765625
1788957429318046200,6.880046142578125,0.1645660400390625,-1.0283966064453125,0.0279693603515625
1788957429328097000,6.890096923828125,0.1672821044921875,-1.0073394775390625,-0.0245513916015625
1788957429338147000,6.90014697265625,0.1785736083984375,-1.0081939697265625,-0.048095703125
1788957429348196900,6.91019677734375,0.1922149658203125,-1.008636474609375,-0.070343017578125
1788957429358247200,6.9202470703125,0.234222412109375,-1.0018463134765625,-0.092010498046875
1788957429368298000,6.930298095703125,0.303985595703125,-1.0249481201171875,-0.1128387451171875
1788957429378348000,6.94034814453125,0.303863525390625,-1.090576171875,-0.1272125244140625
1788957429388398000,6.950398193359375,0.2529144287109375,-1.1727142333984375,-0.1229705810546875
1788957429398447900,6.96044775390625,0.236114501953125,-1.2300262451171875,-0.1062469482421875
1788957429408499000,6.9704990234375,0.260162353515625,-1.2322540283203125,-0.070281982421875
1788957429418549000,6.980549072265625,0.3113861083984375,-1.176422119140625,-0.0269012451171875
1788957429428599000,6.99059912109375,0.3450927734375,-1.1047821044921875,-0.0035400390625
1788957429438649000,7.000649169921875,0.3231964111328125,-1.069610595703125,-0.00750732421875
1788957429448700200,7.0107001953125,0.2955780029296875,-1.0711822509765625,-0.0359649658203125
1788957429458750000,7.02075,0.24932861328125,-1.0676422119140625,-0.051788330078125
1788957429468800000,7.030800048828125,0.2133026123046875,-1.01861572265625,-0.040985107421875
1788957429478850000,7.04085009765625,0.1975555419921875,-0.9454345703125,-0.0044708251953125
1788957429488901000,7.050901123046875,0.1651611328125,-0.8592987060546875,0.0379486083984375
1788957429498951200,7.060951171875,0.1537628173828125,-0.7857666015625,0.0773773193359375
1788957429509001000,7.0710009765625,0.1553802490234375,-0.732452392578125,0.0945281982421875
1788957429519051000,7.081051025390625,0.134857177734375,-0.691162109375,0.096282958984375
1788957429529102000,7.09110205078125,0.1088104248046875,-0.6399688720703125,0.08441162109375
1788957429539152100,7.101152099609375,0.133514404296875,-0.5698394775390625,0.047576904296875
1788957429549202200,7.1112021484375,0.204071044921875,-0.5465087890625,0.0052032470703125
1788957429559252000,7.121251953125,0.298309326171875,-0.602447509765625,-0.0262298583984375
1788957429569303000,7.131302978515625,0.3905487060546875,-0.730804443359375,-0.038665771484375
1788957429579353000,7.14135302734375,0.422943115234375,-0.91448974609375,-0.0448455810546875
1788957429589403100,7.151403076171875,0.3603363037109375,-1.1734771728515625,-0.0087738037109375
1788957429599453200,7.161453125,0.20892333984375,-1.3704071044921875,0.0245361328125
1788957429609504000,7.17150390625,0.0985870361328125,-1.4257659912109375,0.0189056396484375
1788957429619554000,7.181553955078125,0.26556396484375,-1.40472412109375,0.0417022705078125
1788957429629604000,7.19160400390625,0.4927215576171875,-1.306884765625,0.0249786376953125
1788957429639654100,7.201654052734375,0.661529541015625,-1.10198974609375,-0.1104583740234375
1788957429649705200,7.211705322265625,0.688720703125,-1.03656005859375,-0.260833740234375
1788957429659755000,7.221755126953125,0.5471649169921875,-1.0615081787109375,-0.3560943603515625
1788957429669805000,7.23180517578125,0.4340667724609375,-1.11163330078125,-0.3776702880859375
1788957429679855000,7.241855224609375,0.382965087890625,-1.1358642578125,-0.3419036865234375
1788957429689906200,7.25190625,0.3146209716796875,-1.1106414794921875,-0.2474822998046875
1788957429699956200,7.261956298828125,0.23223876953125,-1.0367889404296875,-0.146728515625
1788957429710006000,7.272006103515625,0.213714599609375,-0.9513397216796875,-0.0889892578125
1788957429720056000,7.28205615234375,0.2084808349609375,-0.9083404541015625,-0.058197021484375
1788957429730107100,7.292107177734375,0.1952362060546875,-0.892242431640625,-0.021331787109375
1788957429740157200,7.3021572265625,0.2295684814453125,-0.90240478515625,0.0105133056640625
1788957429750207200,7.312207275390625,0.246856689453125,-0.9542388916015625,0.013580322265625
1788957429760257000,7.322257080078125,0.2033538818359375,-0.9926300048828125,-0.00225830078125
1788957429770308000,7.33230810546875,0.21148681640625,-0.9886322021484375,-0.0237274169921875
1788957429780358100,7.342358154296875,0.2097320556640625,-0.965850830078125,-0.0326385498046875
1788957429790408200,7.352408203125,0.1310882568359375,-0.931427001953125,-0.0265655517578125
1788957429800458200,7.362458251953125,0.0968170166015625,-0.883697509765625,-0.025909423828125
1788957429810509300,7.37250927734375,0.072784423828125,-0.8535614013671875,-0.02325439453125
1788957429820559000,7.38255908203125,0.0726776123046875,-0.81884765625,-0.0240631103515625
1788957429830609200,7.392609130859375,0.1010894775390625,-0.7466278076171875,-0.060943603515625
1788957429840659200,7.4026591796875,0.135833740234375,-0.68634033203125,-0.1073455810546875
1788957429850710300,7.412710205078125,0.14520263671875,-0.7043914794921875,-0.1345062255859375
1788957429860760300,7.42276025390625,0.1158905029296875,-0.785736083984375,-0.1470184326171875
1788957429870810000,7.43281005859375,0.1027984619140625,-0.8912353515625,-0.1468048095703125
1788957429880860200,7.442860107421875,0.136688232421875,-0.9531402587890625,-0.1367034912109375
1788957429890911000,7.452910888671875,0.1968994140625,-0.9480743408203125,-0.13568115234375
1788957429900961300,7.462961181640625,0.2584381103515625,-0.94720458984375,-0.126495361328125
1788957429911011000,7.473010986328125,0.3161773681640625,-0.954437255859375,-0.1193389892578125
1788957429921061000,7.48306103515625,0.35858154296875,-0.9702911376953125,-0.1395416259765625
1788957429931112000,7.49311181640625,0.334259033203125,-1.015380859375,-0.1604156494140625
1788957429941162000,7.503161865234375,0.2982025146484375,-1.072601318359375,-0.15777587890625
1788957429951212300,7.51321240234375,0.3501434326171875,-1.0906982421875,-0.17596435546875
1788957429961262000,7.523261962890625,0.346893310546875,-1.1013946533203125,-0.1970977783203125
1788957429971313000,7.53331298828125,0.2921600341796875,-1.0892486572265625,-0.1966705322265625
1788957429981363000,7.543363037109375,0.2942657470703125,-1.0640869140625,-0.1969451904296875
1788957429991413000,7.5534130859375,0.2740631103515625,-1.04315185546875,-0.1895599365234375
1788957430001463300,7.56346337890625,0.240631103515625,-1.0504302978515625,-0.1648406982421875
1788957430011514000,7.57351416015625,0.2662353515625,-1.0732574462890625,-0.1472015380859375
1788957430021564000,7.58356396484375,0.302001953125,-1.1006317138671875,-0.1479644775390625
1788957430031614000,7.593614013671875,0.2899017333984375,-1.1409912109375,-0.1489410400390625
1788957430041664000,7.6036640625,0.239654541015625,-1.1867218017578125,-0.1256866455078125
1788957430051715000,7.613715087890625,0.18255615234375,-1.204315185546875,-0.0991668701171875
1788957430061765000,7.62376513671875,0.133880615234375,-1.2138519287109375,-0.0819244384765625
1788957430071815000,7.63381494140625,0.10797119140625,-1.19036865234375,-0.0826873779296875
1788957430081865000,7.643864990234375,0.12921142578125,-1.0800323486328125,-0.0631866455078125
1788957430091916000,7.653916015625,0.1485595703125,-0.9542083740234375,-0.0500335693359375
1788957430101966000,7.663966064453125,0.1656036376953125,-0.85565185546875,-0.047027587890625
1788957430112016100,7.67401611328125,0.20733642578125,-0.7765350341796875,-0.0423126220703125
1788957430122066000,7.68406591796875,0.277801513671875,-0.715667724609375,-0.0363311767578125
1788957430132117000,7.694116943359375,0.328338623046875,-0.6516876220703125,-0.0262603759765625
1788957430142167000,7.7041669921875,0.354400634765625,-0.5859375,-0.0262451171875
1788957430152217000,7.714217041015625,0.3483734130859375,-0.5722808837890625,-0.035491943359375
1788957430162267100,7.72426708984375,0.3173828125,-0.639556884765625,-0.033477783203125
1788957430172318000,7.73431787109375,0.2767791748046875,-0.7459716796875,-0.0220794677734375
1788957430182368000,7.744367919921875,0.2582550048828125,-0.8347015380859375,-0.0339813232421875
1788957430192418000,7.75441796875,0.2320556640625,-0.913299560546875,-0.0719451904296875
1788957430202468000,7.764468017578125,0.207489013671875,-1.0112152099609375,-0.103240966796875
1788957430212519200,7.774519287109375,0.2132110595703125,-1.136627197265625,-0.104949951171875
1788957430222569000,7.78456884765625,0.1999359130859375,-1.250274658203125,-0.098602294921875
1788957430232619000,7.794618896484375,0.161712646484375,-1.3341522216796875,-0.08843994140625
1788957430242668800,7.804668701171875,0.1428985595703125,-1.3882598876953125,-0.09515380859375
1788957430252719900,7.814719970703125,0.1152191162109375,-1.400421142578125,-0.13604736328125
1788957430262769700,7.824769775390625,0.087310791015625,-1.4085540771484375,-0.1400909423828125
1788957430272819700,7.83481982421875,0.085906982421875,-1.3616485595703125,-0.070648193359375
1788957430282869800,7.844869873046875,0.136138916015625,-1.22039794921875,0.0043487548828125
1788957430292920800,7.8549208984375,0.1756134033203125,-1.0180816650390625,0.0428466796875
1788957430302971000,7.864970947265625,0.2173919677734375,-0.7982635498046875,0.064788818359375
1788957430313020700,7.875020751953125,0.3335418701171875,-0.7238311767578125,0.13360595703125
1788957430323070700,7.88507080078125,0.4279937744140625,-0.7371063232421875,0.197265625
1788957430333121800,7.895121826171875,0.4248199462890625,-0.7867431640625,0.1156768798828125
1788957430343171800,7.905171875,0.382598876953125,-0.894805908203125,-0.0109100341796875
1788957430353222000,7.915221923828125,0.265167236328125,-1.04119873046875,-0.059234619140625
1788957430363271700,7.925271728515625,0.11187744140625,-1.123291015625,-0.04254150390625
1788957430373322800,7.93532275390625,0.020904541015625,-1.1290130615234375,0.0285797119140625
1788957430383372800,7.945372802734375,0.041961669921875,-1.061553955078125,0.0938262939453125
1788957430393422800,7.9554228515625,0.1107940673828125,-0.970794677734375,0.0928955078125
1788957430403473000,7.965472900390625,0.1128997802734375,-0.8720550537109375,0.033172607421875
1788957430413524000,7.97552392578125,0.061767578125,-0.7623291015625,-0.0509796142578125
1788957430423573800,7.98557373046875,0.0459136962890625,-0.6406097412109375,-0.1368408203125
1788957430433623800,7.995623779296875,0.075408935546875,-0.56072998046875,-0.1735992431640625
1788957430443673900,8.005673828125,0.126251220703125,-0.487213134765625,-0.173583984375
1788957430453725000,8.015724853515625,0.1626739501953125,-0.3968505859375,-0.1714935302734375
1788957430463775000,8.02577490234375,0.17730712890625,-0.4231719970703125,-0.1505889892578125
1788957430473824800,8.03582470703125,0.1737060546875,-0.5523529052734375,-0.1233673095703125
1788957430483874800,8.045874755859375,0.222808837890625,-0.77362060546875,-0.0438690185546875
1788957430493926000,8.05592578125,0.3820037841796875,-0.9804229736328125,-0.012115478515625
1788957430503976000,8.065975830078125,0.550872802734375,-1.2115631103515625,-0.056854248046875
1788957430514025700,8.076025634765625,0.5800933837890625,-1.450927734375,-0.0819854736328125
1788957430524075800,8.08607568359375,0.496185302734375,-1.6320343017578125,-0.091217041015625
1788957430534126800,8.096126953125,0.3812103271484375,-1.788818359375,-0.093017578125
1788957430544177000,8.106177001953125,0.2704315185546875,-1.86285400390625,-0.0498046875
1788957430554227000,8.11622705078125,0.281982421875,-1.710174560546875,-0.01470947265625
1788957430564276700,8.12627685546875,0.402923583984375,-1.401611328125,-0.0467071533203125
1788957430574327800,8.136327880859374,0.4484710693359375,-1.206390380859375,-0.0839996337890625
1788957430584377900,8.1463779296875,0.353607177734375,-0.993560791015625,-0.12628173828125
1788957430594428000,8.156427978515625,0.233673095703125,-0.79437255859375,-0.183746337890625
1788957430604478000,8.16647802734375,0.1005096435546875,-0.7740936279296875,-0.090667724609375
1788957430614528800,8.17652880859375,0.040557861328125,-0.7231903076171875,0.0681915283203125
1788957430624578800,8.186578857421875,0.0818023681640625,-0.5701141357421875,0.2653656005859375
1788957430634628900,8.19662890625,0.090545654296875,-0.4364166259765625,0.3238983154296875
1788957430644679000,8.206678955078125,0.0399017333984375,-0.431854248046875,0.099517822265625
1788957430654729700,8.216729736328125,0.038330078125,-0.5893402099609375,-0.0312347412109375
1788957430664779800,8.22677978515625,0.0828399658203125,-0.6808319091796875,-0.0488739013671875
1788957430674829800,8.236829833984375,0.1448822021484375,-0.7093048095703125,-0.069915771484375
1788957430684880000,8.2468798828125,0.2068939208984375,-0.7489166259765625,-0.073150634765625
1788957430694930700,8.2569306640625,0.2562713623046875,-0.798675537109375,-0.09625244140625
1788957430704980700,8.266980712890625,0.2650299072265625,-0.848876953125,-0.1318511962890625
1788957430715030800,8.27703076171875,0.267608642578125,-0.9143829345703125,-0.17742919921875
1788957430725080800,8.287080810546875,0.2410736083984375,-0.9605712890625,-0.23016357421875
1788957430735131600,8.297131591796875,0.1865234375,-1.015777587890625,-0.2534637451171875
1788957430745181700,8.307181640625,0.1393280029296875,-1.0962677001953125,-0.2170867919921875
1788957430755231700,8.317231689453125,0.1277618408203125,-1.1439971923828125,-0.1707916259765625
1788957430765281800,8.32728173828125,0.1234130859375,-1.1574859619140625,-0.1305389404296875
1788957430775332600,8.33733251953125,0.143463134765625,-1.1884307861328125,-0.0932159423828125
1788957430785382700,8.347382568359375,0.117156982421875,-1.2181549072265625,-0.052154541015625
1788957430795432700,8.3574326171875,0.0453033447265625,-1.23095703125,0.0123748779296875
1788957430805482800,8.367482666015626,0.0597991943359375,-1.1956329345703125,0.04498291015625
1788957430815533800,8.377533935546875,0.1403045654296875,-1.1587371826171875,0.033599853515625
1788957430825583600,8.38758349609375,0.1691436767578125,-1.1762237548828125,0.024810791015625
1788957430835633700,8.397633544921876,0.1928253173828125,-1.1634674072265625,0.0211334228515625
1788957430845683700,8.40768359375,0.2442779541015625,-1.0882568359375,-0.0062103271484375
1788957430855734800,8.41773486328125,0.2538909912109375,-1.0262298583984375,-0.00579833984375
1788957430865784800,8.427784912109376,0.2617034912109375,-0.9744720458984375,0.014862060546875
1788957430875834600,8.437834716796875,0.300140380859375,-0.953948974609375,0.0326385498046875
1788957430885884700,8.447884765625,0.313934326171875,-0.939727783203125,0.0247650146484375
1788957430895935700,8.457935791015625,0.25396728515625,-0.937347412109375,0.013275146484375
1788957430905985800,8.46798583984375,0.194976806640625,-0.9158477783203125,-0.0067138671875
1788957430916035800,8.478035888671876,0.145965576171875,-0.8651885986328125,-0.0266876220703125
1788957430926085600,8.488085693359375,0.122528076171875,-0.802825927734375,-0.0156402587890625
1788957430936136700,8.49813671875,0.1635894775390625,-0.7288818359375,-0.008544921875
1788957430946186800,8.508186767578126,0.222076416015625,-0.6702728271484375,-0.0122222900390625
1788957430956236800,8.51823681640625,0.2364501953125,-0.6553497314453125,-0.0352630615234375
1788957430966286800,8.528286865234374,0.1766510009765625,-0.7003021240234375,-0.043914794921875
1788957430976338000,8.538337890625,0.1115570068359375,-0.7696685791015625,-0.0454864501953125
1788957430986387700,8.5483876953125,0.0742034912109375,-0.8412017822265625,-0.0669708251953125
1788957430996437800,8.558437744140624,0.09320068359375,-0.9192657470703125,-0.08465576171875
1788957431006487800,8.56848779296875,0.1667938232421875,-0.98675537109375,-0.1047210693359375
1788957431016539000,8.578538818359375,0.22003173828125,-1.0462646484375,-0.114501953125
1788957431026589000,8.5885888671875,0.2409515380859375,-1.1329345703125,-0.106353759765625
1788957431036638700,8.598638671875,0.204620361328125,-1.2310943603515625,-0.095489501953125
1788957431046688800,8.608688720703125,0.1779937744140625,-1.30255126953125,-0.0959625244140625
1788957431056739800,8.61873974609375,0.2118072509765625,-1.3540802001953125,-0.100128173828125
1788957431066790000,8.628789794921875,0.239837646484375,-1.394378662109375,-0.0858306884765625
1788957431076840000,8.63883984375,0.3016815185546875,-1.3967437744140625,-0.0840911865234375
1788957431086889700,8.6488896484375,0.34979248046875,-1.3424835205078125,-0.1100006103515625
1788957431096940800,8.65894091796875,0.312957763671875,-1.2550811767578125,-0.103363037109375
1788957431106990800,8.668990966796875,0.2802886962890625,-1.1439971923828125,-0.0688934326171875
1788957431117041000,8.679041015625,0.296051025390625,-1.0464019775390625,-0.03302001953125
1788957431127090700,8.689090576171875,0.326873779296875,-0.95330810546875,-0.000213623046875
1788957431137141800,8.699141845703124,0.32269287109375,-0.8630523681640625,0.0249786376953125
1788957431147191800,8.70919189453125,0.2848358154296875,-0.7818145751953125,0.022796630859375
1788957431157241900,8.719241943359375,0.20806884765625,-0.722076416015625,0.017242431640625
1788957431167292000,8.7292919921875,0.1380767822265625,-0.68359375,0.0243682861328125
1788957431177341700,8.739341796875,0.154815673828125,-0.6475372314453125,0.0347442626953125
1788957431187392800,8.749392822265625,0.1932220458984375,-0.6397552490234375,0.0423431396484375
1788957431197442800,8.75944287109375,0.1808013916015625,-0.6478424072265625,0.0294189453125
1788957431207492900,8.769492919921875,0.1702728271484375,-0.7091827392578125,-0.0013885498046875
1788957431217543000,8.77954296875,0.1390228271484375,-0.8216094970703125,-0.0124359130859375
1788957431227594000,8.789593994140626,0.1180419921875,-0.9178009033203125,-0.0142059326171875
1788957431237643800,8.799643798828125,0.1543426513671875,-0.998443603515625,-0.0276947021484375
1788957431247693800,8.80969384765625,0.2141265869140625,-1.0629119873046875,-0.05462646484375
1788957431257744000,8.819743896484376,0.2570037841796875,-1.1052703857421875,-0.0769805908203125
1788957431267795000,8.829794921875,0.2673492431640625,-1.1863861083984375,-0.06561279296875
1788957431277845000,8.839844970703124,0.2615203857421875,-1.2476654052734375,-0.029571533203125
1788957431287894800,8.849894775390625,0.234130859375,-1.216156005859375,-0.0068817138671875
1788957431297944800,8.85994482421875,0.2252197265625,-1.1529388427734375,-0.00103759765625
1788957431307996000,8.869995849609374,0.2735748291015625,-1.1585540771484375,0.0111541748046875
1788957431318046000,8.8800458984375,0.31671142578125,-1.188812255859375,-0.0021820068359375
1788957431328096000,8.890095947265625,0.3025054931640625,-1.1836090087890625,-0.048919677734375
1788957431338145800,8.900145751953126,0.27691650390625,-1.185150146484375,-0.057647705078125
1788957431348196900,8.91019677734375,0.23699951171875,-1.1058349609375,-0.045684814453125
1788957431358247000,8.920246826171875,0.1988677978515625,-0.88397216796875,-0.056549072265625
1788957431368297000,8.930296875,0.2235870361328125,-0.766204833984375,-0.0294647216796875
1788957431378347000,8.940346923828125,0.282867431640625,-0.715484619140625,-0.0092620849609375
1788957431388397600,8.9503974609375,0.332489013671875,-0.657745361328125,-0.0304412841796875
1788957431398447900,8.96044775390625,0.349365234375,-0.6798553466796875,-0.0501708984375
1788957431408498000,8.970497802734375,0.323394775390625,-0.7765045166015625,-0.0533599853515625
1788957431418548000,8.9805478515625,0.263946533203125,-0.8971405029296875,-0.0118408203125
1788957431428598800,8.990598876953126,0.2438507080078125,-0.9449462890625,0.0469970703125
1788957431438648600,9.000648681640625,0.320465087890625,-0.90069580078125,0.084442138671875
1788957431448699000,9.010698974609374,0.41259765625,-0.860321044921875,0.10101318359375
1788957431458749000,9.0207490234375,0.4471282958984375,-0.836822509765625,0.0617523193359375
1788957431468799700,9.0307998046875,0.419708251953125,-0.850982666015625,-0.0281982421875
1788957431478849800,9.040849853515626,0.3843994140625,-0.933563232421875,-0.1219940185546875
1788957431488899600,9.050899658203125,0.374267578125,-1.0658416748046875,-0.17303466796875
1788957431498950000,9.060949951171875,0.34930419921875,-1.19232177734375,-0.1408233642578125
1788957431509000700,9.071000732421876,0.30853271484375,-1.256988525390625,-0.07647705078125
1788957431519050800,9.08105078125,0.3439178466796875,-1.2577362060546875,-0.03076171875
1788957431529100800,9.091100830078124,0.367431640625,-1.2451171875,-0.00543212890625
1788957431539150600,9.101150634765625,0.3464508056640625,-1.1859283447265625,-0.0147247314453125
1788957431549201700,9.11120166015625,0.3787384033203125,-1.1611480712890625,-0.0576934814453125
1788957431559251700,9.121251708984374,0.3898162841796875,-1.1823272705078125,-0.068359375
1788957431569301800,9.1313017578125,0.3437652587890625,-1.1421966552734375,-0.055419921875
1788957431579351800,9.141351806640625,0.3212127685546875,-1.0980072021484375,-0.0366058349609375
1788957431589403000,9.15140283203125,0.2925872802734375,-1.0661468505859375,-0.0267181396484375
1788957431599452700,9.16145263671875,0.271270751953125,-1.0172882080078125,-0.05535888671875
1788957431609502700,9.171502685546875,0.3345184326171875,-0.885284423828125,-0.0001220703125
1788957431619552800,9.181552734375,0.361907958984375,-0.7753753662109375,0.053070068359375
1788957431629603800,9.191603759765625,0.3114166259765625,-0.7362213134765625,0.043365478515625
1788957431639654000,9.20165380859375,0.277679443359375,-0.7449493408203125,-0.001373291015625
1788957431649703700,9.21170361328125,0.28851318359375,-0.7685546875,-0.0413665771484375
1788957431659753700,9.221753662109375,0.2899932861328125,-0.82037353515625,-0.0482635498046875
1788957431669803800,9.2318037109375,0.2977294921875,-0.8717193603515625,-0.02301025390625
1788957431679854800,9.241854736328126,0.330810546875,-0.896514892578125,-0.01824951171875
1788957431689904600,9.251904541015625,0.319793701171875,-0.9352569580078125,-0.0189361572265625
1788957431699954700,9.26195458984375,0.3169403076171875,-0.961212158203125,-0.0451812744140625
1788957431710004700,9.272004638671875,0.3095703125,-0.9887847900390625,-0.0824432373046875
1788957431720055800,9.282055908203125,0.2828369140625,-1.005096435546875,-0.1057281494140625
1788957431730105900,9.29210595703125,0.2895660400390625,-0.9935455322265625,-0.1301116943359375
1788957431740155600,9.30215576171875,0.35211181640625,-0.9779815673828125,-0.151397705078125
1788957431750205700,9.312205810546875,0.394989013671875,-1.008758544921875,-0.1540374755859375
1788957431760256800,9.3222568359375,0.3936614990234375,-1.0749359130859375,-0.13665771484375
1788957431770306800,9.332306884765625,0.401214599609375,-1.1510772705078125,-0.1118927001953125
1788957431780356900,9.34235693359375,0.3307342529296875,-1.2406463623046875,-0.0850372314453125
1788957431790406700,9.35240673828125,0.17327880859375,-1.288909912109375,-0.03515625
1788957431800457700,9.362457763671875,0.129180908203125,-1.2404632568359375,-0.0050201416015625
1788957431810507800,9.3725078125,0.192230224609375,-1.13873291015625,0.006988525390625
1788957431820557800,9.382557861328126,0.1888885498046875,-1.0211639404296875,0.0279998779296875
1788957431830608000,9.39260791015625,0.25872802734375,-0.92657470703125,-0.0110626220703125
1788957431840659000,9.402658935546874,0.2889556884765625,-0.881927490234375,-0.06402587890625
1788957431850708700,9.412708740234375,0.2258758544921875,-0.8529510498046875,-0.0701446533203125
1788957431860758800,9.4227587890625,0.2153472900390625,-0.8109893798828125,-0.0803680419921875
1788957431870808800,9.432808837890626,0.2220001220703125,-0.7667236328125,-0.094879150390625
1788957431880860000,9.44285986328125,0.2015838623046875,-0.7357940673828125,-0.10467529296875
1788957431890910000,9.452909912109375,0.1931915283203125,-0.746795654296875,-0.1018524169921875
1788957431900959700,9.462959716796876,0.216217041015625,-0.7876739501953125,-0.0880279541015625
1788957431911009800,9.473009765625,0.2263946533203125,-0.8433380126953125,-0.06103515625
1788957431921060900,9.483060791015625,0.2104339599609375,-0.87481689453125,-0.025634765625
1788957431931111000,9.49311083984375,0.2343902587890625,-0.8552093505859375,-0.0128173828125
1788957431941161000,9.503160888671875,0.28778076171875,-0.8222808837890625,-0.037567138671875
1788957431951210800,9.513210693359374,0.34588623046875,-0.8031463623046875,-0.0893402099609375
1788957431961261800,9.52326171875,0.3329620361328125,-0.8036041259765625,-0.127410888671875
1788957431971311900,9.533311767578125,0.2724609375,-0.8532257080078125,-0.1446075439453125
1788957431981362000,9.54336181640625,0.277618408203125,-0.9057159423828125,-0.1863861083984375
1788957431991411700,9.55341162109375,0.286468505859375,-0.941192626953125,-0.2096405029296875
1788957432001462800,9.563462890625,0.325164794921875,-0.9658660888671875,-0.215301513671875
1788957432011512800,9.573512939453124,0.4456787109375,-1.03253173828125,-0.23077392578125
1788957432021563000,9.58356298828125,0.5159759521484375,-1.1329193115234375,-0.2649993896484375
1788957432031613000,9.593613037109375,0.44830322265625,-1.27899169921875,-0.2721099853515625
1788957432041664000,9.6036640625,0.454925537109375,-1.4123077392578125,-0.26422119140625
1788957432051713800,9.6137138671875,0.485748291015625,-1.5111236572265625,-0.235809326171875
1788957432061763800,9.623763916015625,0.343017578125,-1.577880859375,-0.154541015625
1788957432071814000,9.63381396484375,0.2760162353515625,-1.520599365234375,-0.06640625
1788957432081865000,9.643864990234375,0.309722900390625,-1.32562255859375,-0.0505828857421875
1788957432091915000,9.6539150390625,0.32171630859375,-1.15020751953125,-0.0568695068359375
1788957432101964800,9.66396484375,0.390899658203125,-0.9776153564453125,-0.0626068115234375
1788957432112014800,9.674014892578125,0.42919921875,-0.815338134765625,-0.10760498046875
1788957432122065000,9.68406494140625,0.4088287353515625,-0.775665283203125,-0.0531463623046875
1788957432132116000,9.694115966796875,0.3419036865234375,-0.739654541015625,0.000946044921875
1788957432142166000,9.704166015625,0.32763671875,-0.6846160888671875,0.038665771484375
1788957432152215800,9.7142158203125,0.3458404541015625,-0.6558837890625,0.0636138916015625
1788957432162265900,9.724265869140625,0.3040313720703125,-0.625091552734375,0.0435943603515625
1788957432172316700,9.734316650390625,0.274200439453125,-0.6549072265625,0.0303497314453125
1788957432182366700,9.74436669921875,0.201629638671875,-0.7157440185546875,0.0116119384765625
1788957432192417000,9.7544169921875,0.1317596435546875,-0.7632598876953125,0.011749267578125
1788957432202466800,9.764466796875,0.1482696533203125,-0.8200531005859375,-0.04241943359375
1788957432212517600,9.774517578125,0.1970672607421875,-0.8737945556640625,-0.0906524658203125
1788957432222567700,9.784567626953125,0.2557830810546875,-0.90631103515625,-0.143951416015625
1788957432232617700,9.79461767578125,0.2928314208984375,-0.90753173828125,-0.18011474609375
1788957432242668000,9.80466796875,0.2998504638671875,-0.95318603515625,-0.1765289306640625
1788957432252718800,9.81471875,0.2931060791015625,-1.027923583984375,-0.1859893798828125
1788957432262769000,9.824768798828124,0.294219970703125,-1.1204376220703125,-0.1843414306640625
1788957432272819000,9.83481884765625,0.30938720703125,-1.1922454833984375,-0.174560546875
1788957432282868700,9.84486865234375,0.2875518798828125,-1.262786865234375,-0.139404296875
1788957432292919800,9.854919921875,0.237518310546875,-1.3200531005859375,-0.0612640380859375
1788957432302969900,9.864969970703125,0.2330169677734375,-1.2886505126953125,-0.031402587890625
1788957432313020000,9.87502001953125,0.2476348876953125,-1.1565399169921875,-0.1181640625
1788957432323070000,9.885070068359376,0.3035736083984375,-0.9864501953125,-0.1721343994140625
1788957432333121000,9.89512109375,0.361907958984375,-0.8863067626953125,-0.1959228515625
1788957432343170800,9.9051708984375,0.4152679443359375,-0.9011383056640625,-0.2495574951171875
1788957432353220900,9.915220947265626,0.4283294677734375,-0.9254913330078125,-0.2722015380859375
1788957432363271000,9.92527099609375,0.3949737548828125,-0.91436767578125,-0.21307373046875
1788957432373322000,9.935322021484374,0.353057861328125,-0.8948211669921875,-0.154388427734375
1788957432383372000,9.9453720703125,0.352783203125,-0.8792877197265625,-0.111114501953125
1788957432393421800,9.955421875,0.3919525146484375,-0.8487548828125,-0.0810089111328125
1788957432403472000,9.965471923828124,0.442169189453125,-0.8418731689453125,-0.05706787109375
1788957432413522000,9.97552197265625,0.4459686279296875,-0.861419677734375,-0.0328826904296875
1788957432423573000,9.985572998046875,0.4098663330078125,-0.8854827880859375,-0.044769287109375
1788957432433623000,9.995623046875,0.3189849853515625,-0.9076995849609375,-0.0731353759765625
1788957432443672800,10.0056728515625,0.2911529541015625,-0.9084625244140625,-0.112701416015625
1788957432453723000,10.015722900390625,0.319793701171875,-0.8890838623046875,-0.1425628662109375
1788957432463774000,10.02577392578125,0.3210906982421875,-0.8445587158203125,-0.14813232421875
1788957432473824000,10.035823974609375,0.3218994140625,-0.7987823486328125,-0.1569671630859375
1788957432483874000,10.0458740234375,0.3812408447265625,-0.77557373046875,-0.1830902099609375
1788957432493923800,10.055923828125,0.4544525146484375,-0.8065948486328125,-0.20965576171875
1788957432503975000,10.065974853515625,0.453369140625,-0.9113311767578125,-0.1997528076171875
1788957432514025000,10.07602490234375,0.4202117919921875,-1.02008056640625,-0.1715240478515625
1788957432524075000,10.086074951171875,0.3947906494140625,-1.145050048828125,-0.1249542236328125
1788957432534125000,10.096125,0.4311676025390625,-1.2335052490234375,-0.087066650390625
1788957432544175900,10.10617578125,0.5078582763671875,-1.2681121826171875,-0.056182861328125
1788957432554226000,10.116225830078125,0.608917236328125,-1.238555908203125,-0.074951171875
1788957432564276000,10.12627587890625,0.7024383544921875,-1.199981689453125,-0.1665802001953125
1788957432574326000,10.136325927734376,0.6259307861328125,-1.2047576904296875,-0.2439117431640625
1788957432584377000,10.146377197265625,0.448638916015625,-1.2075958251953125,-0.259185791015625
1788957432594427000,10.156427001953125,0.2985687255859375,-1.1586151123046875,-0.24395751953125
1788957432604477000,10.166476806640626,0.1949310302734375,-1.0450897216796875,-0.171417236328125
1788957432614527000,10.17652685546875,0.1623992919921875,-0.857879638671875,-0.0950164794921875
1788957432624578000,10.186578125,0.1959991455078125,-0.65911865234375,-0.071319580078125
1788957432634628000,10.196628173828126,0.2266998291015625,-0.4844970703125,-0.070037841796875
1788957432644678000,10.206677978515625,0.2609405517578125,-0.3687896728515625,-0.081024169921875
1788957432654728000,10.21672802734375,0.2929840087890625,-0.3334503173828125,-0.0997314453125
1788957432664779000,10.226779052734376,0.32049560546875,-0.404541015625,-0.1115264892578125
1788957432674829000,10.2368291015625,0.2567596435546875,-0.60565185546875,-0.0833740234375
1788957432684879000,10.246879150390624,0.147552490234375,-0.7823333740234375,-0.037384033203125
1788957432694929000,10.256928955078125,0.12646484375,-0.905303955078125,0.016571044921875
1788957432704980000,10.26697998046875,0.1761474609375,-0.9753875732421875,0.036834716796875
1788957432715030000,10.277030029296874,0.3225860595703125,-1.0209503173828125,-0.0119476318359375
1788957432725080000,10.287080078125,0.4320831298828125,-1.0313873291015625,-0.077850341796875
1788957432735130000,10.297130126953125,0.458587646484375,-1.06414794921875,-0.136993408203125
1788957432745180000,10.307179931640626,0.425262451171875,-1.1148834228515625,-0.1902313232421875
1788957432755231000,10.31723095703125,0.3802490234375,-1.17010498046875,-0.2204437255859375
1788957432765281000,10.327281005859374,0.3426513671875,-1.194122314453125,-0.226959228515625
1788957432775331000,10.3373310546875,0.28790283203125,-1.1547698974609375,-0.197967529296875
1788957432785381000,10.347381103515625,0.2523956298828125,-1.067413330078125,-0.1579742431640625
1788957432795432200,10.35743212890625,0.235015869140625,-0.9884490966796875,-0.127227783203125
1788957432805482000,10.36748193359375,0.2383270263671875,-0.91253662109375,-0.1074981689453125
1788957432815532000,10.377531982421875,0.2790679931640625,-0.8282928466796875,-0.0995025634765625
1788957432825582000,10.38758203125,0.3358306884765625,-0.7723236083984375,-0.096893310546875
1788957432835633200,10.397633056640625,0.3419342041015625,-0.765838623046875,-0.093353271484375
1788957432845683000,10.407682861328125,0.2810821533203125,-0.7928314208984375,-0.0761871337890625
1788957432855733000,10.41773291015625,0.2353973388671875,-0.818115234375,-0.070831298828125
1788957432865783000,10.427782958984375,0.2632293701171875,-0.83538818359375,-0.07940673828125
1788957432875834000,10.437834228515625,0.333770751953125,-0.872314453125,-0.0840911865234375
1788957432885884200,10.44788427734375,0.4063262939453125,-0.943115234375,-0.0791015625
1788957432895934000,10.457933837890625,0.422027587890625,-1.0248565673828125,-0.0676727294921875
1788957432905984000,10.46798388671875,0.36199951171875,-1.080230712890625,-0.054107666015625
1788957432916034800,10.478034912109376,0.3746337890625,-1.09490966796875,-0.0780181884765625
1788957432926085000,10.488085205078125,0.4164581298828125,-1.1003875732421875,-0.1265716552734375
1788957432936135200,10.49813525390625,0.4261627197265625,-1.09735107421875,-0.162322998046875
1788957432946185000,10.50818505859375,0.409454345703125,-1.077239990234375,-0.206573486328125
1788957432956235800,10.51823583984375,0.38323974609375,-1.0534210205078125,-0.235137939453125
1788957432966285800,10.528285888671874,0.3344573974609375,-1.0622711181640625,-0.235137939453125
1788957432976336100,10.538336181640625,0.3046875,-1.0924530029296875,-0.21771240234375
1788957432986386200,10.54838623046875,0.37261962890625,-1.1322784423828125,-0.1969451904296875
1788957432996436000,10.55843603515625,0.361968994140625,-1.1994171142578125,-0.17327880859375
1788957433006486800,10.56848681640625,0.241119384765625,-1.2700653076171875,-0.1141815185546875
1788957433016536800,10.578536865234375,0.1555328369140625,-1.2746734619140625,-0.0349884033203125
1788957433026587100,10.588587158203126,0.1483306884765625,-1.179718017578125,0.0559539794921875
1788957433036637200,10.59863720703125,0.2428131103515625,-0.9876861572265625,0.12652587890625
1788957433046688000,10.60868798828125,0.3842315673828125,-0.7945556640625,0.15606689453125
1788957433056737800,10.61873779296875,0.4737091064453125,-0.734405517578125,0.133758544921875
1788957433066787800,10.628787841796875,0.4942474365234375,-0.7751312255859375,0.090972900390625
1788957433076838100,10.638838134765624,0.4307861328125,-0.8265533447265625,0.057037353515625
1788957433086889000,10.648888916015625,0.3460693359375,-0.8510589599609375,0.01947021484375
1788957433096939000,10.65893896484375,0.28851318359375,-0.8582916259765625,0.0017852783203125
1788957433106988800,10.66898876953125,0.257598876953125,-0.8219451904296875,0.0430908203125
1788957433117038800,10.679038818359375,0.2520904541015625,-0.7647857666015625,0.06964111328125
1788957433127090000,10.68908984375,0.2407684326171875,-0.7528533935546875,0.0760040283203125
1788957433137140000,10.699139892578126,0.2355804443359375,-0.747772216796875,0.043121337890625
1788957433147189800,10.709189697265625,0.1996917724609375,-0.7404937744140625,-0.0158843994140625
1788957433157239800,10.71923974609375,0.16278076171875,-0.7651824951171875,-0.0879974365234375
1788957433167291000,10.729290771484376,0.1687164306640625,-0.8106842041015625,-0.1603851318359375
1788957433177341000,10.7393408203125,0.235809326171875,-0.8229827880859375,-0.204864501953125
1788957433187391000,10.749390869140624,0.3524322509765625,-0.8795166015625,-0.1974945068359375
1788957433197440800,10.759440673828125,0.4515380859375,-1.000457763671875,-0.1669464111328125
1788957433207491800,10.769491943359375,0.5564727783203125,-1.1544189453125,-0.1617889404296875
1788957433217542000,10.7795419921875,0.6649932861328125,-1.3343048095703125,-0.17364501953125
1788957433227592000,10.789592041015625,0.768280029296875,-1.4998321533203125,-0.21490478515625
1788957433237642000,10.79964208984375,0.84686279296875,-1.664031982421875,-0.1860809326171875
1788957433247693000,10.809693115234374,0.7228851318359375,-1.7245635986328125,-0.0874481201171875
1788957433257743000,10.8197431640625,0.5961456298828125,-1.5856170654296875,-0.0676727294921875
1788957433267793000,10.82979296875,0.6576995849609375,-1.3531646728515625,-0.149688720703125
1788957433277843000,10.839843017578126,0.57391357421875,-1.1384124755859375,-0.2019195556640625
1788957433287893000,10.84989306640625,0.441436767578125,-0.989654541015625,-0.216888427734375
1788957433297944000,10.859944091796875,0.3108673095703125,-0.9243927001953125,-0.2223358154296875
1788957433307994000,10.869994140625,0.16790771484375,-0.7743682861328125,-0.14862060546875
1788957433318044000,10.8800439453125,0.0872802734375,-0.5892486572265625,-0.0750732421875
1788957433328094000,10.890093994140624,0.139434814453125,-0.431640625,-0.0131378173828125
1788957433338145000,10.90014501953125,0.2112579345703125,-0.365692138671875,0.05364990234375
1788957433348195000,10.910195068359375,0.158721923828125,-0.3712158203125,0.1249542236328125
1788957433358245000,10.9202451171875,0.11639404296875,-0.4059906005859375,0.166900634765625
1788957433368295000,10.930294921875,0.1584625244140625,-0.4406585693359375,0.163970947265625
1788957433378346000,10.940345947265625,0.2787628173828125,-0.4764404296875,0.111114501953125
1788957433388396000,10.95039599609375,0.3986968994140625,-0.548614501953125,0.02728271484375
1788957433398446000,10.960446044921875,0.4464263916015625,-0.6645355224609375,-0.0468597412109375
1788957433408496000,10.97049609375,0.4080047607421875,-0.8199920654296875,-0.093109130859375
1788957433418547200,10.980547119140626,0.3101348876953125,-0.97412109375,-0.1002349853515625
1788957433428597000,10.990596923828125,0.28631591796875,-1.0520477294921875,-0.0870361328125
1788957433438647000,11.00064697265625,0.3639068603515625,-1.079193115234375,-0.0894927978515625
1788957433448697000,11.010697021484376,0.49468994140625,-1.0664825439453125,-0.0960845947265625
1788957433458748200,11.020748046875,0.6077728271484375,-1.039886474609375,-0.1175079345703125
1788957433468798200,11.030798095703124,0.616424560546875,-1.0561981201171875,-0.1661224365234375
1788957433478848000,11.040847900390625,0.5213470458984375,-1.0783233642578125,-0.2118072509765625
1788957433488898000,11.05089794921875,0.3858795166015625,-1.0800628662109375,-0.243896484375
1788957433498948000,11.060947998046874,0.3016815185546875,-1.0719451904296875,-0.26397705078125
1788957433508999200,11.070999267578125,0.35748291015625,-1.0362548828125,-0.284332275390625
1788957433519049200,11.08104931640625,0.4392242431640625,-0.9832305908203125,-0.28662109375
1788957433529099000,11.09109912109375,0.4805450439453125,-0.9361114501953125,-0.265106201171875
1788957433539149000,11.101149169921875,0.455841064453125,-0.93414306640625,-0.2120819091796875
1788957433549200100,11.1112001953125,0.329071044921875,-0.9434051513671875,-0.126861572265625
1788957433559250200,11.121250244140626,0.28033447265625,-0.9031982421875,-0.058624267578125
1788957433569300000,11.131300048828125,0.35601806640625,-0.8374786376953125,-0.04534912109375
1788957433579350000,11.14135009765625,0.415435791015625,-0.799835205078125,-0.059051513671875
1788957433589401000,11.151401123046876,0.4962615966796875,-0.8125762939453125,-0.0920562744140625
1788957433599451100,11.161451171875,0.5054931640625,-0.89739990234375,-0.1446990966796875
1788957433609501200,11.171501220703124,0.39996337890625,-1.010589599609375,-0.1844635009765625
1788957433619551000,11.181551025390625,0.2571868896484375,-1.1224822998046875,-0.1793975830078125
1788957433629602000,11.19160205078125,0.1757354736328125,-1.1805877685546875,-0.1527252197265625
1788957433639652000,11.201652099609374,0.2302398681640625,-1.16558837890625,-0.1469268798828125
1788957433649702100,11.2117021484375,0.3583984375,-1.1298980712890625,-0.1331939697265625
1788957433659752200,11.221752197265625,0.4192352294921875,-1.096954345703125,-0.0928192138671875
1788957433669803300,11.23180322265625,0.4180908203125,-1.033447265625,-0.0733489990234375
1788957433679853000,11.24185302734375,0.4016571044921875,-0.995391845703125,-0.1008148193359375
1788957433689903000,11.251903076171875,0.3738861083984375,-0.987060546875,-0.143951416015625
1788957433699953200,11.261953125,0.4002532958984375,-1.0048980712890625,-0.2099456787109375
1788957433710003200,11.272003173828125,0.417205810546875,-1.0611114501953125,-0.26190185546875
1788957433720054300,11.28205419921875,0.329071044921875,-1.1384124755859375,-0.2431182861328125
1788957433730104000,11.29210400390625,0.2379302978515625,-1.153656005859375,-0.191375732421875
1788957433740154000,11.302154052734375,0.1950836181640625,-1.058349609375,-0.1565093994140625
1788957433750204200,11.3122041015625,0.1974334716796875,-0.9493255615234375,-0.12451171875
1788957433760255000,11.3222548828125,0.282867431640625,-0.8557891845703125,-0.105560302734375
1788957433770305300,11.33230517578125,0.3657684326171875,-0.75408935546875,-0.123382568359375
1788957433780355000,11.34235498046875,0.4012603759765625,-0.6964111328125,-0.14239501953125
1788957433790405000,11.352405029296875,0.382598876953125,-0.677459716796875,-0.1314697265625
1788957433800456000,11.3624560546875,0.3396759033203125,-0.6912689208984375,-0.1046600341796875
1788957433810506000,11.372506103515626,0.306884765625,-0.7401275634765625,-0.099822998046875
1788957433820556300,11.382556396484375,0.27935791015625,-0.802337646484375,-0.1047821044921875
1788957433830606000,11.392606201171875,0.250885009765625,-0.85809326171875,-0.117340087890625
1788957433840657000,11.402656982421876,0.2218170166015625,-0.9058380126953125,-0.12835693359375
1788957433850707000,11.41270703125,0.2355194091796875,-0.9291839599609375,-0.1665802001953125
1788957433860757000,11.422757080078124,0.274932861328125,-0.944091796875,-0.2262420654296875
1788957433870807300,11.432807373046876,0.319610595703125,-0.9732513427734375,-0.270782470703125
1788957433880857900,11.44285791015625,0.387939453125,-0.998565673828125,-0.288726806640625
1788957433890908000,11.452907958984374,0.4273834228515625,-1.0483856201171875,-0.3010101318359375
1788957433900958000,11.4629580078125,0.4121551513671875,-1.1234130859375,-0.3072662353515625
1788957433911008000,11.473008056640625,0.38641357421875,-1.1846923828125,-0.3151397705078125
1788957433921058000,11.48305810546875,0.3519134521484375,-1.2216339111328125,-0.2899017333984375
1788957433931108900,11.49310888671875,0.4104156494140625,-1.2113494873046875,-0.2634124755859375
1788957433941159000,11.503158935546875,0.5060882568359375,-1.19873046875,-0.2314910888671875
1788957433951209000,11.513208984375,0.524200439453125,-1.16839599609375,-0.1761474609375
1788957433961259000,11.523259033203125,0.4730224609375,-1.1252593994140625,-0.1422882080078125
1788957433971310000,11.53331005859375,0.3624725341796875,-1.1000213623046875,-0.10028076171875
1788957433981359900,11.54335986328125,0.32391357421875,-0.9871673583984375,-0.1270904541015625
1788957433991410000,11.553409912109375,0.3305816650390625,-1.008544921875,-0.061920166015625
1788957434001460000,11.5634599609375,0.3254241943359375,-0.941619873046875,-0.022674560546875
1788957434011511000,11.573510986328126,0.3866424560546875,-0.7876434326171875,-0.0664825439453125
1788957434021561000,11.58356103515625,0.3973388671875,-0.6609649658203125,-0.1017303466796875
1788957434031611000,11.59361083984375,0.3390960693359375,-0.6107330322265625,-0.07330322265625
1788957434041661000,11.603660888671875,0.29156494140625,-0.58770751953125,-0.0714569091796875
1788957434051712000,11.6137119140625,0.24407958984375,-0.6159515380859375,-0.09112548828125
1788957434061762000,11.623761962890624,0.1994171142578125,-0.6663665771484375,-0.119903564453125
1788957434071812000,11.63381201171875,0.1635284423828125,-0.7391815185546875,-0.131805419921875
1788957434081862000,11.64386181640625,0.135833740234375,-0.8364410400390625,-0.1239776611328125
1788957434091913000,11.653912841796876,0.142059326171875,-0.937774658203125,-0.10833740234375
1788957434101963000,11.663962890625,0.1888580322265625,-1.007293701171875,-0.1053619384765625
1788957434112013000,11.674012939453124,0.27117919921875,-0.9852447509765625,-0.126617431640625
1788957434122063000,11.68406298828125,0.3415069580078125,-0.943603515625,-0.1313323974609375
1788957434132113000,11.69411279296875,0.400421142578125,-0.971771240234375,-0.1419525146484375
1788957434142164000,11.7041640625,0.4301300048828125,-1.0506744384765625,-0.1580352783203125
1788957434152214000,11.714214111328126,0.4199371337890625,-1.1097564697265625,-0.1669769287109375
1788957434162264000,11.72426416015625,0.3925018310546875,-1.1352996826171875,-0.17999267578125
1788957434172314000,11.734314208984374,0.3521575927734375,-1.1154327392578125,-0.165618896484375
1788957434182365000,11.744364990234375,0.34173583984375,-1.0000457763671875,-0.1681060791015625
1788957434192415000,11.7544150390625,0.413360595703125,-0.89080810546875,-0.196014404296875
1788957434202465000,11.764465087890626,0.4592437744140625,-0.8769683837890625,-0.2320404052734375
1788957434212515000,11.77451513671875,0.4380340576171875,-0.9252777099609375,-0.243927001953125
1788957434222566100,11.784566162109375,0.38623046875,-1.01251220703125,-0.2324676513671875
1788957434232616000,11.794615966796876,0.2714996337890625,-1.0681304931640625,-0.207550048828125
1788957434242666000,11.804666015625,0.12579345703125,-1.0442352294921875,-0.1342620849609375
1788957434252716000,11.814716064453124,0.10772705078125,-0.9536590576171875,-0.048675537109375
1788957434262767000,11.82476708984375,0.216339111328125,-0.8260345458984375,0.017669677734375
1788957434272817200,11.834817138671875,0.3755645751953125,-0.673370361328125,0.02398681640625
1788957434282867200,11.8448671875,0.5068511962890625,-0.5966949462890625,-0.0283660888671875
1788957434292917200,11.854917236328125,0.4899444580078125,-0.6428985595703125,-0.1214752197265625
1788957434302968300,11.86496826171875,0.3842620849609375,-0.7547607421875,-0.1888275146484375
1788957434313018000,11.87501806640625,0.3706207275390625,-0.8094024658203125,-0.2307891845703125
1788957434323068200,11.885068115234375,0.468658447265625,-0.86553955078125,-0.2511444091796875
1788957434333118200,11.8951181640625,0.4678955078125,-0.918548583984375,-0.255340576171875
1788957434343168300,11.905168212890626,0.3891448974609375,-0.961334228515625,-0.2465057373046875
1788957434353219300,11.91521923828125,0.3948822021484375,-1.011016845703125,-0.2838897705078125
1788957434363269000,11.92526904296875,0.3881683349609375,-1.0452728271484375,-0.338897705078125
1788957434373319200,11.935319091796876,0.421478271484375,-1.0543975830078125,-0.3795623779296875
1788957434383369200,11.945369140625,0.5420379638671875,-1.0825958251953125,-0.4204559326171875
1788957434393420300,11.955420166015625,0.5171051025390625,-1.145782470703125,-0.4165191650390625
1788957434403470300,11.96547021484375,0.4273834228515625,-1.2135467529296875,-0.3756256103515625
1788957434413520100,11.97552001953125,0.43865966796875,-1.2355804443359375,-0.3450469970703125
1788957434423570200,11.985570068359374,0.3981781005859375,-1.1635284423828125,-0.2853546142578125
1788957434433621200,11.995621337890626,0.3882904052734375,-1.04583740234375,-0.20318603515625
1788957434443671300,12.00567138671875,0.53607177734375,-0.983551025390625,-0.190887451171875
1788957434453721300,12.015721435546874,0.5664215087890625,-1.000091552734375,-0.2154541015625
1788957434463771100,12.025771240234375,0.43743896484375,-1.005157470703125,-0.182769775390625
1788957434473822200,12.035822265625,0.353485107421875,-0.9791717529296875,-0.149505615234375
1788957434483872300,12.045872314453124,0.3376312255859375,-0.911895751953125,-0.1450958251953125
1788957434493922300,12.05592236328125,0.2805023193359375,-0.8107757568359375,-0.104522705078125
1788957434503972400,12.065972412109375,0.2430877685546875,-0.7285919189453125,-0.064666748046875
1788957434514022100,12.076022216796876,0.2517242431640625,-0.67645263671875,-0.0690460205078125
1788957434524073200,12.0860732421875,0.2291717529296875,-0.6479949951171875,-0.079193115234375
1788957434534123300,12.096123291015624,0.1527557373046875,-0.6248779296875,-0.065582275390625
1788957434544173300,12.10617333984375,0.1152496337890625,-0.5960540771484375,-0.052734375
1788957434554223400,12.116223388671875,0.109832763671875,-0.5534210205078125,-0.0324249267578125
1788957434564274200,12.126274169921874,0.1529388427734375,-0.5392303466796875,-0.0041961669921875
1788957434574324200,12.13632421875,0.221923828125,-0.5865325927734375,-0.0417327880859375
1788957434584374300,12.146374267578125,0.27801513671875,-0.6953582763671875,-0.132110595703125
1788957434594424300,12.15642431640625,0.30865478515625,-0.834136962890625,-0.2191314697265625
1788957434604475100,12.16647509765625,0.3184051513671875,-0.9434967041015625,-0.27264404296875
1788957434614525200,12.176525146484375,0.341705322265625,-1.04656982421875,-0.2895050048828125
1788957434624575200,12.1865751953125,0.294342041015625,-1.145538330078125,-0.2512664794921875
1788957434634625300,12.196625244140625,0.25274658203125,-1.2080078125,-0.18646240234375
1788957434644676000,12.206676025390625,0.2553253173828125,-1.1870574951171875,-0.1539764404296875
1788957434654726100,12.21672607421875,0.30535888671875,-1.1102294921875,-0.1642303466796875
1788957434664776200,12.226776123046875,0.3988800048828125,-1.054931640625,-0.1919403076171875
1788957434674826200,12.236826171875,0.4820556640625,-1.0103759765625,-0.212158203125
1788957434684876300,12.246876220703125,0.543426513671875,-0.984375,-0.2275848388671875
1788957434694927000,12.256927001953125,0.5286865234375,-1.013824462890625,-0.2428741455078125
1788957434704977200,12.26697705078125,0.4151611328125,-1.0993804931640625,-0.2435302734375
1788957434715027200,12.277027099609375,0.35400390625,-1.2227935791015625,-0.2746734619140625
1788957434725077200,12.2870771484375,0.29852294921875,-1.3271026611328125,-0.3074188232421875
1788957434735128000,12.297128173828124,0.2400665283203125,-1.38739013671875,-0.30157470703125
1788957434745178000,12.30717822265625,0.2307586669921875,-1.384368896484375,-0.2665863037109375
1788957434755228200,12.317228271484375,0.2548828125,-1.19012451171875,-0.1888580322265625
1788957434765278200,12.3272783203125,0.261932373046875,-0.94036865234375,-0.1025848388671875
1788957434775329000,12.3373291015625,0.2617340087890625,-0.748199462890625,-0.0652923583984375
1788957434785379000,12.347379150390625,0.2550048828125,-0.5878143310546875,-0.0535430908203125
1788957434795429000,12.35742919921875,0.2918243408203125,-0.5140228271484375,-0.07342529296875
1788957434805479200,12.367479248046875,0.376373291015625,-0.46588134765625,-0.107696533203125
1788957434815529200,12.377529296875,0.4485931396484375,-0.4970550537109375,-0.113922119140625
1788957434825580000,12.387580078125,0.4402618408203125,-0.56378173828125,-0.1054534912109375
1788957434835630000,12.397630126953125,0.350555419921875,-0.615142822265625,-0.1084136962890625
1788957434845680000,12.40768017578125,0.22772216796875,-0.6715240478515625,-0.133697509765625
1788957434855730200,12.417730224609375,0.1650848388671875,-0.7164306640625,-0.1346893310546875
1788957434865781000,12.427781005859375,0.1746978759765625,-0.7800445556640625,-0.121826171875
1788957434875831000,12.4378310546875,0.2472381591796875,-0.821929931640625,-0.1403350830078125
1788957434885881000,12.447881103515625,0.3309783935546875,-0.8897705078125,-0.160400390625
1788957434895931100,12.45793115234375,0.3736572265625,-1.049530029296875,-0.2035980224609375
1788957434905982200,12.467982177734376,0.317108154296875,-1.240753173828125,-0.2521820068359375
1788957434916032000,12.478031982421875,0.187347412109375,-1.378753662109375,-0.2583160400390625
1788957434926082000,12.48808203125,0.0416412353515625,-1.4786224365234375,-0.2342376708984375
1788957434936132000,12.498132080078125,0.06488037109375,-1.4987945556640625,-0.2582550048828125
1788957434946183200,12.50818310546875,0.3163909912109375,-1.4210205078125,-0.25
1788957434956233200,12.518233154296874,0.5631866455078125,-1.299896240234375,-0.169097900390625
1788957434966283000,12.528282958984375,0.6244964599609375,-1.2843017578125,-0.0889739990234375
1788957434976333000,12.5383330078125,0.4762420654296875,-1.3609161376953125,-0.065765380859375
1788957434986384100,12.548384033203124,0.3259429931640625,-1.2776947021484375,-0.1401824951171875
1788957434996434200,12.55843408203125,0.3356781005859375,-1.0225372314453125,-0.199951171875
1788957435006484200,12.568484130859375,0.4625091552734375,-0.7584381103515625,-0.212921142578125
1788957435016534000,12.578533935546876,0.6210174560546875,-0.579620361328125,-0.2029266357421875
1788957435026584000,12.588583984375,0.6342315673828125,-0.537322998046875,-0.1709136962890625
1788957435036635100,12.59863525390625,0.5069427490234375,-0.637420654296875,-0.1708221435546875
1788957435046685200,12.608685302734376,0.379608154296875,-0.744903564453125,-0.143890380859375
1788957435056735200,12.6187353515625,0.304595947265625,-0.7996368408203125,-0.1073150634765625
1788957435066785000,12.628784912109374,0.293975830078125,-0.7921142578125,-0.1056976318359375
1788957435076836000,12.638836181640626,0.3013153076171875,-0.748443603515625,-0.1348724365234375
1788957435086886100,12.64888623046875,0.2441864013671875,-0.752166748046875,-0.130096435546875
1788957435096936200,12.658936279296874,0.1256561279296875,-0.7959442138671875,-0.0728912353515625
1788957435106986200,12.668986328125,0.1324615478515625,-0.7564849853515625,-0.0844879150390625
1788957435117037300,12.679037353515625,0.2964630126953125,-0.719268798828125,-0.157745361328125
1788957435127087000,12.689087158203124,0.543426513671875,-0.7365875244140625,-0.241790771484375
1788957435137137200,12.69913720703125,0.6414642333984375,-0.8578643798828125,-0.2807159423828125
1788957435147187200,12.709187255859375,0.4670867919921875,-0.981414794921875,-0.301116943359375
1788957435157237200,12.7192373046875,0.2060394287109375,-1.019866943359375,-0.2843017578125
1788957435167288000,12.7292880859375,0.1567535400390625,-0.95977783203125,-0.2855072021484375
1788957435177338000,12.739338134765624,0.40216064453125,-0.88250732421875,-0.2881011962890625
1788957435187388200,12.74938818359375,0.641632080078125,-0.8614654541015625,-0.236083984375
1788957435197438200,12.759438232421875,0.8004608154296875,-0.9814605712890625,-0.225738525390625
1788957435207489300,12.7694892578125,0.681060791015625,-1.2062835693359375,-0.247100830078125
1788957435217539000,12.7795390625,0.37152099609375,-1.37823486328125,-0.237518310546875
1788957435227589000,12.789589111328125,0.2146453857421875,-1.46441650390625,-0.2437744140625
1788957435237639200,12.79963916015625,0.2755279541015625,-1.3928070068359375,-0.2236480712890625
1788957435247690200,12.809690185546875,0.4104156494140625,-1.1152191162109375,-0.1371917724609375
1788957435257739800,12.81973974609375,0.5848236083984375,-0.9188232421875,-0.0955963134765625
1788957435267789800,12.829789794921876,0.678680419921875,-0.87255859375,-0.1137237548828125
1788957435277840000,12.83983984375,0.558868408203125,-0.8938751220703125,-0.126556396484375
1788957435287891000,12.849890869140625,0.3379364013671875,-0.922119140625,-0.1122894287109375
1788957435297940700,12.859940673828126,0.22430419921875,-0.9169769287109375,-0.0668792724609375
1788957435307990800,12.86999072265625,0.2103271484375,-0.8259735107421875,-0.0088348388671875
1788957435318040800,12.880040771484374,0.2597503662109375,-0.673553466796875,0.048736572265625
1788957435328091000,12.8900908203125,0.3805999755859375,-0.5184783935546875,0.031951904296875
1788957435338142000,12.900141845703125,0.492095947265625,-0.4366912841796875,-0.0531158447265625
1788957435348191700,12.910191650390624,0.48663330078125,-0.51556396484375,-0.1529388427734375
1788957435358241800,12.92024169921875,0.4387969970703125,-0.6826629638671875,-0.214752197265625
1788957435368291800,12.930291748046875,0.35931396484375,-0.840850830078125,-0.2613677978515625
1788957435378343000,12.940343017578124,0.250885009765625,-0.9434814453125,-0.2505645751953125
1788957435388392700,12.950392822265625,0.0944976806640625,-0.948028564453125,-0.2062835693359375
1788957435398442800,12.96044287109375,0.039276123046875,-0.8903656005859375,-0.1563720703125
1788957435408492800,12.970492919921876,0.17340087890625,-0.80126953125,-0.1323089599609375
