time,seconds_elapsed,z,y,x
1789820940867377000,0.086376953125,-8.02944626572132,3.6497576018124818,-2.0176292779445646
1789820940877346800,0.096346923828125,-2.3267618626117703,-1.5897987099215387,-0.8595551478099077
1789820940887317000,0.10631689453125,2.0109055226475,-3.3784760243728753,1.7438754651725292
1789820940897288000,0.116287841796875,3.0888585797756907,-1.6061176842987537,0.4870516224723309
1789820940907257900,0.1262578125,1.2835182998150587,0.31505875984579323,-0.044731058198073874
1789820940917228000,0.13622802734375,0.5102162980258464,-0.5568643596932291,1.9222829440817235
1789820940927198000,0.146197998046875,-0.3868833483457565,-1.0906412737876177,0.2775857008188031
1789820940937168000,0.15616796875,-0.0710503892570734,-0.38933132601976395,-1.142236801794544
1789820940947137800,0.1661376953125,0.26700959920883177,1.2807543880596757,0.19414218712504952
1789820940957107700,0.176107666015625,-0.2931628621190786,1.5742065885141492,-0.6235032161183655
1789820940967078000,0.186077880859375,-0.04635492393970489,-0.20243805057704448,0.16529592227116227
1789820940977047800,0.1960478515625,-3.7068899403542277,1.5582392040535806,0.019496015244442968
1789820940987018000,0.20601806640625,-2.6615824307650326,0.5853396358102559,-0.16863149643465875
1789820940996988000,0.21598779296875,0.03809738320410251,-0.38351913260966536,0.6234883838754147
1789820941006957800,0.225957763671875,2.089537745335698,-0.365705243499577,-1.2006843876533209
1789820941016928000,0.235927978515625,2.2484125485181807,-0.6701496703505516,-0.4665160533133894
1789820941026898000,0.24589794921875,0.4144108222186565,0.8784399540871382,2.003648391126096
1789820941036867800,0.255867919921875,-0.5673860459685325,1.4968582681566476,-0.05789997104653157
1789820941046837800,0.265837646484375,0.4324894997447729,0.044783729100227355,-1.3040030155695974
1789820941056807700,0.2758076171875,-0.10644552776515483,-0.8169424060732126,0.15575769407525658
1789820941066777900,0.28577783203125,-0.38183483278453345,-2.416868542255461,0.9599975627027452
1789820941076747800,0.295747802734375,0.04471884717047214,-1.8612381082713603,1.3306227269478141
1789820941086718000,0.305718017578125,0.10470891323089598,0.4468319133520126,2.2605969073086976
1789820941096687900,0.31568798828125,1.3548252941817045,-0.20145780736804006,0.6822280845485628
1789820941106658000,0.325657958984375,1.633215534582734,-1.433588742034137,1.5016225599490105
1789820941116628000,0.3356279296875,0.12816460762023926,-0.642283758303523,1.5619355743534862
1789820941126598000,0.345597900390625,-1.407264506471157,0.552269140857458,-0.009195555663009872
1789820941136567800,0.35556787109375,-2.037436971220374,1.7226701800584792,1.1059257174853234
1789820941146538800,0.365538818359375,-0.6419710390925407,0.8512968033567071,0.2397739113567397
1789820941156508700,0.3755087890625,0.6728378865212201,-0.03692687812000513,-0.5227453055355697
1789820941166478600,0.385478515625,2.691114814719558,-1.1751496950328348,1.5329723685890435
1789820941176448800,0.39544873046875,2.47887199396491,-0.5099027020320296,1.1031363059625028
1789820941186418700,0.405418701171875,0.553882421272993,0.818553056140244,-0.18926431542299688
1789820941196388600,0.415388671875,-1.1641893250793218,0.9358578315719962,2.7438401504740115
1789820941206358800,0.42535888671875,-2.728688466310501,0.40133682111203667,-0.9713578917592763
1789820941216328700,0.43532861328125,-0.8503092536240816,0.6478782173097133,-1.005552568436414
1789820941226299000,0.445298828125,1.7682991278111935,-0.0672732088059187,-3.557527061882615
1789820941236268800,0.455268798828125,1.8727596192389726,0.5443477002084255,-2.748153922019899
1789820941246238700,0.46523876953125,0.775116942256689,-0.3260968712106347,-0.9447793891742825
1789820941256208600,0.475208740234375,-0.3632441140830517,-0.37534634754806756,0.42515853580217805
1789820941266178800,0.4851787109375,-0.5214192445635796,0.3884922448471188,-0.2690906980655156
1789820941276148700,0.495148681640625,0.47032326357662674,-0.49107116031199693,-0.5294023888045921
1789820941286118700,0.50511865234375,1.3755214607298374,-1.5201444511979818,-1.0231904433924703
1789820941296088600,0.515088623046875,0.6807371153384447,-1.0494438787415623,-1.1294294157348572
1789820941306058800,0.525058837890625,-0.1597685371518135,-1.000792076036334,-0.601755348560214
1789820941316029000,0.53502880859375,0.03669277710318565,-1.0378335204467177,-0.3516779602561146
1789820941325998800,0.544998779296875,0.35009237156510353,-0.9877087225794792,-0.4646237732933834
1789820941335968800,0.55496875,0.7337883220463991,-1.3920944098681212,-0.11140808207597583
1789820941345938700,0.564938720703125,-0.682623951998353,-1.1170973190367222,-2.018614051198214
1789820941355908600,0.57490869140625,-1.5072750327527522,0.5422565731480717,-1.152532497294247
1789820941365878800,0.584878662109375,-2.2730741115659474,1.1957251578107475,-2.593018013104796
1789820941375849700,0.594849609375,-2.061695214164257,1.6385501736089587,0.35490353470649566
1789820941385819600,0.604819580078125,0.9914853185087442,-0.8425242988362908,-2.133733445414901
1789820941395789600,0.61478955078125,1.3546037603855132,-0.20646394509226082,-0.7320449855104089
1789820941405759700,0.624759765625,2.2601871574640273,-0.3176338710308075,-1.3702465890668332
1789820941415729700,0.634729736328125,0.7103092467814683,1.28780518335402,0.5503224637690931
1789820941425699600,0.644699462890625,0.14827742132246494,1.4433569795936345,0.4187622954264283
1789820941435669800,0.654669677734375,0.8695084596127272,0.03550093697011471,-0.7181037731152028
1789820941445640000,0.664639892578125,-1.2782161017537117,2.7063112148076294,-1.4140931834474204
1789820941455609900,0.67460986328125,-2.5460569399654864,4.1516900556176894,-0.16460193039132281
1789820941465579800,0.684579833984375,0.10774024375081062,0.024741350285708903,-0.1909593741041608
1789820941475549700,0.6945498046875,-0.02760872241556644,0.613766104349494,1.2438088052392005
1789820941485519600,0.70451953125,-0.7885083387494086,0.6170432263240218,0.9346244903847575
1789820941495489800,0.71448974609375,-1.9379992763906717,0.6216843301281333,1.4107830359861253
1789820941505459700,0.724459716796875,-1.1626643074691294,-0.006901742212474346,0.7676604887709021
1789820941515429600,0.7344296875,-1.4596961199760436,-0.5335264464646577,0.3971037501195445
1789820941525399800,0.74439990234375,-0.4774930090755224,-1.2597466713443397,1.136726733136177
1789820941535369700,0.75436962890625,-0.12249591433405875,-0.9023430999830364,-0.008354790564998984
1789820941545340000,0.76433984375,1.2732125943779944,-0.911752733363211,0.8332613804504275
1789820941555309800,0.774309814453125,1.968563926002383,-1.867538377459347,1.5886873876787722
1789820941565279700,0.78427978515625,-0.28454467137753964,-0.9381003498017787,0.9721815561670809
1789820941575250700,0.794250732421875,-1.3117606439590452,-0.31407121011316774,0.6912215383432805
1789820941585220900,0.804220947265625,-0.14672902283668518,-1.075764899434149,-1.2741234256125986
1789820941595190800,0.814190673828125,-0.08106558731496334,-0.8134308908209205,-0.21520627367012202
1789820941605160700,0.82416064453125,1.3544424323439597,-1.9962077197313308,-1.196667699357867
1789820941615130600,0.834130615234375,1.585976813545823,-0.5576663237258792,-0.3727473805634305
1789820941625100800,0.844100830078125,2.0718775854825973,-0.6401710039332509,-1.49717098736763
1789820941635070700,0.85407080078125,0.8705711204081773,-0.040142625296115876,-1.213748013496399
1789820941645040600,0.86404052734375,-0.4220493542730808,0.06112754565775394,-0.5536645407386124
1789820941655010800,0.8740107421875,-0.0035521395236253737,0.20122692122161387,-1.1084518018968403
1789820941664980700,0.883980712890625,-0.47351650665998457,0.273491946965456,0.20778417911166325
1789820941674951000,0.893950927734375,0.17769523898661135,-0.16442074687182903,0.8960303366396576
1789820941684920800,0.9039208984375,1.226612755766511,-0.6979004315853119,0.8581840786524116
1789820941694890800,0.913890869140625,1.897185035443306,-1.1035337808474899,1.8196910230048
1789820941704860700,0.923860595703125,-0.5060930806159973,-0.02368979540616274,1.6563764838092028
1789820941714830600,0.93383056640625,-0.5978589256435632,0.1391290692269802,1.158073472547531
1789820941724800800,0.94380078125,-0.5169207641005515,0.3572799449816346,0.4860709774045273
1789820941734770700,0.953770751953125,-0.7198217560142278,0.000597089110314846,0.36329781703166664
1789820941744740600,0.96374072265625,0.09228782307505608,-0.32615620018243785,0.43905645704492924
1789820941754710800,0.973710693359375,-0.5040209505170583,-0.1291694007486105,0.4517628304155543
1789820941764681700,0.983681640625,-1.6595546754539012,0.47869916999489065,1.5028247753456234
1789820941774651600,0.993651611328125,0.4409171363502741,-1.5064429658427834,1.1067346957806496
1789820941784621800,1.003621826171875,2.4745190594524145,-1.3568909945398568,1.3994656692884861
1789820941794591700,1.013591796875,3.59670113440752,-1.2579665099292994,0.1002615053679794
1789820941804562000,1.02356201171875,0.36242812152504916,1.9132865676775574,0.10738307347674854
1789820941814531800,1.03353173828125,-0.7870107936680316,2.2385855665087697,-0.7371034379437565
1789820941824501800,1.043501708984375,-0.34833296067714686,-0.004818213936686516,-0.190167876666598
1789820941834471700,1.0534716796875,-1.1664221986979246,0.4506467954650521,0.05791026411168277
1789820941844441600,1.063441650390625,-1.67872933152318,1.520332374985516,0.4840508697537705
1789820941854411800,1.073411865234375,-0.14175357251167298,1.3149088788568972,0.2529658397546038
1789820941864381700,1.083381591796875,-0.3783043205708265,1.5332038392573595,-0.3954122533686459
1789820941874351600,1.0933515625,-0.4955658413827419,0.43189036480784415,0.5354891979049891
1789820941884321800,1.10332177734375,-0.4025777610838413,0.45565614805966614,0.8510506465759128
1789820941894291700,1.113291748046875,0.7330658529907464,0.9146312114089726,0.3060818918596953
1789820941904262000,1.123261962890625,0.15220365485548973,1.3409715408742426,0.27686188005628065
1789820941914231800,1.133231689453125,0.5670224733531475,-0.0026607436418533323,0.36223438905123617
1789820941924201700,1.14320166015625,-0.3442570895403623,-0.2959121608272195,0.5734150969997048
1789820941934171600,1.153171630859375,-0.19691373419761657,0.3726324124142527,0.8068304696425795
1789820941944142800,1.163142822265625,0.4251648559451103,0.9500143672183156,0.7550743442464619
1789820941954112800,1.17311279296875,0.6305600027620792,0.5151838573053479,0.16991541703166438
1789820941964082700,1.183082763671875,0.06730711107552051,-0.2339601470440626,-0.07867390640545636
1789820941974052600,1.193052490234375,-1.3212345747470855,-0.0011234510719776152,-1.4681877617284655
1789820941984022800,1.203022705078125,-1.7444617406278848,0.024491467177867886,-0.40050979570336637
1789820941993992700,1.21299267578125,-0.966360229602456,-0.3404787400454283,-1.2271874869145452
1789820942003963000,1.222962890625,0.05534603964686394,-0.5847299794793128,-1.286211630552262
1789820942013932800,1.232932861328125,-0.0034983635097742076,-0.6178770467996597,-2.271873065213114
1789820942023902700,1.24290283203125,1.5466484272420404,-1.495095350137353,-1.113670048001781
1789820942033873000,1.252872802734375,1.8287246626794338,-0.880982039785385,-1.7455992202252149
1789820942043842800,1.2628427734375,1.0179267507106065,0.2733680283248424,-1.0984454447325318
1789820942053812700,1.272812744140625,0.30444238102436066,0.28771511810719963,-0.3055680423197336
1789820942063782700,1.28278271484375,0.7960182759881019,-1.4491367320388555,0.09458377025881781
1789820942073752600,1.292752685546875,-0.8395967209517955,-0.2031239870145917,0.38451753252986814
1789820942083722800,1.30272265625,-0.34185587361752984,-0.4269420947507024,1.1171649043802172
1789820942093692700,1.312692626953125,-0.6369020652651787,-0.05840133556425571,0.18471059764139353
1789820942103662800,1.322662841796875,0.15717325996160506,-0.4665317623391747,0.060587196269934064
1789820942113633500,1.332633544921875,0.33346856902241706,0.05599018276929855,-0.010182617913512512
1789820942123603700,1.342603759765625,0.5618979699462652,-0.512744355198741,-0.6093043026350439
1789820942133573600,1.35257373046875,0.633354017394781,0.08681932853609323,0.049877307645883405
1789820942143543600,1.36254345703125,-0.3514718432247638,0.9032128685548901,-1.97394094286561
1789820942153513500,1.372513427734375,-0.6768132198929786,0.18950433472394942,-0.9455751426618546
1789820942163483600,1.382483642578125,-0.7998428027123212,-0.904095204347372,-0.5813543655663729
1789820942173453600,1.39245361328125,0.0018190321207046509,-1.5509215745165943,-0.7920235072635113
1789820942183423500,1.402423583984375,1.5132149441957472,-2.2067226937800646,-1.0272387689352034
1789820942193393400,1.412393310546875,2.355954054826498,-2.413725568054616,-0.6459529483355582
1789820942203363300,1.42236328125,0.9406009344458579,-0.8368260871946811,-1.3296283090829848
1789820942213333500,1.43233349609375,1.597379666569829,-2.1202485254198313,-0.9966029537834227
1789820942223303700,1.4423037109375,0.29232407320737835,-0.45464580197334287,-1.3751001665778457
1789820942233273600,1.452273681640625,-1.1597709241151808,1.3402291980743408,-0.4885246906995773
1789820942243243500,1.462243408203125,-0.8199906877279282,0.6688067313089966,0.6733656367223709
1789820942253213700,1.472213623046875,-1.2115566409319638,0.952874432824552,-0.26933292758986355
1789820942263183600,1.48218359375,-1.5110720869481562,1.494423442225158,-0.245294556208048
1789820942273154600,1.492154541015625,-0.30154139888584613,0.04833206923156976,-0.5464808397796005
1789820942283124500,1.50212451171875,-1.0104320110410452,1.373481771595776,-0.5766806746669113
1789820942293094700,1.5120947265625,0.2482423548966646,1.3619003471344708,-0.4621985919730738
1789820942303064600,1.522064697265625,0.683250559464097,1.5798831728458405,-0.5384796118926256
1789820942313034500,1.532034423828125,0.9858025966972112,1.8073302847340702,-0.7485341288227587
1789820942323004400,1.54200439453125,0.02521159814596176,2.4636776397034525,-1.3165472937136888
1789820942332974300,1.551974365234375,-0.07406418412029743,2.3076699163898824,-0.6855703807137906
1789820942342944500,1.561944580078125,0.6825333511054515,0.7367062553197145,-0.4471761602124199
1789820942352914700,1.571914794921875,-0.8240461005985736,1.215441373410821,0.12070420861169695
1789820942362884600,1.581884521484375,-1.6132915214508772,0.8022098241046071,-1.2600495998136698
1789820942372854500,1.5918544921875,-1.538361075890064,1.1477315267533064,-1.1359067950554191
1789820942382824400,1.601824462890625,-0.4769184240579605,0.12010551206618547,-0.7682528286408633
1789820942392794600,1.611794677734375,-0.17499942403137683,0.04226151714622974,0.1784623874342069
1789820942402764500,1.6217646484375,0.5193775096029043,-0.1758808830410242,-0.8350999940544367
1789820942412734500,1.631734375,0.7444967630654573,-0.4501026055857539,-0.8418867315851152
1789820942422704400,1.641704345703125,0.6855050603926182,-0.3763803667709231,0.24238405732251703
1789820942432675600,1.651675537109375,0.6470557950109243,-0.7127279983609914,0.6178156720012427
1789820942442645500,1.6616455078125,0.1794791997939348,-1.3009604330033062,0.5102066534146666
1789820942452615400,1.671615478515625,-0.4592144250631332,-1.479222073701024,-0.5541508264182136
1789820942462585300,1.68158544921875,-1.0913538059711456,-0.9545844516128301,-0.4868707129474729
1789820942472555500,1.691555419921875,0.3836526958614588,-1.7977239597380161,-0.07082589631881564
1789820942482525700,1.701525634765625,0.2904623709887266,-2.3142568935647607,-0.364585811015591
1789820942492495600,1.71149560546875,0.7747983778268098,-1.9262664607599376,-0.09718600691277533
1789820942502465500,1.721465576171875,0.6310019013106822,-0.9751347799494862,-1.8167700209915636
1789820942512435500,1.731435546875,-0.14314356556534766,0.28323884947597977,-1.6611837379604577
1789820942522405600,1.741405517578125,-0.1703735177963972,-0.6147215053781867,-1.348900872568786
1789820942532375600,1.75137548828125,-0.731419839349389,-0.41637043185383077,-1.306530049829185
1789820942542345500,1.761345458984375,-0.3616740882873535,-0.8014113672032952,-1.193748158649355
1789820942552315400,1.7713154296875,-0.5408762247055768,-0.19343290634453295,-1.2961341818906367
1789820942562285300,1.781285400390625,-0.5167033219575882,0.6300111367076635,-0.75027783068493
1789820942572256500,1.791256591796875,0.6506511891543865,-0.11028817466795444,-1.2318490489847957
1789820942582226400,1.801226318359375,0.686419252628088,-0.025112813946604726,-0.716682946531847
1789820942592196400,1.8111962890625,0.9457330366373061,-0.16195932519435882,0.22555691422745583
1789820942602166500,1.82116650390625,1.184386894455552,0.39444004733562466,0.007109758939966559
1789820942612136700,1.83113671875,1.0065011013329028,1.1429416621282695,0.7948875183925033
1789820942622106600,1.841106689453125,1.175315699249506,0.9954209043920039,-0.7156653669871389
1789820942632076500,1.85107666015625,-0.3900935425639152,1.295625209455192,-0.1573132894868031
1789820942642046500,1.86104638671875,-1.3931710991889237,1.7342419599086045,-0.6519513119675219
1789820942652016600,1.8710166015625,-0.883113791117072,0.008750877210497856,-0.6334559433992951
1789820942661986600,1.880986572265625,-0.1726952387422323,-0.3526841416239738,0.13602072794809936
1789820942671956500,1.89095654296875,0.2815881596595049,0.7702423219576477,0.22669906999990344
1789820942681926400,1.900926513671875,0.6335404798775911,0.6342895446792245,-0.4907854021731764
1789820942691896300,1.910896240234375,-0.5215332263320684,1.2650517920151352,-0.41913412441350517
1789820942701866800,1.92086669921875,-1.1028104350090027,0.6027236090704798,0.1487294028736651
1789820942711836700,1.930836669921875,-0.8408113574385643,-0.21429361580461262,-0.4052509988810867
1789820942721807400,1.940807373046875,-0.724157739391923,-0.2610474759340286,0.28665443007312713
1789820942731777500,1.950777587890625,-0.24757073924541473,-0.33041531893163917,0.806896520616114
1789820942741747700,1.960747802734375,-0.11730243734419345,-0.34488018987476826,0.9927890945836901
1789820942751717600,1.970717529296875,-1.676821452075243,0.5329810875415801,0.04475377235338092
1789820942761687600,1.9806875,-0.061596916735172265,-1.121456098768115,-0.9739283998344093
1789820942771657500,1.990657470703125,0.45776597982048983,-1.5762746269598602,-0.009364917455613613
1789820942781627400,2.00062744140625,0.36226503991782666,-0.7249667176872492,0.16142485299147666
1789820942791597600,2.01059765625,0.8823182568252086,-0.2763517203107476,0.9456319143503904
1789820942801567500,2.0205673828125,0.5389882190018892,0.4697691368252039,-0.35182072972767053
1789820942811537400,2.030537353515625,0.5341197361826896,-0.20717180110067127,0.5884915970351546
1789820942821507300,2.04050732421875,-0.611858224901557,0.3836442202940583,0.6290466025244444
1789820942831477800,2.050477783203125,0.3431593574315309,-0.920059666198492,1.6713893440239131
1789820942841447700,2.06044775390625,-0.7308253805875777,-0.11438158146142959,1.0945879655867814
1789820942851417600,2.07041748046875,-1.3672346938997506,0.5847773257523775,0.29420455319173633
1789820942861387500,2.080387451171875,-0.5049906723320484,-0.2540563018724322,0.5194231753755361
1789820942871357400,2.090357421875,0.024014497315883634,-0.5594686969727277,0.665975380340591
1789820942881327600,2.10032763671875,0.6246358734101056,-0.14678221432864666,0.6042198755102232
1789820942891297500,2.110297607421875,1.21686059255898,-0.35962680036872624,0.5794969376640394
1789820942901267500,2.120267333984375,1.4643722950935363,-0.28855945997685195,-0.42106947639025744
1789820942911237400,2.1302373046875,1.514092311552167,-0.40371611746400593,-0.9232860808990895
1789820942921208600,2.14020849609375,-0.5656587837845086,1.0595417866468428,-0.3823265983568504
1789820942931178500,2.150178466796875,-0.18663140963613986,0.4807262919083237,-0.3488110995829105
1789820942941148400,2.1601484375,-0.9110568600535393,1.2660226828739047,-0.15073697983641177
1789820942951118600,2.17011865234375,-0.4205541472792625,0.6381538188919424,-0.6161208507820963
1789820942961088500,2.180088623046875,0.9225082283943891,-0.29143618445694447,-0.26795338286496695
1789820942971058700,2.19005859375,-0.3248369342774153,1.4509572254642844,-0.6293501885809004
1789820942981028600,2.200028564453125,1.4561322900146245,0.22797025897949932,-0.2810643001821823
1789820942990998500,2.20999853515625,1.500432619512081,0.3621387831896543,-0.7549567092161625
1789820943000968400,2.219968505859375,1.0217653059601783,0.4933890818655491,-0.4678372919797897
1789820943010938600,2.229938720703125,0.07178162614107131,0.28101737403422594,-0.862963421883434
1789820943020908500,2.239908447265625,-0.8919213669508695,0.5258595650985837,-0.231129837255273
1789820943030878500,2.24987841796875,-1.0404892956525087,0.6937044412001967,-0.8226001395739615
1789820943040848400,2.259848388671875,-0.4211889380514621,-0.9674377957060932,-1.139441398922354
1789820943050818600,2.269818603515625,-1.426546714568138,-0.4072378618493676,-0.9646454615738242
1789820943060789500,2.27978955078125,-0.8436942193984985,-0.29045272637754677,-0.8064172857318073
1789820943070759400,2.289759521484375,-0.15655191319286824,-0.04938596219867467,-0.44107101173773405
1789820943080729600,2.2997294921875,-0.03972352310121059,-0.439511068944633,-0.17343323416057974
1789820943090699500,2.309699462890625,0.32406478086113927,-0.5263061398223042,-0.6527923659015447
1789820943100669700,2.319669677734375,-0.20720073493421076,-0.4281880031585693,0.31944903069399294
1789820943110639600,2.3296396484375,1.2516285390794277,-1.5479752919316292,0.6096315983606502
1789820943120609500,2.339609619140625,0.4250397682607174,-0.930535467505455,0.45673751355558634
1789820943130580500,2.34958056640625,-0.2008943282663822,-0.35764614794552324,-0.5246690036071464
1789820943140550400,2.35955029296875,0.15929858155250548,-0.45036417913138865,-1.5328301836393772
1789820943150520300,2.369520263671875,0.027425182542204857,-0.6601254122033715,-0.9545354979045688
1789820943160490200,2.379490234375,0.30484862373769284,-0.5717053704723716,-0.5616543339161202
1789820943170460400,2.38946044921875,0.9434329430013895,0.17486907564997672,-1.0447921804782003
1789820943180430300,2.399430419921875,0.6557055499345064,-0.20922171936780212,-1.3940420368045567
1789820943190400300,2.409400146484375,-0.4057727577328682,1.185589548243582,-0.5745500923790037
1789820943200371200,2.41937109375,-0.9195791892051697,1.3451061564609408,-1.3806043169520794
1789820943210341400,2.42934130859375,-0.15491642094552516,0.1396428639680147,-0.15453200647151097
1789820943220311300,2.439311279296875,-0.6582020429253578,-0.33578473701030015,-0.42472518588621166
1789820943230281500,2.449281494140625,-1.4172984092295169,0.9458785825878381,-0.6678712770897894
1789820943240251400,2.45925146484375,-0.11158932039439677,0.45605303842276335,-0.738318658952415
1789820943250221300,2.46922119140625,-0.325699104064703,0.6578326250910759,-0.9935535030849277
1789820943260191500,2.47919140625,-0.32297464753687377,0.11647007817327976,-1.3554162458121777
1789820943270161400,2.489161376953125,0.4062894750833511,0.16939152102172375,-0.23701935195159166
1789820943280131300,2.49913134765625,1.3370143276810644,0.8246049035251141,-0.9454369763001799
1789820943290101200,2.509101318359375,1.9806635291188954,0.7086769694045185,-0.12497304503731428
1789820943300071400,2.519071533203125,0.1824906565696001,0.7815668490484357,-0.29038291254434734
1789820943310041300,2.529041259765625,-1.1395499738633632,0.5109668241322041,-1.2121405782997607
1789820943320011300,2.53901123046875,-2.1824182736068964,0.8786217403948307,-0.9065727734420448
1789820943329981400,2.5489814453125,-2.19585818541646,0.37004210366010665,-1.115750872863829
1789820943339952400,2.558952392578125,0.4180179067999124,-1.0383528681457042,-0.38547739053796976
1789820943349922300,2.56892236328125,1.4615671745449303,-0.8130658569008111,-0.4168725726896897
1789820943359892500,2.578892578125,0.9855594355911016,-0.23106851725578306,-0.5006553830740973
1789820943369862400,2.5888623046875,0.6751081695407629,0.14194646473526953,0.34913960088491436
1789820943379832300,2.598832275390625,-0.2283265250712633,0.5629150380343199,0.02254135602340102
1789820943389802500,2.608802490234375,1.1642407630056142,-1.064139051309228,-0.42515177726782855
1789820943399772400,2.6187724609375,0.7576870840281248,-0.4679284773945808,-0.20653478183876722
1789820943409742300,2.628742431640625,0.32652912514805793,0.4204913111761212,-0.5666549917476251
1789820943419712300,2.638712158203125,-0.7225771922022104,0.6655483140349387,-1.2240240544475613
1789820943429682200,2.64868212890625,0.17521160547733305,-0.619607231593132,-0.16146832680702208
1789820943439652400,2.65865234375,-0.3999146793544292,-0.27930355585366484,-2.041933113595843
1789820943449622300,2.668622314453125,-0.5165332260876894,0.6470166320443153,-0.034814342945441605
1789820943459592400,2.678592529296875,-1.3746838408619164,1.7405834378898142,-1.8517248683862386
1789820943469562400,2.688562255859375,-0.30387305670380593,0.8813713313639163,-1.9829960637196897
1789820943479532500,2.698532470703125,-0.4774053307920694,0.5307940988913178,-0.29806214193534103
1789820943489502500,2.70850244140625,-0.08577624922394753,-0.06558072567433118,-0.07771090659219772
1789820943499473400,2.718473388671875,0.37789690881371496,-0.11145984879583119,-0.029982685005292296
1789820943509443300,2.728443359375,1.120456566336751,-0.34853900464326143,-0.129245826985687
1789820943519413500,2.73841357421875,0.09651625442504883,-0.03033668607473373,0.3493928449936211
1789820943529383400,2.748383544921875,-0.41216158198714253,-0.21706395730078218,-0.03499211066514253
1789820943539353300,2.758353271484375,-1.249283437258005,1.0020736402794719,0.3790571847647428
1789820943549323300,2.7683232421875,0.4774316342771053,-0.13124123858660458,-0.6671304686598479
1789820943559293200,2.778293212890625,0.8907482315182685,-0.32448651340454815,-0.1567731912607327
1789820943569263400,2.788263427734375,1.3528998790770768,-1.310608843575418,-0.49836182877682145
1789820943579233300,2.7982333984375,0.9071259503453969,-0.5523617875769734,0.029364260846003888
1789820943589203500,2.808203369140625,-0.10324819302856922,0.39874972722828383,-1.39333198883906
1789820943599173400,2.81817333984375,0.9534206685304641,-1.05842827244699,0.5376858311664313
1789820943609143300,2.828143310546875,-0.8050280963957309,-0.06951251216530799,0.68324953655079
1789820943619113500,2.838113525390625,-0.28456220703423024,-0.8477376495704054,1.022071157038957
1789820943629083400,2.84808349609375,-1.2580612024754285,0.44815234830081463,0.2147464376060292
1789820943639053300,2.85805322265625,-0.7066857955873012,0.12016747138649224,-0.4958979959465563
1789820943649023200,2.868023193359375,-0.5045230548202991,-0.36127953601181506,-0.7453218887779861
1789820943658994400,2.877994384765625,-0.6966846260547638,-0.5236579634010792,0.8604401139508933
1789820943668964400,2.88796435546875,0.8201753966450691,-0.6471726993888616,1.164226442219317
1789820943678934300,2.897934326171875,0.6824445037782192,0.9419666698411107,1.407639477263391
1789820943688904200,2.907904296875,1.28750707719028,0.5996539923667907,1.0097212324231863
1789820943698874400,2.917874267578125,0.17161796489953993,0.6340715180143713,0.29029592838063834
1789820943708844500,2.927844482421875,-1.6981413034796713,1.4622779531627892,1.4685826062649487
1789820943718814500,2.937814453125,-0.7452700855255127,-0.052907122062146664,0.39832295318357647
1789820943728784400,2.947784423828125,-1.2203110252737999,1.3124910040602087,2.366960017487407
1789820943738754300,2.95775439453125,0.30006022041738034,0.5275350970953703,0.7624586092788725
1789820943748724500,2.967724365234375,0.2779939345598221,-0.05658464153110981,0.8044621330760419
1789820943758694400,2.9776943359375,0.4260796327024698,0.6279127031236886,1.9487594475969672
1789820943768664300,2.987664306640625,1.016661260819435,0.8030719938918948,1.0040228746511042
1789820943778634200,2.99763427734375,1.1874690783798694,0.1610363651305437,1.6776448972873388
1789820943788604200,3.007604248046875,-0.17017653391957283,0.24450755228251217,1.1646934021439403
1789820943798574300,3.01757421875,-0.6772860981017351,-0.347308878326416,0.8882930934511124
1789820943808544500,3.02754443359375,-0.6998299383431673,-0.39252953753918407,-0.14667575827948748
1789820943818514400,3.037514404296875,-0.06455459749698639,-0.7646627682596444,1.023468602746725
1789820943828484400,3.047484375,-0.7467319747716188,0.007330781279504299,0.3331281580869108
1789820943838455600,3.05745556640625,0.402011359372735,0.10419570301175117,0.42964846763256936
1789820943848425500,3.067425537109375,1.3007424063384532,-0.37225364222973584,0.16946193764312192
1789820943858395400,3.0773955078125,0.5248176548302174,0.08212123384773731,0.7051508411049843
1789820943868365300,3.087365234375,-0.6942226198554039,0.6911524186298251,-0.17962816154425962
1789820943878335500,3.09733544921875,-0.2690957578331232,0.31320144154131413,-0.04559242426776327
1789820943888305400,3.107305419921875,-0.08489771282374858,0.09759791218191384,0.8101289997313171
1789820943898275300,3.117275390625,-0.4758808977037668,0.009556932896375655,-0.15685717974975705
1789820943908245200,3.127245361328125,-0.44995968998372554,-0.2114513781160116,0.16513943480150772
1789820943918215200,3.137215087890625,-0.15800035843551158,-0.3011754881829023,-0.6100963297955692
1789820943928185300,3.147185302734375,0.11038812791109084,-0.049261459036171434,0.32779921814911067
1789820943938155500,3.157155517578125,0.3877905263185501,-0.08083207082003355,-0.5240346877589821
1789820943948125400,3.16712548828125,0.20974165158867836,-0.25647066953778264,-0.7773088262777775
1789820943958095400,3.177095458984375,1.9588018259227276,-1.0429308435857296,-0.7459345407836139
1789820943968065300,3.187065185546875,-0.139925772562623,0.9343257996991277,-0.17618127249339594
1789820943978035500,3.197035400390625,0.058113166272640224,-0.06716331869065761,0.3710658937498927
1789820943988005400,3.20700537109375,-0.21370938617587087,-0.25330986741930245,-0.014648922273144125
1789820943997975300,3.216975341796875,-0.1600040994733572,-0.8517793261766433,-0.8178812943585216
1789820944007945200,3.2269453125,-1.0563105496406555,0.2874298714250326,0.6834184633769095
1789820944017915100,3.2369150390625,-0.7846727061092853,0.28483927040994167,-0.3264966111179441
1789820944027885300,3.24688525390625,-0.1408598385423422,0.26051088483929635,-0.8586408094439655
1789820944037855500,3.25685546875,0.45180619463324545,-0.17081804669350384,-1.0537575041569769
1789820944047825400,3.266825439453125,1.0081839398533106,-0.633512715087831,-0.4505816578069701
1789820944057796400,3.27679638671875,0.7916460522532462,0.10691051492840051,-1.5712920162416995
1789820944067766500,3.2867666015625,1.6046031880825757,0.0837508808761835,1.4429507368803023
1789820944077736400,3.296736328125,0.5435469052195548,0.003045651306211948,-0.44980471861772237
1789820944087706400,3.306706298828125,-0.2805272524297237,0.21093641433119772,-1.0445869402296841
1789820944097676300,3.31667626953125,-1.5942822850763796,1.4999135640740393,-0.6367661639258265
1789820944107646500,3.326646484375,0.24329379257857797,-0.02421820319443941,-1.085502449594438
1789820944117616400,3.336616455078125,0.28366847306489945,0.5860962993964552,0.011986826924420893
1789820944127586300,3.34658642578125,0.602794043958187,-0.2664516730651259,-0.9473951246306299
1789820944137556000,3.356555908203125,-0.4060071510106325,1.20589437738657,-0.47472748988494273
1789820944147526100,3.366526123046875,0.3559890283882618,1.1858651503145694,-1.738406532242149
1789820944157496300,3.376496337890625,0.6534481263965368,-0.004961714060604572,-0.21460050806300712
1789820944167466200,3.38646630859375,0.07198387071490288,0.3859004747882485,-0.3357156172968447
1789820944177436200,3.396436279296875,-1.6516297276735306,0.7079124147728085,-0.8548200821120291
1789820944187406000,3.406406005859375,-1.4243062421649693,0.1909995417177677,0.838398451077938
1789820944197376000,3.4163759765625,-1.504250716495514,0.5577370508745312,-0.5544252959780395
1789820944207346200,3.42634619140625,-1.0625807159513234,-0.5538076024711132,0.8568808870993554
1789820944217316000,3.436316162109375,-0.7485165201008319,0.560553569599986,1.7167923740662634
1789820944227286000,3.4462861328125,0.8535860833376645,0.6276309635728597,2.6193627069339156
1789820944237256000,3.456255859375,1.2158809338718652,-0.26626082666814327,2.5625579929113385
1789820944247226000,3.46622607421875,0.8799947823137044,-0.5868707909002899,2.045688228345662
1789820944257196300,3.4761962890625,-0.7654723310768604,0.42368280069381,2.163163830299675
1789820944267166200,3.486166259765625,-0.18048048579096793,-0.05525251614451408,2.7119340231254694
1789820944277136100,3.49613623046875,0.5905716912448405,-1.0246350161775946,2.0344389584481717
1789820944287106000,3.50610595703125,-0.399253000575304,-0.4340340988382697,1.678108277015388
1789820944297076200,3.516076171875,-0.19687574027478694,-0.5992080021649598,0.7892270084127784
1789820944307047200,3.526047119140625,1.159550559362769,-0.7547299877882003,1.7572266757853328
1789820944317017000,3.53601708984375,1.4219856902629135,-0.846020616519451,0.8198523021705448
1789820944326987000,3.545987060546875,0.3896282631397247,-0.40725247489660976,0.125783228909038
1789820944336957200,3.555957275390625,1.243388534000516,-0.8985893004074692,0.34546569814514366
1789820944346927000,3.565927001953125,0.9081073625981807,0.09281038564443587,0.10606135075315833
1789820944356897000,3.57589697265625,0.30908114674091336,0.40982992416918274,0.5537067359125242
1789820944366867000,3.585866943359375,-0.15310966378450394,0.06624094314873218,-0.14654329100623725
1789820944376837000,3.595837158203125,-0.9621236149460076,0.2774836469501257,-0.1727903331471607
1789820944386807300,3.605807373046875,-0.26457448101639747,-0.7576163568794727,-0.3573596226217225
1789820944396777200,3.615777099609375,-1.0039484942406416,0.9982719099089503,0.049493477693758905
1789820944406747100,3.6257470703125,-0.4412649268746376,1.1643953690454363,-1.4519807232931254
1789820944416717000,3.635717041015625,-0.28634850592911243,1.8008000061824916,-1.0037595475398005
1789820944426687000,3.64568701171875,-0.10746493394076824,0.5681970700904727,0.9565896539554
1789820944436657200,3.6556572265625,0.11865911265015601,0.5325216533362865,0.12232494168132543
1789820944446627000,3.665626953125,0.12442600561380386,0.7734475477397441,0.6603894699670374
1789820944456597000,3.675596923828125,0.6036345864355563,0.332743177357316,0.052217532362788914
1789820944466567000,3.68556689453125,0.8924117808163166,0.28753011692911384,-0.9699265437819063
1789820944476537300,3.695537353515625,-0.18009177873432636,0.37855420367866754,-0.3840682909250259
1789820944486507300,3.70550732421875,-0.8094289617031812,0.09720569799393415,-0.1450080990619026
1789820944496477200,3.715477294921875,-0.9728905081540346,0.5785287867516279,-0.6593511398952454
1789820944506447000,3.725447021484375,0.5732587373942136,-0.9024433454871177,-0.4196062719698995
1789820944516417000,3.7354169921875,-0.09457739531695843,-0.5545034757807851,-0.48324587351381776
1789820944526387200,3.74538720703125,-0.09258183758556843,0.41126463314741846,0.07367494734069333
1789820944536357000,3.755357177734375,0.8985527677893638,-0.006329495282471179,-1.836935733924806
1789820944546327000,3.7653271484375,1.3222323536127805,-1.01156978289932,-0.5980102437477558
1789820944556297000,3.775296875,-0.4372726423680782,0.006276303790509701,-0.624001082637906
1789820944566267100,3.78526708984375,0.22603929091691968,-0.9081275286033749,-0.6299089915074407
1789820944576237300,3.7952373046875,0.6813385883629322,-0.8127367710769176,-0.9813639566626399
1789820944586207200,3.805207275390625,-0.02205050376653671,1.2018465633004902,-1.4674191154435277
1789820944596177200,3.81517724609375,-0.26259996607303615,1.157998946006596,-1.9617659364253281
1789820944606147000,3.82514697265625,-0.037085575813055036,-0.12505378212332724,-0.9808532306615263
1789820944616117000,3.835116943359375,-1.3438193315207958,1.3701324611678718,-1.2204590554423629
1789820944626087200,3.845087158203125,0.46265199829638004,-0.20555209094434976,-0.026524169448716564
1789820944636057000,3.85505712890625,-0.7076631161868572,0.4225470746621489,-0.15873577830428257
1789820944646028000,3.865028076171875,-0.1970382373601198,0.3219742383226752,-0.9816177852932363
1789820944655998200,3.874998291015625,0.902315919715166,-0.7667591560170054,0.84879906825684
1789820944665968000,3.884968017578125,0.02144844622015953,0.46910921161174773,0.5879951187551021
1789820944675938000,3.89493798828125,-0.6187526605904102,0.9698094932734965,0.2581182540817186
1789820944685908000,3.904907958984375,-0.19698095421493053,-0.13608020305037496,-0.04522056788122281
1789820944695878100,3.914878173828125,-0.4874088384121656,-0.01303454587906599,-1.1839245376408098
1789820944705848300,3.924848388671875,-0.06689969931840896,-0.5675552650555968,0.025621804648358372
1789820944715818200,3.934818359375,-0.26815584663450714,0.028453356546163558,-0.207302021617908
1789820944725788200,3.9447880859375,1.2052145784288644,-0.24115882637649774,-0.41588597280513495
1789820944735758000,3.954758056640625,0.9671300449311733,-0.14924918896406889,-0.010535806132201104
1789820944745728000,3.96472802734375,0.6165922676861286,-0.6760700003102421,-0.2866303002788685
1789820944755698200,3.9746982421875,-1.1884423073261976,0.616957009345293,-0.03204646740099415
1789820944765668000,3.984668212890625,-0.5254454313397408,0.15898498555868862,-0.3586210573922842
1789820944775638000,3.994637939453125,-1.028753849673271,-0.1771156855329871,-0.37030126605294644
1789820944785608000,4.00460791015625,-1.7104723772644996,0.5427718291938305,-0.27268337052892894
1789820944795578000,4.014578125,-0.5130366161435842,-0.1752665505349636,-0.5941735151290893
1789820944805548300,4.02454833984375,-0.6263818402945995,0.10528992798924446,-1.0389895586140454
1789820944815518200,4.034518310546875,0.5124146848529577,-0.30318302861303087,-0.7004815341196954
1789820944825488100,4.044488037109375,1.7390052287876605,-0.2054039146453142,-1.0056615087036043
1789820944835458000,4.0544580078125,3.01377498947978,-0.5553723675698041,-0.37482652492504565
1789820944845428200,4.06442822265625,2.521435708928108,-0.48549336017966266,-0.12437619338901713
1789820944855398100,4.074398193359375,-0.6123720196425915,1.7891060612574219,-1.274576576207578
1789820944865368000,4.0843681640625,-1.3831541475653648,0.3622095103383064,-0.17600854627499357
1789820944875338000,4.094337890625,-2.3503730398237703,0.21881343131661413,0.6482218431156128
1789820944885308000,4.104307861328125,-0.7283043376773596,-0.7537529594495892,1.7012661575019359
1789820944895278300,4.1142783203125,0.27159868056476116,-0.5542670366764069,0.7098562423169612
1789820944905248300,4.124248291015625,-0.31594401824772356,0.6837117472350597,0.35892668927535415
1789820944915218200,4.13421826171875,-0.3273836961507797,0.9833101953595876,-0.21050927496030925
1789820944925188000,4.14418798828125,1.9772353082358836,-1.608403749409318,0.815034672755748
1789820944935158000,4.154157958984375,2.0952742431610822,-1.5718714235648512,1.8007292790338396
1789820944945128200,4.164128173828125,0.5264560696870089,-0.16696341709196566,0.27912653705263507
1789820944955098000,4.17409814453125,0.8954466184675693,-0.24514789601266382,1.1534003661699592
1789820944965068000,4.184068115234375,-0.11585866827666759,-0.11366817249506711,-0.151893913052883
1789820944975038000,4.194037841796875,-1.001027053835988,0.19009499409347771,1.9243937987558541
1789820944985008000,4.204008056640625,-1.5593524259924887,0.5231012063011526,0.900360547863692
1789820944994978300,4.213978271484375,-0.8873030595004558,-0.32542817816883324,1.9469861543141305
1789820945004948200,4.2239482421875,-1.3468155907273291,0.9375804175809025,0.806907918792963
1789820945014918100,4.233918212890625,-1.1982634441167115,0.8379007306888699,2.08226103233099
1789820945024888000,4.24388818359375,-0.33047990860044957,0.16715923192501067,1.5813903625383972
1789820945034858200,4.253858154296875,0.9529904604196547,-0.6472741139367223,0.38089904977176336
1789820945044828200,4.263828125,0.9685182844191789,-0.08635960206985473,1.2357571623392403
1789820945054798000,4.273798095703125,0.4481400733411312,0.209815009085834,0.9385236167151481
1789820945064768000,4.28376806640625,0.02414016952216625,0.00869271728247404,0.44017135948427016
1789820945074738000,4.293738037109375,-0.03131926737129688,0.6546864360198378,-0.07458294729739427
1789820945084708000,4.3037080078125,-0.19142332008779048,0.7929606419831514,-0.5340004937171936
1789820945094678300,4.31367822265625,-0.03907411928176879,0.18422610206007956,-0.5255810038855299
1789820945104648200,4.323648193359375,0.306584653750062,0.4649661204576492,-0.2745222398612648
1789820945114618000,4.3336181640625,0.38309038580358024,0.15180208831727504,-0.07155550750130787
1789820945124588000,4.343588134765625,0.44555239493548865,0.22373539788872002,0.7333870477691292
1789820945134558000,4.353557861328125,-0.544460512933135,0.4653212175056338,-0.7162668400116264
1789820945144528000,4.36352783203125,-0.4548094681024551,0.4567281612053513,0.07714958291500806
1789820945154498000,4.373498046875,-0.23189444668591022,-0.1016150388687849,1.0131013763807712
1789820945164468000,4.383468017578125,-0.4472416631966829,-0.7430553320854901,1.547820393630862
1789820945174438000,4.39343798828125,-0.8531699037522077,-0.316651874256134,0.20336678279452025
1789820945184408000,4.403407958984375,-0.23891572362482547,-0.3220867587864399,-0.41943449559956786
1789820945194378000,4.4133779296875,1.1054326002061365,-0.23102847750633954,1.0706493099860845
1789820945204348200,4.42334814453125,3.2522061444580554,-1.679443325011432,0.16815313833318649
1789820945214318000,4.433318115234375,1.7045529240876436,-0.48757192001938815,0.625691666073352
1789820945224288000,4.4432880859375,-0.288781286033988,0.4142214371263981,-0.60256703026928
1789820945234258000,4.4532578125,-3.326525180122256,1.9938395292952655,-0.9398905942194163
1789820945244227800,4.463227783203125,-1.8504560174942015,-0.8507052672043443,-0.27304602982886134
1789820945254198000,4.473197998046875,-2.04859724766016,-0.4360907391071319,-0.5496201241860166
1789820945264168000,4.48316796875,-0.42857554117143154,-0.17670067499130962,-0.22047464252710341
1789820945274137900,4.493137939453125,2.4914608419030904,-0.9683362058505416,0.9242029765482992
1789820945284108000,4.50310791015625,1.4492565590262412,0.9922051572158932,-0.15193875684160738
1789820945294078000,4.513077880859375,2.3526690418064593,-0.6947068962410092,1.0953282625600695
1789820945304048000,4.523048095703125,1.543400823622942,-0.5040568986132741,1.411726308185607
1789820945314018000,4.53301806640625,1.1778659682542085,-0.1003863738566637,1.6412807676166294
1789820945323988000,4.542988037109375,0.021996727752685546,1.8742369983151554,1.0977492791619152
1789820945333958000,4.5529580078125,-0.099153032669425,0.055847851689159865,0.8643132290571928
1789820945343928000,4.562927978515625,-1.117009640753269,0.8704369726344943,-0.1666307510714978
1789820945353898000,4.57289794921875,-2.2682944760739803,0.9690747492581605,0.4624156687898561
1789820945363868000,4.582867919921875,-2.2615800731271505,1.5419336736798286,0.32469854872003195
1789820945373837800,4.592837890625,-0.7314379595279693,0.29322336013466116,1.6644342641890049
1789820945383808000,4.60280810546875,-0.4447007465422153,0.7529109556674957,2.232420468007773
1789820945393778200,4.612778076171875,0.3599485796689987,0.49315936476290223,1.6914597798891364
1789820945403748900,4.622748779296875,1.3287988725215196,-0.4770560789629817,0.9388144894205033
1789820945413718000,4.632718017578125,0.25639234360456464,-0.20063859993964434,0.23781335187349467
1789820945423688000,4.64268798828125,0.825231510990858,-1.5716808694288134,1.0210466362968087
1789820945433657900,4.652657958984375,0.7930220167815685,-1.4361790507882832,1.0763419686697422
1789820945443628000,4.6626279296875,-0.8530319565862416,0.41279695728123184,0.7555785674415528
1789820945453599000,4.672598876953125,-0.44726913572549815,0.6156082250848413,0.2365497616784647
1789820945463569000,4.68256884765625,0.13447919759452343,0.5683356017783284,-0.8233695895764976
1789820945473538800,4.692538818359375,-0.15356091468334196,0.07834025400429964,-1.2312598509199917
1789820945483508000,4.702508056640625,0.009822305834293365,-0.4038374057561159,-0.060906559850834305
1789820945493478100,4.71247802734375,-0.8047130390971898,0.052554070840775964,0.2941806243268773
1789820945503448000,4.722447998046875,0.11929916411936282,-0.7272706107154489,0.6122552613951265
1789820945513419000,4.7324189453125,0.13364683842360972,-0.006750643303990364,0.2921374280614778
1789820945523388000,4.742387939453125,-0.48975510927736754,0.5220739090800285,0.04059314554259181
1789820945533358000,4.752358154296875,0.40286359228789803,-0.7504425197273492,-0.08496898796167224
1789820945543328000,4.762327880859375,-0.5654951176553964,-0.09122282419204711,0.05428652065657079
1789820945553298000,4.7722978515625,-0.13307868314683435,0.2021101337969303,0.13788765433114022
1789820945563267800,4.782267822265625,-0.41007016266584395,0.28837738140821456,-0.21948252621721476
1789820945573238000,4.792238037109375,0.21574936757087707,-0.17691870165616272,-0.849186533204466
1789820945583208200,4.802208251953125,0.7666992425233126,-0.15288988355398178,-0.831239665364474
1789820945593178000,4.81217822265625,0.18016659753620623,0.6719894529983401,-0.07272898999378084
1789820945603148000,4.82214794921875,0.9236123902440071,-0.4732143088430166,-0.07336790895182639
1789820945613118000,4.832117919921875,-1.0484043065607547,0.5632774416059255,-0.4274998747639358
1789820945623087900,4.842087890625,-2.4301579396784305,0.384461674156785,-1.0528902198031544
1789820945633058000,4.85205810546875,-1.3109107491314411,-0.3368392144992947,0.1763633145294152
1789820945643028000,4.862028076171875,0.20141221466064452,-0.45568332832753655,-0.3290602510608733
1789820945652998000,4.871997802734375,1.9602140308082103,-1.2971119408816099,0.36179669175371526
1789820945662967800,4.8819677734375,1.3904998341530561,0.5952060730472206,0.3922671968085691
1789820945672938000,4.89193798828125,1.5588146658539772,0.05985416472107172,-0.5257588812030851
1789820945682908200,4.901908203125,1.5308242506444454,0.15888094066232442,-0.09186640105890109
1789820945692878000,4.911878173828125,2.331348605880141,-0.22798867141902446,0.7525096813902259
1789820945702848000,4.921847900390625,3.36963717661798,-1.0204869565874337,0.1667859781658277
1789820945712818000,4.93181787109375,-2.5234160690903664,2.184458839523792,-0.4346047748656943
1789820945722788000,4.9417880859375,-1.403372175207734,1.3903466894179581,-0.5162945950262248
1789820945732758000,4.951758056640625,-0.9574632219195366,0.38519378782361746,-0.950306701228395
1789820945742728000,4.96172802734375,-0.593467412686348,-0.3759834764078259,1.2663216658204792
1789820945752697900,4.97169775390625,-1.7441075203627348,0.6046130760788917,0.21408375417990608
1789820945762667800,4.981667724609375,-3.1465947294294834,2.1435551667273045,0.8172124551862477
1789820945772638200,4.99163818359375,-1.0040513700932263,0.2465904960364103,0.26410739322761073
1789820945782608100,5.001608154296875,-0.17992343643009662,-0.9855500832408666,0.09938965443689375
1789820945792578000,5.011578125,1.151954697406292,-1.8001973641142248,-0.5957595787441358
1789820945802548000,5.0215478515625,1.2146978615671395,-1.4330200022354722,-0.14843361653117462
1789820945812518000,5.031517822265625,2.2365894242554902,-1.2241364287808536,0.14109207639563828
1789820945822488000,5.041488037109375,2.035503372809291,-1.4172288511246443,0.2860747670216486
1789820945832458000,5.0514580078125,0.6973012966483831,-0.10792699849456548,0.41312381461542097
1789820945842428000,5.061427978515625,0.7980185098946094,-0.8652648306936025,-0.27939572764914483
1789820945852397800,5.071397705078125,-0.5603595083326101,0.9940703665658831,-0.23002583980243652
1789820945862368000,5.081367919921875,-1.0674889462590218,0.920990225046873,-0.7270907241038977
1789820945872338200,5.091338134765625,0.34847909114956854,-0.9945283394664526,-0.5655007436785847
1789820945882308000,5.10130810546875,-0.20460954939723014,0.29386224256008864,0.4592691509250551
1789820945892278000,5.111278076171875,1.1462789898574353,-1.7085346872001885,-0.43672399550937113
1789820945902248000,5.121248046875,-0.40756081019341944,0.13363397894203663,-0.31145394028685985
1789820945912218000,5.131218017578125,-0.9862462488114834,1.1777081473439932,0.03627288945699111
1789820945922188000,5.14118798828125,0.2787421225786209,-0.7896388040840625,-1.214439137565717
1789820945932158000,5.151157958984375,0.2830582322120666,-0.11971709727048874,0.7704043806515634
1789820945942127900,5.1611279296875,-1.7657120339274406,1.9317606742620468,-1.6561719011478124
1789820945952097800,5.171097900390625,0.5871849714159966,-0.22375790198147297,0.1180005208772607
1789820945962068000,5.18106787109375,0.4341875358343124,0.6252998902767897,-2.0292567335046825
1789820945972038100,5.1910380859375,0.8230220182478427,0.1834831747382879,0.5939185174547136
1789820945982008000,5.201008056640625,0.19443828399479388,0.32680414269715546,-1.670481289268285
1789820945991978000,5.21097802734375,-0.3377332407295704,2.0274854860484597,-0.20028912891484796
1789820946001948000,5.220947998046875,-0.2170984440922737,0.7526546428188681,-1.789658872834593
1789820946011918000,5.23091796875,-2.2399854964345693,1.0819582011163233,-0.09818070790539495
1789820946021888000,5.240887939453125,-2.1377672309756277,0.30884149276614187,-1.779516833526641
1789820946031858000,5.25085791015625,-0.35267245118618007,-1.034037343034148,0.9907674525629728
1789820946041827800,5.260827880859375,-0.2372276244074106,0.440309233585,0.8350156767718493
1789820946051798000,5.270798095703125,2.3256992018163203,-0.5240764810740948,-0.6496624703779816
1789820946061768000,5.280767822265625,0.9452262561589478,-1.1340461157500743,0.0668296388900373
1789820946071738000,5.290738037109375,0.7752396918535233,-0.20394202539920805,-0.3448035444419831
1789820946081708000,5.3007080078125,1.9490292044490574,-1.4748381595283746,-1.0726491055011749
1789820946091678000,5.310677978515625,-0.11354220802783965,-0.610222440393269,0.45326538046561177
1789820946101648100,5.320648193359375,0.2333592585414648,-0.7120099132195115,-0.894380450540781
1789820946111618000,5.3306181640625,-0.37356267900168894,0.29694910265952346,-0.8715270328935235
1789820946121588000,5.340587890625,-1.2497849570393562,1.085877712647617,-1.1562949185676872
1789820946131557400,5.350557373046875,-0.9175783707767724,0.9555816459566354,-0.4744264611117541
1789820946141527300,5.36052734375,-0.3920516908943653,-0.022781740650534628,-0.42297454282660035
1789820946151497500,5.37049755859375,-0.39351358014047144,-0.01935439655035734,-0.4393390368459746
1789820946161467400,5.38046728515625,0.18419570692181586,-0.3649269526034593,0.2895222040617838
1789820946171437300,5.390437255859375,0.6568576425790786,-0.33205227248370645,-0.7733025863111018
1789820946181407500,5.400407470703125,0.5160574252694845,-0.3918672742381692,0.3964980393113568
1789820946191377400,5.41037744140625,1.0504676688313483,-0.9783788764372467,0.4799962606007233
1789820946201347300,5.420347412109375,0.3209796743273735,0.20360212592035531,0.4059761713504791
1789820946211317200,5.430317138671875,0.07072656413018703,0.5020470200955868,-0.871688726261258
1789820946221287200,5.440287109375,0.30180735634565353,0.22697306463569403,0.03771101423501968
1789820946231257300,5.45025732421875,-2.6770453728348014,2.182438147351146,-1.2026841831684112
1789820946241227300,5.460227294921875,-1.49383278285563,0.13845014705210923,0.1384167562391609
1789820946251197400,5.470197509765625,-1.113458670273423,-1.896166213789582,-0.3183914844650775
1789820946261167400,5.48016748046875,-0.6209867032527924,1.1782853627100587,1.2222495921209453
1789820946271137500,5.490137451171875,3.566590658304095,-2.016998578825593,0.8329647355914115
1789820946281107500,5.500107421875,4.677236609244346,-1.0984876033738256,1.8387091733381151
1789820946291077400,5.510077392578125,1.8878870457440613,0.992880572259426,-0.8728289823375642
1789820946301047300,5.52004736328125,0.2276245142817497,0.3589981470763683,-0.25713695142678916
1789820946311017200,5.530017333984375,-2.960141598969698,1.1632871155425906,0.06390647231917827
1789820946320987400,5.5399873046875,-3.0834447380334136,-0.12000935821533203,-0.5458816317774355
1789820946330957300,5.549957275390625,-1.955631963714957,0.19330138891935347,-0.7136286004625261
1789820946340927500,5.559927490234375,-0.4990747262865305,0.8901648786723613,0.218636284651421
1789820946350897400,5.5698974609375,0.520340217155218,-0.26144816568940876,-1.429409410522878
1789820946360867300,5.579867431640625,0.9573457330197095,-0.5348772765517235,0.7453588597875088
1789820946370837500,5.58983740234375,0.7098650101453066,-0.376397317905724,0.5157110960498452
1789820946380807400,5.599807373046875,0.25678163518309594,0.6293956351578235,-0.04815057518482208
1789820946390777300,5.60977734375,0.2537199095249176,0.26367928574234245,0.03348218102622777
1789820946400747300,5.619747314453125,-0.18268530235886574,-0.14536124161481856,-1.023542106374353
1789820946410717200,5.62971728515625,-1.589759254693985,0.49993631155192847,0.36549404843430966
1789820946420687400,5.639687255859375,-0.009562778115272522,-0.5663303994357586,-0.630264673077315
1789820946430657300,5.6496572265625,0.5581231275826692,-0.7295075759872793,0.6306539646558463
1789820946440627500,5.65962744140625,0.6917968540132046,-0.9843030057892203,-0.5738126084173097
1789820946450597400,5.669597412109375,-0.2797428240537643,-0.517886102001369,0.15106420249678193
1789820946460567600,5.679567626953125,-1.1502356185287237,0.8825307305321097,-1.056018580956757
1789820946470537500,5.689537353515625,-0.5919792199552059,0.3047968935504555,-1.1301394637003541
1789820946480507400,5.69950732421875,-0.004421323573589325,0.07483283040523529,-0.04243062663543969
1789820946490477300,5.709477294921875,0.049694297495484346,-0.2820379492536187,0.13722780218292027
1789820946500447200,5.719447265625,0.3390291257590055,-1.1143632178977132,-0.019569244877435266
1789820946510417400,5.72941748046875,-0.04144903171956539,0.5550079181715846,-0.1690950222931802
1789820946520387300,5.73938720703125,0.70407707439363,0.4399290020957589,-0.9447947328738868
1789820946530357200,5.749357177734375,0.3816115454226732,0.4954024675145745,-1.0395143131405113
1789820946540327400,5.759327392578125,0.9191226776093244,-0.08858955307900905,-0.0395709994206205
1789820946550297300,5.76929736328125,-0.8300415416210889,1.0087576480880378,-1.8301923971444367
1789820946560267500,5.779267578125,0.13227788815796374,0.14275661207437515,-0.8559085349358618
1789820946570236400,5.789236328125,0.30084698688089845,-0.22916268363445996,-0.5356325518984347
1789820946580206300,5.799206298828125,-0.4263286390274763,0.4163590336769819,-1.212924276023358
1789820946590176300,5.80917626953125,-0.9563561374604701,0.9167658853501081,-0.6573455722264945
1789820946600146200,5.819146240234375,0.36639819419980046,-0.4357677907630801,-1.4141780852518975
1789820946610116600,5.82911669921875,0.22116554740071295,-0.44869186200499533,-1.4696344534054397
1789820946620086500,5.83908642578125,0.11077098974883556,0.1701096061632037,0.48976051610484717
1789820946630056400,5.849056396484375,1.2026865212559699,-1.6257269323930144,-0.2546349785432219
1789820946640026400,5.8590263671875,1.0150053103059529,-0.5744383025676012,-0.4423777834873646
1789820946649996300,5.868996337890625,0.7394809807300567,-0.8091220877110957,-0.8306556549314409
1789820946659966500,5.878966552734375,-1.1148872417718172,0.5208031584918499,-0.3267078792484477
1789820946669936400,5.888936279296875,-1.178264027661085,0.05597849233150482,-0.5426771001150831
1789820946679906300,5.89890625,-2.3991654200434684,0.9503609886988997,-0.0609821458376944
1789820946689876200,5.908876220703125,-1.3764315613120794,-0.4987672677725553,-0.424451848837547
1789820946699846100,5.91884619140625,-0.1792757861763239,-0.5024319277599454,0.3198312714772299
1789820946709816600,5.928816650390625,0.7489017200261354,-0.660383770878613,0.09882928060777485
1789820946719786500,5.938786376953125,2.0375521220326425,-1.2133701200947165,-0.08527326813787221
1789820946729756400,5.94875634765625,2.5011416934400796,-0.8389321195632219,-0.21105872553661464
1789820946739726300,5.958726318359375,1.7840677748292684,-0.6099003688320517,-0.1364786277834326
1789820946749696300,5.9686962890625,-0.008404840251803398,0.18561054215580225,-0.40680772680379446
1789820946759666400,5.97866650390625,-0.7825964843571186,0.25842297264933584,0.2646610998539254
1789820946769636400,5.98863623046875,-1.3763830459952353,-0.09279080416113138,-0.6290685951605439
1789820946779606300,5.998606201171875,-0.8623772925585508,0.4248217415958643,-0.09098928943080827
1789820946789576200,6.008576171875,0.38329263037741185,0.7476631181418896,-1.8762636818371712
1789820946799546400,6.01854638671875,1.1204273402422666,-0.560754937390983,-0.4577664912771433
1789820946809516500,6.0285166015625,0.8706266499876976,-0.056474459154903886,0.21965424778861925
1789820946819486500,6.038486572265625,1.1981968086212873,-0.22155571576207875,-0.5133747620567679
1789820946829456400,6.048456298828125,2.6460598674625158,-0.9606821839660405,-0.4353168321251869
1789820946839426300,6.05842626953125,0.5467103376865386,0.9797261993929743,-1.4946332855835556
1789820946849396500,6.068396484375,-1.9144108955323695,0.7719739680558443,-0.6539241464104503
1789820946859366400,6.078366455078125,-3.6766608063071966,1.0816299920752643,-0.32066695511639115
1789820946869336300,6.08833642578125,-2.090418619823456,0.23799480938762424,0.1147837142552249
1789820946879306200,6.09830615234375,-0.3931014922082424,0.32809885868281125,0.78893715862073
1789820946889276200,6.108276123046875,0.4251151715844869,-0.05272884288579225,0.8464731095273047
1789820946899246300,6.118246337890625,-0.3282259921938181,1.0876549514532088,1.0416104817021639
1789820946909216500,6.128216552734375,0.17172142527401446,0.19666648143827914,0.8530858056653291
1789820946919186400,6.1381865234375,-0.09268354439437389,-0.31875907566845413,0.7838635086182505
1789820946929156400,6.14815625,0.7927689188033342,-1.539920580291748,0.37841844846978784
1789820946939126300,6.158126220703125,-0.1947071640640497,-0.580190290223062,0.4757937308769673
1789820946949096400,6.168096435546875,-1.1828156996160746,0.6550023701012134,1.6752217617936431
1789820946959066400,6.17806640625,-1.5831652632564306,0.5590127698987722,0.2941707970526069
1789820946969036300,6.188036376953125,-0.18758593388199804,-0.9477192420184611,-0.6003674013331532
1789820946979006200,6.198006103515625,0.8527940561771392,-0.8343684649094939,-0.3218224087618291
1789820946988976400,6.207976318359375,1.1189034916758536,-0.22699264611899853,-0.012141898755123838
1789820946998946300,6.2179462890625,1.5134399851232767,-0.2644669289886951,1.265112728422135
1789820947008916500,6.22791650390625,0.7755097409665584,0.3053404989078641,-0.5776091876886784
1789820947018886400,6.237886474609375,1.0520248351454735,-0.6622697307556867,-0.23422435093820093
1789820947028856300,6.247856201171875,0.3703904787063598,-0.34345717133432624,-0.4818448841420933
1789820947038825200,6.2578251953125,0.2824666960597038,-0.2640297066152096,-0.16323226773962377
1789820947048795400,6.26779541015625,-0.6003022271424532,0.30015812783390283,-1.0839211717523634
1789820947058765300,6.277765380859375,-1.092977607780695,0.9007561230525374,-0.7355156572956592
1789820947068735500,6.287735595703125,-0.3248772662878036,0.32605420111268757,-1.4538982473522424
1789820947078705400,6.297705322265625,-0.22535247769653796,1.4041729701966046,-0.5852590813873335
1789820947088675300,6.30767529296875,0.24202128842473028,0.8622302853032946,-0.5567553828934207
1789820947098645500,6.3176455078125,0.6003507424592971,0.5477563396081329,0.24589243076965211
1789820947108615400,6.327615478515625,1.0856903733819723,-0.1469134394928813,0.8805518316745757
1789820947118585300,6.33758544921875,1.8616256462842224,-0.6526479159295558,1.2943006828531622
1789820947128555300,6.34755517578125,-0.48803953753113744,1.1289517152205109,-0.1370568112638779
1789820947138528300,6.3575283203125,-1.719462908449769,0.5898097669616341,-0.1491940155775752
1789820947148498200,6.367498291015625,-1.4972838000923394,0.14114713105112314,-1.6582032608449457
1789820947158468400,6.37746826171875,-0.2590916656911373,-0.8290247657939791,-0.13505596543601714
1789820947168438300,6.387438232421875,-0.25885493432581425,-0.009512216971814633,0.16805775166731327
1789820947178408200,6.397408203125,0.9014198476582765,-0.4655582411319017,0.8463087127458304
1789820947188378400,6.40737841796875,1.6429659442245959,-1.108091590282321,-0.1293358981556259
1789820947198348300,6.417348388671875,1.588009780678153,-1.9478651291057467,-0.3830217044815421
1789820947208318200,6.427318115234375,-0.07924772423803805,0.08717179523557424,-0.9694175713464617
1789820947218288000,6.4372880859375,-0.7765998742908239,0.9702966922685503,-1.5190817904025316
1789820947228258000,6.447258056640625,-0.31632980269491673,0.36376375404298306,0.31766061290726066
1789820947238228200,6.457228271484375,-0.5519318717271089,-0.31207769820839165,0.9666749946400522
1789820947248198100,6.4671982421875,-1.1991110008567571,0.3402738651230931,1.3174807751715183
1789820947258168300,6.477168212890625,-0.34392391206324097,0.8897957530990243,1.1185578931085765
1789820947268138200,6.48713818359375,-0.699804219380021,1.1146586937129497,-0.08249683482763356
1789820947278108400,6.4971083984375,0.2593447636693716,-0.7685755577892065,0.9016269145376979
1789820947288078300,6.507078369140625,-1.2695774527460335,0.37102322365194557,1.4449161917343736
1789820947298048300,6.51704833984375,-0.18920739760398864,-0.13273615331947802,1.0342412681084125
1789820947308018200,6.52701806640625,0.2147317149609327,0.5912368771553039,0.9224252262860536
1789820947317988000,6.536988037109375,1.5121365013092756,0.5606029616996646,-0.028657455150363966
1789820947327958300,6.546958251953125,0.7046990056842565,-0.5221095649152994,0.7913937579926102
1789820947337928200,6.55692822265625,-0.024517186141014096,-0.0400084775224328,0.04927254668576642
1789820947347898400,6.5668984375,-0.29692718308866023,0.25075258415192364,0.3758882358724251
1789820947357868300,6.576868408203125,-1.373004509472847,0.3482026122957468,-0.5591850577257573
1789820947367838200,6.586838134765625,-0.6659972268462181,-0.6567828237771988,0.3037658152033575
1789820947377808400,6.596808349609375,0.07739771245718002,-0.7485299641042947,-0.8724564957633614
1789820947387778300,6.6067783203125,1.6549585798352955,-1.7616300253108144,0.460856054790318
1789820947397748200,6.616748291015625,0.5561673173397779,-0.5341211974874138,-0.2864656477690674
1789820947407718100,6.62671826171875,0.2965092499375343,0.21886603828668594,0.42737087808940555
1789820947417688000,6.63668798828125,-0.24671967537403106,0.6277469911679625,0.24160295341480523
1789820947427658200,6.646658203125,-0.05958674595654011,-0.24975772789567707,-0.06662982373530976
1789820947437628200,6.656628173828125,0.3395657168537378,-0.41678690370023247,-0.49643692512884735
1789820947447597300,6.666597412109375,-0.31036300324499605,0.8526564012721181,-0.019802800188271793
1789820947457567200,6.676567138671875,-0.05893266596198082,0.7139753680735826,-0.17140472400765866
1789820947467537200,6.686537109375,0.9308277284502983,0.193013219627738,-0.37310985720027234
1789820947477507300,6.69650732421875,0.5620733265131712,0.06101034901887178,-0.27677084077196196
1789820947487477200,6.706477294921875,0.48035599729120726,-0.21456074230819938,-0.5413495778383687
1789820947497447200,6.716447265625,-1.2809388047158716,1.4141528046801686,-0.48660625332500784
1789820947507417000,6.7264169921875,-1.709898961290717,0.5886389696165919,-0.32494967393688856
1789820947517387300,6.73638720703125,-1.7775182070553301,0.4268883187368512,-1.1272717262443155
1789820947527357400,6.746357421875,-0.5766536405295133,0.12609189299941062,-0.030907716011896263
1789820947537327400,6.756327392578125,2.1244588365912436,-1.3883020318478345,0.4560408730609342
1789820947547297300,6.76629736328125,1.8363176020264624,-0.739911188840866,0.5666940451163798
1789820947557267200,6.77626708984375,1.7786568556964397,0.20696020417660474,-0.18008633537422863
1789820947567237000,6.786237060546875,2.416634441238642,-1.6885998604133725,-1.441136380934715
1789820947577207300,6.796207275390625,0.5549690474659205,0.2898775568380952,-1.4201327558726071
1789820947587177200,6.80617724609375,-0.8045850288033485,1.0359554516151548,-0.8805572385020554
1789820947597147100,6.816147216796875,-0.48684828191995616,0.05346212559640407,0.33264570833221074
1789820947607117000,6.826116943359375,-1.821409955751896,0.16237842738926409,-0.6634569677788764
1789820947617087200,6.836087158203125,-1.802735065898299,0.4138923513025045,0.9418647438365966
1789820947627057400,6.846057373046875,-1.3985171363919973,0.1522021935507655,-1.356726013236493
1789820947637027300,6.85602734375,-0.4765215336948633,0.22543489528298377,0.7326977503307164
1789820947646997200,6.865997314453125,0.40409108825623985,-0.9806795545950532,-1.4397289983548223
1789820947656967200,6.87596728515625,0.9843097277909517,-1.3515768137797712,0.5050163182299584
1789820947666937300,6.885937255859375,0.7173416296362877,-0.45301527816206216,-1.8360437535211442
1789820947676907300,6.8959072265625,0.682720982632041,0.6216469207271933,1.0329287972703576
1789820947686877200,6.905877197265625,1.3051251514673232,0.25503069986253973,-0.377685165759176
1789820947696847000,6.91584716796875,0.2180050375431776,0.462172690346837,-1.0730200577054172
1789820947706817000,6.925817138671875,-1.359113931286335,1.1846297633007168,-0.22192717942297457
1789820947716787500,6.935787353515625,-1.0756769288897514,1.9084841358318925,-1.5192504249677061
1789820947726757400,6.94575732421875,0.2560737791746855,0.2268330716431141,0.774135091612488
1789820947736726300,6.955726318359375,-0.7630220153152942,1.0365712454259395,-0.16749266513045877
1789820947746696200,6.9656962890625,0.6889157456189393,-0.3362757353976369,-0.9048519409988075
1789820947756666000,6.975666015625,0.2957856118381023,0.10074731612354516,0.34313239635936915
1789820947766636000,6.985635986328125,0.5076327112734318,0.2934025160938501,-0.6530033783037215
1789820947776606200,6.995606201171875,-0.534443561309576,1.1482909142017363,0.5685687894796952
1789820947786576400,7.005576416015625,-1.0113456187546253,0.3002984130874276,-0.8286623622223734
1789820947796546300,7.01554638671875,-1.092410621547699,0.2377209608823061,0.48994106030352413
1789820947806516200,7.02551611328125,-0.08028057441711425,-0.38242695345878597,-0.013069260999420657
1789820947816486400,7.035486328125,-0.7209826164871453,0.5359054505556822,0.11673769786721094
1789820947826456300,7.045456298828125,0.07814999212920665,-0.6646347063213587,-0.5838337612919509
1789820947836426200,7.05542626953125,0.8213117071986198,-0.5549573570281267,-0.7625185958378017
1789820947846396200,7.065396240234375,1.0446072523653507,-0.3983353012084961,1.3363197695456444
1789820947856366000,7.075365966796875,2.8237673814088105,-1.0719617077589034,1.7620412364602087
1789820947866336300,7.085336181640625,1.501604001379013,-0.5167433617070317,0.14758658038093708
1789820947876306200,7.09530615234375,-1.3057272090137004,-0.025821838998794554,-0.20871630886262282
1789820947886276400,7.1052763671875,-4.303994248238205,1.2423337642505765,0.13073053085179998
1789820947896246300,7.115246337890625,-1.461423966681957,-0.954957668839395,-0.29728565940381957
1789820947906216200,7.12521630859375,0.499608979293704,-1.1786936512500048,0.1795060147356242
1789820947916186400,7.135186279296875,1.667498327934742,-0.34332682295292616,-0.13627428258405996
1789820947926156300,7.14515625,3.556318270614743,-0.5056102655351161,0.4063769341710955
1789820947936126200,7.155126220703125,3.8748037900388237,-0.8490098614633083,-0.4832452889919281
1789820947946096000,7.16509619140625,1.8133610893309116,0.26604572261273857,-0.24104442448290064
1789820947956066000,7.175066162109375,-0.31745266924500465,0.8800091031000018,-0.12182170486692338
1789820947966035200,7.18503515625,-3.026175036847591,1.5956316538587212,0.32201106320172546
1789820947976005400,7.19500537109375,-2.5577555610656737,1.1219590798541903,-1.0201070904243736
1789820947985975300,7.204975341796875,-0.8057984962463378,-0.0064300330474972725,-0.36744521903470156
1789820947995945200,7.2149453125,-1.2626555445283651,1.4988663931086659,-0.7467714299991727
1789820948005915100,7.2249150390625,0.0996194811373949,0.2510048053473234,-0.29520923672225324
1789820948015885300,7.23488525390625,-0.430430229127407,0.2150900268793106,-0.319261545297876
1789820948025855200,7.244855224609375,0.05040156898200512,-1.19542237547189,-0.19968005710579453
1789820948035825200,7.2548251953125,0.0923562121361494,0.04363251323848963,-0.7651449988186358
1789820948045795300,7.26479541015625,1.1497919664144516,0.36986002509146926,-0.41218339196015147
1789820948055765200,7.27476513671875,2.401055179312825,-0.7432482243090868,-0.41559290814269334
1789820948065735400,7.2847353515625,0.16603753441870212,0.09235942700654268,-0.757039433774352
1789820948075705300,7.294705322265625,-0.492055787435174,0.04276829762458801,-0.6677035923726856
1789820948085675300,7.30467529296875,-0.26069267114698885,-0.41743864560723304,-0.5789015655867755
1789820948095645200,7.314645263671875,-1.3581021238952875,0.5716387349769473,-0.8132169558092951
1789820948105615000,7.324614990234375,0.13009995959699153,0.5283443676516414,0.7821230216264724
1789820948115585300,7.334585205078125,0.5330471385151148,0.17029402281939982,-2.1494829493410883
1789820948125555200,7.34455517578125,-0.05537701930701732,0.1087736784517765,0.8816754288770258
1789820948135523000,7.354523193359375,-0.7435597744762897,0.13631371954530477,-0.660845762367174
1789820948145493000,7.364492919921875,0.20872750611007213,-0.7080594220280647,0.15149452020544557
1789820948155463200,7.374463134765625,-0.5385930822044611,0.5458318012863397,0.5479128088114783
1789820948165433000,7.38443310546875,0.14566227038800716,-0.04487696034163236,-0.8510521809458732
1789820948175403000,7.394403076171875,0.10575929906666279,0.038653848043084145,0.390618187492527
1789820948185372200,7.4043720703125,-2.178174060165882,1.9450813436061143,0.247104692636244
1789820948195342000,7.414342041015625,-1.0061363596737385,-0.1771992721632123,-0.04567808412406593
1789820948205312000,7.42431201171875,-0.7430225988596677,0.00902647928148508,0.1043080042798072
1789820948215282200,7.4342822265625,0.5887070664167404,-0.9523907409608363,0.015192710293643176
1789820948225252000,7.444252197265625,0.8379594751387834,-0.16374357826262712,0.6129952661074698
1789820948235222000,7.454221923828125,0.2856622772306204,-0.17110504694133996,0.2309844557015225
1789820948245192000,7.46419189453125,-0.07084229946434498,-0.2669216286644339,-0.11596720668505876
1789820948255162000,7.474162109375,-1.073285065317154,0.4642667400166392,0.0925020868802443
1789820948265132300,7.48413232421875,0.6818529676258563,-1.0681471179068087,-0.031195531393773852
1789820948275102200,7.494102294921875,0.07174480126202105,-0.16722586742043494,-0.1912860122426413
1789820948285072100,7.504072021484375,1.3785942923039196,-0.07512421456724405,0.1517123459408991
1789820948295042000,7.5140419921875,0.5601543411493302,-0.0863634014621377,-0.47865525778792795
1789820948305012200,7.52401220703125,1.5369500400483607,-0.9135875475749373,-1.209905951115489
1789820948314982100,7.533982177734375,0.7469792275309562,0.4347358173668384,-0.2701122413992882
1789820948324952000,7.5439521484375,-0.2988824088096618,1.3897674282252788,-0.20562049827175213
1789820948334922000,7.553921875,-0.7662555904090405,1.057385777656734,0.34651597438305615
1789820948344892000,7.563891845703125,-0.431083140078187,1.077952764867246,0.646978418925777
1789820948354862300,7.5738623046875,-0.5034434428900479,0.44614246978312727,1.3162206921078263
1789820948364831200,7.583831298828125,0.40355566620528693,-0.22037001310884952,1.6665755140013991
1789820948374801200,7.59380126953125,-0.5295265631735324,0.19680968930125237,2.184349972321838
1789820948384771000,7.60377099609375,-0.0642144057571888,-0.7091746897935867,0.5253075572390109
1789820948394741000,7.613740966796875,0.7204699907898903,-1.5177256996184587,0.05065706897987984
1789820948404711000,7.6237109375,-0.5783797336697578,0.13373539348989724,-0.07615327905376908
1789820948414681000,7.63368115234375,0.3211480166316032,0.09836305133551358,-0.18974612585688008
1789820948424651300,7.6436513671875,-0.06269523336589336,0.7071984212845563,0.23054168037008493
1789820948434621200,7.65362109375,-0.48389586185514927,-0.24326865813732146,-0.570926787315309
1789820948444591000,7.663591064453125,-0.5768231518775224,-0.2755178998351097,0.5020961564669385
1789820948454561300,7.673561279296875,-1.417842599108815,0.27639029875546695,0.5678867254996672
1789820948464531200,7.68353125,0.8975766162335872,-0.728454559803009,1.4174150213465093
1789820948474501000,7.693501220703125,1.0928624569684267,-0.750066379891336,0.15309799161301924
1789820948484471000,7.703470947265625,1.8439309996396303,-1.4085136297494172,0.7681039216894656
1789820948494441000,7.71344091796875,0.5875245786339044,-0.2479986092686653,0.30489341272749004
1789820948504411100,7.7234111328125,2.0468354986846444,-0.43538463666439053,1.338357120592147
1789820948514381000,7.733381103515625,0.186782216283679,0.7151531796813011,-0.18868487156722694
1789820948524350200,7.74335009765625,-0.05275543863177299,-0.18103841193467377,0.16471706293728203
1789820948534320000,7.753320068359375,-0.7359341019034386,0.6704100748524069,-0.7353264913991093
1789820948544290000,7.7632900390625,-1.6110393586099148,1.3404440098688006,-0.22926707559069617
1789820948554260000,7.773260009765625,-1.5349673417985439,0.5931672606959939,-0.07964452326958998
1789820948564230100,7.783230224609375,-3.01336523963511,1.0662278402820229,-1.1878371079746632
1789820948574200000,7.793199951171875,0.4478641790091991,-0.5563420893847942,-0.419115346647799
1789820948584170000,7.803169921875,3.0581039605498312,-1.5109107589066029,-0.021813754134904592
1789820948594140200,7.81314013671875,2.0890636980831623,0.47448389038741584,0.679768562567234
1789820948604110000,7.823110107421875,1.7300106059491633,-0.7553679934307932,-0.6771123489700257
1789820948614080300,7.833080322265625,-1.0128770661056041,1.2997639166951178,-0.6169592013023794
1789820948624050200,7.84305029296875,-2.693313201546669,1.502370309576392,0.24100917050642892
1789820948634020000,7.85302001953125,-1.873314330512285,-0.3073649904727936,0.13535557857025413
1789820948643990000,7.862989990234375,0.49523207938373087,-0.907435454685986,-0.026159656118415295
1789820948653960200,7.872960205078125,-0.03606850772500038,1.1589809427812694,-0.0127753834862262
1789820948663930000,7.88293017578125,2.1122715551912785,-0.8259180319502949,0.2489437446316704
1789820948673900000,7.892900146484375,0.6202776782006025,0.17969956454634664,0.23924499211180955
1789820948683870000,7.902869873046875,0.1265495736390352,-0.5263458873108029,-0.6732976129874587
1789820948693839000,7.912839111328125,-1.147704054224491,0.8654372646510601,0.27512926584370434
1789820948703809000,7.92280908203125,-0.7120061138272286,0.7796960867404937,0.297458056828659
1789820948713779200,7.932779296875,-1.3427782980352638,0.8252636596947908,0.8633673265092074
1789820948723749000,7.9427490234375,-1.191774082097411,0.11361790361255407,0.08396804902451112
1789820948733719000,7.952718994140625,-0.060002341020107264,-1.169504382622242,-0.61645205549784
1789820948743689000,7.96268896484375,0.7097013440161943,-0.8827937653824687,-0.26303514261990785
1789820948753659100,7.9726591796875,0.5287918191581964,-1.019688499686122,0.168807638452854
1789820948763629300,7.98262939453125,0.2966886981576681,-0.5236012647777796,-0.9124314363423734
1789820948773599200,7.99259912109375,-0.0013332944303750991,0.22934417768120766,-1.6900284319117664
1789820948783569200,8.002569091796875,1.5904636035710573,-0.28607524194568396,-1.5759082778654991
1789820948793539000,8.0125390625,1.4678162980675697,-0.5433300475984811,-1.104317478571087
1789820948803509000,8.022509033203125,0.7471843947142363,-0.40779520347118375,-0.6818421539708972
1789820948813479200,8.032479248046876,0.06142214469015598,0.6087646428003907,-1.4922006516091524
1789820948823449000,8.042448974609375,-0.7959440417081117,0.9571320902690291,-0.5049093141915276
1789820948833418200,8.052418212890625,0.3872247091293335,-0.21293167980164288,-0.885758095080778
1789820948843388200,8.06238818359375,-0.34817747785449027,0.7564385452717542,0.05277411136620212
1789820948853358000,8.072358154296875,0.4249982672065496,0.0008142389923334122,0.011870223940582946
1789820948863328300,8.082328369140624,0.363498965626955,0.3074570526704192,-0.5907134378030896
1789820948873298200,8.092298095703125,0.25661153931319713,0.3937909357771277,0.149647275770409
1789820948883268000,8.10226806640625,-0.5810498296618462,1.1189154743745922,0.03696025979979895
1789820948893238000,8.112238037109375,-0.9265858530968427,0.1334516081124544,-0.04049265344333835
1789820948903208000,8.1222080078125,-1.1622925515472888,0.8830752126723528,-1.3960060303539037
1789820948913178000,8.13217822265625,-1.2349264106035232,1.2600173049792647,-0.11453026921711862
1789820948923148000,8.14214794921875,-1.0140502015382051,0.4746212530314922,-1.473072903421521
1789820948933118200,8.1521181640625,0.22725275835990905,-0.40696752047538753,1.3132175647690891
1789820948943088000,8.162088134765625,1.7414795099467038,-0.45774785964190956,0.9841394127253442
1789820948953058000,8.17205810546875,1.2728227182775735,0.09759002113640308,0.9637469052989035
1789820948963028200,8.1820283203125,0.991733740311861,0.8674158712476492,0.6557284924186766
1789820948972997000,8.1919970703125,0.29861703587174415,-0.1449070681065321,-0.335443997281231
1789820948982967000,8.201967041015624,-2.3612825563728808,1.265417410457134,0.8649900323402137
1789820948992937200,8.211937255859375,-2.3049463366448877,0.7523547830894589,0.6726921944402158
1789820949002907100,8.2219072265625,-0.5781862569242715,0.16848142043948172,1.11058099594526
1789820949012877300,8.231877197265625,0.8339636835008859,0.040535424005985254,-0.6404184028230607
1789820949022847200,8.24184716796875,0.7550041285544633,-0.8424611704722046,0.17037143543716518
1789820949032817200,8.251817138671875,-0.8855594307035207,0.14259499177187682,0.041472430861461906
1789820949042787000,8.261787109375,0.27541677754819394,0.5378197597444058,0.6496689731840044
1789820949052757000,8.271757080078125,1.2869260624319314,-0.39969811399430033,1.4165525592982768
1789820949062727200,8.28172705078125,-0.992712814477086,0.4593430198788643,-1.3457977919869124
1789820949072697000,8.291697021484374,0.12789981920421123,-0.007359130591154098,0.8075789499223232
1789820949082667000,8.3016669921875,-0.15605097793340683,0.05963847614377737,-0.7793230887096375
1789820949092637200,8.31163720703125,-0.16553133846223353,-0.5746119055688381,0.23882148773642256
1789820949102606000,8.321606201171875,-0.20379531040489673,-0.7224965281814336,0.1969646971998736
1789820949112576000,8.331575927734375,0.1832446898072958,-1.23529612069875,-0.2198028807453811
1789820949122546200,8.341546142578125,0.17343524345457553,-0.8377508008241653,-0.9756387839488685
1789820949132516000,8.35151611328125,-0.4146510607153177,-0.523632244437933,-0.5180838530631736
1789820949142485500,8.361485595703124,-0.39729952841997146,0.2934507391497493,-1.9030822767883537
1789820949152455700,8.37145556640625,1.0506506241828202,-0.6917875016629695,-0.6880112710598856
1789820949162425600,8.381425537109376,1.2973106783241033,-0.7478989727243781,-1.1481536976881324
1789820949172395800,8.391395751953125,0.19937983205020426,0.15480653083026408,-0.4530480844531208
1789820949182365700,8.40136572265625,-0.6771142486661672,1.078301724435389,-1.2033202891148627
1789820949192335600,8.411335693359375,-0.7648714425742625,0.6659586484014988,-0.20104159124996512
1789820949202305500,8.421305419921875,-0.2960778727829456,-0.3440530914008617,-0.011973766513448208
1789820949212275500,8.431275390625,0.3896884688943624,-0.05591916335970163,-0.22121199862463398
1789820949222245600,8.44124560546875,1.3489169469207525,-0.6718456606134772,0.7623496690116822
1789820949232214800,8.45121484375,1.5758850431203841,0.1108867250829935,-0.0031850049779750403
1789820949242184700,8.461184814453125,1.1764344741463661,0.4635986314967274,0.5189245051383972
1789820949252154600,8.471154541015625,-1.0855179394245147,1.6640455571323631,-0.6183541627921164
1789820949262124500,8.48112451171875,-0.5177940398037433,1.09045977974087,-0.8764886738888918
1789820949272094700,8.4910947265625,-0.751151544779539,1.1648159325450658,-1.2893734555840493
1789820949282064600,8.501064697265624,-1.6633675117403268,0.6277016907215118,-0.14896373221934772
1789820949292034600,8.51103466796875,-2.1866472894787785,0.7216144846498965,-1.124643569697812
1789820949302004500,8.52100439453125,-0.2860486461997032,-0.5204308180481195,0.16908256467040628
1789820949311974400,8.530974365234375,0.8499445119649172,-0.6385939638748764,-0.6081616354059428
1789820949321944800,8.54094482421875,2.2522844215154647,-0.6829059838101268,0.21354794853646306
1789820949331914800,8.550914794921875,2.9039234526634217,-0.8850780769273638,1.1387516630925238
1789820949341884700,8.560884765625,0.9954688351869583,-0.3040621495351195,0.2338977675986476
1789820949351853600,8.570853515625,-1.773150659495592,1.3705410419687627,0.5436921954417601
1789820949361823500,8.580823486328125,-1.9926725313425062,0.5715247532084584,0.8878780098441987
1789820949371793400,8.59079345703125,0.5824310548871755,-1.7712009867325424,1.3552312446340917
1789820949381763600,8.600763671875,0.992917981660366,-1.3431076761201024,-0.30122506294567136
1789820949391733800,8.610733642578126,1.3803174628347157,-0.9446472872272134,0.873147765963152
1789820949401703700,8.62070361328125,0.8166343630373477,-0.29133330860435963,-1.4024622207559645
1789820949411673600,8.630673583984375,1.1618775410056112,0.06628770489990711,0.5639498975073919
1789820949421643800,8.640643798828124,-0.48448856705129145,0.43350656783282754,0.023659142256283665
1789820949431613700,8.65061376953125,-1.0257482381165026,0.6140218326762318,0.9087901572305709
1789820949441583600,8.66058349609375,-0.9433084398388862,0.8736407371118664,-0.09753456462211907
1789820949451553500,8.670553466796875,-1.4661357976347207,0.9398901558279991,0.11338617721591145
1789820949461523500,8.6805234375,-0.6172995391726493,0.3189987296432257,1.4135875720128417
1789820949471492600,8.69049267578125,-0.1420961023390293,-0.7025374437361955,-0.0473684392306488
1789820949481462800,8.700462890625,-0.4930032974183559,0.13291881641000508,1.271312167584151
1789820949491432700,8.7104326171875,-0.5443716656059027,0.6064554890751839,0.30265816448871047
1789820949501402600,8.720402587890625,0.21905308529138565,-0.09179302529543637,0.3750902904277667
1789820949511372500,8.73037255859375,0.6638210518509149,0.3671647946581244,0.2378641322126612
1789820949521342500,8.740342529296875,1.0976093592345715,0.15306348655521868,1.5289190015450118
1789820949531312600,8.750312744140626,0.5946949086546898,0.004325754244625568,0.6089331312350929
1789820949541282600,8.760282470703125,-0.05999883388876914,-0.0405816012352705,-0.290674625499919
1789820949551252500,8.77025244140625,-0.17669687559902666,-0.4346051767244935,0.17635200768411158
1789820949561222700,8.78022265625,-0.4275444445580244,-0.5704954101607204,1.4715917249530552
1789820949571192600,8.790192626953125,-0.5410813918888568,-0.2673985985264182,-0.18458465144047512
1789820949581161500,8.800161376953126,1.0630641155540943,-0.9629363926336169,0.8655037540160119
1789820949591131600,8.810131591796875,0.7262877371579408,-0.5411465660795569,-0.15872202377356587
1789820949601101600,8.8201015625,1.4636451498627663,-0.8974135346263646,1.6171240853510795
1789820949611071500,8.830071533203125,1.5081354489743708,-0.5174594010218978,0.03867174902595579
1789820949621041700,8.840041748046875,-0.4734352581173181,0.3132479110315442,-0.05169294223310426
1789820949631011800,8.85001171875,-1.3617086239546536,0.1919675099670887,-0.7391434924039989
1789820949640981800,8.859981689453125,-2.6332792963445186,1.4538742819547652,-0.4938828567318618
1789820949650951700,8.86995166015625,-0.4346995770096779,-0.49349108093529936,-1.9256454062521458
1789820949660921600,8.879921630859375,-1.0351578714966774,0.4193208060920238,-1.0522080827578901
1789820949670891500,8.8898916015625,0.6800906341284513,-0.40083296324312684,-0.6360815426625311
1789820949680861700,8.89986181640625,2.0608505800336596,0.11531857005059719,0.11363355783941223
1789820949690830600,8.90983056640625,2.648316121956706,0.4982055422365665,0.017381562107428906
1789820949700800800,8.91980078125,2.8758775078743692,-0.2574722477957606,0.6434335859257727
1789820949710770700,8.929770751953125,-0.4702870232194662,2.1334633963018654,1.425838712429255
1789820949720740600,8.93974072265625,-3.397149452921748,1.9286928111240267,2.1150367821209133
1789820949730710500,8.94971044921875,-3.1089158638983965,0.9621002340704202,-0.35109471700806166
1789820949740680700,8.9596806640625,-0.6294903277039527,-0.23361060295403002,0.7959062669809908
1789820949750650600,8.969650634765625,1.0386357767403125,0.1701338638216257,-0.018906232657749204
1789820949760620500,8.97962060546875,2.39796890373528,-1.131128182476759,1.5485000464580951
1789820949770590500,8.989590576171874,1.4629671044707298,0.6371192151471972,1.4251955922201276
1789820949780560600,8.999560546875,1.1804290967404842,-0.025187048226594923,0.7360814014196395
1789820949790530600,9.009530517578124,0.1728220799922943,0.28644875143319365,0.6628286798126996
1789820949800499700,9.019499755859375,-1.9193121115773915,0.689507574032247,0.15586345600467175
1789820949810469600,9.0294697265625,-0.6793857007294893,-0.041004795083403586,0.2668913065914065
1789820949820439600,9.039439453125,-0.8951052576839923,-0.6317150180160999,-0.06778446452999487
1789820949830409500,9.049409423828125,-0.9141390439778566,-1.2404372829794883,1.0340045367430895
1789820949840379600,9.059379638671874,-1.6013462321132421,-0.06110679513067007,0.9746823600068688
1789820949850349600,9.069349609375,0.17525018392205238,-0.6139917297989129,0.8496569271951914
1789820949860319500,9.079319580078124,0.28892566294074057,0.05416092151552438,1.148501488212496
1789820949870289700,9.08928955078125,-0.30833120515644546,0.018121932145953177,-0.4429839692195877
1789820949880259600,9.099259521484376,0.5109720848292112,-0.391764982907474,0.4284390918428078
1789820949890229800,9.109229736328125,0.8232669329196214,0.20224837322384118,1.2598071693599224
1789820949900198700,9.11919873046875,0.9559843815386295,-0.4794380056634545,0.7299171797014773
1789820949910168600,9.12916845703125,-0.20507541334331034,0.1957853146895766,0.24265220673941074
1789820949920138500,9.139138427734375,-0.10230185208916663,-0.5344099513009191,-0.5662701936811209
1789820949930108700,9.149108642578126,-0.6243336755931377,-0.508715830335021,0.27687194479256866
1789820949940078600,9.15907861328125,-0.062169163665175435,0.35299949118345975,-0.6248112299770117
1789820949950048800,9.169048828125,1.4950918430060147,-0.352903921854496,0.24434589544739574
1789820949960018700,9.179018798828125,0.18257073606848714,-0.29618542481064797,0.26865420634439213
1789820949969988600,9.188988525390625,-1.490274213591218,0.46092736646085974,-0.2918154843644239
1789820949979958500,9.19895849609375,-0.38910745413601394,-0.42042204533219335,0.42446127425301816
1789820949989928700,9.2089287109375,0.1951438019156456,-1.1576456025242805,-0.5385042348772288
1789820949999898600,9.218898681640624,-0.2735948228180408,0.013043313707411288,-0.18601232788972555
1789820950009867800,9.22886767578125,0.6578799713641404,0.5489546094819903,0.635630949350819
1789820950019837700,9.238837646484376,1.1481845312178134,-0.12668810532689093,-1.0723219193734228
1789820950029807600,9.2488076171875,-0.964480407205224,0.9655883684471249,-1.117517005753517
1789820950039777500,9.258777587890625,0.050966801649332046,0.023932079729437828,-0.05680095116291195
1789820950049747700,9.268747802734374,-0.023671967488527297,0.45847588165551423,-1.0012898694906383
1789820950059717600,9.278717529296875,1.1295137330174445,-0.3637859658747911,0.5328596165863797
1789820950069687600,9.2886875,0.5084387669593096,0.9166814219370484,0.06528037275457754
1789820950079657500,9.298657470703125,0.13500877442657946,0.6584808598667383,-1.7923986730620265
1789820950089627400,9.30862744140625,-1.1617109522670506,0.6170046478793024,-0.22847068278230726
1789820950099597600,9.31859765625,-1.0294278034120798,-0.2542261054813862,-0.8771195191383361
1789820950109566700,9.328566650390625,0.1222714579284191,-0.5564610395893455,-0.44574484876766796
1789820950119536600,9.33853662109375,0.8077887932807206,-0.9129568484559655,-0.7808646190632135
1789820950129506300,9.34850634765625,3.3134915110260246,-0.7275260467812419,-1.0500413331780583
1789820950139476200,9.358476318359376,3.3152918384462593,-0.7336848616719246,-1.059855821032077
1789820950149446100,9.368446044921875,0.17679390623271465,0.6793512139379978,-0.2279841413743794
1789820950159416300,9.378416259765626,-1.7443594492971897,1.5231155759632586,-1.6695035302773118
1789820950169386500,9.388386474609375,-0.012322305956482886,-0.4140671233475208,-0.18546229279153048
1789820950179356400,9.3983564453125,0.8711006972402334,-0.3606728022903204,-1.3603317826434969
1789820950189326300,9.408326416015624,-1.3837258099734782,0.5355602903798222,0.29587219414301213
1789820950199296500,9.418296630859375,-2.548054835784435,0.9609919805675744,-0.30108293279493226
1789820950209266400,9.428266357421874,-1.383228381845355,-0.9561354804471135,-0.621943492520973
1789820950219235300,9.4382353515625,-1.5947084015339612,-0.37484482776671646,-0.4449527485419065
1789820950229205200,9.448205322265625,0.12907178559303284,-1.4011971692562102,1.1366636047720908
1789820950239175400,9.458175537109375,0.4214169015884399,0.024405250199139118,-1.606938499162346
1789820950249145300,9.468145263671875,1.2212316472500562,0.06961334219127893,-0.42959666438009586
1789820950259115500,9.478115478515624,1.2985457730770111,0.5522831693828105,0.48156873408183454
1789820950269085400,9.48808544921875,0.5077724120050668,0.07471826411485671,0.2643658249680884
1789820950279055400,9.498055419921876,-0.14248597843945027,-0.010934358729422092,1.3857669604122638
1789820950289025300,9.508025390625,0.018391396737098692,-0.3917603067323565,0.13093225483582355
1789820950298995200,9.5179951171875,-0.26533845112621784,0.06755056444257497,0.7445294962912797
1789820950308965400,9.52796533203125,-0.7247247256249189,0.6603498686090111,0.3984107410648837
1789820950318934500,9.5379345703125,0.4606488417804241,-0.07993278389275074,1.1284982723645864
1789820950328904400,9.547904541015624,1.2366934202760458,-0.07287468207478523,0.7442417653910816
1789820950338874400,9.557874267578125,0.5293436078220606,0.04176408901810646,0.07858162501212208
1789820950348844300,9.56784423828125,0.30927286992073055,-0.18877192879617213,0.22270685855858027
1789820950358814500,9.577814453125,-0.7553899130016565,1.6758534838259218,-0.05404901753969025
1789820950368784400,9.587784423828126,0.5555839644938707,0.46778234692215914,0.9668057814128697
1789820950378754300,9.59775439453125,0.12004384500682354,-0.6358449574276804,-0.3442400653403252
1789820950388724200,9.60772412109375,-1.677114297541976,0.3143456431403756,0.5817888845261187
1789820950398694400,9.6176943359375,-0.5238227985739707,-0.871002497562766,0.9961979531791061
1789820950408664600,9.62766455078125,-0.45031917094588275,0.22868980542570352,1.4361812427453695
1789820950418634500,9.637634521484374,0.5269394692897796,-1.0972273741796612,0.45998084285836666
1789820950428603400,9.647603271484375,1.1873568501770495,-0.528393467490375,0.8948886192586273
1789820950438573300,9.6575732421875,0.6104512807130813,-0.11156798534542321,1.4531050511479378
1789820950448543200,9.667543212890624,-0.3586713993400335,-0.32114421723932024,0.30055894545344636
1789820950458513200,9.67751318359375,-0.8856213900238274,-0.16970599379837512,0.29047177813788877
1789820950468483300,9.6874833984375,-0.26336861235797404,-0.7035352226018905,-1.1697514161858706
1789820950478453500,9.69745361328125,1.9800860214918852,-2.1539199088752268,-0.2585505262854509
1789820950488423400,9.70742333984375,0.9124790018111467,0.06377250720858574,-0.18564048063633962
1789820950498393300,9.717393310546875,0.10861819562911987,1.2008145899042486,-0.5222605176933109
1789820950508363300,9.72736328125,0.9301508521020412,1.0231152592644095,-1.3309788469091057
1789820950518333400,9.73733349609375,1.4653116217702626,0.050204585105180735,-0.6627045419763773
1789820950528303400,9.747303466796875,-0.18752222099602223,0.7555570862621068,0.3062676784890704
1789820950538272300,9.757272216796874,-2.8170675915092227,1.9917972098127006,0.5645431506928056
1789820950548242400,9.767242431640625,-1.8261346461862324,0.8630056535899638,-1.0960403563521801
1789820950558212400,9.77721240234375,-0.7293792734324932,-0.5943585163071752,-0.9076927904479205
1789820950568182500,9.7871826171875,-0.6257230841249227,-0.3026511136934161,0.21768669230900703
1789820950578152400,9.79715234375,0.2703548179835081,0.25718378624320026,-0.07787970555415377
1789820950588122400,9.807122314453125,1.6211784753084182,0.11075696122348308,-0.1930497522458434
1789820950598092300,9.81709228515625,1.179109246313572,-0.12162030054330825,-1.0753529576323926
1789820950608062200,9.827062255859374,-0.6060872402846813,0.5698688026949763,-1.842488838007301
1789820950618032400,9.837032470703125,-0.0433089803725481,0.34687136369198557,-0.2659148262420669
1789820950628002300,9.847002197265626,0.5207026207268238,0.7993933053791522,-1.303450788514316
1789820950637972500,9.856972412109375,0.36683833918273445,-0.3498243682786822,-0.8329295181475579
1789820950647941400,9.86694140625,0.5909376019477844,-0.5757929320469498,-1.382168935920298
1789820950657911300,9.876911376953124,-1.0337731391400098,-0.3241451526209712,-1.0947969321623443
1789820950667881200,9.886881103515625,-0.4727735793381929,-0.339977512525022,-0.5654555893626064
1789820950677851400,9.896851318359374,-1.1524866123259068,0.07571370489299296,-0.040901773100346324
1789820950687821300,9.9068212890625,0.14904431404173374,0.16556845560222863,0.9185680394012481
1789820950697791200,9.916791259765626,-0.6300502996742725,0.19209873513132333,-0.9023274640224873
1789820950707761400,9.926761474609375,0.7648387093484401,-0.7280208445608616,0.6562237285897136
1789820950717731600,9.936731689453126,-0.26655601022243497,1.6489222222805022,0.14473204033318907
1789820950727701500,9.946701416015625,0.30232933439314363,0.03655892159044742,1.5075589642606675
1789820950737671400,9.95667138671875,-0.8186743444323539,0.6293304609671234,0.13395133779551832
1789820950747641300,9.966641357421874,-1.0175403817415236,0.8733879313945769,-0.26964212140319865
1789820950757611300,9.976611328125,-0.35583354556560515,0.03607902911901474,0.6959043623972684
1789820950767580200,9.986580078125,0.36381460744738575,1.043159391644597,1.1076238997053354
1789820950777550300,9.99655029296875,0.625291706970334,0.11871931840479373,1.3903700702935455
1789820950787520500,10.0065205078125,0.4054857574850321,-0.360186772339046,1.2946154478907583
1789820950797490400,10.016490478515625,1.180962765225768,-0.46784810563474893,0.7670904337979852
1789820950807460400,10.02646044921875,-1.4729992536634207,0.9190919902101159,0.3276632437445223
1789820950817430300,10.03643017578125,-1.8484826715946197,0.10102671758681535,0.7357576493579894
1789820950827400400,10.046400390625,-2.109872092834115,-0.48265784449279303,-0.2483978925182484
1789820950837370400,10.056370361328124,0.9892162045329809,-2.1315441186770796,0.0641412491894327
1789820950847340300,10.06634033203125,0.5222118562459945,-1.4645663563609121,0.49943040785640475
1789820950857310200,10.076310302734376,2.066560774374008,-1.12877606639266,-0.4566436612596735
1789820950867280400,10.0862802734375,2.590910811692476,-0.4335959996819496,-0.23312285596970467
1789820950877250600,10.09625048828125,1.5368372273236512,0.6902361805677414,0.1025912634897977
1789820950887219500,10.106219482421874,0.3016121260344982,0.11356705020815133,0.3200906895983964
1789820950897189400,10.116189453125,-0.7015548624396324,0.9456374673083424,0.7955769619613885
1789820950907159300,10.1261591796875,-0.38341304188668723,-0.006420680697262287,0.6302321590472012
1789820950917129200,10.136129150390625,-0.3842161749631166,-0.5679229293242096,0.9838470056500286
1789820950927099400,10.146099365234376,-1.1567694042116403,0.039024434921145434,0.36801834274753925
1789820950937069300,10.1560693359375,-0.08118541430234909,0.0969353566199541,0.4771744081130251
1789820950947039500,10.16603955078125,0.1934656395703554,-0.12653437606990336,0.3902661591844633
1789820950957009400,10.176009521484374,-0.10039338811933994,0.14196429265290497,-0.15474130184063686
1789820950966979300,10.185979248046875,-0.20162088897526262,0.12941168507188558,-0.2786949955012649
1789820950976949500,10.195949462890624,1.4713748673319815,-0.2300230998560786,-0.2806241551992483
1789820950986919400,10.20591943359375,0.3856692963808775,0.9028367287188768,-0.133811216938775
1789820950996889300,10.215889404296876,0.7769441576838493,-0.4830588265091181,0.2280761670393869
1789820951006859300,10.225859375,-1.3587801692873238,0.9343968191087245,-0.8183382443457842
1789820951016828400,10.235828369140625,0.3227683113098144,-1.481288650842011,0.08662164140637033
1789820951026798300,10.24579833984375,-0.8778115930557251,1.586640538151562,-0.7228204263735563
1789820951036768500,10.2557685546875,1.9407798470199107,-0.92163933660537,0.27550818215869366
1789820951046738400,10.265738525390624,0.1324760410785675,0.48605157858431336,-1.23907242436707
1789820951056708400,10.275708251953125,0.1864519614160061,-0.7678446131661534,-0.49146132867336273
1789820951066678300,10.28567822265625,-0.67591539427042,-0.349584129782021,-1.3064290736727415
1789820951076648400,10.2956484375,-1.3492296661317347,0.46285541191399093,-0.28613135604709383
1789820951086618400,10.305618408203125,0.5559177264928817,-0.8968503477856516,-0.10208421814995818
1789820951096588300,10.31558837890625,-1.0948919169694185,-0.5672065977483988,-0.7020663190931081
1789820951106558200,10.32555810546875,-1.949535400405526,-0.18014029405117035,-0.7799483810011297
1789820951116528400,10.3355283203125,0.2648603122204542,-1.377472887058556,0.787797267870605
1789820951126498600,10.34549853515625,1.151818503805995,-0.2840501658588648,-0.4849992199871689
1789820951136469200,10.35546923828125,2.296014842170477,-1.1243415910765528,1.448416016548872
1789820951146438100,10.365438232421875,0.9409376190543174,0.22287235131859778,-0.7172695873133837
1789820951156408300,10.375408203125,0.49585108806490896,1.1073127148643136,0.10610446837567723
1789820951166378200,10.385378173828125,-0.2645031693458557,0.5765867127731442,-0.22080484259584918
1789820951176348200,10.39534814453125,-1.7301485531151293,0.34081630143672226,0.6603563714150339
1789820951186318000,10.405318115234374,-1.523663272973895,0.20384616380929946,-1.7612953865289687
1789820951196288300,10.415288330078125,-0.42592882605493065,0.1994657567679882,0.46978806072138246
1789820951206258200,10.425258056640626,0.6550163986265659,0.6319543797299265,-1.254394350530952
1789820951216228400,10.435228271484375,2.4098259302675724,0.6780567902132868,-0.19639871561387554
1789820951226198300,10.4451982421875,2.1462463055074212,0.26761984006166456,-0.3555182325387373
1789820951236168200,10.455168212890625,-0.16519874550700187,1.8421999380633234,-0.15531040696548298
1789820951246138400,10.465138427734376,-0.7668681693494319,1.9493927770644426,0.3946051017042249
1789820951256108300,10.4751083984375,-1.3972458012819289,0.2745668827205896,0.13585718054999596
1789820951266077200,10.4850771484375,-1.584051982963085,-0.558037787386775,-0.9225267869643866
1789820951276047000,10.495047119140626,-2.083890094837546,-0.23777356785237788,0.9505767503414303
1789820951286017300,10.505017333984375,-0.2254202822357416,-0.3896607041046023,0.6929919820819049
1789820951295987200,10.5149873046875,1.0166261895060538,-0.5499868751391768,-0.35027046807836737
1789820951305957400,10.524957275390625,1.270457158190012,-1.150203177563846,-1.5547066460132597
1789820951315927300,10.53492724609375,-0.0017301847934722899,-0.10732757129669189,-1.80925160818547
1789820951325897200,10.544897216796874,-0.08939268615543841,-0.05689736074209213,-1.6058054034791887
1789820951335867100,10.5548671875,0.3578571603477001,-0.41855040624141693,-0.4530100539976731
1789820951345837300,10.56483740234375,0.9824123697370291,-0.8546507899597287,-1.1507925948243587
1789820951355807200,10.57480712890625,0.24577450347840785,-0.6358320979461074,-1.6617152144886553
1789820951365777200,10.584777099609376,-0.7210784780770539,0.40521921550333495,-1.0016327646441756
1789820951375747300,10.594747314453125,-0.2557639825731516,-0.05364361964315176,-0.7104892064582556
1789820951385717200,10.60471728515625,-0.5503793815881014,0.1273027300938964,-1.2445046785488725
1789820951395686100,10.61468603515625,0.3598246610283851,-0.14024170664399863,-0.3640091801714152
1789820951405656300,10.62465625,0.15382278048992157,1.0260039664432405,-0.549767204506509
1789820951415626200,10.634626220703124,0.9169950179308652,0.6694955903559923,0.02412186668049544
1789820951425596200,10.64459619140625,1.1307330456793308,-0.3545072653979063,-0.8378872866854071
1789820951435566000,10.654566162109376,-0.42869945981204505,0.7002741749793291,0.7069943500798195
1789820951445536300,10.664536376953125,-0.1376034670948982,0.4398775641694665,0.8898281209986656
1789820951455506400,10.67450634765625,-1.5691373224258423,1.4550488786920903,-0.59845250762254
1789820951465476400,10.684476318359375,-1.0002204136282205,0.48193800578564405,-0.9989273781429976
1789820951475446300,10.6944462890625,-0.49917877118289466,0.75660484174937,-1.0011699694380163
1789820951485416200,10.704416259765624,0.39175241568684577,-0.4308391021892428,0.10796133915558456
1789820951495386000,10.71438623046875,1.1176976230174303,-0.9038497051537037,1.0064265747919678
1789820951505356300,10.724356201171876,0.8164163363724947,-0.30205139423459765,1.3498429757244885
1789820951515325200,10.7343251953125,0.9214531663835048,-0.15914777490496634,0.042835042717866596
1789820951525295400,10.74429541015625,-0.1862590691924095,0.3634104105606675,-0.7250826722171158
1789820951535265300,10.754265380859374,-1.8303396966606378,0.418699459323287,0.04613985641691833
1789820951545235200,10.764235107421875,-1.6016998678565024,-0.4348226188674569,-0.3146562069268897
1789820951555205400,10.774205322265624,0.09238952988386154,-1.1767729123204946,0.5249929017992689
1789820951565175300,10.78417529296875,-0.3342307855665684,0.7268491704329848,0.43223505005966867
1789820951575145200,10.794145263671876,0.16146189706623554,0.8803285443127155,0.03703011929877102
1789820951585115100,10.804115234375,2.0444658469438552,-0.20193419270813465,1.0114357812561094
1789820951595085000,10.8140849609375,0.09948094944953918,1.5810221137478946,1.7230363830223678
1789820951605055200,10.82405517578125,-0.5475280838102102,1.087257476568222,1.5165700998425482
1789820951615025400,10.834025390625,-1.9913310536056756,1.558976870678365,1.1625446266122161
1789820951624995300,10.843995361328124,-1.055377068182826,-0.36985242630690335,0.1453122148413211
1789820951634964200,10.853964111328125,-1.353071143990755,-0.21280600759536028,1.799826923366636
1789820951644934100,10.86393408203125,-0.11599544639885424,-0.3132958418264985,1.0217232934493572
1789820951654904000,10.873904052734375,0.57141924700737,-0.05027501999288797,1.0436367998979985
1789820951664874200,10.883874267578125,0.9930974298804998,-0.5855617541283369,0.3556285245127976
1789820951674844200,10.89384423828125,-0.7616706007063389,0.24805238528251647,-0.5428627954129129
1789820951684814300,10.903814453125,1.0103209518820047,-0.7764607580810785,-0.6800223181325942
1789820951694784300,10.9137841796875,0.19662673394978045,-0.48692456202656026,0.430739002815634
1789820951704754400,10.92375439453125,-0.33486791442632674,0.20777531995177267,0.9240192174792289
1789820951714724400,10.933724365234376,0.9282301131725311,-0.8630009774148464,1.08654289855808
1789820951724694300,10.9436943359375,0.42959436282515523,-0.5568930012658239,-0.39492878070063886
1789820951734664200,10.953664306640626,0.23309973082244395,-0.8696016908541321,0.5398383330252021
1789820951744633000,10.963633056640624,0.6119032330870628,-0.23445406804084776,-0.0654760323239956
1789820951754603300,10.973603271484375,0.893755596640706,0.7910188602656125,-0.18015582041386513
1789820951764573400,10.983573486328124,-0.45384325341880316,1.1000544142991304,-0.029124689069623125
1789820951774543400,10.99354345703125,-1.1309668544352054,0.8135077554494142,-0.8422743426632135
1789820951784513300,11.00351318359375,-0.5698369462519883,0.4137681404009461,-1.261760641515255
1789820951794483200,11.013483154296875,-0.484718868675828,-0.264237796407938,-0.3512582735393196
1789820951804453000,11.023453125,-1.1673790610313415,0.17706103273630142,-0.7873672789555043
1789820951814423300,11.03342333984375,-0.7864239336907863,0.6186129598587751,-1.208949088782072
1789820951824393200,11.043393310546875,-0.06331307300329209,-0.22492080828100441,-2.2495633259885013
1789820951834363100,11.053363037109374,-1.0353577779829501,0.4864367785096168,-0.7557729209698736
1789820951844333000,11.0633330078125,1.7108809580653905,-1.757055849263072,-1.256227265046537
1789820951854303200,11.07330322265625,1.2652297789305447,-0.7528191857308149,0.2116552301250398
1789820951864272400,11.0832724609375,1.963767339375615,-0.9220350579246878,-0.5179009707769379
1789820951874242300,11.0932421875,0.8736790232956408,0.10966799694299698,-0.5856352212233469
1789820951884212200,11.103212158203124,0.8559311851590872,0.09336451239585876,-0.11500564991021528
1789820951894182100,11.11318212890625,-1.2335106985867024,0.2833300348907709,-2.1600677639804777
1789820951904152000,11.123152099609374,-0.15883447117209434,-1.4655106514737009,-1.1590987239420414
1789820951914122200,11.133122314453125,-1.2169511934518813,0.3581900455638766,-2.01111551213637
1789820951924092400,11.143092529296876,0.04354512721598148,-0.0995081297174096,-0.8471837420146912
1789820951934062300,11.153062255859375,0.7062438970386982,-0.2275461883485317,-1.03152806362696
1789820951944032300,11.1630322265625,1.3222551499664783,-0.22167846535891292,-0.9919449719097465
1789820951954002200,11.173002197265625,2.1322364848554134,-0.1996203628078103,-1.237596360465139
1789820951963972400,11.182972412109375,0.9501339019447564,1.0767492342963814,0.038005348405940456
1789820951973941200,11.192941162109374,-0.6172802499502897,1.2559168839231132,-0.7424371271219105
1789820951983911200,11.2029111328125,-0.8789110787302256,1.2298162279829383,-0.051076956626074387
1789820951993881300,11.21288134765625,-0.2286801608145237,0.5324342673137784,0.2269276911240071
1789820952003851300,11.222851318359375,-0.7934189071446657,0.5430015462964772,-1.0180223931048065
1789820952013821200,11.2328212890625,-1.2334557535290718,2.1839728095725177,0.5339793413313105
1789820952023791400,11.242791259765625,-0.3338672129511833,1.2199106277793645,-1.8174959971785545
1789820952033761300,11.25276123046875,-0.3618564591169357,1.381219672371447,-0.10922770582959056
1789820952043731200,11.262731201171874,0.8390589608132839,-0.11779635834097861,-0.7790981208473443
1789820952053701000,11.272701171875,-0.02898351790010929,0.757641783581674,0.719245125170052
1789820952063671300,11.28267138671875,1.5229793823629616,-0.025186171443760393,1.469187148029357
1789820952073641200,11.29264111328125,0.41913375908732414,0.3281432823464274,1.1096589857295154
1789820952083610400,11.3026103515625,0.3972136037021875,-0.6278422682359814,0.5937660303067416
1789820952093580300,11.312580322265624,-0.8017612035542726,-0.6130085639804601,0.5445815820295363
1789820952103550200,11.32255029296875,-0.4385726190507412,0.13679302749484776,1.0779005232233554
1789820952113520000,11.33252001953125,0.49611646100282664,-0.1355307524740696,1.3878005120664834
1789820952123490300,11.342490234375,0.37616380141079425,-0.9533908579140901,-0.15965203463267533
1789820952133460200,11.352460205078126,0.13998480927348136,-0.40463849300593135,0.3553226003687829
1789820952143429600,11.3624296875,-0.02216390101313591,-0.006074935999512672,-0.06412329797421117
1789820952153399600,11.372399658203125,1.440275380191207,-1.6422455209955573,0.5200549339404329
1789820952163369500,11.382369384765624,-1.14599023604393,0.0699938659414649,-0.5278607488531619
1789820952173339400,11.39233935546875,0.3184872729897499,-1.4233973106265068,0.2616760561611503
1789820952183308300,11.402308349609376,-0.025361820271611213,-0.7955226014256477,-0.5313638981359079
1789820952193278200,11.4122783203125,-0.15051672468185423,0.15420739589333532,0.28490636256309226
1789820952203248400,11.422248291015626,0.8948743715375661,-0.6491191572815179,0.12444412579238415
1789820952213218600,11.432218505859375,-0.052316462692618367,0.5986000993996858,0.5095810323296115
1789820952223188500,11.4421884765625,-0.20993454381227492,0.5650555571943521,0.8936636075083166
1789820952233158400,11.452158447265624,0.07331248897016047,0.6026175183475018,1.3278817576766013
1789820952243128300,11.46212841796875,1.0018220036059617,0.00843348182439804,0.4991797940962016
1789820952253098500,11.472098388671874,0.6151619426220655,0.36652035927474497,2.0566288706853983
1789820952263068400,11.482068359375,-0.49855274823904033,1.6863637719243765,1.486051627460122
1789820952273038300,11.492038330078126,-0.4986334122598171,1.6862988899946212,1.4962461276076733
1789820952283008300,11.50200830078125,1.6142682575285434,-0.5462161244288086,0.794530813909322
1789820952292977400,11.511977294921875,1.6146528729319571,-0.5478294048443436,0.8008437964484095
1789820952302947600,11.521947509765624,-0.10141513238251208,0.1682800526484847,1.8026177231289446
1789820952312917500,11.53191748046875,-1.298178693330288,1.0018877623185516,0.4992625770088285
1789820952322887400,11.541887451171876,1.3481757731646298,-0.8151037924692034,0.9850574043530971
1789820952332857300,11.551857421875,1.3487638021856545,-0.8172609705030918,0.986662355331704
1789820952342827300,11.5618271484375,-0.27074410956203937,-0.3990931338384747,2.036962047185004
1789820952352797400,11.57179736328125,-0.2702683087438345,-0.40106092678010463,2.042231804281473
1789820952362767400,11.581767333984375,-1.9513813205331563,0.8409326457306742,0.01675364860058762
1789820952372737300,11.5917373046875,-1.4665443784356116,0.05677724149376154,-0.30025552379377185
1789820952382707500,11.60170751953125,-2.041830822265148,0.10525807154625653,-0.712438806156069
1789820952392677400,11.611677490234374,-2.0426374624729156,0.10790741701126098,-0.7090183301880956
1789820952402646300,11.621646240234375,-0.7407108147859572,1.1840928799450396,-0.8276375492192805
1789820952412616400,11.631616455078126,1.5155489401012658,-0.4768620176956057,-0.30684659262187775
1789820952422586400,11.64158642578125,-1.63995565649271,1.9969702285364268,-0.012259031461924313
1789820952432556300,11.651556396484375,-1.640582263958454,1.999215377114713,-0.012936565397307276
1789820952442526500,11.6615263671875,-0.8976257160723209,0.8510948510438203,-0.6178788734305649
1789820952452496400,11.671496337890625,-0.779654585686326,-0.058224809953570364,-0.8742547773569822
1789820952462466600,11.681466552734374,0.33796938757300377,-0.718171066197753,0.03280249166637659
1789820952472436500,11.6914365234375,1.0155378097474574,-0.08904694145768881,0.10727996929530054
1789820952482406400,11.701406494140626,1.0412567728936672,0.037062194937467575,0.3496788953933865
1789820952492376300,11.711376220703125,1.041409917628765,0.03625555472970009,0.353751990051195
1789820952502345200,11.72134521484375,0.14522154088318348,-0.5759712112233042,0.05885127128884196
1789820952512315400,11.7313154296875,0.5075660757780075,-0.9421262443169951,-0.8309414861354977
1789820952522285600,11.74128564453125,0.782110746666789,-0.8973919073164462,-0.30544717415273187
1789820952532255500,11.75125537109375,1.3644266507416962,-0.45246378175914287,0.15083992875423283
1789820952542225400,11.761225341796875,2.3658108474522828,-1.7520900435492395,-0.4833879123330116
1789820952552195300,11.7711953125,2.6827409541279077,-1.4710802682995796,0.20589653873415661
1789820952562165500,11.78116552734375,0.7818605712980031,0.3995648430034518,-0.4323275871813297
1789820952572135400,11.791135498046875,-0.6711807669639587,1.224853929400444,-0.06812655596593395
1789820952582105300,11.801105224609374,-0.9387018228262662,0.9975646384224295,0.2315504738201387
1789820952592075300,11.8110751953125,-1.1821125197827815,-0.09953940163850784,1.057225691724196
1789820952602045200,11.821045166015624,-1.181031738808751,-0.10334376235753297,1.057303652331233
1789820952612014300,11.831014404296875,-0.7838187196284532,0.5834229885339737,-0.17657003434896468
1789820952621984500,11.840984619140626,0.41876960195004936,0.40724136898070573,-0.9694178636074066
1789820952631954400,11.850954345703125,-0.037139351826906204,1.638458111411333,-0.06937706748368218
1789820952641924400,11.86092431640625,0.42176936828792094,1.5293635304421185,-0.7248666913788765
1789820952651894300,11.870894287109374,0.4573340181440115,0.45417993802726264,-1.0386248900201172
1789820952661864400,11.880864501953125,0.09965104531943797,0.7589230555638671,-0.335482137334533
1789820952671834400,11.89083447265625,-1.8057593821555376,1.1779238359212876,0.13732424829471856
1789820952681804500,11.900804443359375,-0.8353758883863687,-0.1963157683044672,-0.09421038863547146
1789820952691774500,11.9107744140625,-1.5635095456719397,0.1712079227939248,-0.14584237619526683
1789820952701744400,11.920744384765625,-1.48269822537899,0.7660220739141106,0.14267147280788048
1789820952711713300,11.93071337890625,-1.2376362540841102,0.44361996556818484,-0.49597741785831745
1789820952721683500,11.940683349609374,0.3637053018540144,-0.09733721541911362,0.27785861774235965
1789820952731653400,11.9506533203125,0.36099487385153767,-0.08822568820267915,0.2829273175750859
1789820952741623300,11.960623291015626,1.4444243165642021,-0.9851511470511555,0.812148449794948
1789820952751593500,11.970593505859375,1.5229256063491106,-0.6766562757655977,-0.58921845000498
1789820952761563400,11.9805634765625,1.2964765655875206,-1.0718217147663236,1.4534282917529344
1789820952771533600,11.990533447265625,1.0559633436381817,-1.2943021441578864,0.2600092006611638
1789820952781503500,12.00050341796875,1.0555530092716217,-1.293284783808887,0.26455104534188284
1789820952791473400,12.010473388671874,0.1748702446937561,-0.2066305338308215,-0.2815903150839731
1789820952801443300,12.020443359375,0.9932827233195304,-0.37205870417952536,0.30957704049907625
1789820952811413200,12.030413330078124,1.0131985531449317,-0.226542272002995,-0.3825333364427089
1789820952821382400,12.04038232421875,-0.058415948611497875,0.26928455840349197,0.26619196268301454
1789820952831352600,12.0503525390625,0.2001104844123125,0.11939122631698847,0.45728024213016033
1789820952841322500,12.060322509765625,0.20070085152089595,0.11688859584629535,0.4616290484568104
1789820952851292400,12.07029248046875,-0.45012978585362434,1.2888827494576574,-0.8071437733754515
1789820952861262300,12.080262451171874,-1.3499860374569892,1.5026505878224967,0.028379706788063046
1789820952871232500,12.090232421875,-1.9330361010253427,0.3865905028790235,0.8136497942686081
1789820952881202400,12.100202392578124,-2.507904027181864,1.0796432021722198,0.20705363634740934
1789820952891172400,12.11017236328125,-1.9041145424455403,2.2812407591477033,1.177119241540134
1789820952901142300,12.120142333984376,0.6107581547051668,-0.9541317394092679,1.0078322768714278
1789820952911112200,12.1301123046875,-0.012690554746985435,-0.08252776882201433,0.11045386835737153
1789820952921082600,12.14008251953125,-0.23735680374503135,1.6187793052121995,1.5182244429208338
1789820952931051500,12.150051513671874,0.6716933926612139,0.4001441041961312,1.7024841549895702
1789820952941021400,12.160021484375,-0.5416466245561837,0.46036067248880863,1.4082343744166195
1789820952950991400,12.169991455078126,-0.5418851094871759,0.46106677493155,1.4093895358011126
1789820952960961300,12.179961181640625,-1.8907728303134441,-0.9842501065582037,0.4498299261242151
1789820952970931200,12.18993115234375,-1.225342589700222,0.2034001736074686,0.8958888823423534
1789820952980901400,12.1999013671875,0.8540151224046945,-0.6065864219784737,0.9208175718937068
1789820952990871600,12.20987158203125,1.3722837939828634,-0.9426607895851135,-0.353284810930863
1789820953000841500,12.219841552734374,1.3986001385003328,-0.6592673340693116,-0.30493577229818325
1789820953010811400,12.229811279296875,1.736907964247465,-0.41960459146946666,-0.3364607000431046
1789820953020781600,12.239781494140624,2.986656096407771,-1.2893258170500397,-0.6565953383810818
1789820953030750500,12.24975048828125,1.1918161676734684,-0.7218462475791573,-1.3865578185290097
1789820953040720400,12.259720458984376,-1.990934747764468,0.4830915597349405,-0.854202096344158
1789820953050690300,12.269690185546875,-3.225236888989806,1.1504057143986224,-1.4566823251128196
1789820953060660500,12.279660400390625,-0.17196984707713125,-0.34431846433877944,-1.352772014913708
1789820953070630400,12.28963037109375,-0.17392331923246382,-0.3363528922870755,-1.3673878386348486
1789820953080600600,12.2996005859375,1.849226183438301,0.47926148005276914,-0.06328627632791176
1789820953090570500,12.309570556640624,0.32000878346860406,1.5634417411327362,0.11762617113953455
1789820953100540400,12.31954052734375,1.586575363960862,0.5122159474104643,-0.47323345193490385
1789820953110510300,12.32951025390625,1.5856868906885384,0.5162760364562273,-0.4895275841318071
1789820953120480300,12.339480224609375,2.905144518890977,-1.2516197712510824,0.2365730512225069
1789820953130449400,12.349449462890625,-0.9394371513634919,1.7249553683862089,1.4445783380821346
1789820953140419800,12.359419921875,-3.63926134223938,2.171857132104039,1.035287708421424
1789820953150390000,12.36939013671875,-4.786328852126002,2.422678105317056,0.24583953153863547
1789820953160360000,12.37935986328125,-2.000534350758791,-0.18085867145359516,-1.038443249842897
1789820953170329900,12.389329833984375,-1.5949457174211739,1.018753849184513,-0.5893770015675575
1789820953180300000,12.399300048828126,0.3476905711203813,-0.9642302318364381,0.8553764008205383
1789820953190270000,12.40927001953125,0.48335693267285823,0.5301961329981685,1.8117584764398633
1789820953200239900,12.419239990234376,0.6076350542485713,0.6239741946309805,0.7612917574565857
1789820953210209800,12.429209716796874,0.792746706971526,-0.2118517756104469,0.8925004820130765
1789820953220179700,12.4391796875,0.33493688800930976,-0.3130626175925135,0.18804874735446644
1789820953230148900,12.44914892578125,-0.483439350259304,-0.1626654276371002,0.3325600393427536
1789820953240119000,12.459119140625,-1.4898317305207252,0.6445180932268499,0.5709285774135961
1789820953250089000,12.4690888671875,-1.26969611068964,0.8367372398674487,-0.5323760343205184
1789820953260059000,12.479058837890625,-1.2694295687079429,0.8357830078825355,-0.5374376285590231
1789820953270028800,12.48902880859375,-0.8887228631705045,1.1645362388208509,-0.30529976503867656
