time,seconds_elapsed,z,y,x
1789820940844945000,0.06394482421875,0.14791569113731384,0.09377522766590118,-0.19580546021461487
1789820940854914800,0.073914794921875,0.020186495035886765,0.08169592916965485,-0.07148244231939316
1789820940864884700,0.083884765625,-0.11473750323057175,0.05638151615858078,0.07065445929765701
1789820940874855000,0.09385498046875,-0.10823086649179459,0.03441603109240532,0.031195735558867455
1789820940884824800,0.103824951171875,-0.17196190357208252,0.07441750913858414,-0.049667421728372574
1789820940894795000,0.113794921875,-0.20140156149864197,0.014079333283007145,0.04647029563784599
1789820940904765000,0.123764892578125,-0.10789796710014343,0.005508216097950935,0.020976122468709946
1789820940914734800,0.13373486328125,-0.13764654099941254,0.009463543072342873,-0.01611904799938202
1789820940924704800,0.143704833984375,-0.11603739112615585,-0.015479889698326588,-0.0070792147889733315
1789820940934675000,0.153675048828125,-0.18724125623703003,-0.05828993767499924,0.053947921842336655
1789820940944644900,0.163644775390625,-0.2011038213968277,-0.019842414185404778,0.04902400076389313
1789820940954614800,0.17361474609375,-0.13800767064094543,-0.030580813065171242,-0.006809968966990709
1789820940964584700,0.183584716796875,-0.19021068513393402,-0.07994143664836884,0.08545764535665512
1789820940974555000,0.193554931640625,-0.2547462582588196,-0.031083084642887115,0.060625262558460236
1789820940984525000,0.203525146484375,-0.142074316740036,-0.08135397732257843,0.06799422949552536
1789820940994495000,0.213494873046875,-0.14681553840637207,-0.03217737749218941,0.06127294525504112
1789820941004465000,0.22346484375,-0.16893309354782104,0.007729825098067522,0.05005491152405739
1789820941014434800,0.233434814453125,0.009579923003911972,-0.06600111722946167,-0.005113801918923855
1789820941024406000,0.243406005859375,0.03518994525074959,-0.07570941001176834,-0.015442872419953346
1789820941034376000,0.2533759765625,0.07332561165094376,-0.08259900659322739,0.06334488093852997
1789820941044345900,0.263345947265625,0.06088625267148018,-0.08664195239543915,0.10597037523984909
1789820941054315800,0.273315673828125,0.06495503336191177,-0.03203330188989639,0.0594063363969326
1789820941064285700,0.28328564453125,0.13611896336078644,-0.020109262317419052,-0.03039279393851757
1789820941074256000,0.293255859375,0.14244449138641357,-0.06965924054384232,-0.031329426914453506
1789820941084225800,0.303225830078125,0.13240385055541992,-0.014797854237258434,0.021620074287056923
1789820941094196000,0.313196044921875,0.2575279474258423,-0.051426440477371216,0.003352387109771371
1789820941104166000,0.323165771484375,0.2811376750469208,-0.029509156942367554,-0.05349225178360939
1789820941114136000,0.333135986328125,0.2028479129076004,-0.008987902663648129,-0.03827974572777748
1789820941124106000,0.34310595703125,0.2819664478302002,-0.053635530173778534,-0.025349831208586693
1789820941134075600,0.35307568359375,0.25288790464401245,-0.017907094210386276,-0.013130183331668377
1789820941144045800,0.3630458984375,0.10213222354650497,-0.009288839064538479,0.07851238548755646
1789820941154015700,0.373015625,0.1584402471780777,0.015994412824511528,-0.04742104560136795
1789820941163985700,0.382985595703125,0.16605953872203827,0.003734018187969923,-0.03058001399040222
1789820941173955600,0.39295556640625,0.22824887931346893,0.00836791843175888,-0.03687546029686928
1789820941183925500,0.402925537109375,0.3330099284648895,0.020681044086813927,-0.10547875612974167
1789820941193896000,0.41289599609375,0.1616797149181366,-0.020060259848833084,0.025119468569755554
1789820941203865900,0.422865966796875,0.33506667613983154,-0.007227286696434021,-0.1172800213098526
1789820941213835800,0.432835693359375,0.15684500336647034,0.03381122648715973,0.006893592420965433
1789820941223805700,0.4428056640625,0.10729183256626129,0.11479023098945618,0.000922252656891942
1789820941233775900,0.45277587890625,0.07252772897481918,0.15903812646865845,-0.024466993287205696
1789820941243745800,0.462745849609375,0.01679735630750656,0.15417571365833282,-0.028114192187786102
1789820941253715700,0.4727158203125,0.019093533977866173,0.11693567782640457,-0.034031469374895096
1789820941263686700,0.482686767578125,0.031267907470464706,0.09188997745513916,-0.008379369974136353
1789820941273656800,0.49265673828125,0.020012324675917625,0.09916040301322937,0.014289723709225655
1789820941283626800,0.502626708984375,0.04506387934088707,0.07390511780977249,-0.005890379659831524
1789820941293596700,0.5125966796875,-0.010635866783559322,0.13636955618858337,-0.028259335085749626
1789820941303566600,0.522566650390625,-0.016159528866410255,0.09266389161348343,-0.06892181187868118
1789820941313536800,0.532536865234375,-0.0738755539059639,0.09428735077381134,-0.027998344972729683
1789820941323507000,0.5425068359375,-0.14192597568035126,0.09927359223365784,-0.06438271701335907
1789820941333476900,0.552476806640625,-0.16520173847675323,0.13823696970939636,-0.06714308261871338
1789820941343446800,0.56244677734375,-0.12772414088249207,0.012471050955355167,-0.008948487229645252
1789820941353416700,0.572416748046875,-0.2828655242919922,0.1636565774679184,0.013621802441775799
1789820941363386600,0.58238671875,-0.2578722834587097,0.047933969646692276,-0.008625445887446404
1789820941373356800,0.592356689453125,-0.3559216260910034,0.12215413898229599,0.009100553579628468
1789820941383326700,0.60232666015625,-0.36306849122047424,0.03230760619044304,0.09462397545576096
1789820941393296600,0.612296630859375,-0.3544933795928955,0.1479463279247284,-0.04392112046480179
1789820941403266600,0.6222666015625,-0.2811930477619171,0.06755614280700684,-0.005991845857352018
1789820941413236700,0.63223681640625,-0.17385941743850708,0.033125195652246475,-0.009343434125185013
1789820941423207000,0.64220703125,-0.13993953168392181,0.07458129525184631,-0.08517614752054214
1789820941433176800,0.6521767578125,-0.21872594952583313,0.06953459978103638,-0.04896674305200577
1789820941443146800,0.662146728515625,-0.23861443996429443,-0.004277036525309086,0.039980173110961914
1789820941453116700,0.67211669921875,-0.2483765184879303,0.09292807430028915,-0.041243311017751694
1789820941463086800,0.6820869140625,-0.26879337430000305,0.039079759269952774,-0.01750149577856064
1789820941473056800,0.692056884765625,-0.22682568430900574,0.05941246077418327,-0.04784688353538513
1789820941483027700,0.70202783203125,-0.11995702981948853,-0.00869282428175211,0.002332130214199424
1789820941492997600,0.71199755859375,-0.04645271971821785,-0.06078824773430824,0.042328014969825745
1789820941502967800,0.7219677734375,-0.041549041867256165,-0.013050554320216179,0.020538831129670143
1789820941512937700,0.731937744140625,-0.07529768347740173,-0.025854500010609627,0.0019390475936233997
1789820941522907600,0.74190771484375,-0.12342366576194763,-0.056401222944259644,0.11158458143472672
1789820941532877600,0.751877685546875,-0.12191738188266754,-0.05348825827240944,0.0507313534617424
1789820941542847700,0.76184765625,-0.1269150674343109,-0.058572232723236084,0.010029198601841927
1789820941552818000,0.77181787109375,-0.07308565825223923,-0.08851414918899536,0.046664707362651825
1789820941562787800,0.781787841796875,-0.010981544852256775,-0.13169890642166138,0.0515659898519516
1789820941572757800,0.7917578125,-0.06932581216096878,-0.06625838577747345,0.0531281977891922
1789820941582727700,0.801727783203125,-0.043407127261161804,-0.10469445586204529,0.09849567711353302
1789820941592697600,0.811697509765625,-0.024835042655467987,-0.05973150581121445,0.07398554682731628
1789820941602667800,0.821667724609375,0.03266873210668564,-0.08503899723291397,0.03267432376742363
1789820941612637700,0.8316376953125,0.019871443510055542,-0.040589772164821625,0.02767796628177166
1789820941622607600,0.841607666015625,0.08035103231668472,-0.07465586066246033,0.0049153962172567844
1789820941632577500,0.85157763671875,0.043470777571201324,-0.05133828893303871,0.0065625617280602455
1789820941642548000,0.8615478515625,0.030946996062994003,-0.024983379989862442,0.020315924659371376
1789820941652518000,0.871517822265625,0.05699510872364044,-0.07112450897693634,0.04898059368133545
1789820941662487800,0.88148779296875,-0.0054967645555734634,-0.006697317585349083,-0.02623027190566063
1789820941672458800,0.891458740234375,0.04990124702453613,-0.03837215527892113,-0.027352528646588326
1789820941682429000,0.901428955078125,0.07354345917701721,-0.11033103615045547,0.005065065808594227
1789820941692398800,0.91139892578125,0.03231053426861763,-0.10079185664653778,-0.0013275857781991363
1789820941702368800,0.92136865234375,0.07910307496786118,-0.09728660434484482,-0.06332623958587646
1789820941712338700,0.931338623046875,0.0962570309638977,-0.11446825414896011,-0.017354488372802734
1789820941722308600,0.94130859375,0.09068755805492401,-0.07882397621870041,0.015542474575340748
1789820941732278800,0.95127880859375,0.1801023930311203,-0.0937667042016983,-0.03470871224999428
1789820941742248700,0.961248779296875,0.17917054891586304,-0.04012691229581833,-0.05540786683559418
1789820941752218600,0.971218505859375,0.17216724157333374,-0.07599756121635437,0.04139697551727295
1789820941762188800,0.981188720703125,0.1939404457807541,-0.08356679975986481,0.06261411309242249
1789820941772158700,0.99115869140625,0.24656717479228973,-0.07969509810209274,-0.028171449899673462
1789820941782129000,1.00112890625,0.23772095143795013,-0.07383507490158081,-0.017172861844301224
1789820941792098800,1.011098876953125,0.2436094582080841,-0.07833075523376465,-0.03365116938948631
1789820941802068700,1.02106884765625,0.24929878115653992,-0.005906624719500542,-0.07850013673305511
1789820941812038700,1.03103857421875,0.22297155857086182,0.016437562182545662,-0.10766201466321945
1789820941822008800,1.0410087890625,0.2190665751695633,0.0009898969437927008,-0.08695486932992935
1789820941831978800,1.050978759765625,0.20560748875141144,-0.04626496508717537,-0.0028538433834910393
1789820941841948700,1.06094873046875,0.1413150429725647,-0.003483148291707039,-0.041071005165576935
1789820941851919600,1.070919677734375,0.19339902698993683,-0.009555954486131668,-0.05072815716266632
1789820941861889800,1.080889892578125,0.1758144348859787,0.016984576359391212,-0.01744530349969864
1789820941871859700,1.090859619140625,0.11167513579130173,-0.00720464950427413,-0.00759906368330121
1789820941881829600,1.10082958984375,0.04518798366189003,0.01937529630959034,-0.02924283966422081
1789820941891799800,1.1107998046875,0.0787866935133934,-0.024631043896079063,-0.02875601500272751
1789820941901769700,1.120769775390625,-0.002380599733442068,0.029800239950418472,-0.05398014560341835
1789820941911740000,1.130739990234375,-0.03437395393848419,-0.002293780678883195,-0.012104333378374577
1789820941921709800,1.140709716796875,-0.02202088013291359,-0.031144604086875916,-0.01956464722752571
1789820941931679700,1.1506796875,-0.05313858389854431,-0.015663914382457733,-0.02997307851910591
1789820941941649700,1.160649658203125,-0.04674966260790825,-0.031376298516988754,0.007822236977517605
1789820941951619600,1.17061962890625,0.023838752880692482,-0.05992458760738373,0.013827398419380188
1789820941961589800,1.18058984375,0.02400706522166729,0.02376019023358822,-0.012918195687234402
1789820941971559700,1.1905595703125,0.04662369564175606,0.014129401184618473,0.03051263466477394
1789820941981529600,1.200529541015625,0.0956418365240097,0.004577441141009331,0.0667438730597496
1789820941991499800,1.210499755859375,0.10618475824594498,0.021019797772169113,0.045941125601530075
1789820942001470000,1.220469970703125,0.10523401200771332,0.03802620992064476,0.05633517727255821
1789820942011439900,1.23043994140625,0.16735491156578064,0.023867249488830566,0.041681401431560516
1789820942021409800,1.240409912109375,0.16384673118591309,0.05109753832221031,0.05287972465157509
1789820942031380700,1.250380615234375,0.18196794390678406,0.09479042142629623,-0.011668373830616474
1789820942041351000,1.260350830078125,0.1258910894393921,0.09986161440610886,0.03104287013411522
1789820942051320800,1.27032080078125,0.07431764155626297,0.1473894566297531,-0.00625975988805294
1789820942061290800,1.280290771484375,0.0676829069852829,0.09652627259492874,0.01495125237852335
1789820942071260700,1.2902607421875,-0.029756831005215645,0.10057827085256577,0.023797474801540375
1789820942081230600,1.300230712890625,-0.06561043858528137,0.1032656654715538,-0.0240803025662899
1789820942091200800,1.31020068359375,-0.057501111179590225,0.026617495343089104,0.00826964806765318
1789820942101170700,1.320170654296875,-0.21789397299289703,0.08600199222564697,0.05151725187897682
1789820942111140600,1.330140625,-0.14263011515140533,0.0808948501944542,-0.0022280006669461727
1789820942121110800,1.34011083984375,-0.06907600909471512,0.028356008231639862,-0.059305667877197266
1789820942131080700,1.350080810546875,-0.18062198162078857,0.061529405415058136,0.009137571789324284
1789820942141050600,1.360050537109375,-0.17846934497356415,0.06767518073320389,0.014256433583796024
1789820942151020500,1.3700205078125,-0.152349054813385,0.07494907826185226,-0.01600906066596508
1789820942160990500,1.379990478515625,-0.20558138191699982,0.14243118464946747,-0.02515542134642601
1789820942170960400,1.38996044921875,-0.12876570224761963,0.07277380675077438,0.09265030920505524
1789820942180930600,1.3999306640625,-0.07947058975696564,0.09600535780191422,0.0018865832826122642
1789820942190901500,1.409901611328125,-0.09388335049152374,0.16378174722194672,-0.08179845660924911
1789820942200871400,1.419871337890625,-0.04878644645214081,0.047921452671289444,-0.016326775774359703
1789820942210841300,1.42984130859375,-0.1620863676071167,0.08413724601268768,0.03693085163831711
1789820942220811500,1.4398115234375,-0.11666802316904068,0.122284896671772,-0.09047823399305344
1789820942230781400,1.449781494140625,-0.20925761759281158,0.12558110058307648,-0.07143263518810272
1789820942240751600,1.459751708984375,-0.28709515929222107,0.07747109234333038,0.009765811264514923
1789820942250721500,1.469721435546875,-0.28079864382743835,0.022814767435193062,0.02828969433903694
1789820942260691700,1.479691650390625,-0.3158775269985199,0.08115477114915848,-0.03662778437137604
1789820942270661600,1.48966162109375,-0.3099144399166107,0.0651952475309372,-0.057375140488147736
1789820942280631600,1.499631591796875,-0.20156800746917725,0.02202354371547699,-0.03873354569077492
1789820942290601500,1.5096015625,-0.1642797589302063,0.0610007680952549,-0.05621693283319473
1789820942300571400,1.5195712890625,-0.09801977127790451,0.05754318833351135,-0.09714572131633759
1789820942310541600,1.52954150390625,-0.0633251741528511,0.027657460421323776,0.010584467090666294
1789820942320511500,1.539511474609375,-0.044674526900053024,0.04935423284769058,-0.022155102342367172
1789820942330481400,1.5494814453125,-0.09106200188398361,0.1465364396572113,-0.11148098856210709
1789820942340451600,1.55945166015625,0.005554288625717163,0.026377012953162193,0.001648230361752212
1789820942350422500,1.569422607421875,0.057378869503736496,0.03377021476626396,0.02269146405160427
1789820942360392400,1.579392333984375,0.048286840319633484,0.09505940228700638,-0.06060635671019554
1789820942370362600,1.589362548828125,0.03912955895066261,0.10481908917427063,-0.010400443337857723
1789820942380332500,1.59933251953125,0.05253351479768753,0.0773957222700119,0.014535000547766685
1789820942390302500,1.609302490234375,0.06031527370214462,0.06850369274616241,-0.006540190894156694
1789820942400272600,1.619272705078125,-0.022914370521903038,0.09702907502651215,0.021925538778305054
1789820942410242600,1.62924267578125,-0.10922183096408844,0.09865067899227142,0.04777364805340767
1789820942420212500,1.63921240234375,-0.0810043066740036,0.07474188506603241,-0.042322155088186264
1789820942430182400,1.649182373046875,-0.15496347844600677,0.07882744073867798,-0.011421765200793743
1789820942440152600,1.659152587890625,-0.1526808887720108,0.03216991946101189,0.0237593911588192
1789820942450122500,1.66912255859375,-0.12075331807136536,0.04132453724741936,0.036139894276857376
1789820942460092700,1.6790927734375,-0.21246299147605896,0.11062850803136826,-0.006909837480634451
1789820942470062600,1.6890625,-0.20848582684993744,0.05078861117362976,0.03308791294693947
1789820942480032500,1.699032470703125,-0.15826021134853363,0.009456618689000607,0.0315222404897213
1789820942490002700,1.709002685546875,-0.19375509023666382,0.05745983123779297,0.0027209515683352947
1789820942499973600,1.7189736328125,-0.16520972549915314,0.11861612647771835,-0.09349027276039124
1789820942509943600,1.728943603515625,-0.17570577561855316,0.07226567715406418,-0.005627525504678488
1789820942519913500,1.73891357421875,-0.16870459914207458,0.008787899278104305,0.12383272498846054
1789820942529883600,1.748883544921875,-0.15214292705059052,0.03207138180732727,0.0916881114244461
1789820942539853600,1.758853515625,-0.15085183084011078,0.11334866285324097,-0.07691235840320587
1789820942549823500,1.768823486328125,-0.16249170899391174,0.08242989331483841,0.05061310902237892
1789820942559793400,1.77879345703125,-0.11070973426103592,0.01630839891731739,0.16106079518795013
1789820942569763300,1.788763427734375,-0.10613761842250824,0.09795745462179184,0.05573197081685066
1789820942579733500,1.7987333984375,-0.11608666181564331,0.11624191701412201,0.006592655088752508
1789820942589703700,1.80870361328125,-0.08028285205364227,0.06413930654525757,0.05892110615968704
1789820942599673600,1.818673583984375,-0.06513266265392303,0.046671897172927856,0.01594141498208046
1789820942609643500,1.8286435546875,-0.11599557846784592,0.11249325424432755,-0.11838283389806747
1789820942619613700,1.83861376953125,-0.12671053409576416,0.07301988452672958,-0.07394666224718094
1789820942629583600,1.84858349609375,-0.1544761210680008,0.0026671558152884245,0.01534593291580677
1789820942639553500,1.858553466796875,-0.24600178003311157,0.022654179483652115,0.0445200651884079
1789820942649524500,1.8685244140625,-0.22098590433597565,0.016812268644571304,-0.005410477984696627
1789820942659494700,1.87849462890625,-0.17611031234264374,-0.014795191586017609,-0.047920387238264084
1789820942669464600,1.888464599609375,-0.2262730896472931,-0.025529328733682632,0.03592924028635025
1789820942679434500,1.8984345703125,-0.21937017142772675,-0.006656038574874401,0.007904262281954288
1789820942689404400,1.908404296875,-0.20471665263175964,0.014611699618399143,-0.03590952977538109
1789820942699374300,1.918374267578125,-0.27621346712112427,0.017976071685552597,0.034749723970890045
1789820942709344500,1.928344482421875,-0.2524290680885315,0.015923039987683296,0.01489133108407259
1789820942719314700,1.938314697265625,-0.24369442462921143,0.013991981744766235,-0.02827637828886509
1789820942729284600,1.94828466796875,-0.23980993032455444,-0.04910522699356079,0.05066823586821556
1789820942739254500,1.958254638671875,-0.1936086118221283,-0.13219398260116577,0.06301092356443405
1789820942749224400,1.968224365234375,-0.25974634289741516,-0.08971896767616272,0.03539474308490753
1789820942759194600,1.978194580078125,-0.29727429151535034,-0.09815239906311035,-0.01607590541243553
1789820942769164500,1.98816455078125,-0.2620806097984314,-0.15529504418373108,-0.0038458709605038166
1789820942779134500,1.998134521484375,-0.20750579237937927,-0.1740357130765915,-0.04565616697072983
1789820942789105400,2.00810546875,-0.1768520027399063,-0.1396859884262085,-0.06582854688167572
1789820942799075600,2.01807568359375,-0.12942829728126526,-0.18525241315364838,-0.034088995307683945
1789820942809045500,2.02804541015625,-0.14656147360801697,-0.1882420778274536,0.04165077209472656
1789820942819015400,2.038015380859375,-0.07865326851606369,-0.16332180798053741,-0.060021791607141495
1789820942828985300,2.0479853515625,-0.05668991059064865,-0.1961601823568344,-0.08146796375513077
1789820942838955500,2.05795556640625,-0.040468063205480576,-0.2195155769586563,0.032819733023643494
1789820942848925700,2.06792578125,0.03080345317721367,-0.2318795770406723,0.0133261913433671
1789820942858895600,2.0778955078125,0.023494407534599304,-0.2332359254360199,0.001790975802578032
1789820942868865500,2.087865478515625,0.014237791299819946,-0.22605043649673462,0.057920292019844055
1789820942878835500,2.09783544921875,0.14027002453804016,-0.23238183557987213,0.010358631610870361
1789820942888805600,2.1078056640625,0.17815642058849335,-0.22787603735923767,-0.01025476772338152
1789820942898775600,2.117775634765625,0.11741983890533447,-0.1684233695268631,-0.01600666344165802
1789820942908745500,2.127745361328125,0.20617100596427917,-0.22443683445453644,0.020503144711256027
1789820942918715400,2.13771533203125,0.18588703870773315,-0.13318787515163422,-0.06268175691366196
1789820942928686600,2.1476865234375,0.1772243082523346,-0.12509053945541382,-0.04381778836250305
1789820942938656500,2.157656494140625,0.19404590129852295,-0.1475987732410431,0.04957261309027672
1789820942948626400,2.16762646484375,0.2014942318201065,-0.14684803783893585,0.017682325094938278
1789820942958596400,2.177596435546875,0.22083836793899536,-0.11291643232107162,0.006547914352267981
1789820942968566500,2.18756640625,0.2451447695493698,-0.10118494182825089,-0.003498062025755644
1789820942978536700,2.19753662109375,0.2344346046447754,-0.08539053052663803,-0.024047812446951866
1789820942988506600,2.207506591796875,0.17704854905605316,-0.05342354252934456,-0.04903172329068184
1789820942998476500,2.2174765625,0.1528012603521347,-0.061460431665182114,-0.03600061312317848
1789820943008446500,2.227446533203125,0.14166899025440216,-0.07164862006902695,-0.03213769569993019
1789820943018416600,2.237416748046875,0.10567502677440643,-0.04222841188311577,-0.043537091463804245
1789820943028386600,2.247386474609375,0.11488664150238037,-0.03127722814679146,-0.04423563927412033
1789820943038356500,2.2573564453125,0.1259414255619049,-0.026080869138240814,-0.02347549796104431
1789820943048326400,2.267326416015625,0.07835739105939865,0.028499018400907516,-0.023678697645664215
1789820943058296300,2.27729638671875,0.12369504570960999,0.010214554145932198,-0.012500079348683357
1789820943068267500,2.287267578125,0.09969303756952286,-0.00737242866307497,0.04969858005642891
1789820943078237400,2.297237548828125,0.06483226269483566,0.011234811507165432,0.028309402987360954
1789820943088207400,2.307207275390625,0.02359320968389511,-0.03636093810200691,0.08181603997945786
1789820943098177500,2.317177490234375,-0.04782824218273163,0.037451766431331635,0.01137116551399231
1789820943108147700,2.327147705078125,0.01516803354024887,-0.040835313498973846,0.07668305933475494
1789820943118117600,2.33711767578125,0.06131662055850029,-0.00023808660625945777,-0.006629140581935644
1789820943128088600,2.347088623046875,-0.028203675523400307,0.07471338659524918,-0.03951491788029671
1789820943138058500,2.35705859375,-0.04426493123173714,0.0005715143634006381,0.07161639630794525
1789820943148028400,2.3670283203125,-0.017471134662628174,-0.003979029133915901,0.03512096777558327
1789820943157998300,2.376998291015625,-0.04675978049635887,0.030948061496019363,-0.07124382257461548
1789820943167968300,2.38696826171875,-0.07194609194993973,0.018247712403535843,-0.011211908422410488
1789820943177938400,2.3969384765625,-0.060505688190460205,-0.04337969794869423,0.049901511520147324
1789820943187908400,2.406908447265625,-0.09672441333532333,0.06980224698781967,-0.01890338398516178
1789820943197878300,2.416878173828125,-0.039263248443603516,0.03441203758120537,-0.04199698567390442
1789820943207849200,2.42684912109375,-0.10076069831848145,0.018316423520445824,0.07454027980566025
1789820943217819400,2.4368193359375,-0.04646044224500656,0.0347910039126873,0.0548723042011261
1789820943227789300,2.446789306640625,0.022518891841173172,0.08217529952526093,-0.016264190897345543
1789820943237759200,2.45675927734375,0.016524648293852806,0.07551579922437668,0.026325080543756485
1789820943247729400,2.4667294921875,-0.01721920073032379,0.11640996485948563,0.07276475429534912
1789820943257699300,2.47669921875,0.02912699244916439,0.07979363203048706,-0.023002255707979202
1789820943267669500,2.48666943359375,-0.12184601277112961,0.11268393695354462,-0.0009507485083304346
1789820943277639400,2.496639404296875,-0.10842288285493851,0.02954777143895626,0.004032026045024395
1789820943287609300,2.506609375,-0.08161869645118713,0.04532034322619438,-0.08010921627283096
1789820943297579300,2.516579345703125,-0.08346879482269287,0.04771558940410614,-0.09797050803899765
1789820943307549400,2.526549560546875,-0.1486390084028244,0.050265565514564514,-0.03406955301761627
1789820943317519400,2.536519287109375,-0.13774055242538452,0.05565314367413521,0.034200847148895264
1789820943327489300,2.5464892578125,-0.08713090419769287,0.10322678834199905,-0.040354881435632706
1789820943337459200,2.556459228515625,-0.12333524972200394,0.061479341238737106,0.0016980315558612347
1789820943347430400,2.566430419921875,-0.1636829376220703,0.021140705794095993,0.046897467225790024
1789820943357400300,2.576400390625,-0.14233264327049255,0.025237446650862694,-0.03522030636668205
1789820943367370200,2.586370361328125,-0.1733773797750473,0.044800762087106705,-0.027690483257174492
1789820943377340400,2.59634033203125,-0.18002276122570038,0.009858756326138973,-0.025441443547606468
1789820943387310300,2.606310302734375,-0.25533297657966614,0.07024487107992172,-0.09278612583875656
1789820943397280500,2.616280517578125,-0.16265203058719635,-0.01315042283385992,-0.011759987100958824
1789820943407250400,2.62625048828125,-0.15250006318092346,-0.011330951005220413,0.08761746436357498
1789820943417220400,2.636220458984375,-0.18203558027744293,0.053888797760009766,-0.0657569095492363
1789820943427190300,2.646190185546875,-0.19117873907089233,0.08855463564395905,-0.09778302162885666
1789820943437160200,2.65616015625,-0.061046041548252106,-0.025135979056358337,-0.04583593085408211
1789820943447130400,2.66613037109375,-0.18474188446998596,0.02347389981150627,0.01359517127275467
1789820943457100300,2.676100341796875,-0.20376724004745483,0.06917081773281097,-0.03032222017645836
1789820943467070500,2.686070556640625,-0.12665514647960663,0.020474648103117943,0.02147306688129902
1789820943477040400,2.696040283203125,-0.19760601222515106,0.07901785522699356,0.05264909565448761
1789820943487010600,2.706010498046875,-0.16802336275577545,0.021132981404662132,0.07927138358354568
1789820943496981500,2.7159814453125,-0.12606632709503174,0.028299281373620033,0.00942066591233015
1789820943506951400,2.725951416015625,-0.1704726666212082,0.028611937537789345,0.02664998732507229
1789820943516921300,2.73592138671875,-0.15137992799282074,-0.006286924239248037,0.027725104242563248
1789820943526891500,2.7458916015625,-0.16260115802288055,0.006036320701241493,0.000355532014509663
1789820943536861400,2.755861328125,-0.17244286835193634,0.005313006229698658,-0.010986871086061
1789820943546831400,2.765831298828125,-0.21304196119308472,-0.07227978855371475,0.07137884199619293
1789820943556801300,2.77580126953125,-0.2227768898010254,-0.07399965822696686,0.08434177935123444
1789820943566771200,2.785771240234375,-0.17845629155635834,-0.0803249329328537,-0.028360800817608833
1789820943576741400,2.795741455078125,-0.25581419467926025,-0.04580237716436386,-0.005085306242108345
1789820943586711300,2.805711181640625,-0.2598124146461487,-0.07615575194358826,0.0008607336785644293
1789820943596681500,2.815681396484375,-0.27302807569503784,-0.09745172411203384,-0.013938185758888721
1789820943606651400,2.8256513671875,-0.23364631831645966,-0.1164802759885788,-0.015255119651556015
1789820943616621300,2.835621337890625,-0.15208807587623596,-0.17346952855587006,0.04879976436495781
1789820943626591500,2.845591552734375,-0.11627174913883209,-0.13061366975307465,-0.04176582396030426
1789820943636561400,2.8555615234375,-0.15899869799613953,-0.12509506940841675,0.011433216743171215
1789820943646531300,2.86553125,-0.13061925768852234,-0.1876135766506195,0.06990744173526764
1789820943656501200,2.875501220703125,-0.13993819057941437,-0.18528996407985687,0.026135196909308434
1789820943666472400,2.885472412109375,-0.11824248731136322,-0.21712832152843475,0.023810258135199547
1789820943676442400,2.8954423828125,-0.06011446937918663,-0.21276259422302246,-0.012990100309252739
1789820943686412300,2.905412353515625,0.0011203918838873506,-0.18997420370578766,-0.06572042405605316
1789820943696382200,2.91538232421875,-0.019593408331274986,-0.2031501829624176,-0.039913859218358994
1789820943706352400,2.925352294921875,-0.02063683420419693,-0.21753790974617004,0.00833782460540533
1789820943716322300,2.935322265625,0.05885852128267288,-0.2553175091743469,-0.02642042189836502
1789820943726292500,2.94529248046875,0.052922338247299194,-0.23774278163909912,-0.042811378836631775
1789820943736262400,2.955262451171875,0.08640066534280777,-0.25541257858276367,0.01955878734588623
1789820943746232300,2.965232421875,0.1541552096605301,-0.2750888168811798,0.004299940075725317
1789820943756202500,2.975202392578125,0.11154890060424805,-0.22579264640808105,-0.02575782686471939
1789820943766172400,2.98517236328125,0.1456536054611206,-0.26329848170280457,-0.012460132129490376
1789820943776142300,2.995142333984375,0.19534365832805634,-0.28690606355667114,0.0265346709638834
1789820943786112300,3.0051123046875,0.20079515874385834,-0.2482183277606964,-0.03869945928454399
1789820943796082200,3.015082275390625,0.2155325561761856,-0.21483108401298523,-0.062436480075120926
1789820943806052400,3.02505224609375,0.2848104238510132,-0.23849433660507202,-0.0022072279825806618
1789820943816022300,3.035022216796875,0.2704261541366577,-0.24246004223823547,0.03416968882083893
1789820943825992400,3.044992431640625,0.21341747045516968,-0.19608056545257568,-0.030795462429523468
1789820943835962400,3.05496240234375,0.2663209140300751,-0.21410617232322693,-0.008519185706973076
1789820943845933300,3.064933349609375,0.2800164818763733,-0.22924304008483887,0.011785020120441914
1789820943855903500,3.074903564453125,0.22744514048099518,-0.19525285065174103,-0.037823546677827835
1789820943865873400,3.084873291015625,0.233736053109169,-0.1863911747932434,-0.031804800033569336
1789820943875843300,3.09484326171875,0.20978571474552155,-0.20108038187026978,0.03934101387858391
1789820943885813500,3.1048134765625,0.21743325889110565,-0.17888052761554718,0.02574451081454754
1789820943895783400,3.114783447265625,0.2793884873390198,-0.18827669322490692,-0.02605024352669716
1789820943905753300,3.12475341796875,0.23907117545604706,-0.15236423909664154,0.011036671698093414
1789820943915723300,3.13472314453125,0.2812575101852417,-0.172618106007576,0.05272393301129341
1789820943925693200,3.144693115234375,0.31157225370407104,-0.12401915341615677,0.05192604660987854
1789820943935663400,3.154663330078125,0.3092350661754608,-0.08782519400119781,0.03743099421262741
1789820943945633500,3.164633544921875,0.28312304615974426,-0.04608839750289917,0.013922739773988724
1789820943955603500,3.174603515625,0.3058163821697235,-0.05362620949745178,0.07314052432775497
1789820943965573400,3.184573486328125,0.3237599730491638,-0.016684437170624733,-0.010488061234354973
1789820943975543300,3.194543212890625,0.28994154930114746,-0.04488092288374901,-0.02034175768494606
1789820943985513500,3.204513427734375,0.20921926200389862,-0.041424937546253204,0.09094402194023132
1789820943995483400,3.2144833984375,0.2591721713542938,-0.09237626940011978,0.048827726393938065
1789820944005453300,3.224453369140625,0.1764482706785202,0.007929296232759953,-0.05898688733577728
1789820944015423200,3.23442333984375,0.1543419063091278,0.004119643941521645,0.0032842103391885757
1789820944025393200,3.24439306640625,0.2331152707338333,-0.0614769421517849,0.06572069227695465
1789820944035363300,3.25436328125,0.09474141895771027,0.02160169929265976,0.05252339690923691
1789820944045333500,3.26433349609375,0.09967385977506638,0.04150430113077164,0.0025473134592175484
1789820944055304200,3.27430419921875,0.039686691015958786,0.019461581483483315,-0.016923056915402412
1789820944065274400,3.2842744140625,-0.03887069970369339,0.03197098150849342,-0.025069400668144226
1789820944075244500,3.29424462890625,-0.022608906030654907,0.05066504329442978,-0.04627615213394165
1789820944085214500,3.30421435546875,-0.023503728210926056,-0.027348799630999565,0.03250255063176155
1789820944095184400,3.314184326171875,-0.15641704201698303,0.1254418045282364,-0.03344158083200455
1789820944105154300,3.324154296875,-0.04367344453930855,0.0004934837343171239,0.02280784398317337
1789820944115124500,3.33412451171875,-0.08340780436992645,0.045767489820718765,-0.046427685767412186
1789820944125094400,3.344094482421875,-0.16524967551231384,0.05159049108624458,-0.027897145599126816
1789820944135064000,3.35406396484375,-0.04881734028458595,-0.009196694009006023,-0.006175604183226824
1789820944145034000,3.364033935546875,-0.10123127698898315,0.01575952209532261,0.00016458335448987782
1789820944155004000,3.37400390625,-0.13126108050346375,0.02261636219918728,-0.08705713599920273
1789820944164974300,3.383974365234375,-0.06599739193916321,0.03550100326538086,-0.043828971683979034
1789820944174944300,3.3939443359375,0.018881546333432198,0.006783603690564632,-0.05624036863446236
1789820944184914200,3.4039140625,-0.001630387152545154,0.04969112202525139,-0.08184666186571121
1789820944194884000,3.413884033203125,0.03411589190363884,0.05276920646429062,-0.044918205589056015
1789820944204854000,3.42385400390625,0.08972668647766113,0.015982162207365036,0.011749866418540478
1789820944214824200,3.43382421875,0.08055663108825684,-0.024031033739447594,0.05606513470411301
1789820944224794000,3.443794189453125,0.0891738161444664,-0.020383035764098167,-0.023392939940094948
1789820944234764000,3.453763916015625,0.14071691036224365,-0.0054845139384269714,-0.10077428072690964
1789820944244734000,3.46373388671875,0.13077399134635925,-0.06961343437433243,0.04265265539288521
1789820944254703900,3.473703857421875,0.1550212800502777,-0.054193463176488876,0.02857518568634987
1789820944264674300,3.48367431640625,0.21164540946483612,-0.03683631122112274,-0.0288766548037529
1789820944274644200,3.493644287109375,0.2951975464820862,-0.10541857033967972,0.05438680946826935
1789820944284614100,3.5036142578125,0.31742191314697266,-0.07073302567005157,0.03936817869544029
1789820944294584000,3.513583984375,0.3385556936264038,-0.03537397086620331,-0.007641940843313932
1789820944304555300,3.52355517578125,0.3951377272605896,-0.0532352589070797,-0.001547030289657414
1789820944314525200,3.533525146484375,0.4081893563270569,-0.056282978504896164,0.03477102890610695
1789820944324495000,3.5434951171875,0.4082378149032593,-0.02160702459514141,0.008729309774935246
1789820944334465000,3.553465087890625,0.38416630029678345,0.005281847435981035,0.0005909554311074317
1789820944344435200,3.563435302734375,0.41784945130348206,-0.002501773415133357,0.026155171915888786
1789820944354405000,3.573405029296875,0.43346327543258667,0.0431879498064518,0.03436063602566719
1789820944364375000,3.583375,0.42322903871536255,0.125021293759346,-0.00318940170109272
1789820944374345000,3.593344970703125,0.46408963203430176,0.13386698067188263,-0.03629222884774208
1789820944384315100,3.603315185546875,0.427303671836853,0.09349905699491501,0.06554252654314041
1789820944394285300,3.613285400390625,0.4148414134979248,0.16020351648330688,-0.005648564547300339
1789820944404255200,3.623255126953125,0.40457943081855774,0.20754121243953705,-0.03666134178638458
1789820944414225200,3.63322509765625,0.341573566198349,0.184348002076149,0.020967599004507065
1789820944424195000,3.643195068359375,0.28106334805488586,0.2183549702167511,-0.04824262857437134
1789820944434165000,3.6531650390625,0.310000479221344,0.13396525382995605,0.04645005613565445
1789820944444135200,3.66313525390625,0.24570083618164062,0.17894019186496735,-0.008593488484621048
1789820944454105000,3.67310498046875,0.1728074550628662,0.23916597664356232,-0.06184738874435425
1789820944464075000,3.683074951171875,0.14414039254188538,0.19961191713809967,-0.017446368932724
1789820944474045000,3.693044921875,0.061343785375356674,0.22286690771579742,0.00669225724413991
1789820944484015000,3.70301513671875,0.008304535411298275,0.2441929578781128,-0.020140955224633217
1789820944493985300,3.7129853515625,-0.07224543392658234,0.2465410679578781,-0.0005422196118161082
1789820944503955200,3.722955078125,-0.1366574466228485,0.24442732334136963,0.016872989013791084
1789820944513925000,3.732925048828125,-0.14070464670658112,0.20963072776794434,-0.022834742441773415
1789820944523895000,3.74289501953125,-0.2166753113269806,0.26502421498298645,-0.025410551577806473
1789820944533865200,3.752865234375,-0.25527331233024597,0.21658317744731903,0.03957963362336159
1789820944543835100,3.762835205078125,-0.3441624343395233,0.2332732081413269,0.00717721926048398
1789820944553805000,3.77280517578125,-0.36694392561912537,0.24191328883171082,-0.07730410993099213
1789820944563775000,3.78277490234375,-0.4079083800315857,0.1530531942844391,-0.013395966030657291
1789820944573745000,3.792744873046875,-0.4547416865825653,0.14763100445270538,-0.02082458883523941
1789820944583715300,3.80271533203125,-0.4042143225669861,0.1506502330303192,-0.0612495094537735
1789820944593685200,3.812685302734375,-0.45758673548698425,0.17191796004772186,-0.022399581968784332
1789820944603655200,3.8226552734375,-0.4462600350379944,0.1275736689567566,-0.010396980680525303
1789820944613625000,3.832625,-0.43596693873405457,0.14552950859069824,-0.03596385940909386
1789820944623595000,3.842594970703125,-0.4693658947944641,0.11631275713443756,0.009603358805179596
1789820944633565200,3.852565185546875,-0.3803771734237671,0.07095859199762344,0.023020897060632706
1789820944643536100,3.8625361328125,-0.4300195574760437,0.1088135689496994,0.005395564250648022
1789820944653506000,3.872506103515625,-0.4000946879386902,0.08975278586149216,-0.03151558339595795
1789820944663476200,3.882476318359375,-0.2737548351287842,0.00743341539055109,-0.016994429752230644
1789820944673446100,3.892446044921875,-0.3185633420944214,0.03861343860626221,0.011521367356181145
1789820944683416000,3.902416015625,-0.29665857553482056,0.023630227893590927,0.02124936133623123
1789820944693386000,3.912385986328125,-0.2265564501285553,-0.010869692079722881,-0.001386175281368196
1789820944703356000,3.92235595703125,-0.2612830102443695,0.014684404246509075,-0.00440992834046483
1789820944713326300,3.932326416015625,-0.23636406660079956,-0.011234012432396412,-0.016890034079551697
1789820944723296300,3.942296142578125,-0.23476377129554749,-0.03530632704496384,0.01299223117530346
1789820944733266200,3.95226611328125,-0.24970650672912598,-0.03457928076386452,0.008744489401578903
1789820944743236000,3.962236083984375,-0.24399694800376892,-0.0236483383923769,-0.07678372412919998
1789820944753206000,3.9722060546875,-0.2590661942958832,-0.030645793303847313,-0.06409243494272232
1789820944763176200,3.98217626953125,-0.26278820633888245,-0.03987817466259003,-0.02432025410234928
1789820944773146000,3.99214599609375,-0.26392751932144165,-0.06780514866113663,0.023873906582593918
1789820944783116000,4.002115966796875,-0.2844602167606354,-0.06070942059159279,0.018074074760079384
1789820944793086000,4.0120859375,-0.23306360840797424,-0.12518002092838287,0.07367821782827377
1789820944803056000,4.02205615234375,-0.24405261874198914,-0.10860903561115265,0.05850352346897125
1789820944813026300,4.0320263671875,-0.31949517130851746,-0.06119278445839882,0.02112898789346218
1789820944822996200,4.041996337890625,-0.25996100902557373,-0.16062936186790466,0.10505291819572449
1789820944832966100,4.051966064453125,-0.2556386888027191,-0.12696167826652527,-0.029513150453567505
1789820944842936000,4.06193603515625,-0.2715095281600952,-0.10167896002531052,-0.08498546481132507
1789820944852906200,4.07190625,-0.26309528946876526,-0.12524500489234924,-0.01643436774611473
1789820944862876200,4.081876220703125,-0.242812380194664,-0.16976825892925262,0.09091232717037201
1789820944872846000,4.09184619140625,-0.19476282596588135,-0.1434738039970398,0.02250717394053936
1789820944882816000,4.10181591796875,-0.06419043987989426,-0.18760424852371216,-0.019275426864624023
1789820944892786000,4.111785888671875,-0.06498406082391739,-0.18239910900592804,0.04542474076151848
1789820944902756000,4.121756103515625,-0.01648549921810627,-0.21189893782138824,0.12934920191764832
1789820944912726300,4.131726318359375,0.01483620423823595,-0.12387534230947495,0.03256193920969963
1789820944922696200,4.1416962890625,0.10668037086725235,-0.2035752236843109,-0.012514992617070675
1789820944932666000,4.151666015625,0.10619620978832245,-0.20937159657478333,0.02219478413462639
1789820944942636000,4.161635986328125,0.15530836582183838,-0.2142217457294464,-0.016633039340376854
1789820944952606200,4.171606201171875,0.14075498282909393,-0.17632628977298737,-0.05107277259230614
1789820944962576100,4.181576171875,0.16465765237808228,-0.21519805490970612,-0.04296451061964035
1789820944972546000,4.191546142578125,0.19020749628543854,-0.20368921756744385,-0.02851846069097519
1789820944982516000,4.201515869140625,0.23830418288707733,-0.17565198242664337,-0.09248599410057068
1789820944992486000,4.21148583984375,0.23760482668876648,-0.17862699925899506,-0.0006143912323750556
1789820945002456000,4.2214560546875,0.2876853048801422,-0.20162978768348694,0.059064917266368866
1789820945012426200,4.23142626953125,0.3041849136352539,-0.1719328761100769,0.0014112089993432164
1789820945022396200,4.241396240234375,0.33915597200393677,-0.1606229692697525,-0.020791297778487206
1789820945032366000,4.251365966796875,0.2900741696357727,-0.16422222554683685,0.04397997632622719
1789820945042336300,4.261336181640625,0.36035579442977905,-0.2181546986103058,-0.002042910782620311
1789820945052306200,4.27130615234375,0.3124780058860779,-0.14032888412475586,-0.06477819383144379
1789820945062276000,4.281276123046875,0.29698294401168823,-0.1424652636051178,-0.02773149684071541
1789820945072246000,4.29124609375,0.34403833746910095,-0.1762770265340805,0.008754875510931015
1789820945082216000,4.3012158203125,0.27974963188171387,-0.05178649723529816,-0.06102367118000984
1789820945092186000,4.31118603515625,0.30406826734542847,-0.08183760941028595,-0.014284929260611534
1789820945102156300,4.32115625,0.3021012544631958,-0.09464208781719208,0.04555949568748474
1789820945112126200,4.331126220703125,0.3164338767528534,-0.09030698984861374,-0.02533731423318386
1789820945122096000,4.34109619140625,0.2879905104637146,-0.04021666198968887,-0.08073532581329346
1789820945132066000,4.351066162109375,0.2174532264471054,-0.043228961527347565,-0.02365366369485855
1789820945142036000,4.361035888671875,0.1801159679889679,-0.08803478628396988,0.045344047248363495
1789820945152006000,4.371005859375,0.15651051700115204,-0.10048399865627289,0.010830809362232685
1789820945161976000,4.38097607421875,0.18985408544540405,-0.0949169248342514,-0.028535237535834312
1789820945171946000,4.390946044921875,0.24151594936847687,-0.08063226193189621,-0.0032258869614452124
1789820945181916000,4.400916015625,0.14573056995868683,-0.063873790204525,0.06887174397706985
1789820945191885800,4.4108857421875,0.11586348712444305,-0.05252153053879738,-0.03231240063905716
1789820945201856000,4.42085595703125,0.18883410096168518,-0.08282191306352615,-0.08617962896823883
1789820945211826200,4.430826171875,0.1493127942085266,-0.06938812881708145,-0.02129223942756653
1789820945221796000,4.440796142578125,0.19131456315517426,-0.0476551353931427,-0.00006870955257909372
1789820945231766000,4.45076611328125,0.19235798716545105,0.009183111600577831,-0.037396375089883804
1789820945241736000,4.46073583984375,0.2139975130558014,-0.00430180411785841,0.039869118481874466
1789820945251705900,4.470705810546875,0.26801759004592896,-0.03173049911856651,0.08068206161260605
1789820945261676000,4.480676025390625,0.21473653614521027,0.015351791866123676,0.041784465312957764
1789820945271646000,4.49064599609375,0.23562131822109222,-0.012518455274403095,0.1223224475979805
1789820945281616000,4.500615966796875,0.2857012450695038,0.03003619611263275,-0.021344169974327087
1789820945291586000,4.5105859375,0.20575928688049316,0.04868711158633232,-0.021635521203279495
1789820945301556000,4.520555908203125,0.17175258696079254,0.04140442982316017,-0.05017528682947159
1789820945311526100,4.530526123046875,0.25657132267951965,-0.027790086343884468,-0.02473783679306507
1789820945321496000,4.54049609375,0.23294216394424438,0.04547613859176636,-0.10541164129972458
1789820945331466000,4.550466064453125,0.2634026110172272,0.06661977618932724,-0.12053760141134262
1789820945341436000,4.560435791015625,0.2878133952617645,-0.004169445019215345,0.049669284373521805
1789820945351406000,4.570406005859375,0.31445515155792236,0.04481940343976021,0.016927851364016533
1789820945361376000,4.5803759765625,0.27193644642829895,0.110207200050354,-0.020440293475985527
1789820945371346000,4.590345947265625,0.30431675910949707,0.06972741335630417,0.00842464342713356
1789820945381315800,4.60031591796875,0.29075807332992554,0.049788329750299454,0.0723346471786499
1789820945391286000,4.6102861328125,0.2539060413837433,0.057905375957489014,0.09722775220870972
1789820945401257000,4.620257080078125,0.21688251197338104,0.08135291188955307,0.06433238089084625
1789820945411227000,4.630226806640625,0.21046243607997894,0.14015044271945953,-0.06768956780433655
1789820945421196000,4.640196044921875,0.18297727406024933,0.10367366671562195,-0.0472806952893734
1789820945431166000,4.650166015625,0.18384680151939392,0.01948768086731434,0.05712081119418144
1789820945441135900,4.660135986328125,0.1790001094341278,0.07428621500730515,-0.06183993071317673
1789820945451106000,4.67010595703125,0.14696627855300903,0.1207842081785202,-0.08092813938856125
1789820945461076000,4.680075927734375,0.16649363934993744,0.08193081617355347,0.03003006987273693
1789820945471046000,4.6900458984375,0.0997614786028862,0.12581758201122284,0.0030221552588045597
1789820945481015800,4.700015869140625,0.06593693792819977,0.12184175103902817,-0.02792138047516346
1789820945490986000,4.709986083984375,0.005253085400909185,0.09698087722063065,0.004280765075236559
1789820945500956200,4.7199560546875,-0.01872255466878414,0.07330776751041412,0.036318328231573105
1789820945510926800,4.7299267578125,-0.04468730837106705,0.07816111296415329,0.03309616819024086
1789820945520897000,4.73989697265625,-0.09100021421909332,0.0839734598994255,0.024946628138422966
1789820945530866000,4.749865966796875,-0.09598538279533386,0.07967059314250946,-0.007188670802861452
1789820945540836000,4.759836181640625,-0.06738889217376709,0.051833637058734894,0.015399196185171604
1789820945550806000,4.769805908203125,-0.11598705500364304,0.05800524726510048,0.048042625188827515
1789820945560776000,4.77977587890625,-0.09897451847791672,0.04729108139872551,-0.015958193689584732
1789820945570745900,4.789745849609375,-0.11522752046585083,0.08226664364337921,-0.03123435191810131
1789820945580715800,4.7997158203125,-0.11705738306045532,0.060149356722831726,0.012960273772478104
1789820945590687000,4.80968701171875,-0.12312565743923187,0.09050486236810684,-0.037761759012937546
1789820945600656100,4.81965625,-0.06329800933599472,0.04294800013303757,-0.006336458958685398
1789820945610626000,4.8296259765625,-0.07165660709142685,0.038719166070222855,0.03629808500409126
1789820945620596000,4.839595947265625,-0.11139363795518875,0.10743218660354614,-0.05883961543440819
1789820945630566000,4.84956591796875,-0.0737844780087471,0.05856584012508392,0.04211496189236641
1789820945640536000,4.8595361328125,-0.0016253271605819464,-0.015164571814239025,0.10541617125272751
1789820945650506000,4.869506103515625,0.002633600030094385,-0.006054430268704891,0.07341189682483673
1789820945660476000,4.879475830078125,-0.019290341064333916,0.12253417074680328,-0.12253816425800323
1789820945670445800,4.88944580078125,-0.040168192237615585,0.01110671367496252,0.045469481498003006
1789820945680416000,4.899416015625,-0.10878027230501175,0.010974354110658169,0.11132039874792099
1789820945690386200,4.90938623046875,-0.016833042725920677,0.05716848000884056,-0.10856881737709045
1789820945700356000,4.919356201171875,-0.03329217806458473,0.08865716308355331,-0.1549925059080124
1789820945710326000,4.929325927734375,-0.017467407509684563,0.043051596730947495,-0.05792748183012009
1789820945720296000,4.9392958984375,-0.061277471482753754,0.0450281947851181,0.08342032134532928
1789820945730266000,4.94926611328125,0.03861530125141144,0.08224533498287201,-0.11061865836381912
1789820945740236000,4.959236083984375,-0.03641446679830551,0.12148994952440262,-0.07901225984096527
1789820945750206000,4.9692060546875,-0.02112366072833538,0.007364172954112291,0.13508911430835724
1789820945760175900,4.97917578125,0.05766675993800163,0.06594705581665039,0.018160894513130188
1789820945770145800,4.989145751953125,0.023417441174387932,0.1401403248310089,-0.04279246926307678
1789820945780116000,4.999115966796875,0.008037952706217766,0.08611224591732025,0.09255257248878479
1789820945790086100,5.009086181640625,0.08977089822292328,-0.0049529471434652805,0.13612987101078033
1789820945800056000,5.01905615234375,0.03573429584503174,0.1158917173743248,-0.010808705352246761
1789820945810026000,5.02902587890625,0.021876536309719086,0.13595011830329895,-0.048323854804039
1789820945819996000,5.038995849609375,0.029401298612356186,0.03140079975128174,0.06914311647415161
1789820945829966000,5.048966064453125,0.03380323573946953,0.10229121893644333,-0.10213115811347961
1789820945839936000,5.05893603515625,-0.03200853243470192,0.17318004369735718,-0.20985202491283417
1789820945849906000,5.068906005859375,-0.024400414898991585,0.033959031105041504,0.017796307802200317
1789820945859875800,5.078875732421875,-0.0016908409306779504,0.07332640886306763,0.056235309690237045
1789820945869846000,5.088845947265625,0.0491129495203495,0.09887891262769699,-0.04651237279176712
1789820945879816000,5.09881591796875,0.0072898706421256065,0.1081714779138565,-0.01227344386279583
1789820945889786000,5.1087861328125,0.0192506592720747,0.02942047268152237,0.09832070767879486
1789820945899756000,5.118756103515625,-0.0000066579027588886674,0.05723932012915611,0.07094847410917282
1789820945909726000,5.128725830078125,-0.021933527663350105,0.1706540286540985,-0.0847279354929924
1789820945919696100,5.138696044921875,0.02841033600270748,0.06489723920822144,-0.035535357892513275
1789820945929666000,5.148666015625,-0.0015544871566817164,0.10267284512519836,0.11619318276643753
1789820945939636000,5.158635986328125,0.0804828554391861,0.13444222509860992,-0.04325692728161812
1789820945949606000,5.16860595703125,0.02985057421028614,0.20605675876140594,-0.06199519336223602
1789820945959575800,5.178575927734375,0.06936229765415192,0.09396804124116898,0.005255482159554958
1789820945969546000,5.1885458984375,0.03226419538259506,0.15773449838161469,-0.03626479580998421
1789820945979516000,5.198515869140625,0.05191299691796303,0.14476624131202698,-0.08757591992616653
1789820945989486000,5.208486083984375,-0.00794474221765995,0.19633808732032776,-0.09254937618970871
1789820945999456000,5.2184560546875,-0.005592371802777052,0.15037165582180023,-0.06446980684995651
1789820946009426000,5.228426025390625,-0.021328724920749664,0.1855165958404541,0.03482615575194359
1789820946019396000,5.23839599609375,0.0024381240364164114,0.1400364637374878,0.04166116192936897
1789820946029366000,5.248365966796875,-0.07921332865953445,0.2184782773256302,-0.0664658397436142
1789820946039336000,5.2583359375,-0.03298378363251686,0.08644487708806992,0.08359236270189285
1789820946049305900,5.268305908203125,-0.10704256594181061,0.10420522838830948,0.12226039916276932
1789820946059276000,5.278276123046875,-0.16003334522247314,0.2195376753807068,-0.10247870534658432
1789820946069246000,5.288245849609375,-0.19045357406139374,0.1675402671098709,-0.02321690507233143
1789820946079216000,5.298216064453125,-0.1912120282649994,0.09633905440568924,0.06884058564901352
1789820946089186000,5.30818603515625,-0.1498667299747467,0.11719533056020737,-0.06498139351606369
1789820946099156000,5.318156005859375,-0.21914619207382202,0.17177441716194153,-0.10789983719587326
1789820946109126100,5.328126220703125,-0.17824271321296692,0.1256343573331833,-0.016400277614593506
1789820946119096000,5.338095947265625,-0.1984531730413437,0.14544720947742462,0.015080682002007961
1789820946129065200,5.348065185546875,-0.23701894283294678,0.15625351667404175,0.02304033748805523
1789820946139035400,5.358035400390625,-0.1650238335132599,0.10038626194000244,0.10415250062942505
1789820946149005300,5.36800537109375,-0.15182708203792572,0.09056185930967331,0.0915493592619896
1789820946158975500,5.3779755859375,-0.2261231541633606,0.17041274905204773,0.06022632122039795
1789820946168945400,5.3879453125,-0.14853301644325256,0.09478297084569931,0.08410635590553284
1789820946178915300,5.397915283203125,-0.1266394406557083,0.14992132782936096,-0.02652961201965809
1789820946188885500,5.407885498046875,-0.12478507310152054,0.11278221011161804,-0.005496231839060783
1789820946198855400,5.41785546875,-0.08364855498075485,0.07845485955476761,-0.03417022153735161
1789820946208825300,5.427825439453125,-0.11555135995149612,0.03837854787707329,0.08316972106695175
1789820946218795300,5.437795166015625,-0.01756780780851841,0.12192030996084213,-0.08704674988985062
1789820946228765200,5.44776513671875,-0.006695719435811043,0.1820954978466034,-0.15162627398967743
1789820946238735400,5.4577353515625,-0.030596258118748665,0.09976866841316223,0.016230901703238487
1789820946248705300,5.467705322265625,-0.0684986338019371,0.08229034394025803,0.09378481656312943
1789820946258675500,5.477675537109375,0.005023787263780832,0.07850199937820435,-0.014523815363645554
1789820946268645400,5.487645263671875,-0.09232460707426071,0.06125616654753685,-0.08690080791711807
1789820946278615600,5.497615478515625,-0.11749467253684998,-0.03127430006861687,0.09353607892990112
1789820946288585500,5.50758544921875,-0.03470125421881676,0.0600055456161499,-0.08111508935689926
1789820946298555400,5.517555419921875,-0.08305973559617996,0.07636081427335739,-0.07874833792448044
1789820946308525300,5.527525390625,-0.15527187287807465,0.12912122905254364,-0.07360976934432983
1789820946318495200,5.5374951171875,-0.014084394089877605,0.048459410667419434,-0.004523112904280424
1789820946328465400,5.54746533203125,-0.03506371006369591,0.008155398070812225,0.07045578956604004
1789820946338435300,5.557435302734375,-0.16951100528240204,0.06027878820896149,0.03151771053671837
1789820946348404500,5.567404541015625,-0.13955256342887878,0.00219524372369051,0.030131803825497627
1789820946358374400,5.57737451171875,-0.21677811443805695,-0.012958675622940063,0.03574468195438385
1789820946368344300,5.58734423828125,-0.2512394189834595,0.017892181873321533,-0.030437268316745758
1789820946378314200,5.597314208984375,-0.2533222734928131,0.013423663564026356,-0.05655089393258095
1789820946388284400,5.607284423828125,-0.22345519065856934,-0.041783932596445084,0.051893025636672974
1789820946398254300,5.61725439453125,-0.21523961424827576,-0.024865934625267982,-0.004065315239131451
1789820946408224300,5.627224365234375,-0.2068687528371811,-0.03039279393851757,-0.032577116042375565
1789820946418194200,5.637194091796875,-0.21718424558639526,-0.07275542616844177,-0.0028839372098445892
1789820946428164600,5.64716455078125,-0.24097293615341187,-0.09549669176340103,0.008192149922251701
1789820946438134500,5.657134521484375,-0.19970831274986267,-0.11604510992765427,-0.06846454739570618
1789820946448104400,5.6671044921875,-0.2378423810005188,-0.07400871068239212,-0.06907227635383606
1789820946458074400,5.677074462890625,-0.2055014967918396,-0.09027130901813507,-0.022543923929333687
1789820946468044300,5.687044189453125,-0.20131100714206696,-0.10200945287942886,0.018217353150248528
1789820946478014500,5.697014404296875,-0.27362993359565735,-0.05137823522090912,0.061940599232912064
1789820946487984400,5.706984375,-0.09658752381801605,-0.11289006471633911,-0.017672203481197357
1789820946497954300,5.716954345703125,-0.12472248822450638,-0.12329263985157013,0.011240404099225998
1789820946507924200,5.72692431640625,-0.179452583193779,-0.07648518681526184,-0.011158112436532974
1789820946517894100,5.73689404296875,-0.09344340115785599,-0.1018454059958458,-0.013777065090835094
1789820946527864600,5.746864501953125,-0.1416250467300415,-0.09479628503322601,0.00026365293888375163
1789820946537834500,5.75683447265625,-0.137516051530838,-0.11126580089330673,0.05181046575307846
1789820946547804400,5.766804443359375,-0.07085765898227692,-0.09837610274553299,0.007397995330393314
1789820946557774300,5.7767744140625,-0.1504390388727188,-0.0484977625310421,-0.014813567511737347
1789820946567744300,5.786744140625,-0.04261723533272743,-0.12246625870466232,0.03206845372915268
1789820946577714400,5.79671435546875,-0.002234392100945115,-0.10922741889953613,0.01908261515200138
1789820946587684400,5.806684326171875,-0.10654375702142715,-0.05169009044766426,0.02954910323023796
1789820946597654300,5.816654296875,-0.054551124572753906,-0.11548105627298355,0.034391529858112335
1789820946607624200,5.826624267578125,-0.111384317278862,-0.06090303137898445,0.048519864678382874
1789820946617594400,5.836594482421875,-0.06149478629231453,-0.08906862139701843,0.017112141475081444
1789820946627564500,5.846564453125,-0.07479541003704071,-0.10825803130865097,-0.014901451766490936
1789820946637534500,5.856534423828125,-0.11720332503318787,-0.08662916719913483,-0.034205906093120575
1789820946647504400,5.86650439453125,-0.05305123329162598,-0.14317366480827332,0.004913798533380032
1789820946657473300,5.876473388671875,-0.10468433797359467,-0.07772409170866013,-0.026403112336993217
1789820946667443200,5.886443115234375,-0.06396806240081787,-0.10441482067108154,-0.04104650393128395
1789820946677413400,5.896413330078125,-0.08569173514842987,-0.062425825744867325,0.03164048492908478
1789820946687383300,5.90638330078125,-0.012567723169922829,-0.1453542709350586,0.06384076178073883
1789820946697353500,5.916353515625,-0.07209629565477371,-0.11992906779050827,0.07441617548465729
1789820946707323400,5.926323486328125,-0.04168592765927315,-0.11483070999383926,0.023622505366802216
1789820946717293300,5.936293212890625,-0.009372995235025883,-0.13121607899665833,0.021164141595363617
1789820946727263500,5.946263427734375,-0.02093750610947609,-0.1316554993391037,0.04436373710632324
1789820946737233400,5.9562333984375,-0.03313185274600983,-0.0862928107380867,-0.06156988814473152
1789820946747203300,5.966203369140625,-0.055030763149261475,-0.04717523604631424,-0.09580082446336746
1789820946757173200,5.97617333984375,0.018040519207715988,-0.13423369824886322,-0.03375956043601036
1789820946767143200,5.98614306640625,-0.05545580014586449,-0.07686655223369598,-0.03674762696027756
1789820946777113300,5.99611328125,0.03302612528204918,-0.14402109384536743,0.016147278249263763
1789820946787083300,6.006083251953125,-0.0013038836186751723,-0.09591347724199295,0.02292582206428051
1789820946797053400,6.016053466796875,-0.02400227263569832,-0.10944100469350815,0.011896340176463127
1789820946807023400,6.0260234375,-0.0008050735923461616,-0.12178688496351242,0.0007709851488471031
1789820946816993500,6.03599365234375,0.002404301892966032,-0.06165936961770058,-0.05047622323036194
1789820946826963500,6.04596337890625,0.08176250755786896,-0.10895124822854996,-0.12302632629871368
1789820946836933400,6.055933349609375,-0.011654791422188282,-0.01104226429015398,-0.10473759472370148
1789820946846903300,6.0659033203125,0.060147225856781006,-0.0854102373123169,-0.04049309715628624
1789820946856873200,6.075873291015625,0.015986690297722816,-0.0008748483960516751,-0.0759192630648613
1789820946866843400,6.085843505859375,0.0833236500620842,-0.05408081039786339,-0.06910236924886703
1789820946876813300,6.095813232421875,0.0925975814461708,-0.08729922026395798,-0.042153045535087585
1789820946886783500,6.105783447265625,0.049307629466056824,-0.1114913746714592,0.008926649577915668
1789820946896753400,6.11575341796875,0.03701447695493698,-0.0844978392124176,-0.012145079672336578
1789820946906723300,6.125723388671875,0.11162639409303665,-0.09268493205308914,-0.022972960025072098
1789820946916693500,6.135693603515625,0.07245022803544998,-0.07446091622114182,0.0013741911388933659
1789820946926663400,6.145663330078125,0.04597121849656105,-0.044135235249996185,-0.044552020728588104
1789820946936633300,6.15563330078125,0.11363175511360168,-0.08421021699905396,-0.04344175010919571
1789820946946603300,6.165603271484375,0.13686729967594147,-0.07209203392267227,0.003239202778786421
1789820946956573200,6.1755732421875,0.19508613646030426,-0.07242706418037415,0.03566425293684006
1789820946966543400,6.18554345703125,0.20313288271427155,-0.08782359212636948,0.05609362944960594
1789820946976513300,6.19551318359375,0.18667533993721008,-0.03856310620903969,0.08374496549367905
1789820946986483500,6.2054833984375,0.22459422051906586,-0.06779608875513077,0.02641003578901291
1789820946996453400,6.215453369140625,0.17016826570034027,-0.05145173892378807,0.007172158919274807
1789820947006423600,6.225423583984375,0.23018872737884521,-0.1088085025548935,0.026210298761725426
1789820947016393500,6.2353935546875,0.1661657989025116,-0.041416946798563004,0.08109725266695023
1789820947026363400,6.24536328125,0.24578367173671722,-0.02094016969203949,-0.007126619108021259
1789820947036332300,6.255332275390625,0.26962536573410034,0.004393683280795813,-0.039027292281389236
1789820947046302200,6.26530224609375,0.27433276176452637,0.034634411334991455,-0.0017536915838718414
1789820947056272400,6.2752724609375,0.28989121317863464,0.04225557669997215,-0.004740959499031305
1789820947066242600,6.28524267578125,0.2186276763677597,0.09174403548240662,-0.03507329896092415
1789820947076212500,6.29521240234375,0.21045604348182678,0.00233825552277267,0.10900451242923737
1789820947086182400,6.305182373046875,0.14265595376491547,0.07402948290109634,0.03851889818906784
1789820947096152300,6.31515234375,0.10501296818256378,0.08507787436246872,0.02363954856991768
1789820947106122200,6.325122314453125,0.1017141118645668,0.060612745583057404,-0.044203415513038635
1789820947116092400,6.335092529296875,0.05800018459558487,0.01709403283894062,0.0504184328019619
1789820947126062300,6.345062255859375,0.019231485202908516,0.09214963763952255,-0.03081676922738552
1789820947136035300,6.355035400390625,0.0047026099637150764,0.10153941065073013,-0.04716591536998749
1789820947146005200,6.365005126953125,-0.04688654839992523,0.08603181689977646,0.045703038573265076
1789820947155975400,6.374975341796875,-0.06745387613773346,0.08703263849020004,0.01901363767683506
1789820947165945300,6.3849453125,-0.08901029825210571,0.08302777260541916,-0.011267834343016148
1789820947175915300,6.394915283203125,-0.06696625053882599,-0.016038887202739716,0.052551623433828354
1789820947185885200,6.40488525390625,-0.09139915555715561,0.017948906868696213,-0.03007587604224682
1789820947195855000,6.414855224609375,-0.1310746669769287,0.05859087407588959,-0.09630363434553146
1789820947205825300,6.4248251953125,-0.10997949540615082,0.048714008182287216,-0.08211750537157059
1789820947215795200,6.434795166015625,-0.13833843171596527,0.05145546793937683,-0.07306995242834091
1789820947225765000,6.44476513671875,-0.1851232498884201,0.083066925406456,-0.06548953056335449
1789820947235735300,6.4547353515625,-0.09740884602069855,0.0018959043081849813,-0.0450015626847744
1789820947245705200,6.464705322265625,-0.08033878356218338,0.004791293293237686,-0.0856935977935791
1789820947255675400,6.47467529296875,-0.14261414110660553,-0.005879460833966732,0.0008708536624908447
1789820947265645300,6.484645263671875,-0.1660536825656891,-0.03038773313164711,0.05890858918428421
1789820947275615200,6.494615234375,-0.17116722464561462,-0.03672712296247482,-0.017038637772202492
1789820947285585200,6.504585205078125,-0.1801074594259262,-0.010242783464491367,-0.05064879730343819
1789820947295555300,6.514555419921875,-0.1263587325811386,-0.05083734914660454,-0.04283108562231064
1789820947305525200,6.524525146484375,-0.1086987853050232,-0.09182632714509964,0.036791570484638214
1789820947315495200,6.5344951171875,-0.10919999331235886,-0.07433761656284332,0.026734674349427223
1789820947325465000,6.544465087890625,-0.06296724826097488,-0.08390821516513824,0.001812014845199883
1789820947335435300,6.554435302734375,-0.025225196033716202,-0.07489820569753647,0.0030477214604616165
1789820947345405400,6.564405517578125,-0.008740494959056377,-0.04627801477909088,0.004482100252062082
1789820947355375400,6.574375244140625,0.020802216604351997,-0.05721881613135338,-0.027585288509726524
1789820947365345300,6.58434521484375,0.04207581281661987,-0.08669601380825043,0.015307317487895489
1789820947375315200,6.594315185546875,0.04707483574748039,-0.12554354965686798,0.04132666811347008
1789820947385285000,6.60428515625,0.038783881813287735,-0.11671862751245499,-0.02257321961224079
1789820947395255300,6.61425537109375,0.03736814484000206,-0.0889383926987648,-0.06775614619255066
1789820947405225200,6.62422509765625,0.04483405128121376,-0.09671296179294586,-0.003194994293153286
1789820947415195100,6.634195068359375,0.026431074365973473,-0.08501076698303223,0.024703215807676315
1789820947425165000,6.6441650390625,0.08665686100721359,-0.07635096460580826,-0.03069772571325302
1789820947435135200,6.65413525390625,0.05564888194203377,-0.0890345349907875,0.01926530711352825
1789820947445104000,6.664104248046875,0.02870568074285984,-0.04446866363286972,0.042337603867053986
1789820947455074300,6.67407421875,0.10672485083341599,-0.06330866366624832,-0.031250596046447754
1789820947465044200,6.684044189453125,0.0614822693169117,-0.027029220014810562,-0.03303172066807747
1789820947475014100,6.69401416015625,0.048703357577323914,-0.030644461512565613,-0.047393880784511566
1789820947484984000,6.703984130859375,0.0702962651848793,-0.06983660906553268,-0.02678367681801319
1789820947494954200,6.713954345703125,0.029735524207353592,-0.05967531353235245,0.006447246763855219
1789820947504924400,6.72392431640625,0.047451671212911606,-0.05662839114665985,0.04856487363576889
1789820947514894300,6.733894287109375,0.07796510308980942,-0.05397322028875351,0.08337212353944778
1789820947524864300,6.7438642578125,0.04278075322508812,0.0026200178544968367,0.06126229092478752
1789820947534834200,6.753834228515625,0.11305224895477295,-0.04513924941420555,0.0422489196062088
1789820947544804400,6.763804443359375,0.17066068947315216,-0.047018907964229584,-0.01492328941822052
1789820947554774300,6.773774169921875,0.0687742680311203,0.04081001505255699,-0.04670625180006027
1789820947564744200,6.783744140625,0.08807739615440369,0.00851732213050127,-0.115027517080307
1789820947574714000,6.793714111328125,0.044998899102211,0.014820757322013378,-0.06061061471700668
1789820947584684000,6.80368408203125,0.05293192341923714,0.06058371812105179,-0.08275160193443298
1789820947594654200,6.813654296875,0.07694751024246216,0.038787610828876495,-0.05020458251237869
1789820947604624400,6.823624267578125,0.03981399163603783,0.04900136590003967,-0.05826703459024429
1789820947614594300,6.83359423828125,0.059188488870859146,0.06181170046329498,0.007494135294109583
1789820947624564200,6.843564208984375,0.10437807440757751,0.0007337008719332516,0.04641170799732208
1789820947634534400,6.853534423828125,0.012944826856255531,0.07118230313062668,0.034450650215148926
1789820947644504300,6.86350439453125,0.03243277594447136,0.03141438215970993,0.02839648723602295
1789820947654474200,6.87347412109375,0.03797880560159683,0.029923010617494583,0.02689020335674286
1789820947664444200,6.883444091796875,-0.023251526057720184,0.07779759168624878,0.0414089597761631
1789820947674414000,6.8934140625,0.01691293716430664,0.08970565348863602,-0.09671162813901901
1789820947684384300,6.90338427734375,0.057554639875888824,0.024659274145960808,-0.02250264585018158
1789820947694354200,6.913354248046875,-0.01278663519769907,0.08108792454004288,-0.030405841767787933
1789820947704324400,6.923324462890625,-0.024946628138422966,0.11100561171770096,-0.047206927090883255
1789820947714294300,6.933294189453125,-0.042145323008298874,0.12554647028446198,0.015206117182970047
1789820947724264200,6.94326416015625,0.04270884767174721,0.04616563022136688,0.03664163500070572
1789820947734233000,6.953233154296875,0.04850947856903076,0.09830686450004578,0.006076801102608442
1789820947744203300,6.963203369140625,0.018728947266936302,0.10636638849973679,-0.02160169929265976
1789820947754173200,6.973173095703125,0.016625314950942993,0.11353029310703278,-0.04927300661802292
1789820947764143000,6.98314306640625,-0.018750252202153206,0.05946093052625656,0.04771532490849495
1789820947774113300,6.99311328125,0.009213205426931381,0.09838169813156128,-0.04951588809490204
1789820947784083200,7.003083251953125,-0.034745197743177414,0.10203022509813309,-0.051890626549720764
1789820947794053400,7.013053466796875,-0.01859419047832489,0.04433311149477959,0.02316603995859623
1789820947804023300,7.023023193359375,0.06155577301979065,0.009289371781051159,0.015908658504486084
1789820947813993200,7.0329931640625,-0.020136160776019096,0.05029059946537018,0.004293015692383051
1789820947823963100,7.042963134765625,-0.07666920870542526,0.05396522954106331,0.012208462692797184
1789820947833933300,7.052933349609375,-0.03921877592802048,0.0675116628408432,0.016106797382235527
1789820947843903200,7.0629033203125,-0.024215057492256165,0.08256411552429199,-0.09554942697286606
1789820947853873200,7.072873046875,0.01384071446955204,0.013794375583529472,-0.02376285381615162
1789820947863843300,7.08284326171875,0.037048034369945526,0.024381771683692932,0.04289580136537552
1789820947873813200,7.092813232421875,0.09168118238449097,0.1193852499127388,-0.06791433691978455
1789820947883783400,7.102783447265625,0.07461245357990265,0.16279610991477966,-0.05995148420333862
1789820947893753300,7.11275341796875,0.0967012420296669,0.029863091185688972,0.16712693870067596
1789820947903723300,7.12272314453125,0.12279809266328812,0.056708287447690964,0.13558898866176605
1789820947913693200,7.132693115234375,0.1179942786693573,0.10320521146059036,-0.017305221408605576
1789820947923663000,7.1426630859375,0.013711817562580109,0.10304143279790878,-0.012175173498690128
1789820947933633300,7.15263330078125,0.031370438635349274,0.06580138206481934,-0.043173834681510925
1789820947943603200,7.162603271484375,-0.016704678535461426,0.1009465903043747,-0.07487130910158157
1789820947953573000,7.172572998046875,-0.07005365192890167,0.1336747109889984,-0.09020792692899704
1789820947963542300,7.182542236328125,0.023332485929131508,0.12594275176525116,-0.15533792972564697
1789820947973512200,7.19251220703125,-0.029949376359581947,0.08160005509853363,0.012458267621695995
1789820947983482000,7.202482177734375,-0.0734419897198677,0.060684919357299805,0.07294877618551254
1789820947993452300,7.212452392578125,-0.08896902203559875,0.06974632292985916,0.02334686741232872
1789820948003422200,7.222422119140625,-0.14978763461112976,0.12034451961517334,0.00612180819734931
1789820948013392100,7.23239208984375,-0.18410351872444153,0.06569698452949524,0.07418421655893326
1789820948023362000,7.242362060546875,-0.2478284388780594,0.0549364872276783,0.08490850031375885
1789820948033332200,7.252332275390625,-0.2615341246128082,0.09638965129852295,-0.0025443839840590954
1789820948043302400,7.262302490234375,-0.2917519509792328,0.08322591334581375,-0.008491489104926586
1789820948053272300,7.272272216796875,-0.2766560912132263,0.031800005584955215,0.038907717913389206
1789820948063242200,7.2822421875,-0.2554328441619873,0.03922197222709656,-0.04141268879175186
1789820948073212200,7.292212158203125,-0.3061191737651825,0.07535573840141296,-0.06827892363071442
1789820948083182300,7.302182373046875,-0.2630694508552551,0.028236964717507362,-0.04711584746837616
1789820948093152300,7.31215234375,-0.3036712110042572,-0.020315125584602356,-0.005997705273330212
1789820948103122200,7.3221220703125,-0.24840182065963745,-0.06297709792852402,0.08088366687297821
1789820948113092000,7.332092041015625,-0.17579872906208038,-0.05175746977329254,-0.013068397529423237
1789820948123062000,7.34206201171875,-0.2648164927959442,0.0007901599165052176,-0.028739502653479576
1789820948133030100,7.352030029296875,-0.24549683928489685,-0.029745645821094513,-0.008560198359191418
1789820948143000000,7.362,-0.18762502074241638,-0.10572083294391632,-0.019466109573841095
1789820948152970000,7.371969970703125,-0.22274599969387054,-0.05548270046710968,-0.01446948666125536
1789820948162940000,7.38193994140625,-0.17756307125091553,-0.08405708521604538,-0.04964425042271614
1789820948172910300,7.391910400390625,-0.2140936553478241,-0.07615655660629272,-0.020254937931895256
1789820948182879200,7.401879150390625,-0.19380009174346924,-0.07530780136585236,-0.027087809517979622
1789820948192849200,7.41184912109375,-0.19104371964931488,-0.1421068012714386,0.039802275598049164
1789820948202819000,7.421819091796875,-0.24259985983371735,-0.12526604533195496,0.04424655809998512
1789820948212789000,7.4317890625,-0.22818151116371155,-0.15380127727985382,0.022941801697015762
1789820948222759000,7.441759033203125,-0.1873674988746643,-0.2067691534757614,0.04917606711387634
1789820948232729000,7.45172900390625,-0.17856362462043762,-0.17192143201828003,0.00037204360705800354
1789820948242699300,7.46169921875,-0.2056727409362793,-0.1310027539730072,-0.05217532068490982
1789820948252669200,7.471669189453125,-0.20171260833740234,-0.18706949055194855,0.07648225873708725
1789820948262639000,7.48163916015625,-0.10402040928602219,-0.21645188331604004,0.07564841955900192
1789820948272609300,7.491609375,-0.08048472553491592,-0.14003780484199524,-0.06187055632472038
1789820948282579200,7.5015791015625,-0.08949153125286102,-0.197029709815979,0.011522432789206505
1789820948292549000,7.511549072265625,-0.02461027167737484,-0.2370293289422989,0.05715383216738701
1789820948302519000,7.52151904296875,-0.029574936255812645,-0.21621859073638916,0.040650222450494766
1789820948312489000,7.531489013671875,-0.04827592149376869,-0.13385073840618134,-0.05946918576955795
1789820948322459100,7.541459228515625,0.01942482963204384,-0.16743266582489014,-0.08286558836698532
1789820948332429000,7.551428955078125,-0.02486034296452999,-0.20144550502300262,0.02274765633046627
1789820948342399200,7.561399169921875,-0.008642490021884441,-0.2235579937696457,0.10582363605499268
1789820948352369200,7.571369140625,0.037457361817359924,-0.1945204734802246,0.0004868258547503501
1789820948362338000,7.581338134765625,0.05068181827664375,-0.21724389493465424,-0.014973889105021954
1789820948372308000,7.591307861328125,0.11373055726289749,-0.25914233922958374,-0.008769256994128227
1789820948382278100,7.601278076171875,0.10187523066997528,-0.22144849598407745,0.04038550704717636
1789820948392248000,7.611248046875,0.17999958992004395,-0.2316337674856186,-0.010803379118442535
1789820948402218000,7.621218017578125,0.18721649050712585,-0.1635814756155014,-0.056893110275268555
1789820948412188200,7.631188232421875,0.21197190880775452,-0.14663444459438324,-0.037580929696559906
1789820948422158000,7.641157958984375,0.2643405795097351,-0.19280274212360382,0.05871311575174332
1789820948432128300,7.651128173828125,0.29484814405441284,-0.20173604786396027,0.05053374916315079
1789820948442098200,7.66109814453125,0.2681736648082733,-0.10970785468816757,0.02117319591343403
1789820948452068000,7.671068115234375,0.36768239736557007,-0.14044925570487976,-0.010945325717329979
1789820948462038000,7.6810380859375,0.35104990005493164,-0.12071230262517929,0.042751725763082504
1789820948472008200,7.69100830078125,0.3510826528072357,-0.12999555468559265,0.01780616119503975
1789820948481978000,7.70097802734375,0.3754122257232666,-0.121629498898983,0.002549444092437625
1789820948491948000,7.710947998046875,0.34455737471580505,-0.08794184029102325,-0.058767709881067276
1789820948501918000,7.72091796875,0.3546164035797119,-0.09315098077058792,-0.03277259320020676
1789820948511888100,7.73088818359375,0.37750548124313354,-0.0696358010172844,-0.055642757564783096
1789820948521857000,7.74085693359375,0.30183175206184387,-0.03633350506424904,-0.005273591727018356
1789820948531827200,7.7508271484375,0.3655971586704254,0.013795973733067513,-0.07577412575483322
1789820948541797000,7.760797119140625,0.37724769115448,0.011482485570013523,-0.03699556738138199
1789820948551767000,7.77076708984375,0.33616575598716736,0.01727725751698017,0.022717297077178955
1789820948561737000,7.780737060546875,0.2742169201374054,0.05636473745107651,-0.0054909056052565575
1789820948571707100,7.79070703125,0.25201573967933655,0.020788636058568954,0.039746079593896866
1789820948581677300,7.80067724609375,0.24634213745594025,-0.011979697272181511,0.05272526293992996
1789820948591647200,7.810647216796875,0.24019156396389008,0.04915503039956093,-0.07290270179510117
1789820948601617200,7.8206171875,0.2150726318359375,0.07613364607095718,-0.04295412451028824
1789820948611587000,7.830587158203125,0.19857008755207062,0.15323695540428162,0.007897071540355682
1789820948621557000,7.840556884765625,0.25023433566093445,0.15080416202545166,0.0033931334037333727
1789820948631527200,7.850527099609375,0.3008471727371216,0.15446308255195618,-0.06678248941898346
1789820948641497000,7.8604970703125,0.2319653183221817,0.1470288634300232,-0.017596837133169174
1789820948651467000,7.870467041015625,0.1631159484386444,0.12794305384159088,0.004831773228943348
1789820948661437000,7.88043701171875,0.1476062387228012,0.050644002854824066,0.027123229578137398
1789820948671407000,7.890406982421875,0.09563517570495605,0.1122991070151329,-0.0035518580116331577
1789820948681377300,7.900377197265625,0.08985638618469238,0.18856991827487946,-0.10551470518112183
1789820948691346200,7.91034619140625,0.07662739604711533,0.16475139558315277,-0.08457054197788239
1789820948701316000,7.920316162109375,0.05355110764503479,0.11646109819412231,0.04903758317232132
1789820948711286000,7.9302861328125,0.08151403069496155,0.12257198989391327,-0.00646588858217001
1789820948721256000,7.940255859375,0.04904823750257492,0.12210992723703384,0.0007992146420292556
1789820948731226000,7.95022607421875,-0.0032551817130297422,0.05979675427079201,0.08295240998268127
1789820948741196000,7.960196044921875,-0.020306337624788284,0.09923151135444641,0.09132645279169083
1789820948751166200,7.970166259765625,0.0059537626802921295,0.14085964858531952,-0.007211041171103716
1789820948761136000,7.98013623046875,-0.030834611505270004,0.1504931002855301,0.043001797050237656
1789820948771106000,7.99010595703125,-0.04284067451953888,0.1481551080942154,0.040046487003564835
1789820948781076200,8.000076171875,-0.12160925567150116,0.19024184346199036,0.01768738403916359
1789820948791046100,8.010046142578124,-0.09234697371721268,0.1899406462907791,-0.052983589470386505
1789820948801016000,8.02001611328125,-0.10461030155420303,0.15317170321941376,-0.04788736626505852
1789820948810986000,8.029986083984374,-0.17520830035209656,0.1466168761253357,0.05156359076499939
1789820948820956200,8.0399560546875,-0.17626744508743286,0.16756689548492432,0.016351010650396347
1789820948830925300,8.04992529296875,-0.18426784873008728,0.17635506391525269,0.02647421695291996
1789820948840895200,8.059895263671875,-0.1525312215089798,0.1464592069387436,-0.014945393428206444
1789820948850865200,8.069865234375,-0.19524379074573517,0.1170043870806694,0.07829240709543228
1789820948860835000,8.0798349609375,-0.1558295488357544,0.1223221868276596,-0.05432102829217911
1789820948870805000,8.089804931640625,-0.2492404580116272,0.15070348978042603,0.016152072697877884
1789820948880775200,8.099775146484374,-0.14913249015808105,0.08303762972354889,0.006539125461131334
1789820948890745000,8.1097451171875,-0.12896651029586792,0.1583627462387085,-0.13510455191135406
1789820948900715000,8.119715087890626,-0.16265469789505005,0.11830906569957733,-0.08472634106874466
1789820948910685200,8.129685302734375,-0.20204976201057434,0.07657413929700851,0.10775575786828995
1789820948920655000,8.139655029296875,-0.16141551733016968,0.10082807391881943,-0.06271930783987045
1789820948930625300,8.149625244140625,-0.2275221049785614,0.08537641912698746,-0.022553246468305588
1789820948940595200,8.15959521484375,-0.18253253400325775,0.028360268101096153,-0.00845473725348711
1789820948950565000,8.169565185546874,-0.1573115885257721,0.021405955776572227,-0.07712753862142563
1789820948960535000,8.17953515625,-0.23191818594932556,0.046304915100336075,-0.054247792810201645
1789820948970504000,8.18950390625,-0.20874202251434326,0.031680166721343994,-0.013128585182130337
1789820948980474000,8.19947412109375,-0.12203189730644226,0.032523322850465775,-0.06300506740808487
1789820948990444300,8.2094443359375,-0.19886302947998047,0.05494074523448944,-0.027454527094960213
1789820949000414200,8.219414306640624,-0.10038066655397415,-0.046355780214071274,0.02478630654513836
1789820949010384100,8.229384033203125,-0.09499495476484299,-0.03549860417842865,0.039856068789958954
1789820949020354000,8.23935400390625,-0.1416167914867401,0.005543902516365051,-0.02196868136525154
1789820949030324200,8.24932421875,-0.17133553326129913,0.03596918657422066,-0.04345906153321266
1789820949040294100,8.259294189453126,-0.11053929477930069,-0.048949167132377625,-0.06736492365598679
1789820949050264000,8.26926416015625,-0.12683038413524628,-0.057428937405347824,0.03617051988840103
1789820949060234000,8.27923388671875,-0.08241498470306396,-0.03296034783124924,-0.07810811698436737
1789820949070204000,8.289203857421874,-0.15520529448986053,-0.05323552340269089,-0.0004844290087930858
1789820949080174000,8.299174072265625,-0.164715975522995,-0.08552742004394531,0.0501856729388237
1789820949090144300,8.309144287109374,-0.15938566625118256,-0.06191130355000496,0.020327376201748848
1789820949100113200,8.319113037109375,-0.12958915531635284,-0.0469169095158577,-0.07182332128286362
1789820949110083000,8.3290830078125,-0.13054150342941284,-0.07393573969602585,-0.0121866250410676
1789820949120053000,8.339052978515625,-0.14188416302204132,-0.10848759114742279,0.0769730806350708
1789820949130023000,8.34902294921875,-0.11544856429100037,-0.08881215751171112,0.04825142025947571
1789820949139992800,8.358992919921874,-0.12583009898662567,-0.04408969730138779,-0.044986650347709656
1789820949149962800,8.368962646484375,-0.14711248874664307,-0.06971516460180283,0.02677994966506958
1789820949159932700,8.3789326171875,-0.10618183016777039,-0.09119835495948792,0.020372383296489716
1789820949169902600,8.388902587890625,-0.1304118037223816,-0.06383250653743744,-0.03261919692158699
1789820949179872500,8.39887255859375,-0.19342964887619019,-0.06481841206550598,-0.0014168017078191042
1789820949189842700,8.4088427734375,-0.16627472639083862,-0.13482226431369781,0.021707693114876747
1789820949199812600,8.4188125,-0.15627402067184448,-0.12988317012786865,0.0563194639980793
1789820949209782500,8.428782470703124,-0.1432759314775467,-0.12854252755641937,0.03205487132072449
1789820949219752400,8.43875244140625,-0.15706312656402588,-0.12670308351516724,-0.04532753303647041
1789820949229721600,8.4487216796875,-0.16968543827533722,-0.14119920134544373,-0.007951133884489536
1789820949239691500,8.45869140625,-0.09809647500514984,-0.14554601907730103,0.024991104379296303
1789820949249661700,8.46866162109375,-0.03057681769132614,-0.07250296324491501,-0.12634462118148804
1789820949259631600,8.478631591796875,-0.027465712279081345,-0.05771895498037338,-0.09691455960273743
1789820949269601500,8.4886015625,-0.01495338324457407,-0.14423920214176178,0.05100991949439049
1789820949279571500,8.498571533203124,0.05428747460246086,-0.10646945238113403,0.01950073055922985
1789820949289541600,8.508541748046875,0.06509910523891449,-0.08506083488464355,-0.057798583060503006
1789820949299511600,8.518511474609374,-0.005743106827139854,-0.10519353300333023,0.034560639411211014
1789820949309481700,8.528481689453125,0.05622119456529617,-0.13187174499034882,0.10417966544628143
1789820949319451600,8.53845166015625,0.10058839619159698,-0.09936094284057617,-0.0035353463608771563
1789820949329421600,8.548421630859375,0.08081575483083725,-0.06591163575649261,-0.0670219138264656
1789820949339391700,8.558391845703126,0.12292858213186264,-0.10856269299983978,-0.03885871544480324
1789820949349360600,8.568360595703124,0.07541539520025253,-0.03936018794775009,-0.04020228236913681
1789820949359330600,8.57833056640625,0.0638335719704628,-0.07153569906949997,-0.024869130924344063
1789820949369300500,8.588300537109374,0.14691168069839478,-0.15198767185211182,0.028022313490509987
1789820949379270700,8.598270751953125,0.14975780248641968,-0.13032764196395874,-0.036316730082035065
1789820949389240600,8.608240478515626,0.09963364899158478,-0.07742048799991608,-0.0753386989235878
1789820949399210800,8.618210693359375,0.0683276578783989,-0.10574959963560104,0.019351327791810036
1789820949409180700,8.6281806640625,0.11206022650003433,-0.09531320631504059,-0.056406550109386444
1789820949419150600,8.638150634765625,0.13001632690429688,-0.05939088761806488,-0.16257399320602417
1789820949429120500,8.64812060546875,0.12876702845096588,-0.06903472542762756,-0.059183962643146515
1789820949439090700,8.658090576171874,0.19033212959766388,-0.09723653644323349,-0.013814615085721016
1789820949449060600,8.668060546875,0.17323410511016846,-0.09364606440067291,-0.0309885423630476
1789820949459030500,8.678030517578126,0.15348036587238312,-0.08142002671957016,0.03672712296247482
1789820949468999700,8.687999755859375,0.26268649101257324,-0.10068400204181671,-0.00802996288985014
1789820949478969600,8.697969482421875,0.21379271149635315,-0.07002675533294678,0.0007321029552258551
1789820949488939500,8.707939453125,0.16437749564647675,-0.03500645235180855,-0.007724765222519636
1789820949498909700,8.71790966796875,0.22718387842178345,-0.10975419729948044,0.06689807027578354
1789820949508879600,8.727879638671874,0.18526865541934967,-0.06168360263109207,0.01672465167939663
1789820949518849500,8.737849609375,0.17819397151470184,-0.046660713851451874,-0.02983832359313965
1789820949528819500,8.7478193359375,0.2649914622306824,-0.05366429314017296,-0.09646768122911453
1789820949538789600,8.75778955078125,0.16232392191886902,-0.013158945366740227,-0.015034343115985394
1789820949548759800,8.767759765625,0.13920262455940247,-0.05986839532852173,0.06144684925675392
1789820949558729700,8.777729736328125,0.24372558295726776,-0.08140937238931656,-0.03446583077311516
1789820949568699600,8.78769970703125,0.17359016835689545,-0.04518851637840271,-0.02052924409508705
1789820949578668500,8.79766845703125,0.11277768015861511,-0.03705975040793419,0.00384427304379642
1789820949588638500,8.807638427734375,0.1353788673877716,-0.08452314138412476,-0.03298458084464073
1789820949598608600,8.817608642578126,0.11757376790046692,-0.07433761656284332,-0.034923095256090164
1789820949608578600,8.82757861328125,0.13902419805526733,-0.054001983255147934,-0.016623983159661293
1789820949618548700,8.837548828125,0.18412642180919647,-0.017589911818504333,-0.06559232622385025
1789820949628518700,8.8475185546875,0.162305548787117,0.05198170989751816,-0.05796503275632858
1789820949638488600,8.857488525390625,0.2787187099456787,-0.006873885169625282,0.08114731311798096
1789820949648458800,8.867458740234374,0.2246280461549759,0.03489699587225914,0.11724353581666946
1789820949658428700,8.8774287109375,0.18030612170696259,0.10339989513158798,0.09845040738582611
1789820949668398600,8.887398681640626,0.26173654198646545,0.09018262475728989,-0.04590943455696106
1789820949678368500,8.897368408203125,0.17498619854450226,0.048589639365673065,0.026205770671367645
1789820949688337700,8.907337646484375,0.0697987899184227,0.07861358672380447,0.02846919186413288
1789820949698307600,8.9173076171875,0.13379427790641785,0.031932633370161057,-0.05179954692721367
1789820949708277800,8.92727783203125,0.08832693099975586,0.08305973559617996,-0.14692845940589905
1789820949718247700,8.93724755859375,0.11242321133613586,0.04207022115588188,-0.009559948928654194
1789820949728217600,8.947217529296875,0.12372167408466339,0.013339507393538952,-0.045633263885974884
1789820949738187500,8.9571875,0.051780905574560165,0.03296780213713646,0.04910389706492424
1789820949748157400,8.967157470703125,0.0379689522087574,0.02912619337439537,0.09089315682649612
1789820949758127600,8.977127685546876,0.11307196319103241,0.021635787561535835,-0.047273773699998856
1789820949768097500,8.98709765625,0.011481686495244503,0.11295291781425476,-0.12410970032215118
1789820949778067700,8.997067626953125,0.0212435033172369,0.020363595336675644,0.000574177538510412
1789820949788037600,9.00703759765625,0.021690914407372475,-0.017536915838718414,0.14113982021808624
1789820949798006500,9.017006591796875,0.11309140175580978,0.06214246526360512,-0.08351779729127884
1789820949807976700,9.026976806640626,0.036441098898649216,0.13433782756328583,-0.07795552164316177
1789820949817946600,9.036946533203125,0.0858941376209259,0.010313357226550579,-0.024870462715625763
1789820949827916500,9.04691650390625,0.01558428630232811,0.037332724779844284,0.04102626442909241
1789820949837886500,9.056886474609374,0.05179635062813759,0.019046662375330925,0.0008578042034059763
1789820949847856600,9.066856689453125,0.028558140620589256,0.00002663161103555467,-0.0003249056462664157
1789820949857826800,9.076826904296874,0.022039521485567093,0.030182668939232826,0.019165173172950745
1789820949867796700,9.086796630859375,0.060140036046504974,0.021338045597076416,-0.04057538881897926
1789820949877766700,9.0967666015625,-0.03393852710723877,0.007894407957792282,0.06970638036727905
1789820949887736600,9.106736572265625,0.012309396639466286,-0.022176142781972885,0.07972651720046997
1789820949897705500,9.11670556640625,0.06181143596768379,0.02040141075849533,-0.020865067839622498
1789820949907675400,9.12667529296875,0.08526376634836197,0.047445811331272125,-0.05121338739991188
1789820949917645600,9.1366455078125,0.1076151430606842,0.007693872321397066,0.04322683438658714
1789820949927615700,9.14661572265625,0.09071871638298035,0.033722009509801865,0.07090958952903748
1789820949937585700,9.156585693359375,0.11338701099157333,0.03863101452589035,0.025433454662561417
1789820949947555600,9.1665556640625,0.051122840493917465,0.0771792083978653,0.0014911039033904672
1789820949957525800,9.17652587890625,0.11365226656198502,0.031208518892526627,-0.020774254575371742
1789820949967495700,9.18649560546875,0.01876676268875599,0.04398210346698761,0.025897908955812454
1789820949977465600,9.196465576171875,0.015916649252176285,0.015221829526126385,0.033237047493457794
1789820949987435500,9.206435546875,0.07970521599054337,0.01805197075009346,-0.026248915120959282
1789820949997405400,9.216405517578124,-0.03284529969096184,0.030903320759534836,0.017857028171420097
1789820950007374600,9.22637451171875,-0.030833546072244644,0.0560867041349411,-0.037573739886283875
1789820950017344800,9.2363447265625,0.022915702313184738,0.027066238224506378,-0.025169001892209053
1789820950027314700,9.246314697265625,-0.08922415226697922,0.06823524832725525,0.013436979614198208
1789820950037284600,9.25628466796875,-0.11698867380619049,0.06240425631403923,0.062188006937503815
1789820950047254500,9.266254638671874,-0.042569831013679504,0.04940350353717804,-0.036915142089128494
1789820950057224400,9.276224365234375,-0.13545849919319153,0.0753280445933342,-0.05239609628915787
1789820950067194600,9.286194580078124,-0.13819542527198792,0.029215676710009575,0.037046167999506
1789820950077164500,9.29616455078125,-0.09702987968921661,-0.008400408551096916,0.03759611025452614
1789820950087134700,9.306134765625,-0.21194447576999664,0.13271011412143707,-0.01212590467184782
1789820950097104600,9.316104736328125,-0.09885227680206299,0.05017795041203499,0.019827233627438545
1789820950107073500,9.326073486328125,-0.08863186091184616,0.020127106457948685,0.04930336773395538
1789820950117043700,9.336043701171874,-0.12255947291851044,0.0743946060538292,-0.06771086901426315
1789820950127013600,9.346013671875,-0.1722782850265503,0.04700692370533943,0.010519485920667648
1789820950136984300,9.355984375,-0.14927390217781067,0.021030183881521225,0.003946272190660238
1789820950146954200,9.365954345703125,-0.11133451014757156,0.12394324690103531,-0.16343925893306732
1789820950156924200,9.375924072265626,-0.17820888757705688,0.11614418029785156,-0.05571546033024788
1789820950166893600,9.3858935546875,-0.14650768041610718,0.052023518830537796,0.06429164111614227
1789820950176863500,9.395863525390626,-0.09421198815107346,0.04474936053156853,-0.00959670078009367
1789820950186833400,9.40583349609375,-0.11983958631753922,0.10413465648889542,-0.09067957103252411
1789820950196803300,9.41580322265625,-0.17126522958278656,0.036136966198682785,0.0792173221707344
1789820950206773200,9.425773193359374,-0.09692947566509247,-0.012837501242756844,0.09625516086816788
1789820950216743400,9.435743408203125,-0.14799799025058746,0.03365276753902435,0.01014185044914484
1789820950226713300,9.44571337890625,-0.09839367866516113,0.002954510971903801,0.0594492107629776
1789820950236683300,9.455683349609375,-0.045700643211603165,0.03940333053469658,0.042102713137865067
1789820950246653400,9.4656533203125,-0.0888795405626297,0.05341315641999245,0.03798945993185043
1789820950256623400,9.475623291015625,-0.13835734128952026,0.10596371442079544,0.0022719427943229675
1789820950266592300,9.48559228515625,-0.034095652401447296,-0.008478439413011074,-0.01455950178205967
1789820950276562400,9.4955625,-0.06980997323989868,-0.028909679502248764,-0.04356185719370842
1789820950286532400,9.505532470703125,-0.10007014125585556,-0.023839019238948822,0.00038535939529538155
1789820950296502300,9.515502197265626,-0.021931663155555725,-0.061519019305706024,-0.006674148142337799
1789820950306472200,9.52547216796875,-0.08128660172224045,0.022414760664105415,-0.037584926933050156
1789820950316442400,9.5354423828125,0.009168731048703194,-0.04634672403335571,-0.04238500818610191
1789820950326412500,9.54541259765625,0.07401324063539505,-0.04115622490644455,-0.06079410761594772
1789820950336382500,9.555382568359375,0.03828853368759155,-0.05681294947862625,0.013527260161936283
1789820950346352400,9.565352294921874,0.09193791449069977,0.022718895226716995,-0.07126566022634506
1789820950356322300,9.575322265625,0.16642892360687256,-0.05614795908331871,0.0034852789249271154
1789820950366292500,9.58529248046875,0.1455390900373459,-0.00729466462507844,0.005102616734802723
1789820950376261400,9.595261474609375,0.17805735766887665,0.02853204309940338,-0.06593720614910126
1789820950386231300,9.605231201171875,0.17617662250995636,0.056653160601854324,-0.10555519163608551
1789820950396201500,9.615201416015625,0.20425939559936523,-0.0652860626578331,0.06494304537773132
1789820950406171400,9.62517138671875,0.2016545534133911,-0.045465752482414246,0.09475819766521454
1789820950416141300,9.635141357421874,0.2241755723953247,0.028180239722132683,-0.09001617878675461
1789820950426111500,9.645111572265625,0.1992824822664261,0.03309297189116478,-0.10366114974021912
1789820950436081400,9.655081298828126,0.22970110177993774,-0.03749304637312889,-0.04850681498646736
1789820950446051300,9.66505126953125,0.21152450144290924,-0.04589372128248215,0.061053767800331116
1789820950456021200,9.675021240234376,0.23032322525978088,0.05104214325547218,-0.0013116068439558148
1789820950465991200,9.6849912109375,0.28082528710365295,0.09479229152202606,-0.11907898634672165
1789820950475960300,9.694960205078125,0.22865714132785797,0.07531818747520447,-0.04488092288374901
1789820950485930500,9.704930419921874,0.29576852917671204,0.023031283169984818,-0.00222001108340919
1789820950495900400,9.714900390625,0.2037784308195114,0.12354004383087158,-0.011766910552978516
1789820950505870300,9.724870361328126,0.17058825492858887,0.18321137130260468,-0.10339376330375671
1789820950515840300,9.73484033203125,0.1435054987668991,0.13219398260116577,-0.0029177593532949686
1789820950525810400,9.744810546875,0.12389078736305237,0.09616594761610031,0.038291994482278824
1789820950535780400,9.7547802734375,0.036623526364564896,0.1631593555212021,0.03127243369817734
1789820950545750300,9.764750244140625,0.014635934494435787,0.1483926624059677,0.0381910614669323
1789820950555720400,9.774720458984374,-0.10224434733390808,0.09534196555614471,0.196917325258255
1789820950565689300,9.784689453125,-0.07646707445383072,0.09980861842632294,0.03609781712293625
1789820950575659300,9.7946591796875,-0.13450348377227783,0.14212624728679657,-0.06973593682050705
1789820950585629400,9.80462939453125,-0.2062852680683136,0.12934839725494385,-0.07237300276756287
1789820950595599400,9.814599365234375,-0.2725556194782257,0.015680160373449326,0.1590285301208496
1789820950605569300,9.8245693359375,-0.27372902631759644,0.03822967782616615,0.10433093458414078
1789820950615539200,9.834539306640625,-0.2515137195587158,0.14524374902248383,-0.07218151539564133
1789820950625509400,9.84450927734375,-0.21520844101905823,0.13560150563716888,-0.024717597290873528
1789820950635479600,9.8544794921875,-0.2232341468334198,0.08154626190662384,0.11956128478050232
1789820950645448400,9.864448486328126,-0.22502964735031128,0.06343330442905426,0.13833044469356537
1789820950655418400,9.87441845703125,-0.22161494195461273,0.12675687670707703,0.014388526789844036
1789820950665388300,9.88438818359375,-0.2368468940258026,0.12636885046958923,-0.05570320785045624
1789820950675358200,9.894358154296874,-0.293075829744339,0.029266009107232094,-0.010992463678121567
1789820950685328400,9.904328369140625,-0.2645491063594818,-0.04026060551404953,0.08839404582977295
1789820950695298600,9.914298583984374,-0.2376258671283722,-0.01569453999400139,-0.04430727660655975
1789820950705268500,9.9242685546875,-0.29374241828918457,0.019123626872897148,-0.038715437054634094
1789820950715238400,9.93423828125,-0.265956312417984,-0.036001674830913544,0.03188229724764824
1789820950725208300,9.944208251953125,-0.1970645934343338,-0.06277044117450714,-0.038352448493242264
1789820950735178500,9.954178466796876,-0.24249492585659027,-0.0369364470243454,-0.04258767515420914
1789820950745148400,9.9641484375,-0.22814315557479858,-0.039267510175704956,-0.05549947917461395
1789820950755118300,9.974118408203125,-0.2208024114370346,-0.11240456998348236,0.04521435126662254
1789820950765087500,9.98408740234375,-0.1943814605474472,-0.11746165156364441,0.01423619408160448
1789820950775057400,9.994057373046875,-0.1646704375743866,-0.09977027028799057,-0.08738657087087631
1789820950785027300,10.00402734375,-0.14373879134655,-0.17467646300792694,-0.029024994000792503
1789820950794997500,10.01399755859375,-0.17334754765033722,-0.12995027005672455,-0.03050251491367817
1789820950804967400,10.023967529296876,-0.08498573303222656,-0.18217086791992188,0.017780594527721405
1789820950814937300,10.033937255859374,-0.030005568638443947,-0.12472275644540787,-0.04620770737528801
1789820950824907300,10.0439072265625,-0.00506959343329072,-0.1462637335062027,0.08967608958482742
1789820950834877200,10.053877197265624,0.07028667628765106,-0.12299197167158127,0.008344482630491257
1789820950844847400,10.063847412109375,0.11274279654026031,-0.1272125393152237,-0.0116148442029953
1789820950854817300,10.0738173828125,0.13337989151477814,-0.16347122192382812,-0.019159046933054924
1789820950864787500,10.083787353515625,0.06821393966674805,-0.15071015059947968,-0.0057375142350792885
1789820950874757400,10.09375732421875,0.02056785859167576,-0.0924452468752861,-0.08540810644626617
1789820950884726300,10.103726318359374,0.05516524985432625,-0.18410272896289825,0.041320543736219406
1789820950894696400,10.113696533203125,0.08547468483448029,-0.1553640216588974,0.05644170567393303
1789820950904666400,10.123666259765624,0.11162613332271576,-0.10120730847120285,-0.07251840829849243
1789820950914636300,10.13363623046875,0.1296008676290512,-0.12682212889194489,-0.03211905434727669
1789820950924606200,10.143606201171876,0.13998666405677795,-0.163164421916008,0.04115968570113182
1789820950934576400,10.153576416015625,0.11236196011304855,-0.1665671467781067,0.05342381075024605
1789820950944546600,10.163546630859376,0.14565227925777435,-0.1537219136953354,-0.027420438826084137
1789820950954516500,10.1735166015625,0.13990198075771332,-0.12085451930761337,0.033116407692432404
1789820950964486400,10.183486328125,0.18155542016029358,-0.1113600805401802,0.05706195533275604
1789820950974456300,10.193456298828124,0.20905521512031555,-0.10084112733602524,0.04025287926197052
1789820950984426200,10.20342626953125,0.20703281462192535,-0.046543002128601074,-0.02917546220123768
1789820950994396400,10.213396484375,0.2033858746290207,-0.10350295901298523,0.10436342656612396
1789820951004366300,10.223366455078125,0.23802082240581512,-0.04770733416080475,-0.06052219867706299
1789820951014335500,10.23333544921875,0.17860755324363708,-0.0445307157933712,-0.10616558790206909
1789820951024305400,10.243305419921874,0.1038353219628334,-0.09934203326702118,0.01435230765491724
1789820951034275300,10.253275390625,0.15011067688465118,-0.13362783193588257,0.04924051836133003
1789820951044245500,10.26324560546875,0.16622120141983032,0.00293373828753829,-0.06124817579984665
1789820951054215400,10.27321533203125,0.18472963571548462,-0.00047404266661033034,-0.03620567545294762
1789820951064185300,10.283185302734376,0.18500153720378876,0.07068615406751633,-0.050282612442970276
1789820951074155300,10.2931552734375,0.21404464542865753,0.006756439805030823,0.006527407560497522
1789820951084125200,10.303125244140626,0.16782894730567932,0.06536728888750076,0.0013912353897467256
1789820951094095400,10.313095458984375,0.2020215392112732,0.05095053091645241,-0.02923724800348282
1789820951104065500,10.3230654296875,0.08302990347146988,0.08559346199035645,-0.024577248841524124
1789820951114035500,10.333035400390624,0.08135504275560379,-0.012047608382999897,0.05289330706000328
1789820951124005400,10.34300537109375,0.07224836200475693,-0.025257686153054237,0.05429626256227493
1789820951133976300,10.352976318359374,0.015157913789153099,0.07249097526073456,-0.0297272689640522
1789820951143945200,10.3629453125,0.10804124921560287,0.0693947896361351,-0.08954373002052307
1789820951153915100,10.3729150390625,0.0853191614151001,0.10248882323503494,-0.0020610203500837088
1789820951163885300,10.38288525390625,0.11119869351387024,0.08965691179037094,-0.0703687071800232
1789820951173855200,10.392855224609375,0.12246706336736679,0.14116857945919037,-0.06022898480296135
1789820951183825200,10.4028251953125,0.13505102694034576,0.09215416014194489,0.04604312404990196
1789820951193795300,10.41279541015625,0.08410102874040604,0.1084686890244484,0.034875959157943726
1789820951203765200,10.42276513671875,0.11438356339931488,0.05589282512664795,-0.03220001235604286
1789820951213735400,10.4327353515625,-0.028134964406490326,0.10978348553180695,-0.028745362535119057
1789820951223705300,10.442705322265626,0.013310212641954422,0.08906435966491699,-0.07956859469413757
1789820951233675300,10.45267529296875,-0.0046509443782269955,0.09381464123725891,-0.1099155843257904
1789820951243645200,10.462645263671876,-0.08779456466436386,0.11794660985469818,-0.04635445028543472
1789820951253615000,10.472614990234375,-0.031558725982904434,0.10243289917707443,0.012531237676739693
1789820951263584300,10.482584228515625,-0.006243514828383923,0.10567689687013626,-0.020708473399281502
1789820951273554400,10.492554443359374,-0.09306655824184418,0.15477706491947174,-0.006097307428717613
1789820951283524400,10.5025244140625,-0.03681101277470589,0.02443769946694374,0.10322518646717072
1789820951293494300,10.512494384765626,-0.04915928840637207,0.03724909946322441,0.05922843515872955
1789820951303464200,10.522464111328125,-0.1171167716383934,0.14910532534122467,-0.06061194837093353
1789820951313434000,10.53243408203125,-0.1057935431599617,0.16954243183135986,-0.02539084479212761
1789820951323404300,10.542404296875,-0.08476734906435013,0.1635415256023407,-0.015727031975984573
1789820951333374200,10.552374267578125,-0.12825943529605865,0.1562037169933319,0.03201865404844284
1789820951343344000,10.56234423828125,-0.046170156449079514,0.09053442627191544,0.07011863589286804
1789820951353314000,10.57231396484375,-0.07761117070913315,0.1763089895248413,0.015459117479622364
1789820951363284200,10.5822841796875,-0.11960069835186005,0.22165969014167786,0.002731071785092354
1789820951373254400,10.59225439453125,-0.06956389546394348,0.1280738115310669,0.08358251303434372
1789820951383224300,10.602224365234376,-0.129689559340477,0.1611337661743164,0.0625360831618309
1789820951393193200,10.612193115234374,-0.10144247114658356,0.14334650337696075,-0.006116215605288744
1789820951403163100,10.6221630859375,-0.12799178063869476,0.09674251824617386,0.05772241950035095
1789820951413133000,10.632133056640624,-0.19482381641864777,0.14659716188907623,-0.002814961364492774
1789820951423103200,10.642103271484375,-0.17180584371089935,0.11302535235881805,-0.05537138134241104
1789820951433073400,10.652073486328124,-0.27103763818740845,0.11811146140098572,-0.035710059106349945
1789820951443043300,10.662043212890625,-0.21808785200119019,0.048897501081228256,0.06264367699623108
1789820951453013200,10.67201318359375,-0.17132994532585144,0.0643630102276802,-0.05589735507965088
1789820951462983200,10.681983154296875,-0.32802554965019226,0.12563303112983704,-0.010009757243096828
1789820951472953300,10.691953369140625,-0.3322802186012268,0.0549258328974247,0.08555644750595093
1789820951482923300,10.70192333984375,-0.28915032744407654,-0.013413011096417904,0.07803541421890259
1789820951492893200,10.71189306640625,-0.3384496867656708,0.013463078066706657,0.016161393374204636
1789820951502863000,10.721863037109374,-0.3124822676181793,0.0025872609112411737,-0.025611354038119316
1789820951512832300,10.731832275390625,-0.26529398560523987,-0.04360446706414223,-0.012285161763429642
1789820951522802400,10.741802490234376,-0.3207774758338928,-0.011426825076341629,-0.03105219267308712
1789820951532772400,10.7517724609375,-0.33053505420684814,-0.0312186386436224,-0.018248511478304863
1789820951542742300,10.7617421875,-0.27338600158691406,-0.09141300618648529,0.020801153033971786
1789820951552712200,10.771712158203124,-0.2540903389453888,-0.048720669001340866,-0.026204705238342285
1789820951562682000,10.78168212890625,-0.16720789670944214,-0.08594153821468353,-0.0926247388124466
1789820951572652300,10.79165234375,-0.22397051751613617,-0.061582669615745544,-0.07469261437654495
1789820951582622200,10.801622314453125,-0.2384682297706604,-0.14341121912002563,0.035474102944135666
1789820951592592100,10.811592041015626,-0.1930464208126068,-0.13452719151973724,-0.06372731178998947
1789820951602562300,10.821562255859375,-0.17142820358276367,-0.13119396567344666,-0.10376154631376266
1789820951612532200,10.8315322265625,-0.12856756150722504,-0.14865738153457642,-0.05330023914575577
1789820951622502400,10.84150244140625,-0.06440135836601257,-0.19489385187625885,0.03579581528902054
1789820951632471300,10.85147119140625,-0.03879453241825104,-0.1602804809808731,0.0023499734234064817
1789820951642441200,10.861441162109376,0.04379541799426079,-0.18759731948375702,-0.03641713038086891
1789820951652411100,10.8714111328125,0.07076152414083481,-0.19299155473709106,-0.0019057580502703786
1789820951662381000,10.881381103515626,0.13860714435577393,-0.21265554428100586,0.05482117086648941
1789820951672351200,10.891351318359375,0.12659655511379242,-0.13739967346191406,0.03263064846396446
1789820951682321400,10.9013212890625,0.1446690410375595,-0.14331668615341187,0.0349997952580452
1789820951692291300,10.911291259765624,0.16256600618362427,-0.12839126586914062,0.03154274448752403
1789820951702261200,10.92126123046875,0.18491658568382263,-0.18676748871803284,0.06893698871135712
1789820951712231200,10.931231201171874,0.1975431740283966,-0.18888816237449646,0.07938297092914581
1789820951722201300,10.941201416015625,0.19076648354530334,-0.1396564394235611,0.00512924836948514
1789820951732171300,10.951171142578126,0.17140424251556396,-0.14444851875305176,-0.03249189630150795
1789820951742140400,10.961140380859375,0.09765785187482834,-0.1683509349822998,0.04903998225927353
1789820951752110300,10.9711103515625,0.11906327307224274,-0.16536445915699005,0.040471792221069336
1789820951762080300,10.981080322265624,0.15367265045642853,-0.12966851890087128,-0.04212481528520584
1789820951772050200,10.99105029296875,0.08118993043899536,-0.07631740719079971,-0.012022574432194233
1789820951782020400,11.001020263671874,0.08418811112642288,-0.14534254372119904,0.1776437610387802
1789820951791990300,11.010990234375,0.161818727850914,-0.06938759982585907,-0.018614696338772774
1789820951801960200,11.020960205078126,0.1320754736661911,-0.0426555834710598,-0.033250898122787476
1789820951811930000,11.03093017578125,0.12400557100772858,-0.06604666262865067,0.050985950976610184
1789820951821900000,11.040900146484375,0.07901731878519058,-0.05570241063833237,0.11191881448030472
1789820951831870200,11.0508701171875,0.09428335726261139,-0.01315148826688528,0.0022951122373342514
1789820951841840400,11.06084033203125,0.043835632503032684,0.0023284016642719507,-0.0019068233668804169
1789820951851810300,11.070810302734374,0.04899071156978607,-0.05630401894450188,0.08602303266525269
1789820951861779200,11.080779296875,0.08022799342870712,-0.08800069242715836,0.10714536160230637
1789820951871749000,11.0907490234375,-0.04294826462864876,0.0491558276116848,-0.09388627856969833
1789820951881719300,11.10071923828125,-0.01637231558561325,0.0019949739798903465,-0.026130137965083122
1789820951891689200,11.110689208984375,0.039093874394893646,-0.04079057276248932,-0.030010629445314407
1789820951901659100,11.1206591796875,-0.050647199153900146,0.010270480997860432,0.005548429675400257
1789820951911629300,11.13062939453125,-0.08101682364940643,0.018204303458333015,0.034560106694698334
1789820951921599200,11.14059912109375,-0.06006227061152458,0.022604644298553467,0.06467965990304947
1789820951931569400,11.1505693359375,-0.013480921275913715,0.045760564506053925,0.011422031559050083
1789820951941539300,11.160539306640626,-0.043465450406074524,0.07592406123876572,-0.02209465019404888
1789820951951509200,11.17050927734375,-0.11772876232862473,0.11385519802570343,0.011842544190585613
1789820951961479200,11.180479248046876,-0.08184187114238739,0.08247064054012299,0.027092870324850082
1789820951971448000,11.190447998046874,-0.03427621349692345,0.11281976103782654,-0.06615106016397476
1789820951981418200,11.200418212890625,-0.08879644423723221,0.055636897683143616,-0.06912927329540253
1789820951991388400,11.210388427734374,-0.12233816087245941,0.1006842628121376,-0.0557442232966423
1789820952001358300,11.2203583984375,-0.026252375915646553,-0.033977407962083817,-0.047027964144945145
1789820952011328300,11.230328369140626,-0.17551963031291962,0.03385649994015694,0.023497868329286575
1789820952021298200,11.240298095703125,-0.10019771009683609,0.023303724825382233,-0.06397046148777008
1789820952031268400,11.250268310546875,-0.11956128478050232,0.02961381897330284,-0.03494866192340851
1789820952041238300,11.26023828125,-0.15581808984279633,0.03853008151054382,0.02508511394262314
1789820952051208200,11.270208251953125,-0.12286733090877533,0.0202176533639431,-0.020871460437774658
1789820952061178000,11.28017822265625,-0.12290861457586288,-0.06748396903276443,-0.012075304985046387
1789820952071148000,11.29014794921875,-0.14306527376174927,-0.06270731985569,-0.08042053878307343
1789820952081117200,11.3001171875,-0.17907626926898956,-0.07705989480018616,-0.10894592106342316
1789820952091087400,11.31008740234375,-0.18822529911994934,-0.11423203349113464,-0.0863197073340416
1789820952101057300,11.320057373046875,-0.19687071442604065,-0.1440831422805786,-0.07036950439214706
1789820952111027200,11.330027099609374,-0.10972809791564941,-0.13469815254211426,-0.09770791977643967
1789820952120997000,11.3399970703125,-0.015336612239480019,-0.19091269373893738,-0.03690582141280174
1789820952130967000,11.349967041015624,-0.048393364995718,-0.10663643479347229,-0.04904690384864807
1789820952140936400,11.3599365234375,-0.009048622101545334,-0.15340127050876617,-0.04048537462949753
1789820952150906400,11.36990625,0.047803740948438644,-0.18088749051094055,-0.008539958856999874
1789820952160876500,11.37987646484375,0.08436814695596695,-0.12937690317630768,-0.04849829524755478
1789820952170846500,11.389846435546875,0.09650284051895142,-0.1150357723236084,0.004658135119825602
1789820952180815400,11.3998154296875,0.1982683539390564,-0.12751880288124084,-0.007631287910044193
1789820952190785500,11.40978564453125,0.17940224707126617,-0.06721339374780655,-0.005909820552915335
1789820952200755500,11.41975537109375,0.2612909972667694,-0.09611721336841583,0.00980282947421074
1789820952210725400,11.429725341796875,0.3249538540840149,-0.09270729869604111,0.01962083950638771
1789820952220695600,11.439695556640626,0.3307691216468811,-0.03652125969529152,0.030531011521816254
1789820952230665500,11.44966552734375,0.376425564289093,-0.025535453110933304,0.04855342209339142
1789820952240635400,11.459635498046875,0.39562562108039856,-0.08793465048074722,0.06386259943246841
1789820952250605300,11.469605224609374,0.34023720026016235,-0.01642424613237381,0.07106432318687439
1789820952260575200,11.4795751953125,0.4445899724960327,-0.05800231546163559,-0.011412178166210651
1789820952270545400,11.48954541015625,0.3155986964702606,0.035298336297273636,0.0005153216770850122
1789820952280515300,11.499515380859375,0.30270394682884216,-0.026807645335793495,0.059608202427625656
1789820952290484500,11.509484375,0.2713382840156555,-0.02630697190761566,0.04262362793087959
1789820952300454400,11.519454345703124,0.25664404034614563,0.04065714776515961,-0.11784061789512634
1789820952310424300,11.52942431640625,0.21553336083889008,0.028126442804932594,-0.09915268421173096
1789820952320394500,11.53939453125,0.09701469540596008,-0.04608680307865143,0.09017863124608994
1789820952330364400,11.549364501953125,0.04706631228327751,0.0068331388756632805,0.06709275394678116
1789820952340334300,11.559334228515626,0.1340097337961197,-0.02521427720785141,-0.12481516599655151
1789820952350304300,11.56930419921875,-0.009669938124716282,-0.03440697491168976,0.009883522987365723
1789820952360274400,11.5792744140625,-0.020251208916306496,-0.0034562505315989256,-0.04680851846933365
1789820952370244600,11.58924462890625,0.009704825468361378,-0.05763693153858185,0.009847571142017841
1789820952380214500,11.599214599609375,-0.0022213426418602467,-0.05896212160587311,0.08185411989688873
1789820952390184400,11.609184326171874,-0.014101438224315643,-0.01624208688735962,0.00953651312738657
1789820952400153300,11.6191533203125,-0.045817553997039795,-0.05198730155825615,0.08858765661716461
1789820952410123300,11.629123291015626,-0.09901606291532516,-0.03223969414830208,0.039317045360803604
1789820952420093200,11.63909326171875,-0.05053667724132538,-0.04794169217348099,0.004793690051883459
1789820952430063400,11.6490634765625,-0.06924671679735184,-0.0027710190042853355,-0.006388390902429819
1789820952440033500,11.659033447265625,0.006056294776499271,-0.09294138848781586,0.06832606345415115
1789820952450003500,11.66900341796875,0.0003251719754189253,0.01732546091079712,-0.03134647011756897
1789820952459973400,11.678973388671874,-0.0017294568242505193,0.017591776326298714,0.006460029631853104
1789820952469943600,11.688943603515625,0.029888123273849487,-0.018807243555784225,0.0586601160466671
1789820952479913500,11.69891357421875,0.020326044410467148,-0.004026433452963829,-0.03844565898180008
1789820952489883400,11.70888330078125,0.025896845385432243,-0.030593594536185265,-0.010303237475454807
1789820952499852500,11.7188525390625,0.05772614851593971,-0.058332014828920364,0.0033872744534164667
1789820952509822500,11.728822509765624,0.035167574882507324,-0.06521841883659363,0.07020758092403412
1789820952519792400,11.73879248046875,0.0872158631682396,-0.04980484023690224,0.04591449350118637
1789820952529762600,11.748762451171874,0.0741187036037445,-0.00398755120113492,-0.0007163903210312128
1789820952539732500,11.758732421875,0.07603032141923904,-0.01014051865786314,0.06790821254253387
1789820952549702400,11.768702392578126,0.09958837926387787,-0.024329308420419693,0.006596383638679981
1789820952559672300,11.77867236328125,0.03651539981365204,0.014701981097459793,-0.03877029940485954
1789820952569642200,11.788642333984376,-0.010575945489108562,0.025060612708330154,-0.0740225613117218
1789820952579612400,11.7986123046875,-0.07204143702983856,0.013187174685299397,-0.0006194512825459242
1789820952589582300,11.808582275390625,-0.12793798744678497,-0.013468404300510883,0.06485036760568619
1789820952599552500,11.818552490234374,-0.06554971635341644,-0.015777897089719772,-0.10377699881792068
1789820952609521400,11.828521484375,-0.1403328776359558,-0.04914863780140877,-0.05005837231874466
1789820952619491300,11.8384912109375,-0.18161293864250183,-0.10541617125272751,0.08879031985998154
1789820952629461200,11.848461181640625,-0.12653157114982605,-0.08590478450059891,-0.0006444850005209446
1789820952639431400,11.858431396484375,-0.14885152876377106,-0.032163795083761215,-0.06537767499685287
1789820952649401300,11.8684013671875,-0.11803130060434341,-0.05145466700196266,-0.008416388183832169
1789820952659371300,11.878371337890625,-0.04849030449986458,-0.07585667818784714,-0.05224056914448738
1789820952669341400,11.888341552734374,-0.11461605876684189,0.006213687360286713,-0.07155673950910568
1789820952679311600,11.8983115234375,-0.022410234436392784,-0.02136334590613842,-0.06876920908689499
1789820952689281500,11.908281494140626,0.03927576541900635,-0.09418988227844238,0.02028023824095726
1789820952699251500,11.91825146484375,0.029995448887348175,-0.0569426454603672,-0.03230573982000351
1789820952709220400,11.928220458984375,0.046719036996364594,-0.024294154718518257,-0.009735452011227608
1789820952719190300,11.938190185546874,0.09758887439966202,-0.06741179525852203,0.034026410430669785
1789820952729160200,11.94816015625,0.03656386956572533,-0.08121256530284882,0.15611903369426727
1789820952739130600,11.958130615234374,0.04314134642481804,-0.05735596641898155,0.08266212046146393
1789820952749100500,11.9681005859375,0.04478371515870094,-0.038233671337366104,0.09413182735443115
1789820952759070500,11.978070556640626,0.02618126943707466,0.0014261227333918214,0.02877092733979225
1789820952769040400,11.988040283203125,0.07141612470149994,-0.01847514696419239,-0.0013012205017730594
1789820952779010300,11.99801025390625,0.06130649894475937,-0.04512619972229004,0.02089010179042816
1789820952788980500,12.00798046875,0.13283208012580872,-0.04589531943202019,0.022229671478271484
1789820952798950400,12.017950439453125,0.10387233644723892,-0.04675232619047165,0.07804020494222641
1789820952808920300,12.02792041015625,0.14012408256530762,-0.00020133497309871018,0.01227424293756485
1789820952818889500,12.037889404296875,0.18918830156326294,0.00854288786649704,-0.012093947269022465
1789820952828859400,12.047859375,0.1865435093641281,-0.007098655682057142,-0.09303167462348938
1789820952838829600,12.05782958984375,0.15827831625938416,-0.0031220237724483013,0.004324440844357014
1789820952848799500,12.067799560546876,0.1871967911720276,-0.030615700408816338,-0.018445054069161415
1789820952858769400,12.077769287109374,0.22008097171783447,0.01882561855018139,-0.11055367439985275
1789820952868739300,12.0877392578125,0.2391023337841034,-0.0019528960110619664,-0.042454250156879425
1789820952878709200,12.097709228515624,0.3137728273868561,-0.009525327943265438,-0.01853054016828537
1789820952888679400,12.107679443359375,0.2730664312839508,0.04683515056967735,-0.040823329240083694
