time,seconds_elapsed,z,y,x
1789820940867377000,0.086376953125,-0.13707104325294495,0.10230719298124313,0.04483036696910858
1789820940877346800,0.096346923828125,-0.09010495245456696,0.03240826725959778,0.0671938955783844
1789820940887317000,0.10631689453125,-0.16869083046913147,0.053494375199079514,-0.033266399055719376
1789820940897288000,0.116287841796875,-0.24650689959526062,0.05454673245549202,0.020650053396821022
1789820940907257900,0.1262578125,-0.09392774105072021,-0.032317060977220535,0.06150853633880615
1789820940917228000,0.13622802734375,-0.11404810845851898,-0.0068794600665569305,0.03902781009674072
1789820940927198000,0.146197998046875,-0.1528857946395874,0.028351232409477234,-0.00255372142419219
1789820940937168000,0.15616796875,-0.15301798284053802,-0.04938725009560585,0.05030832812190056
1789820940947137800,0.1661376953125,-0.190008744597435,-0.025861946865916252,0.12396842986345291
1789820940957107700,0.176107666015625,-0.13121619820594788,0.01662455126643181,-0.01168733648955822
1789820940967078000,0.186077880859375,-0.18216007947921753,-0.08428368717432022,0.088845394551754
1789820940977047800,0.1960478515625,-0.24273552000522614,-0.047697197645902634,0.10551415383815765
1789820940987018000,0.20601806640625,-0.1581660360097885,-0.06314379721879959,0.07642018795013428
1789820940996988000,0.21598779296875,-0.14770275354385376,-0.003434928134083748,0.042665157467126846
1789820941006957800,0.225957763671875,-0.14427579939365387,0.05191301554441452,-0.004116731230169535
1789820941016928000,0.235927978515625,0.0550578236579895,-0.044026028364896774,0.03232170641422272
1789820941026898000,0.24589794921875,0.14890362322330475,-0.01800907775759697,0.011804444715380669
1789820941036867800,0.255867919921875,0.11271686106920242,0.04816248640418053,0.005459730047732592
1789820941046837800,0.265837646484375,0.08346044272184372,0.0026266928762197495,0.08666031062602997
1789820941056807700,0.2758076171875,0.09268856048583984,-0.016600266098976135,0.08787337690591812
1789820941066777900,0.28577783203125,0.1377418041229248,0.012691128998994827,0.02733255922794342
1789820941076747800,0.295747802734375,0.20510080456733704,-0.05217643454670906,0.015421491116285324
1789820941086718000,0.305718017578125,0.1470758616924286,-0.002849915297701955,0.0177677720785141
1789820941096687900,0.31568798828125,0.20939277112483978,-0.013471665792167187,0.01283346675336361
1789820941106658000,0.325657958984375,0.31116998195648193,-0.08455303311347961,-0.02320842444896698
1789820941116628000,0.3356279296875,0.22477145493030548,-0.008169845677912235,-0.026683848351240158
1789820941126598000,0.345597900390625,0.21000371873378754,-0.07921530306339264,0.034058600664138794
1789820941136567800,0.35556787109375,0.24157162010669708,-0.03637586906552315,-0.009422709234058857
1789820941146538800,0.365538818359375,0.08505310863256454,0.014266271144151688,0.07088731229305267
1789820941156508700,0.3755087890625,0.1647384613752365,-0.019043514505028725,-0.011338218115270138
1789820941166478600,0.385478515625,0.21037998795509338,0.027269920334219933,-0.08322705328464508
1789820941176448800,0.39544873046875,0.15569698810577393,0.04044650122523308,-0.033651553094387054
1789820941186418700,0.405418701171875,0.43354085087776184,-0.06714067608118057,-0.08362098038196564
1789820941196388600,0.415388671875,0.13428756594657898,-0.15737123787403107,-0.013199009001255035
1789820941206358800,0.42535888671875,0.17520703375339508,-0.16957305371761322,-0.05432913452386856
1789820941216328700,0.43532861328125,0.06001793593168259,-0.05052795261144638,-0.11820630729198456
1789820941226299000,0.445298828125,-0.07533003389835358,0.00832177884876728,-0.01432997640222311
1789820941236268800,0.455268798828125,-0.030018746852874756,0.06693848222494125,-0.05553653463721275
1789820941246238700,0.46523876953125,-0.00026777631137520075,0.078370101749897,-0.040557052940130234
1789820941256208600,0.475208740234375,0.002462391508743167,0.08684910833835602,-0.03555334731936455
1789820941266178800,0.4851787109375,0.022787105292081833,0.10330478101968765,-0.04535644128918648
1789820941276148700,0.495148681640625,0.026135282590985298,0.13920675218105316,-0.02601039409637451
1789820941286118700,0.50511865234375,0.04929279908537865,0.10318271070718765,0.004446848761290312
1789820941296088600,0.515088623046875,0.02199241705238819,0.12135515362024307,0.003338126465678215
1789820941306058800,0.525058837890625,-0.05141095817089081,0.14441758394241333,-0.020868675783276558
1789820941316029000,0.53502880859375,-0.047423165291547775,0.13962914049625397,-0.01138278841972351
1789820941325998800,0.544998779296875,-0.09216640144586563,0.11613607406616211,-0.01914963126182556
1789820941335968800,0.55496875,-0.19076251983642578,0.1851641982793808,-0.05250389873981476
1789820941345938700,0.564938720703125,-0.11393006145954132,0.08395103365182877,0.0038139678072184324
1789820941355908600,0.57490869140625,-0.25528159737586975,0.16355310380458832,0.08460040390491486
1789820941365878800,0.584878662109375,-0.2751629054546356,0.04598013311624527,0.10258153080940247
1789820941375849700,0.594849609375,-0.33178985118865967,0.16699767112731934,-0.019978076219558716
1789820941385819600,0.604819580078125,-0.3686554431915283,0.0650944858789444,0.07521501928567886
1789820941395789600,0.61478955078125,-0.33189278841018677,0.1357192099094391,-0.03320001810789108
1789820941405759700,0.624759765625,-0.2642226815223694,0.10595227032899857,-0.0280689038336277
1789820941415729700,0.634729736328125,-0.16112194955348969,0.03869842737913132,0.01614771969616413
1789820941425699600,0.644699462890625,-0.10172653943300247,0.07325746864080429,-0.11004777252674103
1789820941435669800,0.654669677734375,-0.23655039072036743,0.1049426943063736,-0.07583999633789062
1789820941445640000,0.664639892578125,-0.27170228958129883,0.006996031850576401,0.08180075138807297
1789820941455609900,0.67460986328125,-0.22738836705684662,0.10906292498111725,-0.009639975614845753
1789820941465579800,0.684579833984375,-0.2551310360431671,0.04101623222231865,-0.010263155214488506
1789820941475549700,0.6945498046875,-0.19840681552886963,0.02524447813630104,-0.04013586416840553
1789820941485519600,0.70451953125,-0.11910027265548706,-0.011852823197841644,-0.018002063035964966
1789820941495489800,0.71448974609375,-0.0484999418258667,-0.04803428798913956,0.043881211429834366
1789820941505459700,0.724459716796875,-0.045464735478162766,-0.015299511142075062,0.0920410230755806
1789820941515429600,0.7344296875,-0.05649848282337189,0.0012323679402470589,0.010964262299239635
1789820941525399800,0.74439990234375,-0.10884556919336319,-0.023809069767594337,0.0730244442820549
1789820941535369700,0.75436962890625,-0.1255439668893814,-0.05373954400420189,0.09353068470954895
1789820941545340000,0.76433984375,-0.09565797448158264,-0.04639215022325516,-0.014742525294423103
1789820941555309800,0.774309814453125,-0.08220400661230087,-0.0674668401479721,0.013237643986940384
1789820941565279700,0.78427978515625,-0.013829478062689304,-0.13330869376659393,0.05678485333919525
1789820941575250700,0.794250732421875,-0.06384671479463577,-0.06289680302143097,0.041845448315143585
1789820941585220900,0.804220947265625,-0.053812187165021896,-0.11520075052976608,0.09491799026727676
1789820941595190800,0.814190673828125,-0.041516561061143875,-0.06522607803344727,0.06553300470113754
1789820941605160700,0.82416064453125,0.031098786741495132,-0.09201028198003769,0.06063385307788849
1789820941615130600,0.834130615234375,0.025538871064782143,-0.06273379176855087,0.0049545555375516415
1789820941625100800,0.844100830078125,0.058158598840236664,-0.0537477508187294,0.031150473281741142
1789820941635070700,0.85407080078125,0.07385620474815369,-0.07610565423965454,0.017729103565216064
1789820941645040600,0.86404052734375,-0.014816404320299625,-0.021181153133511543,0.0035355212166905403
1789820941655010800,0.8740107421875,0.03666801005601883,-0.07396196573972702,0.06807582080364227
1789820941664980700,0.883980712890625,0.03481551259756088,-0.06622441112995148,0.04467541724443436
1789820941674951000,0.893950927734375,0.0310058631002903,-0.013910872861742973,-0.03016393445432186
1789820941684920800,0.9039208984375,0.08497374504804611,-0.07655751705169678,-0.05964863300323486
1789820941694890800,0.913890869140625,0.06649744510650635,-0.10541168600320816,-0.020040050148963928
1789820941704860700,0.923860595703125,0.06193571910262108,-0.07920484989881516,-0.07151389867067337
1789820941714830600,0.93383056640625,0.09640738368034363,-0.11062201857566833,-0.06734739243984222
1789820941724800800,0.94380078125,0.08500266075134277,-0.1129637360572815,-0.008866501040756702
1789820941734770700,0.953770751953125,0.14843928813934326,-0.08733022958040237,-0.009336947463452816
1789820941744740600,0.96374072265625,0.195847287774086,-0.059654396027326584,-0.06260283291339874
1789820941754710800,0.973710693359375,0.17699739336967468,-0.08228978514671326,0.007490220945328474
1789820941764681700,0.983681640625,0.17558911442756653,-0.0863974466919899,0.04239440709352493
1789820941774651600,0.993651611328125,0.23644578456878662,-0.11176426708698273,-0.012981805019080639
1789820941784621800,1.003621826171875,0.2510630786418915,-0.039712175726890564,-0.13465924561023712
1789820941794591700,1.013591796875,0.2201545089483261,-0.06985817104578018,-0.05130942165851593
1789820941804562000,1.02356201171875,0.21305318176746368,-0.05496417358517647,-0.031303487718105316
1789820941814531800,1.03353173828125,0.22004763782024384,-0.006802881136536598,-0.09566659480333328
1789820941824501800,1.043501708984375,0.2090759426355362,0.04146105423569679,-0.14549806714057922
1789820941834471700,1.0534716796875,0.2160254716873169,-0.02287505753338337,-0.04432804137468338
1789820941844441600,1.063441650390625,0.16960391402244568,-0.03212687745690346,-0.017759544774889946
1789820941854411800,1.073411865234375,0.14291131496429443,-0.0035578191746026278,-0.035216301679611206
1789820941864381700,1.083381591796875,0.1506938636302948,-0.0012752239126712084,-0.04683434218168259
1789820941874351600,1.0933515625,0.10566859692335129,-0.005069696344435215,-0.018917221575975418
1789820941884321800,1.10332177734375,0.022988775745034218,-0.010262728668749332,-0.04522968828678131
1789820941894291700,1.113291748046875,0.03889249265193939,0.0006310667376965284,-0.016541413962841034
1789820941904262000,1.123261962890625,0.01601221039891243,0.014415588229894638,-0.08107220381498337
1789820941914231800,1.133231689453125,-0.04751230776309967,0.01573314517736435,-0.07425998151302338
1789820941924201700,1.14320166015625,-0.050304900854825974,-0.025555703788995743,-0.04456520825624466
1789820941934171600,1.153171630859375,-0.03823572024703026,-0.054941825568675995,-0.05742507800459862
1789820941944142800,1.163142822265625,-0.06351394206285477,-0.03737999498844147,-0.04599134251475334
1789820941954112800,1.17311279296875,-0.018327245488762856,-0.07436124235391617,-0.011236516758799553
1789820941964082700,1.183082763671875,-0.00581012200564146,-0.012134887278079987,0.011382509022951126
1789820941974052600,1.193052490234375,0.043203189969062805,0.0019481900380924344,0.040627121925354004
1789820941984022800,1.203022705078125,0.09303092956542969,0.016903171315789223,0.09293107688426971
1789820941993992700,1.21299267578125,0.15291771292686462,0.0351317934691906,0.07042339444160461
1789820942003963000,1.222962890625,0.1314353197813034,0.08636169135570526,0.0731014683842659
1789820942013932800,1.232932861328125,0.2111293077468872,0.06021958962082863,0.03484088554978371
1789820942023902700,1.24290283203125,0.1771838515996933,0.08778063952922821,0.05121293291449547
1789820942033873000,1.252872802734375,0.1572418361902237,0.10925104469060898,0.026653794571757317
1789820942043842800,1.2628427734375,0.12981504201889038,0.10252797603607178,0.03778522461652756
1789820942053812700,1.272812744140625,0.04941103979945183,0.1579509973526001,-0.02026199921965599
1789820942063782700,1.28278271484375,0.02205371856689453,0.12443805485963821,0.0035458612255752087
1789820942073752600,1.292752685546875,0.01405753567814827,0.07215600460767746,0.035997502505779266
1789820942083722800,1.30272265625,-0.10476765036582947,0.12282077968120575,0.02766793593764305
1789820942093692700,1.312692626953125,-0.05372622236609459,0.09661222994327545,-0.03525182604789734
1789820942103662800,1.322662841796875,-0.145472913980484,0.06445029377937317,0.054201889783144
1789820942113633500,1.332633544921875,-0.2026693969964981,0.11187893152236938,0.04349863529205322
1789820942123603700,1.342603759765625,-0.047518689185380936,0.037147171795368195,-0.03006852976977825
1789820942133573600,1.35257373046875,-0.12106188386678696,0.0898045226931572,0.009056503884494305
1789820942143543600,1.36254345703125,-0.21755269169807434,0.09128731489181519,0.05610900744795799
1789820942153513500,1.372513427734375,-0.17444516718387604,0.06025083735585213,0.049915291368961334
1789820942163483600,1.382483642578125,-0.18934477865695953,0.11683005839586258,-0.006573875900357962
1789820942173453600,1.39245361328125,-0.16620057821273804,0.11367714405059814,0.037866294384002686
1789820942183423500,1.402423583984375,-0.05545375868678093,0.0724339410662651,0.04872090741991997
1789820942193393400,1.412393310546875,-0.08287948369979858,0.14177647233009338,-0.018054623156785965
1789820942203363300,1.42236328125,-0.019394248723983765,0.1188618391752243,-0.10626490414142609
1789820942213333500,1.43233349609375,-0.16010333597660065,0.07252413034439087,0.011148111894726753
1789820942223303700,1.4423037109375,-0.23147684335708618,0.09787902235984802,0.025307074189186096
1789820942233273600,1.452273681640625,-0.19898667931556702,0.08720489591360092,-0.08136865496635437
1789820942243243500,1.462243408203125,-0.289843887090683,0.1211325079202652,-0.03430313989520073
1789820942253213700,1.472213623046875,-0.29260995984077454,0.06813892722129822,0.055374372750520706
1789820942263183600,1.48218359375,-0.25780805945396423,0.06618443876504898,-0.007921773940324783
1789820942273154600,1.492154541015625,-0.27683767676353455,0.07368069887161255,-0.006965698674321175
1789820942283124500,1.50212451171875,-0.21130816638469696,0.0559825636446476,-0.03724125027656555
1789820942293094700,1.5120947265625,-0.15053324401378632,0.022228512912988663,-0.02678517997264862
1789820942303064600,1.522064697265625,-0.0832735151052475,0.0782313272356987,-0.10262294858694077
1789820942313034500,1.532034423828125,-0.07848178595304489,0.0813901349902153,-0.03043355420231819
1789820942323004400,1.54200439453125,-0.04333285242319107,0.0434880256652832,0.05406375601887703
1789820942332974300,1.551974365234375,-0.0414976142346859,0.14484156668186188,-0.08870451152324677
1789820942342944500,1.561944580078125,0.023801762610673904,0.08643178641796112,-0.07901832461357117
1789820942352914700,1.571914794921875,0.06621471047401428,0.05454133450984955,0.0215793214738369
1789820942362884600,1.581884521484375,0.04610172286629677,0.10123986005783081,0.024450475350022316
1789820942372854500,1.5918544921875,0.059798333793878555,0.13051702082157135,-0.019309494644403458
1789820942382824400,1.601824462890625,0.06302422285079956,0.08599455654621124,0.03241388499736786
1789820942392794600,1.611794677734375,0.05119101330637932,0.11368970572948456,0.0032212829682976007
1789820942402764500,1.6217646484375,-0.01595979370176792,0.12958025932312012,-0.0031830868683755398
1789820942412734500,1.631734375,-0.11261655390262604,0.08990846574306488,0.05642475187778473
1789820942422704400,1.641704345703125,-0.09114135056734085,0.05962592735886574,0.018933838233351707
1789820942432675600,1.651675537109375,-0.1328832358121872,0.046416256576776505,-0.022714082151651382
1789820942442645500,1.6616455078125,-0.21113036572933197,0.05909476801753044,0.011802084743976593
1789820942452615400,1.671615478515625,-0.15663285553455353,0.014740917831659317,0.06332562118768692
1789820942462585300,1.68158544921875,-0.18606239557266235,0.05357673019170761,0.012450188398361206
1789820942472555500,1.691555419921875,-0.24423570930957794,0.07404215633869171,0.0018611266277730465
1789820942482525700,1.701525634765625,-0.17561589181423187,0.00029256846755743027,0.027846921235322952
1789820942492495600,1.71149560546875,-0.19394157826900482,0.027895625680685043,0.04736350104212761
1789820942502465500,1.721465576171875,-0.18767568469047546,0.08047094941139221,0.006442166864871979
1789820942512435500,1.731435546875,-0.15045267343521118,0.11479479819536209,-0.07117332518100739
1789820942522405600,1.741405517578125,-0.1530148983001709,0.05557142198085785,0.06117565929889679
1789820942532375600,1.75137548828125,-0.1581554412841797,0.015023453161120415,0.13351263105869293
1789820942542345500,1.761345458984375,-0.1531447172164917,0.07900430262088776,0.020923761650919914
1789820942552315400,1.7713154296875,-0.152299702167511,0.09003663063049316,-0.036134764552116394
1789820942562285300,1.781285400390625,-0.14024463295936584,0.030448665842413902,0.07323753088712692
1789820942572256500,1.791256591796875,-0.1408224254846573,0.03755562752485275,0.09131814539432526
1789820942582226400,1.801226318359375,-0.14195959270000458,0.0821867436170578,-0.014457553625106812
1789820942592196400,1.8111962890625,-0.12052275985479355,0.06419575959444046,0.02040189318358898
1789820942602166500,1.82116650390625,-0.06985093653202057,-0.0011579387355595827,0.09178294986486435
1789820942612136700,1.83113671875,-0.11942412704229355,0.09104394912719727,-0.015282023698091507
1789820942622106600,1.841106689453125,-0.11921986192464828,0.10492567718029022,-0.08613196015357971
1789820942632076500,1.85107666015625,-0.12596635520458221,0.06999935954809189,-0.018979711458086967
1789820942642046500,1.86104638671875,-0.19792470335960388,0.05008423328399658,0.014123912900686264
1789820942652016600,1.8710166015625,-0.24616363644599915,0.012328743003308773,0.013445066288113594
1789820942661986600,1.880986572265625,-0.18648645281791687,-0.021259844303131104,-0.038180842995643616
1789820942671956500,1.89095654296875,-0.23178276419639587,-0.02909594401717186,-0.024386456236243248
1789820942681926400,1.900926513671875,-0.2870774269104004,-0.04541286826133728,0.07712205499410629
1789820942691896300,1.910896240234375,-0.22246727347373962,-0.03308705985546112,0.025801680982112885
1789820942701866800,1.92086669921875,-0.28849130868911743,-0.006387803237885237,0.035440459847450256
1789820942711836700,1.930836669921875,-0.31247204542160034,-0.026020651683211327,0.0877898782491684
1789820942721807400,1.940807373046875,-0.25547081232070923,-0.019467677921056747,0.014391028322279453
1789820942731777500,1.950777587890625,-0.2141178846359253,-0.021971099078655243,-0.0023300410248339176
1789820942741747700,1.960747802734375,-0.18372029066085815,-0.0936487466096878,0.10189143568277359
1789820942751717600,1.970717529296875,-0.21431586146354675,-0.07037317752838135,0.060701873153448105
1789820942761687600,1.9806875,-0.2624328136444092,-0.09107019752264023,0.005663654301315546
1789820942771657500,1.990657470703125,-0.2605834901332855,-0.1203734502196312,0.009808570146560669
1789820942781627400,2.00062744140625,-0.1811605542898178,-0.17783062160015106,-0.005130698438733816
1789820942791597600,2.01059765625,-0.1821572631597519,-0.1448906511068344,-0.02692316845059395
1789820942801567500,2.0205673828125,-0.1245429664850235,-0.1614517867565155,-0.059526652097702026
1789820942811537400,2.030537353515625,-0.14585357904434204,-0.18381807208061218,0.05690888315439224
1789820942821507300,2.04050732421875,-0.08354619145393372,-0.1981886923313141,0.017780698835849762
1789820942831477800,2.050477783203125,-0.01959916576743126,-0.18281719088554382,-0.07064689695835114
1789820942841447700,2.06044775390625,-0.022956877946853638,-0.1891041100025177,-0.020102500915527344
1789820942851417600,2.07041748046875,0.01834576018154621,-0.20319189131259918,0.029284613206982613
1789820942861387500,2.080387451171875,0.07231125235557556,-0.19794413447380066,0.01543138176202774
1789820942871357400,2.090357421875,0.052979905158281326,-0.2069655954837799,0.06229369714856148
1789820942881327600,2.10032763671875,0.12224015593528748,-0.22039684653282166,0.054249346256256104
1789820942891297500,2.110297607421875,0.19408771395683289,-0.2165680229663849,-0.011606896296143532
1789820942901267500,2.120267333984375,0.13005347549915314,-0.16367124021053314,-0.07206457108259201
1789820942911237400,2.1302373046875,0.1620582789182663,-0.19243603944778442,0.045021042227745056
1789820942921208600,2.14020849609375,0.20442678034305573,-0.15606923401355743,0.00258330418728292
1789820942931178500,2.150178466796875,0.17975467443466187,-0.12498300522565842,-0.040965739637613297
1789820942941148400,2.1601484375,0.18712054193019867,-0.13682077825069427,0.008833887055516243
1789820942951118600,2.17011865234375,0.20329073071479797,-0.15016162395477295,0.002466002479195595
1789820942961088500,2.180088623046875,0.20234447717666626,-0.13537800312042236,0.0457916334271431
1789820942971058700,2.19005859375,0.22086462378501892,-0.10839565843343735,-0.0011764084920287132
1789820942981028600,2.200028564453125,0.21053557097911835,-0.0863705649971962,-0.005231400951743126
1789820942990998500,2.20999853515625,0.1834120750427246,-0.059812720865011215,-0.04227304086089134
1789820943000968400,2.219968505859375,0.14801202714443207,-0.02747618779540062,-0.049159109592437744
1789820943010938600,2.229938720703125,0.15989850461483002,-0.0668366476893425,-0.026000525802373886
1789820943020908500,2.239908447265625,0.10657660663127899,-0.046917494386434555,-0.004841023590415716
1789820943030878500,2.24987841796875,0.1015714630484581,0.0018745445413514972,-0.05389858037233353
1789820943040848400,2.259848388671875,0.1240449994802475,-0.025394342839717865,-0.013590850867331028
1789820943050818600,2.269818603515625,0.07692782580852509,0.010839295573532581,-0.008487967774271965
1789820943060789500,2.27978955078125,0.08729109913110733,0.04125722870230675,-0.01365208812057972
1789820943070759400,2.289759521484375,0.1209435984492302,0.004026769194751978,0.023666521534323692
1789820943080729600,2.2997294921875,0.06445787847042084,0.051939185708761215,0.01803259551525116
1789820943090699500,2.309699462890625,0.045327328145504,-0.0034180795773863792,0.07657952606678009
1789820943100669700,2.319669677734375,-0.02838137559592724,0.02386804297566414,0.021385131403803825
1789820943110639600,2.3296396484375,-0.028860745951533318,-0.013603431172668934,0.049189332872629166
1789820943120609500,2.339609619140625,0.04432867839932442,-0.0325140543282032,0.07762961834669113
1789820943130580500,2.34958056640625,-0.014884047210216522,0.08267991244792938,-0.02877991273999214
1789820943140550400,2.35955029296875,-0.03618177771568298,0.06854816526174545,0.03697953745722771
1789820943150520300,2.369520263671875,0.013808686286211014,-0.012595423497259617,0.09611956030130386
1789820943160490200,2.379490234375,-0.016648191958665848,0.04059533029794693,0.013038629665970802
1789820943170460400,2.38946044921875,-0.06392809003591537,0.09641598165035248,-0.06329262256622314
1789820943180430300,2.399430419921875,-0.03055993653833866,0.00532501982524991,0.04376249760389328
1789820943190400300,2.409400146484375,-0.08341862261295319,0.051736194640398026,0.07782299816608429
1789820943200371200,2.41937109375,-0.041176896542310715,0.0772724524140358,-0.0242298673838377
1789820943210341400,2.42934130859375,-0.045501720160245895,0.02345368266105652,-0.005013647489249706
1789820943220311300,2.439311279296875,-0.10223473608493805,-0.007822006940841675,0.0973561704158783
1789820943230281500,2.449281494140625,-0.04808787256479263,0.024234728887677193,0.017699159681797028
1789820943240251400,2.45925146484375,-0.005583556834608316,0.052475690841674805,0.0020163380540907383
1789820943250221300,2.46922119140625,-0.05160954222083092,0.09757282584905624,0.046006541699171066
1789820943260191500,2.47919140625,0.0019474272849038243,0.09049441665410995,0.02551777847111225
1789820943270161400,2.489161376953125,-0.05624408647418022,0.1356610804796219,-0.02145620994269848
1789820943280131300,2.49913134765625,-0.08024235814809799,0.07775383442640305,0.003686959855258465
1789820943290101200,2.509101318359375,-0.05943428352475166,0.0326143242418766,-0.014056883752346039
1789820943300071400,2.519071533203125,-0.08184126764535904,0.08106838911771774,-0.10168898105621338
1789820943310041300,2.529041259765625,-0.13040587306022644,0.07024557143449783,-0.050157614052295685
1789820943320011300,2.53901123046875,-0.1774374544620514,0.037465039640665054,0.07217828929424286
1789820943329981400,2.5489814453125,-0.1286238431930542,0.02804543823003769,0.010212661698460579
1789820943339952400,2.558952392578125,-0.13605204224586487,0.030366599559783936,-0.0443604439496994
1789820943349922300,2.56892236328125,-0.18452316522598267,0.028069090098142624,0.013318300247192383
1789820943359892500,2.578892578125,-0.15583814680576324,0.01987113244831562,-0.015351288951933384
1789820943369862400,2.5888623046875,-0.17746740579605103,0.03244675323367119,-0.0038177883252501488
1789820943379832300,2.598832275390625,-0.18768063187599182,0.01999514363706112,-0.027188356965780258
1789820943389802500,2.608802490234375,-0.23434747755527496,0.034836143255233765,-0.08174054324626923
1789820943399772400,2.6187724609375,-0.1997046172618866,0.046535566449165344,-0.10297802090644836
1789820943409742300,2.628742431640625,-0.17643901705741882,-0.0016114390455186367,0.05086104944348335
1789820943419712300,2.638712158203125,-0.14656899869441986,-0.03125002607703209,-0.002181127667427063
1789820943429682200,2.64868212890625,-0.2184288054704666,0.11147250235080719,-0.0746966078877449
1789820943439652400,2.65865234375,-0.08196016401052475,0.02382715977728367,-0.10019528120756149
1789820943449622300,2.668622314453125,-0.12012698501348495,-0.0035783660132437944,0.021156979724764824
1789820943459592400,2.678592529296875,-0.2329593300819397,0.10101407021284103,0.0060008615255355835
1789820943469562400,2.688562255859375,-0.1541454792022705,0.05030987411737442,0.008307425305247307
1789820943479532500,2.698532470703125,-0.16541118919849396,0.02731628343462944,0.024679463356733322
1789820943489502500,2.70850244140625,-0.20386484265327454,0.01624179445207119,0.06648736447095871
1789820943499473400,2.718473388671875,-0.15182876586914062,-0.0051937410607934,-0.004481329582631588
1789820943509443300,2.728443359375,-0.17659589648246765,-0.0044579096138477325,-0.009445728734135628
1789820943519413500,2.73841357421875,-0.1978822499513626,0.009033831767737865,0.023869941011071205
1789820943529383400,2.748383544921875,-0.17055900394916534,-0.04095663130283356,0.07287370413541794
1789820943539353300,2.758353271484375,-0.1653599739074707,-0.0037205384578555822,-0.006114340852946043
1789820943549323300,2.7683232421875,-0.18074505031108856,-0.03200410678982735,0.020517801865935326
1789820943559293200,2.778293212890625,-0.2435983568429947,-0.05164695158600807,0.0567900612950325
1789820943569263400,2.788263427734375,-0.17702649533748627,-0.10292945802211761,0.019656021147966385
1789820943579233300,2.7982333984375,-0.2512751519680023,-0.03453095629811287,0.009153845719993114
1789820943589203500,2.808203369140625,-0.26287293434143066,-0.05444740504026413,-0.01604791358113289
1789820943599173400,2.81817333984375,-0.242213174700737,-0.10611731559038162,0.02449129708111286
1789820943609143300,2.828143310546875,-0.19618630409240723,-0.09960509091615677,-0.056723929941654205
1789820943619113500,2.838113525390625,-0.190328449010849,-0.16042736172676086,0.048846930265426636
1789820943629083400,2.84808349609375,-0.11933016777038574,-0.15652823448181152,0.00825183279812336
1789820943639053300,2.85805322265625,-0.14122658967971802,-0.09373519569635391,-0.037366412580013275
1789820943649023200,2.868023193359375,-0.11987761408090591,-0.15516579151153564,0.025169137865304947
1789820943658994400,2.877994384765625,-0.11079596728086472,-0.18125654757022858,-0.0028401161544024944
1789820943668964400,2.88796435546875,-0.11473690718412399,-0.2149210423231125,0.033730145543813705
1789820943678934300,2.897934326171875,-0.06996416300535202,-0.2462996393442154,-0.002187691628932953
1789820943688904200,2.907904296875,-0.024742621928453445,-0.18502749502658844,-0.058832064270973206
1789820943698874400,2.917874267578125,0.006367023102939129,-0.20883634686470032,-0.058694981038570404
1789820943708844500,2.927844482421875,-0.024719789624214172,-0.18073174357414246,-0.03729967772960663
1789820943718814500,2.937814453125,0.0659102126955986,-0.2707284986972809,0.04431872069835663
1789820943728784400,2.947784423828125,0.09330109506845474,-0.21988292038440704,-0.029411962255835533
1789820943738754300,2.95775439453125,0.07653985172510147,-0.22119662165641785,-0.012585686519742012
1789820943748724500,2.967724365234375,0.15165378153324127,-0.2786974608898163,-0.005451343487948179
1789820943758694400,2.9776943359375,0.12595602869987488,-0.24237152934074402,-0.019987251609563828
1789820943768664300,2.987664306640625,0.1446269452571869,-0.23393869400024414,-0.04427630454301834
1789820943778634200,2.99763427734375,0.1957857310771942,-0.26052209734916687,0.010023952461779118
1789820943788604200,3.007604248046875,0.2314651608467102,-0.28317174315452576,0.017519952729344368
1789820943798574300,3.01757421875,0.20422537624835968,-0.19801810383796692,-0.009211447089910507
1789820943808544500,3.02754443359375,0.26992103457450867,-0.2154271900653839,-0.04190121591091156
1789820943818514400,3.037514404296875,0.27503612637519836,-0.24491874873638153,0.055219173431396484
1789820943828484400,3.047484375,0.23034536838531494,-0.20973998308181763,0.04004181921482086
1789820943838455600,3.05745556640625,0.2344636619091034,-0.18215280771255493,-0.024440772831439972
1789820943848425500,3.067425537109375,0.296648770570755,-0.23558513820171356,0.021504079923033714
1789820943858395400,3.0773955078125,0.23803138732910156,-0.18743392825126648,0.04242336004972458
1789820943868365300,3.087365234375,0.22652201354503632,-0.12850500643253326,-0.005513022653758526
1789820943878335500,3.09733544921875,0.2693975567817688,-0.15927650034427643,0.03300187736749649
1789820943888305400,3.107305419921875,0.2345208078622818,-0.1650901883840561,0.08661370724439621
1789820943898275300,3.117275390625,0.28308457136154175,-0.18722772598266602,0.03981737792491913
1789820943908245200,3.127245361328125,0.26178035140037537,-0.12377738207578659,0.013331708498299122
1789820943918215200,3.137215087890625,0.28550365567207336,-0.14942918717861176,0.041653525084257126
1789820943928185300,3.147185302734375,0.28775349259376526,-0.14840945601463318,0.04957855865359306
1789820943938155500,3.157155517578125,0.27750569581985474,-0.10904810577630997,0.06225898116827011
1789820943948125400,3.16712548828125,0.27181851863861084,-0.041621122509241104,-0.02645277976989746
1789820943958095400,3.177095458984375,0.27139416337013245,-0.06970766931772232,0.08445633947849274
1789820943968065300,3.187065185546875,0.31760555505752563,-0.03425966948270798,0.04930544272065163
1789820943978035500,3.197035400390625,0.3150894045829773,-0.01282361801713705,-0.02263026498258114
1789820943988005400,3.20700537109375,0.21970213949680328,0.011675333604216576,0.0029155740048736334
1789820943997975300,3.216975341796875,0.2529832124710083,-0.053417108952999115,0.12607036530971527
1789820944007945200,3.2269453125,0.22840943932533264,-0.02834904007613659,0.03290819749236107
1789820944017915100,3.2369150390625,0.12754429876804352,0.03112339973449707,-0.021796636283397675
1789820944027885300,3.24688525390625,0.1921062469482422,-0.013401458971202374,0.026526954025030136
1789820944037855500,3.25685546875,0.141722172498703,-0.025002844631671906,0.04503776878118515
1789820944047825400,3.266825439453125,0.0038018468767404556,0.0640479326248169,0.021232835948467255
1789820944057796400,3.27679638671875,0.07227160036563873,-0.00398633349686861,-0.03784525394439697
1789820944067766500,3.2867666015625,-0.04479776322841644,0.005445783957839012,-0.016919996589422226
1789820944077736400,3.296736328125,-0.11193490773439407,0.031214803457260132,-0.08963751047849655
1789820944087706400,3.306706298828125,-0.049171652644872665,-0.02349078468978405,0.011055545881390572
1789820944097676300,3.31667626953125,-0.14279204607009888,0.06492428481578827,-0.011179657652974129
1789820944107646500,3.326646484375,-0.12977638840675354,0.01630934327840805,0.0336993969976902
1789820944117616400,3.336616455078125,-0.04188654571771622,0.01564311794936657,-0.03522511571645737
1789820944127586300,3.34658642578125,-0.1496487408876419,0.03207223489880562,-0.04260002076625824
1789820944137556000,3.356555908203125,-0.10950078815221786,0.03760948032140732,-0.019181516021490097
1789820944147526100,3.366526123046875,-0.037322998046875,0.009827916510403156,-0.013701530173420906
1789820944157496300,3.376496337890625,-0.10015468299388885,0.046143561601638794,-0.04869462549686432
1789820944167466200,3.38646630859375,-0.09887165576219559,0.05056147277355194,-0.04359317570924759
1789820944177436200,3.396436279296875,0.025215137749910355,-0.02303844690322876,-0.02314702235162258
1789820944187406000,3.406406005859375,0.02090800739824772,0.01734146848320961,-0.002232153434306383
1789820944197376000,3.4163759765625,0.011567355133593082,0.04961496964097023,-0.04560141637921333
1789820944207346200,3.42634619140625,0.0522676482796669,0.01796143688261509,-0.0028270529583096504
1789820944217316000,3.436316162109375,0.1077670082449913,-0.0725289136171341,0.059925518929958344
1789820944227286000,3.4462861328125,0.09396251291036606,-0.06775253266096115,0.055653803050518036
1789820944237256000,3.456255859375,0.1177891343832016,-0.010091273114085197,-0.11688295751810074
1789820944247226000,3.46622607421875,0.1200508400797844,-0.029224295169115067,-0.04494688659906387
1789820944257196300,3.4761962890625,0.17116834223270416,-0.083245187997818,0.05587959289550781
1789820944267166200,3.486166259765625,0.23103860020637512,-0.06802229583263397,-0.03323163837194443
1789820944277136100,3.49613623046875,0.2933061122894287,-0.09798548370599747,0.006146825850009918
1789820944287106000,3.50610595703125,0.3046444058418274,-0.08061697334051132,0.05567217618227005
1789820944297076200,3.516076171875,0.3374825119972229,-0.08160261064767838,0.01727498695254326
1789820944307047200,3.526047119140625,0.3944920003414154,-0.06093008443713188,-0.02519684098660946
1789820944317017000,3.53601708984375,0.39380744099617004,-0.030841724947094917,0.02518094703555107
1789820944326987000,3.545987060546875,0.41674402356147766,-0.01638198085129261,0.002359593752771616
1789820944336957200,3.555957275390625,0.40270835161209106,0.007196848280727863,-0.0005871937610208988
1789820944346927000,3.565927001953125,0.4078969955444336,0.02175981178879738,0.007999369874596596
1789820944356897000,3.57589697265625,0.40561842918395996,0.02344512566924095,0.03203633055090904
1789820944366867000,3.585866943359375,0.3780338764190674,0.043066877871751785,0.05641429126262665
1789820944376837000,3.595837158203125,0.41663479804992676,0.13161006569862366,-0.05843080207705498
1789820944386807300,3.605807373046875,0.43931055068969727,0.08776430785655975,0.024191640317440033
1789820944396777200,3.615777099609375,0.3856673538684845,0.13419026136398315,0.049321360886096954
1789820944406747100,3.6257470703125,0.35972484946250916,0.21467670798301697,0.019407160580158234
1789820944416717000,3.635717041015625,0.37501060962677,0.1681765913963318,0.03179938346147537
1789820944426687000,3.64568701171875,0.29584893584251404,0.20703689754009247,0.010805683210492134
1789820944436657200,3.6556572265625,0.28663453459739685,0.19303108751773834,0.03185632452368736
1789820944446627000,3.665626953125,0.25938042998313904,0.17242799699306488,0.0646314024925232
1789820944456597000,3.675596923828125,0.1696726530790329,0.2527068555355072,-0.02756642922759056
1789820944466567000,3.68556689453125,0.12507057189941406,0.2533004879951477,-0.0362456738948822
1789820944476537300,3.695537353515625,0.0707075223326683,0.23197507858276367,-0.0028130123391747475
1789820944486507300,3.70550732421875,-0.022373417392373085,0.24607853591442108,0.031418703496456146
1789820944496477200,3.715477294921875,-0.06541010737419128,0.24653100967407227,-0.026475489139556885
1789820944506447000,3.725447021484375,-0.17062386870384216,0.22019127011299133,0.03259182348847389
1789820944516417000,3.7354169921875,-0.17545443773269653,0.16507011651992798,0.039896801114082336
1789820944526387200,3.74538720703125,-0.26730450987815857,0.24566344916820526,0.010722284205257893
1789820944536357000,3.755357177734375,-0.28500494360923767,0.2295912653207779,-0.0050132698379457
1789820944546327000,3.7653271484375,-0.35555416345596313,0.20123571157455444,0.07067785412073135
1789820944556297000,3.775296875,-0.3714292645454407,0.2373785376548767,-0.05913073942065239
1789820944566267100,3.78526708984375,-0.3767733871936798,0.20597438514232635,-0.087490513920784
1789820944576237300,3.7952373046875,-0.43472614884376526,0.16307032108306885,-0.021343717351555824
1789820944586207200,3.805207275390625,-0.4284616708755493,0.1716165691614151,-0.053070180118083954
1789820944596177200,3.81517724609375,-0.4353454113006592,0.1537022888660431,-0.07253389805555344
1789820944606147000,3.82514697265625,-0.49272817373275757,0.14585599303245544,0.03128707408905029
1789820944616117000,3.835116943359375,-0.40785616636276245,0.11899907141923904,-0.05207759141921997
1789820944626087200,3.845087158203125,-0.46344730257987976,0.11638369411230087,-0.00343530485406518
1789820944636057000,3.85505712890625,-0.4301695227622986,0.10924270004034042,0.022606415674090385
1789820944646028000,3.865028076171875,-0.38435789942741394,0.06253174692392349,-0.0021362444385886192
1789820944655998200,3.874998291015625,-0.41151735186576843,0.08879158645868301,-0.008715317584574223
1789820944665968000,3.884968017578125,-0.2877728343009949,0.05371621251106262,-0.006939031183719635
1789820944675938000,3.89493798828125,-0.25413018465042114,0.027867570519447327,-0.023724135011434555
1789820944685908000,3.904907958984375,-0.3082005977630615,0.054568976163864136,0.035048313438892365
1789820944695878100,3.914878173828125,-0.2189282327890396,0.010320553556084633,0.03797699138522148
1789820944705848300,3.924848388671875,-0.2301047295331955,-0.0031949891708791256,0.04934602603316307
1789820944715818200,3.934818359375,-0.23144619166851044,0.021600572392344475,-0.0008362573571503162
1789820944725788200,3.9447880859375,-0.22239142656326294,-0.0023229459766298532,0.0005042115226387978
1789820944735758000,3.954758056640625,-0.23819434642791748,-0.03188456594944,-0.0008057975210249424
1789820944745728000,3.96472802734375,-0.2523692548274994,-0.05620194971561432,0.021430041640996933
1789820944755698200,3.9746982421875,-0.26290738582611084,-0.012265384197235107,-0.025259964168071747
1789820944765668000,3.984668212890625,-0.27959179878234863,-0.029097996652126312,-0.013851070776581764
1789820944775638000,3.994637939453125,-0.2494296282529831,-0.07277171313762665,0.03486959636211395
1789820944785608000,4.00460791015625,-0.26386547088623047,-0.06335283815860748,0.02056967280805111
1789820944795578000,4.014578125,-0.2610244154930115,-0.07601430267095566,0.06196771189570427
1789820944805548300,4.02454833984375,-0.21817347407341003,-0.11959454417228699,0.08106420934200287
1789820944815518200,4.034518310546875,-0.3027280271053314,-0.05556043982505798,0.026483790948987007
1789820944825488100,4.044488037109375,-0.29269710183143616,-0.10498274862766266,0.04532385244965553
1789820944835458000,4.0544580078125,-0.22877883911132812,-0.16494621336460114,0.014718275517225266
1789820944845428200,4.06442822265625,-0.2660675346851349,-0.09255662560462952,-0.04791348800063133
1789820944855398100,4.074398193359375,-0.24640943109989166,-0.07672679424285889,-0.10053861141204834
1789820944865368000,4.0843681640625,-0.24657082557678223,-0.15901213884353638,0.048767175525426865
1789820944875338000,4.094337890625,-0.1880183070898056,-0.21147562563419342,0.07770561426877975
1789820944885308000,4.104307861328125,-0.0857430174946785,-0.18777713179588318,0.00522263627499342
1789820944895278300,4.1142783203125,-0.04235506057739258,-0.1700356900691986,-0.011934245936572552
1789820944905248300,4.124248291015625,-0.036380473524332047,-0.1888841986656189,0.11674901843070984
1789820944915218200,4.13421826171875,0.02798866294324398,-0.17754073441028595,0.06466478109359741
1789820944925188000,4.14418798828125,0.11712333559989929,-0.16986151039600372,-0.030899830162525177
1789820944935158000,4.154157958984375,0.12109996378421783,-0.1630517989397049,0.011431381106376648
1789820944945128200,4.164128173828125,0.18772399425506592,-0.20212623476982117,0.009324288927018642
1789820944955098000,4.17409814453125,0.1681271344423294,-0.13016921281814575,-0.0024436870589852333
1789820944965068000,4.184068115234375,0.21837344765663147,-0.17733289301395416,-0.029764078557491302
1789820944975038000,4.194037841796875,0.20667417347431183,-0.18588322401046753,0.026681622490286827
1789820944985008000,4.204008056640625,0.2577225863933563,-0.18455128371715546,-0.06160849705338478
1789820944994978300,4.213978271484375,0.21025919914245605,-0.14134842157363892,-0.03242078423500061
1789820945004948200,4.2239482421875,0.2790580093860626,-0.20697608590126038,0.09558838605880737
1789820945014918100,4.233918212890625,0.3220411539077759,-0.2028663009405136,0.11124830693006516
1789820945024888000,4.24388818359375,0.34429556131362915,-0.15319602191448212,0.00889150146394968
1789820945034858200,4.253858154296875,0.3019654154777527,-0.16025206446647644,0.011814853176474571
1789820945044828200,4.263828125,0.34150031208992004,-0.19383665919303894,0.04646977037191391
1789820945054798000,4.273798095703125,0.36120450496673584,-0.1530202478170395,-0.023677624762058258
1789820945064768000,4.28376806640625,0.2755378484725952,-0.1115458533167839,-0.04643438011407852
1789820945074738000,4.293738037109375,0.32403135299682617,-0.16782057285308838,0.026551946997642517
1789820945084708000,4.3037080078125,0.28253668546676636,-0.11071017384529114,-0.02728273533284664
1789820945094678300,4.31367822265625,0.26368817687034607,-0.06796137988567352,-0.05828006565570831
1789820945104648200,4.323648193359375,0.27145734429359436,-0.09077943116426468,0.02493971772491932
1789820945114618000,4.3336181640625,0.3107520341873169,-0.12030217051506042,0.038723174482584
1789820945124588000,4.343588134765625,0.2847406566143036,-0.0371510311961174,-0.018990766257047653
1789820945134558000,4.353557861328125,0.21569500863552094,0.0045364960096776485,-0.04485724866390228
1789820945144528000,4.36352783203125,0.19611996412277222,-0.06886189430952072,0.013749716803431511
1789820945154498000,4.373498046875,0.20134295523166656,-0.1302192658185959,0.030879702419042587
1789820945164468000,4.383468017578125,0.15587261319160461,-0.08636487275362015,0.02081499621272087
1789820945174438000,4.39343798828125,0.18344910442829132,-0.036477744579315186,0.0027294703759253025
1789820945184408000,4.403407958984375,0.19146734476089478,-0.08540507405996323,0.0844978392124176
1789820945194378000,4.4133779296875,0.1261862814426422,-0.041363462805747986,0.023995526134967804
1789820945204348200,4.42334814453125,0.1891709715127945,-0.054526157677173615,-0.06899150460958481
1789820945214318000,4.433318115234375,0.17800088226795197,-0.022225474938750267,-0.08424875885248184
1789820945224288000,4.4432880859375,0.1727442592382431,-0.03700584918260574,0.06171822175383568
1789820945234258000,4.4532578125,0.22308386862277985,-0.031846772879362106,-0.025652635842561722
1789820945244227800,4.463227783203125,0.19196747243404388,0.005679700057953596,0.03035987727344036
1789820945254198000,4.473197998046875,0.2348363846540451,0.002540365792810917,0.09114626049995422
1789820945264168000,4.48316796875,0.2674854099750519,-0.019298620522022247,0.005880100652575493
1789820945274137900,4.493137939453125,0.18605081737041473,-0.008909935131669044,0.11696477979421616
1789820945284108000,4.50310791015625,0.24708865582942963,0.013369876891374588,0.037840601056814194
1789820945294078000,4.513077880859375,0.21939150989055634,0.04016047716140747,-0.01446281373500824
1789820945304048000,4.523048095703125,0.2011384665966034,0.04278715327382088,-0.055477093905210495
1789820945314018000,4.53301806640625,0.24785545468330383,0.005170952063053846,0.014807541854679585
1789820945323988000,4.542988037109375,0.270780473947525,-0.001706661656498909,-0.048573292791843414
1789820945333958000,4.5529580078125,0.23682239651679993,0.07989109307527542,-0.1410507708787918
1789820945343928000,4.562927978515625,0.2904036045074463,0.05528748035430908,-0.07090631872415543
1789820945353898000,4.57289794921875,0.2806817591190338,0.015673978254199028,0.06973347067832947
1789820945363868000,4.582867919921875,0.2741870880126953,0.061444662511348724,0.008779843337833881
1789820945373837800,4.592837890625,0.2658805251121521,0.07552668452262878,0.01868099346756935
1789820945383808000,4.60280810546875,0.26856178045272827,0.031598109751939774,0.04617040604352951
1789820945393778200,4.612778076171875,0.23511500656604767,0.04529350623488426,0.07676573097705841
1789820945403748900,4.622748779296875,0.19027669727802277,0.07969435304403305,0.13717740774154663
1789820945413718000,4.632718017578125,0.21715253591537476,0.12632964551448822,0.021137051284313202
1789820945423688000,4.64268798828125,0.23475123941898346,0.14675608277320862,-0.1096087098121643
1789820945433657900,4.652657958984375,0.20111463963985443,0.0740816667675972,0.025687627494335175
1789820945443628000,4.6626279296875,0.1727098971605301,0.04668518900871277,0.04648132249712944
1789820945453599000,4.672598876953125,0.1419060230255127,0.1023012176156044,-0.04999327287077904
1789820945463569000,4.68256884765625,0.12878169119358063,0.11732330918312073,-0.008353951387107372
1789820945473538800,4.692538818359375,0.08661773055791855,0.09841833263635635,0.036251865327358246
1789820945483508000,4.702508056640625,0.04655418172478676,0.1252722293138504,0.03139757364988327
1789820945493478100,4.71247802734375,0.031687673181295395,0.13492700457572937,-0.012571022845804691
1789820945503448000,4.722447998046875,-0.02616977132856846,0.10771163552999496,0.029064305126667023
1789820945513419000,4.7324189453125,-0.036535490304231644,0.07363897562026978,0.04050564020872116
1789820945523388000,4.742387939453125,-0.07596811652183533,0.0991525948047638,0.008565817028284073
1789820945533358000,4.752358154296875,-0.12652546167373657,0.0890539139509201,-0.003714769147336483
1789820945543328000,4.762327880859375,-0.07334268093109131,0.059864867478609085,-0.030399642884731293
1789820945553298000,4.7722978515625,-0.10592032968997955,0.02733675204217434,0.03459373861551285
1789820945563267800,4.782267822265625,-0.1284322887659073,0.049629006534814835,0.023485958576202393
1789820945573238000,4.792238037109375,-0.1294948011636734,0.08392555266618729,-0.011843670159578323
1789820945583208200,4.802208251953125,-0.11339465528726578,0.07109151035547256,0.05569515749812126
1789820945593178000,4.81217822265625,-0.09598753601312637,0.0887918621301651,-0.005250880494713783
1789820945603148000,4.82214794921875,-0.06689706444740295,0.0606563501060009,0.000594097189605236
1789820945613118000,4.832117919921875,-0.05797494202852249,0.048595961183309555,0.09241749346256256
1789820945623087900,4.842087890625,-0.07487083226442337,0.08158933371305466,0.04445742443203926
1789820945633058000,4.85205810546875,-0.07138415426015854,0.08694583177566528,0.0030756329651921988
1789820945643028000,4.862028076171875,0.005996916443109512,0.04913506656885147,0.014309111982584
1789820945652998000,4.871997802734375,0.003233786439523101,-0.00005460716784000397,0.10561341792345047
1789820945662967800,4.8819677734375,-0.02501889131963253,0.0901128351688385,-0.06615141779184341
1789820945672938000,4.89193798828125,-0.030349738895893097,0.1193016767501831,-0.09696251153945923
1789820945682908200,4.901908203125,-0.08474133908748627,0.0218662042170763,0.09188277274370193
1789820945692878000,4.911878173828125,-0.038368385285139084,0.04414457827806473,-0.04004480689764023
1789820945702848000,4.921847900390625,-0.026695216074585915,0.07165603339672089,-0.08776288479566574
1789820945712818000,4.93181787109375,-0.0004657435929402709,0.11326392740011215,-0.1558077037334442
1789820945722788000,4.9417880859375,-0.07870621979236603,0.0837976485490799,0.05863054841756821
1789820945732758000,4.951758056640625,0.035463593900203705,0.0650687962770462,0.0038409351836889982
1789820945742728000,4.96172802734375,0.022184008732438087,0.12030301988124847,-0.1259399652481079
1789820945752697900,4.97169775390625,-0.03652987256646156,0.04836565628647804,0.10635217279195786
1789820945762667800,4.981667724609375,0.027859942987561226,0.04200873151421547,0.16699212789535522
1789820945772638200,4.99163818359375,0.0667993500828743,0.0745813176035881,0.021972883492708206
1789820945782608100,5.001608154296875,0.010389073751866817,0.10866338759660721,-0.03161977231502533
1789820945792578000,5.011578125,0.04157787933945656,0.03275444731116295,0.09258464723825455
1789820945802548000,5.0215478515625,0.03171273320913315,0.05381312593817711,0.04450473561882973
1789820945812518000,5.031517822265625,-0.010242707096040249,0.10831411927938461,-0.11777320504188538
1789820945822488000,5.041488037109375,-0.011579880490899086,0.04969128593802452,0.02216818928718567
1789820945832458000,5.0514580078125,0.012423989363014698,0.05600856989622116,0.009775435552001
1789820945842428000,5.061427978515625,-0.000611385446973145,0.13173076510429382,-0.14677181839942932
1789820945852397800,5.071397705078125,-0.0032566022127866745,0.11617898941040039,-0.05677664652466774
1789820945862368000,5.081367919921875,-0.025520095601677895,0.06636189669370651,0.06497135758399963
1789820945872338200,5.091338134765625,0.019745027646422386,0.04333898425102234,0.05339570716023445
1789820945882308000,5.10130810546875,0.03761963173747063,0.13532882928848267,-0.10156511515378952
1789820945892278000,5.111278076171875,-0.015585141256451607,0.11660590767860413,0.016636978834867477
1789820945902248000,5.121248046875,0.02404695563018322,0.010807037353515625,0.1356046348810196
1789820945912218000,5.131218017578125,-0.012644479051232338,0.15168213844299316,-0.0064683398231863976
1789820945922188000,5.14118798828125,0.060365550220012665,0.1461683213710785,-0.13508597016334534
1789820945932158000,5.151157958984375,-0.03928188234567642,0.11698528379201889,0.09755508601665497
1789820945942127900,5.1611279296875,0.07039348036050797,0.07140741497278214,0.041695017367601395
1789820945952097800,5.171097900390625,0.017658038064837456,0.20602592825889587,-0.03576967865228653
1789820945962068000,5.18106787109375,0.09497999399900436,0.1378876268863678,-0.04917949438095093
1789820945972038100,5.1910380859375,0.01788177154958248,0.15565544366836548,-0.0226777121424675
1789820945982008000,5.201008056640625,0.06034268066287041,0.13783596456050873,-0.006935765966773033
1789820945991978000,5.21097802734375,0.009874618612229824,0.19460269808769226,-0.07483061403036118
1789820946001948000,5.220947998046875,0.002911517396569252,0.14471475780010223,-0.04838915169239044
1789820946011918000,5.23091796875,-0.06459226459264755,0.210529163479805,0.011263212189078331
1789820946021888000,5.240887939453125,-0.007636035792529583,0.1291424185037613,0.0651666596531868
1789820946031858000,5.25085791015625,-0.059247396886348724,0.13693848252296448,0.015657294541597366
1789820946041827800,5.260827880859375,-0.07836063206195831,0.20657667517662048,-0.03691297397017479
1789820946051798000,5.270798095703125,-0.11839407682418823,0.08930736780166626,0.12309302389621735
1789820946061768000,5.280767822265625,-0.16491924226284027,0.12326187640428543,0.02258346602320671
1789820946071738000,5.290738037109375,-0.19325779378414154,0.23673933744430542,-0.12643930315971375
1789820946081708000,5.3007080078125,-0.21799136698246002,0.12187639623880386,0.02661655656993389
1789820946091678000,5.310677978515625,-0.13932766020298004,0.10588806122541428,0.009983962401747704
1789820946101648100,5.320648193359375,-0.1806125044822693,0.17029660940170288,-0.06627139449119568
1789820946111618000,5.3306181640625,-0.21006347239017487,0.18801119923591614,-0.04332808405160904
1789820946121588000,5.340587890625,-0.18169867992401123,0.12569589912891388,0.02989313192665577
1789820946131557400,5.350557373046875,-0.22039003670215607,0.1372019648551941,-0.026437921449542046
1789820946141527300,5.36052734375,-0.2316562682390213,0.1347164362668991,0.042339812964200974
1789820946151497500,5.37049755859375,-0.1373787671327591,0.03469104319810867,0.08461803197860718
1789820946161467400,5.38046728515625,-0.2423764318227768,0.11046499758958817,0.0690649077296257
1789820946171437300,5.390437255859375,-0.2065163254737854,0.08348766714334488,0.1336720734834671
1789820946181407500,5.400407470703125,-0.1281675547361374,0.09097505360841751,0.029196402058005333
1789820946191377400,5.41037744140625,-0.10665853321552277,0.10252358019351959,0.007154748309403658
1789820946201347300,5.420347412109375,-0.07283931970596313,0.13211822509765625,-0.03791126608848572
1789820946211317200,5.430317138671875,-0.061968810856342316,0.05741364136338234,0.08009567111730576
1789820946221287200,5.440287109375,-0.06058609485626221,0.045111168175935745,0.21613259613513947
1789820946231257300,5.45025732421875,0.0037700170651078224,0.1364128589630127,0.043255764991045
1789820946241227300,5.460227294921875,-0.019401438534259796,0.16416896879673004,0.03591454029083252
1789820946251197400,5.470197509765625,-0.06514762341976166,0.03998097404837608,0.2598794400691986
1789820946261167400,5.48016748046875,-0.01000580657273531,0.054787881672382355,0.1348499059677124
1789820946271137500,5.490137451171875,-0.019584307447075844,0.05821952223777771,-0.11800289154052734
1789820946281107500,5.500107421875,-0.13815966248512268,0.03537093847990036,-0.0020388797856867313
1789820946291077400,5.510077392578125,-0.09123822301626205,0.05512333661317825,-0.042125847190618515
1789820946301047300,5.52004736328125,-0.04771886765956879,0.06273780763149261,-0.05900527164340019
1789820946311017200,5.530017333984375,-0.13547775149345398,0.11839387565851212,-0.07895394414663315
1789820946320987400,5.5399873046875,-0.09166797995567322,0.09971845149993896,-0.048892583698034286
1789820946330957300,5.549957275390625,0.006655664648860693,-0.027010995894670486,0.06193806231021881
1789820946340927500,5.559927490234375,-0.15853118896484375,0.07801028341054916,0.053607914596796036
1789820946350897400,5.5698974609375,-0.17279109358787537,0.054677534848451614,0.009609563276171684
1789820946360867300,5.579867431640625,-0.1981925666332245,-0.019240358844399452,0.03715690225362778
1789820946370837500,5.58983740234375,-0.25774458050727844,-0.0057708886452019215,0.03531825542449951
1789820946380807400,5.599807373046875,-0.25971555709838867,0.03174692392349243,-0.06691969186067581
1789820946390777300,5.60977734375,-0.23010599613189697,-0.008514076471328735,-0.011599632911384106
1789820946400747300,5.619747314453125,-0.18102675676345825,-0.05648424103856087,0.05043847858905792
1789820946410717200,5.62971728515625,-0.21212288737297058,0.020498426631093025,-0.020685765892267227
1789820946420687400,5.639687255859375,-0.18624348938465118,-0.05447670817375183,-0.014429415576159954
1789820946430657300,5.6496572265625,-0.22653977572917938,-0.06204221397638321,0.01685234159231186
1789820946440627500,5.65962744140625,-0.1741640567779541,-0.10126662254333496,-0.021223457530140877
1789820946450597400,5.669597412109375,-0.22288872301578522,-0.07680016756057739,-0.0440605953335762
1789820946460567600,5.679567626953125,-0.2403729259967804,-0.04975456744432449,-0.023462455719709396
1789820946470537500,5.689537353515625,-0.18165741860866547,-0.08853258192539215,0.00015525473281741142
1789820946480507400,5.69950732421875,-0.26723772287368774,-0.08353620767593384,0.06487996131181717
1789820946490477300,5.709477294921875,-0.15690936148166656,-0.11229435354471207,0.01031925156712532
1789820946500447200,5.719447265625,-0.08799587935209274,-0.13899315893650055,0.029070835560560226
1789820946510417400,5.72941748046875,-0.1769968569278717,-0.0731973648071289,0.02619915083050728
1789820946520387300,5.73938720703125,-0.13317474722862244,-0.1012696698307991,0.029974572360515594
1789820946530357200,5.749357177734375,-0.0793091207742691,-0.10318981111049652,-0.015806764364242554
1789820946540327400,5.759327392578125,-0.17884743213653564,-0.08216594904661179,0.06665265560150146
1789820946550297300,5.76929736328125,-0.08529990166425705,-0.13401049375534058,0.04332523047924042
1789820946560267500,5.779267578125,-0.11006855964660645,-0.08080072700977325,-0.000995897687971592
1789820946570236400,5.789236328125,-0.09089246392250061,-0.07965583354234695,0.019642269238829613
1789820946580206300,5.799206298828125,0.003206306602805853,-0.14167334139347076,0.05256102606654167
1789820946590176300,5.80917626953125,-0.09344886243343353,-0.08088216185569763,0.03521186113357544
1789820946600146200,5.819146240234375,-0.09014259278774261,-0.062119532376527786,0.04441872611641884
1789820946610116600,5.82911669921875,-0.09258764237165451,-0.08113743364810944,0.0792749747633934
1789820946620086500,5.83908642578125,-0.06829255074262619,-0.08538327366113663,0.020594794303178787
1789820946630056400,5.849056396484375,-0.04478004202246666,-0.09954196959733963,0.000493254978209734
1789820946640026400,5.8590263671875,-0.11179006099700928,-0.03160828351974487,-0.08435066044330597
1789820946649996300,5.868996337890625,-0.04951710253953934,-0.11304082721471786,-0.010800013318657875
1789820946659966500,5.878966552734375,-0.07766138762235641,-0.07215145230293274,-0.007322457153350115
1789820946669936400,5.888936279296875,-0.07263065129518509,-0.09213447570800781,0.0017449408769607544
1789820946679906300,5.89890625,-0.0884905755519867,-0.06449060142040253,0.00497002899646759
1789820946689876200,5.908876220703125,-0.0204806886613369,-0.12791398167610168,0.04558385908603668
1789820946699846100,5.91884619140625,-0.027073077857494354,-0.13393433392047882,0.061779871582984924
1789820946709816600,5.928816650390625,-0.05712878704071045,-0.09752926975488663,0.00829187873750925
1789820946719786500,5.938786376953125,-0.02993711270391941,-0.10438904166221619,-0.022024482488632202
1789820946729756400,5.94875634765625,-0.02815399505198002,-0.14405253529548645,0.0344000905752182
1789820946739726300,5.958726318359375,-0.050029732286930084,-0.11485736817121506,0.03624965250492096
1789820946749696300,5.9686962890625,-0.06280700862407684,-0.05772123113274574,-0.050885558128356934
1789820946759666400,5.97866650390625,0.03488359972834587,-0.08273976296186447,-0.022182274609804153
1789820946769636400,5.98863623046875,0.002895000856369734,-0.08116105198860168,-0.017124181613326073
1789820946779606300,5.998606201171875,0.004912079311907291,-0.067520871758461,0.021483397111296654
1789820946789576200,6.008576171875,0.030835852026939392,-0.07531899958848953,0.02472415752708912
1789820946799546400,6.01854638671875,-0.0031554033048450947,-0.06664907932281494,0.022958481684327126
1789820946809516500,6.0285166015625,0.011002476327121258,-0.11255253106355667,0.03383984789252281
1789820946819486500,6.038486572265625,-0.006530711427330971,-0.08471716940402985,-0.04381420090794563
1789820946829456400,6.048456298828125,0.06353039294481277,-0.07971595227718353,-0.10056287795305252
1789820946839426300,6.05842626953125,0.0334494523704052,0.008683950640261173,-0.1552136093378067
1789820946849396500,6.068396484375,0.02635260671377182,-0.049517255276441574,-0.042429711669683456
1789820946859366400,6.078366455078125,0.0346001498401165,-0.057221245020627975,-0.006598745938390493
1789820946869336300,6.08833642578125,0.07136110961437225,-0.056786149740219116,-0.02266009710729122
1789820946879306200,6.09830615234375,0.11547397077083588,-0.0572306290268898,-0.07366947829723358
1789820946889276200,6.108276123046875,0.0697682574391365,-0.09672844409942627,0.007942114025354385
1789820946899246300,6.118246337890625,0.021761583164334297,-0.09297791123390198,0.042051348835229874
1789820946909216500,6.128216552734375,0.0650111734867096,-0.1122167557477951,0.027319543063640594
1789820946919186400,6.1381865234375,0.07539191097021103,-0.10276999324560165,-0.004903374705463648
1789820946929156400,6.14815625,0.017861608415842056,-0.04111778363585472,-0.0182763934135437
1789820946939126300,6.158126220703125,0.11839700490236282,-0.07635673880577087,-0.03692491352558136
1789820946949096400,6.168096435546875,0.15601208806037903,-0.0996556505560875,0.01159761380404234
1789820946959066400,6.17806640625,0.16815103590488434,-0.06804179400205612,0.018836084753274918
1789820946969036300,6.188036376953125,0.19358623027801514,-0.052494294941425323,0.027365215122699738
1789820946979006200,6.198006103515625,0.17542000114917755,-0.03032720647752285,0.07829870283603668
1789820946988976400,6.207976318359375,0.26067498326301575,-0.08353649824857712,0.041220664978027344
1789820946998946300,6.2179462890625,0.19337931275367737,-0.00037636421620845795,0.021236304193735123
1789820947008916500,6.22791650390625,0.2588650584220886,-0.02474070154130459,-0.03295285254716873
1789820947018886400,6.237886474609375,0.2009120136499405,-0.03361115977168083,0.05082247033715248
1789820947028856300,6.247856201171875,0.22016483545303345,-0.032995760440826416,0.033097315579652786
1789820947038825200,6.2578251953125,0.25948959589004517,0.027902211993932724,-0.0006760940887033939
1789820947048795400,6.26779541015625,0.27470630407333374,0.04691457003355026,0.038661014288663864
1789820947058765300,6.277765380859375,0.29870086908340454,0.03902548924088478,0.037210121750831604
1789820947068735500,6.287735595703125,0.23382321000099182,0.09368230402469635,-0.02325899340212345
1789820947078705400,6.297705322265625,0.19679568707942963,0.08181339502334595,0.026257958263158798
1789820947088675300,6.30767529296875,0.1374841332435608,0.046578504145145416,0.06798458844423294
1789820947098645500,6.3176455078125,0.07453364878892899,0.05743594467639923,0.05395718663930893
1789820947108615400,6.327615478515625,0.08477261662483215,0.05595194175839424,-0.05837162211537361
1789820947118585300,6.33758544921875,0.03419279307126999,0.03670181334018707,0.016288502141833305
1789820947128555300,6.34755517578125,0.005365768447518349,0.01850692182779312,0.027697885408997536
1789820947138528300,6.3575283203125,-0.03128518536686897,0.10231100767850876,-0.03386002033948898
1789820947148498200,6.367498291015625,-0.043743763118982315,0.09572353959083557,-0.011653999797999859
1789820947158468400,6.37746826171875,-0.09357363730669022,0.06623062491416931,0.04711530730128288
1789820947168438300,6.387438232421875,-0.08851319551467896,0.05316552519798279,-0.018896833062171936
1789820947178408200,6.397408203125,-0.08226994425058365,0.04092643782496452,0.030556201934814453
1789820947188378400,6.40737841796875,-0.0662025511264801,0.034992918372154236,-0.01610596850514412
1789820947198348300,6.417348388671875,-0.10855799913406372,0.060807738453149796,-0.06839074194431305
1789820947208318200,6.427318115234375,-0.11428375542163849,0.10361666977405548,-0.06059642508625984
1789820947218288000,6.4372880859375,-0.09294677525758743,0.09385458379983902,-0.04748968034982681
1789820947228258000,6.447258056640625,-0.16815777122974396,0.06550706923007965,-0.05154319107532501
1789820947238228200,6.457228271484375,-0.13514629006385803,-0.0005672939587384462,0.0007559675723314285
1789820947248198100,6.4671982421875,-0.06653231382369995,-0.01794581115245819,-0.05239482223987579
1789820947258168300,6.477168212890625,-0.14629106223583221,0.013261111453175545,-0.009141892194747925
1789820947268138200,6.48713818359375,-0.18622972071170807,-0.026928327977657318,0.02893753908574581
1789820947278108400,6.4971083984375,-0.17005181312561035,-0.07231977581977844,0.05806745961308479
1789820947288078300,6.507078369140625,-0.17758575081825256,-0.03013533353805542,-0.020907290279865265
1789820947298048300,6.51704833984375,-0.15420904755592346,-0.06315533816814423,-0.04869870841503143
1789820947308018200,6.52701806640625,-0.11455073207616806,-0.08780240267515182,-0.008019918575882912
1789820947317988000,6.536988037109375,-0.1013004407286644,-0.1023658961057663,0.015855586156249046
1789820947327958300,6.546958251953125,-0.11886503547430038,-0.07359223067760468,0.003042696276679635
1789820947337928200,6.55692822265625,-0.030124517157673836,-0.11358331888914108,0.017871709540486336
1789820947347898400,6.5668984375,-0.017275268211960793,-0.06964075565338135,0.06765319406986237
1789820947357868300,6.576868408203125,0.04513191804289818,-0.06672113388776779,0.01433058176189661
1789820947367838200,6.586838134765625,0.061356205493211746,-0.04878746345639229,0.007785516791045666
1789820947377808400,6.596808349609375,0.09140784293413162,-0.11110170185565948,0.001253847498446703
1789820947387778300,6.6067783203125,0.033750806003808975,-0.0923946350812912,0.026270195841789246
1789820947397748200,6.616748291015625,0.03511035069823265,-0.06677981466054916,-0.05728328227996826
1789820947407718100,6.62671826171875,0.04928423836827278,-0.08671383559703827,-0.03502870723605156
1789820947417688000,6.63668798828125,0.01521521806716919,-0.12175038456916809,0.013546552509069443
1789820947427658200,6.646658203125,0.03925124928355217,-0.0908067375421524,-0.040233150124549866
1789820947437628200,6.656628173828125,0.06133231520652771,-0.09298253804445267,-0.02629309706389904
1789820947447597300,6.666597412109375,-0.008050907403230667,-0.09213049709796906,0.06435398757457733
1789820947457567200,6.676567138671875,0.05282096564769745,-0.08046212047338486,0.05315113812685013
1789820947467537200,6.686537109375,0.08108194172382355,-0.05996636673808098,0.018545858561992645
1789820947477507300,6.69650732421875,0.05057969316840172,-0.005326292477548122,-0.035561319440603256
1789820947487477200,6.706477294921875,0.08795758336782455,-0.025935111567378044,-0.007474749349057674
1789820947497447200,6.716447265625,0.09920384734869003,-0.03288063406944275,-0.005938638001680374
1789820947507417000,6.7264169921875,0.030287887901067734,-0.015984022989869118,0.037834830582141876
1789820947517387300,6.73638720703125,0.06221519410610199,-0.06466873735189438,0.1141413226723671
1789820947527357400,6.746357421875,0.05142460763454437,-0.0290987528860569,0.07067334651947021
1789820947537327400,6.756327392578125,0.07961416989564896,-0.030399706214666367,0.05569759011268616
1789820947547297300,6.76629736328125,0.16085901856422424,-0.06530960649251938,0.03366813808679581
1789820947557267200,6.77626708984375,0.08902662992477417,0.01885826140642166,-0.06683103740215302
1789820947567237000,6.786237060546875,0.07414176315069199,0.040750134736299515,-0.10660404711961746
1789820947577207300,6.796207275390625,0.05934470519423485,0.03240618854761124,-0.06940554827451706
1789820947587177200,6.80617724609375,0.04083889350295067,0.03518790751695633,-0.06801370531320572
1789820947597147100,6.816147216796875,0.028472501784563065,0.0514419786632061,-0.02186538279056549
1789820947607117000,6.826116943359375,0.07776056975126266,0.013612276874482632,-0.004577388521283865
1789820947617087200,6.836087158203125,0.01833638921380043,0.11889662593603134,0.032655470073223114
1789820947627057400,6.846057373046875,0.13640469312667847,0.003270755521953106,0.09001579880714417
1789820947637027300,6.85602734375,0.061575986444950104,0.08157727867364883,0.0765596479177475
1789820947646997200,6.865997314453125,0.03886246681213379,0.04250086098909378,0.020077936351299286
1789820947656967200,6.87596728515625,-0.02129194885492325,0.07516905665397644,0.006300339475274086
1789820947666937300,6.885937255859375,0.003487192327156663,0.015070234425365925,0.07345850765705109
1789820947676907300,6.8959072265625,0.0068885814398527145,0.0800846591591835,-0.04620850831270218
1789820947686877200,6.905877197265625,0.039646510034799576,0.08388905227184296,-0.05518951267004013
1789820947696847000,6.91584716796875,0.0042054299265146255,0.052535925060510635,0.017121173441410065
1789820947706817000,6.925817138671875,-0.037254899740219116,0.10688885301351547,0.02026321552693844
1789820947716787500,6.935787353515625,-0.0388791598379612,0.1022709310054779,-0.015016479417681694
1789820947726757400,6.94575732421875,-0.005601783283054829,0.013267846778035164,0.06751998513936996
1789820947736726300,6.955726318359375,0.02119414508342743,0.04832729697227478,0.022505901753902435
1789820947746696200,6.9656962890625,-0.012654016725718975,0.06935916095972061,0.004533019848167896
1789820947756666000,6.975666015625,-0.012365063652396202,0.122883640229702,-0.0870666652917862
1789820947766636000,6.985635986328125,-0.0020426614210009575,0.06236923858523369,0.020750844851136208
1789820947776606200,6.995606201171875,0.0005203648470342159,0.08167768269777298,0.010885165072977543
1789820947786576400,7.005576416015625,0.005445238668471575,0.10228192061185837,-0.048081107437610626
1789820947796546300,7.01554638671875,-0.01565312221646309,0.12217413634061813,-0.03472881391644478
1789820947806516200,7.02551611328125,0.06978550553321838,0.05557272583246231,0.031745389103889465
1789820947816486400,7.035486328125,0.03965556621551514,0.07689106464385986,0.005461587104946375
1789820947826456300,7.045456298828125,-0.07617004215717316,0.12815120816230774,0.02363615483045578
1789820947836426200,7.05542626953125,-0.03874224051833153,0.05521015077829361,0.07350277900695801
1789820947846396200,7.065396240234375,0.008767652325332165,0.03199448063969612,-0.058799613267183304
1789820947856366000,7.075365966796875,0.007348453626036644,0.07051870226860046,-0.10940712690353394
1789820947866336300,7.085336181640625,-0.010957879014313221,0.03219560533761978,-0.004861060064285994
1789820947876306200,7.09530615234375,0.0608084499835968,0.01750081777572632,0.06632017344236374
1789820947886276400,7.1052763671875,0.08532258123159409,0.13268253207206726,-0.08145532011985779
1789820947896246300,7.115246337890625,0.08249057829380035,0.08024036139249802,0.03967776522040367
1789820947906216200,7.12521630859375,0.0668250024318695,0.02134093828499317,0.16479884088039398
1789820947916186400,7.135186279296875,0.1172919049859047,0.048980023711919785,0.05984499305486679
1789820947926156300,7.14515625,0.03278806060552597,0.12846074998378754,-0.05012301728129387
1789820947936126200,7.155126220703125,-0.0010822892654687166,0.12348757684230804,-0.05912290886044502
1789820947946096000,7.16509619140625,0.010129562579095364,0.10651884227991104,-0.07748600095510483
1789820947956066000,7.175066162109375,-0.032910048961639404,0.10209133476018906,0.0014828555285930634
1789820947966035200,7.18503515625,-0.01099217776209116,0.14901292324066162,-0.07872921973466873
1789820947976005400,7.19500537109375,0.0007262633880600333,0.10711260139942169,-0.07444711774587631
1789820947985975300,7.204975341796875,-0.0947878435254097,0.056685324758291245,0.10867119580507278
1789820947995945200,7.2149453125,-0.10444233566522598,0.04476022347807884,0.08206355571746826
1789820948005915100,7.2249150390625,-0.19486823678016663,0.09104301035404205,0.02752799727022648
1789820948015885300,7.23488525390625,-0.2221027910709381,0.05813193693757057,0.0017299558967351913
1789820948025855200,7.244855224609375,-0.2688812017440796,0.01549313124269247,0.11420776695013046
1789820948035825200,7.2548251953125,-0.2851839065551758,0.053649649024009705,0.07962192595005035
1789820948045795300,7.26479541015625,-0.3060690462589264,0.06955716758966446,-0.04665739834308624
1789820948055765200,7.27476513671875,-0.29507073760032654,0.0258184801787138,0.03441295027732849
1789820948065735400,7.2847353515625,-0.24603068828582764,0.025082258507609367,0.03955945372581482
1789820948075705300,7.294705322265625,-0.28619301319122314,0.06873839348554611,-0.040971606969833374
1789820948085675300,7.30467529296875,-0.2820354402065277,0.04979882389307022,-0.037703193724155426
1789820948095645200,7.314645263671875,-0.2262696474790573,-0.03794461488723755,-0.05259345471858978
1789820948105615000,7.324614990234375,-0.2990512549877167,-0.006532516796141863,0.043537892401218414
1789820948115585300,7.334585205078125,-0.18484823405742645,-0.0902244821190834,0.026215093210339546
1789820948125555200,7.34455517578125,-0.2554766535758972,-0.01696053147315979,-0.012627851217985153
1789820948135523000,7.354523193359375,-0.2708026170730591,-0.011986547149717808,-0.03876224905252457
1789820948145493000,7.364492919921875,-0.1702909618616104,-0.1092267632484436,-0.008461002260446548
1789820948155463200,7.374463134765625,-0.21349622309207916,-0.05281142517924309,-0.016565533354878426
1789820948165433000,7.38443310546875,-0.19968941807746887,-0.07180623710155487,-0.06666411459445953
1789820948175403000,7.394403076171875,-0.21807454526424408,-0.1236470639705658,0.025957172736525536
1789820948185372200,7.4043720703125,-0.21323548257350922,-0.08181355893611908,-0.026751508936285973
1789820948195342000,7.414342041015625,-0.19889968633651733,-0.11698752641677856,-0.005190290976315737
1789820948205312000,7.42431201171875,-0.2105565071105957,-0.12769974768161774,-0.015133099630475044
1789820948215282200,7.4342822265625,-0.23210440576076508,-0.13745011389255524,-0.01685190387070179
1789820948225252000,7.444252197265625,-0.20662808418273926,-0.188736692070961,0.019665535539388657
1789820948235222000,7.454221923828125,-0.18381570279598236,-0.17359821498394012,0.02366427145898342
1789820948245192000,7.46419189453125,-0.18680138885974884,-0.13035860657691956,-0.018580762669444084
1789820948255162000,7.474162109375,-0.18320000171661377,-0.1203182116150856,0.005351202096790075
1789820948265132300,7.48413232421875,-0.12346764653921127,-0.2135755568742752,0.13525500893592834
1789820948275102200,7.494102294921875,-0.03764808177947998,-0.18175797164440155,-0.007308535277843475
1789820948285072100,7.504072021484375,-0.057692740112543106,-0.16428208351135254,-0.02063799276947975
1789820948295042000,7.5140419921875,-0.05737342685461044,-0.16887684166431427,-0.016512757167220116
1789820948305012200,7.52401220703125,-0.02651207335293293,-0.2396596223115921,0.03399043530225754
1789820948314982100,7.533982177734375,-0.056648138910532,-0.1718803197145462,0.01372351311147213
1789820948324952000,7.5439521484375,0.012626697309315205,-0.14365243911743164,-0.06874160468578339
1789820948334922000,7.553921875,0.01208873838186264,-0.1387666016817093,-0.05870521813631058
1789820948344892000,7.563891845703125,0.010778208263218403,-0.21317321062088013,0.07719307392835617
1789820948354862300,7.5738623046875,0.03064006194472313,-0.21117423474788666,0.06375343352556229
1789820948364831200,7.583831298828125,0.06437807530164719,-0.22971734404563904,0.05059362202882767
1789820948374801200,7.59380126953125,0.13016852736473083,-0.22793541848659515,0.014668645337224007
1789820948384771000,7.60377099609375,0.12436545640230179,-0.20290639996528625,-0.00395189318805933
1789820948394741000,7.613740966796875,0.1603173315525055,-0.20589977502822876,0.05807952210307121
1789820948404711000,7.6237109375,0.215622216463089,-0.1495906114578247,-0.01578311249613762
1789820948414681000,7.63368115234375,0.2398383468389511,-0.1503046154975891,-0.05127133056521416
1789820948424651300,7.6436513671875,0.2638019323348999,-0.1502072811126709,-0.016731401905417442
1789820948434621200,7.65362109375,0.3178577125072479,-0.18160541355609894,0.021888161078095436
1789820948444591000,7.663591064453125,0.2562800645828247,-0.14235056936740875,0.09161932021379471
1789820948454561300,7.673561279296875,0.35172563791275024,-0.1560613214969635,0.034980811178684235
1789820948464531200,7.68353125,0.35800421237945557,-0.12712393701076508,0.04120752587914467
1789820948474501000,7.693501220703125,0.35304513573646545,-0.09564990550279617,-0.01883876696228981
1789820948484471000,7.703470947265625,0.368305504322052,-0.11598071455955505,0.011044396087527275
1789820948494441000,7.71344091796875,0.37120941281318665,-0.11258784681558609,-0.07967458665370941
1789820948504411100,7.7234111328125,0.2930768132209778,-0.06418091058731079,-0.04071498289704323
1789820948514381000,7.733381103515625,0.37141770124435425,-0.07922111451625824,-0.09837454557418823
1789820948524350200,7.74335009765625,0.2973076403141022,-0.08153995126485825,-0.023834412917494774
1789820948534320000,7.753320068359375,0.3063461482524872,-0.022693144157528877,-0.0002830140292644501
1789820948544290000,7.7632900390625,0.36292096972465515,-0.0017145662568509579,-0.03150303289294243
1789820948554260000,7.773260009765625,0.32415467500686646,-0.016688723117113113,0.09668316692113876
1789820948564230100,7.783230224609375,0.29501375555992126,0.05152240768074989,0.03575527295470238
1789820948574200000,7.793199951171875,0.2583044767379761,0.06584808230400085,-0.04649459198117256
1789820948584170000,7.803169921875,0.24780739843845367,-0.015007891692221165,0.035953521728515625
1789820948594140200,7.81314013671875,0.2177421748638153,0.03265097364783287,-0.09750919789075851
1789820948604110000,7.823110107421875,0.16738279163837433,0.08732637763023376,-0.10456341505050659
1789820948614080300,7.833080322265625,0.13763076066970825,0.06601682305335999,-0.015458835288882256
1789820948624050200,7.84305029296875,0.17867785692214966,0.05715445429086685,0.07799524813890457
1789820948634020000,7.85302001953125,0.26628202199935913,0.1048351526260376,-0.029040923342108727
1789820948643990000,7.862989990234375,0.22978916764259338,0.13666591048240662,-0.014772975817322731
1789820948653960200,7.872960205078125,0.17771558463573456,0.17323803901672363,-0.0868184044957161
1789820948663930000,7.88293017578125,0.156291201710701,0.08961600810289383,-0.017843525856733322
1789820948673900000,7.892900146484375,0.08785329014062881,0.10698088258504868,0.013241689652204514
1789820948683870000,7.902869873046875,0.04083463177084923,0.14709129929542542,-0.017771193757653236
1789820948693839000,7.912839111328125,0.07382506877183914,0.18974155187606812,-0.08610737323760986
1789820948703809000,7.92280908203125,0.08461020141839981,0.13503529131412506,0.04232903942465782
1789820948713779200,7.932779296875,0.09884293377399445,0.11567836999893188,0.06919660419225693
1789820948723749000,7.9427490234375,0.07415295392274857,0.17760466039180756,-0.014051401987671852
1789820948733719000,7.952718994140625,0.025088472291827202,0.1577150970697403,0.005627493839710951
1789820948743689000,7.96268896484375,-0.012842233292758465,0.09616191685199738,0.07492269575595856
1789820948753659100,7.9726591796875,-0.027178294956684113,0.10374420136213303,0.029952026903629303
1789820948763629300,7.98262939453125,-0.0824771597981453,0.14383156597614288,0.04696769639849663
1789820948773599200,7.99259912109375,-0.06840182095766068,0.17152339220046997,0.04756983742117882
1789820948783569200,8.002569091796875,-0.09717170894145966,0.16215360164642334,0.05803355574607849
1789820948793539000,8.0125390625,-0.09021233767271042,0.1668388992547989,0.00764441816136241
1789820948803509000,8.022509033203125,-0.09776955842971802,0.2190498411655426,-0.06026960164308548
1789820948813479200,8.032479248046876,-0.15623660385608673,0.1839214265346527,0.03746254742145538
1789820948823449000,8.042448974609375,-0.19176484644412994,0.16351784765720367,0.03554632142186165
1789820948833418200,8.052418212890625,-0.204389289021492,0.1228625550866127,0.0691056102514267
1789820948843388200,8.06238818359375,-0.1560337394475937,0.1317490041255951,-0.027537574991583824
1789820948853358000,8.072358154296875,-0.21473300457000732,0.13894858956336975,0.047548919916152954
1789820948863328300,8.082328369140624,-0.16676542162895203,0.11878961324691772,-0.03544499725103378
1789820948873298200,8.092298095703125,-0.2353985458612442,0.1364346593618393,-0.009774519130587578
1789820948883268000,8.10226806640625,-0.18265166878700256,0.05277537554502487,0.09011548012495041
1789820948893238000,8.112238037109375,-0.14528565108776093,0.1431015431880951,0.010487230494618416
1789820948903208000,8.1222080078125,-0.10097617655992508,0.16801635921001434,-0.0989927276968956
1789820948913178000,8.13217822265625,-0.1985543966293335,0.15323342382907867,0.10255423933267593
1789820948923148000,8.14214794921875,-0.1343974620103836,0.06707263737916946,0.07356348633766174
1789820948933118200,8.1521181640625,-0.18438206613063812,0.1059369444847107,-0.014962652698159218
1789820948943088000,8.162088134765625,-0.22611798346042633,0.04806356504559517,0.022931022569537163
1789820948953058000,8.17205810546875,-0.14258553087711334,0.01582386903464794,-0.02511080540716648
1789820948963028200,8.1820283203125,-0.19125106930732727,0.08752799034118652,-0.09648234397172928
1789820948972997000,8.1919970703125,-0.23309226334095,0.05711468681693077,0.00027135899290442467
1789820948982967000,8.201967041015624,-0.13299153745174408,-0.0009608531836420298,-0.0034961537458002567
1789820948992937200,8.211937255859375,-0.14025850594043732,0.004639241844415665,-0.038121242076158524
1789820949002907100,8.2219072265625,-0.14581821858882904,0.010877605527639389,-0.0022131851874291897
1789820949012877300,8.231877197265625,-0.10883623361587524,-0.050577230751514435,0.015972476452589035
1789820949022847200,8.24184716796875,-0.16014543175697327,-0.047125838696956635,0.02810758724808693
1789820949032817200,8.251817138671875,-0.2115846574306488,0.010397372767329216,0.02028348669409752
1789820949042787000,8.261787109375,-0.08030512183904648,-0.060443468391895294,-0.08370727300643921
1789820949052757000,8.271757080078125,-0.142722949385643,-0.04659663140773773,0.04426373913884163
1789820949062727200,8.28172705078125,-0.0911979228258133,-0.054753378033638,-0.016975976526737213
1789820949072697000,8.291697021484374,-0.13353446125984192,-0.02044546790421009,-0.02711622789502144
1789820949082667000,8.3016669921875,-0.14976748824119568,-0.05535173416137695,0.03521537408232689
1789820949092637200,8.31163720703125,-0.1668708324432373,-0.07038474828004837,0.08863306045532227
1789820949102606000,8.321606201171875,-0.12223080545663834,-0.06708543747663498,0.0001553143374621868
1789820949112576000,8.331575927734375,-0.11696280539035797,-0.035865992307662964,-0.0605410560965538
1789820949122546200,8.341546142578125,-0.12539935111999512,-0.09662113338708878,0.013031043112277985
1789820949132516000,8.35151611328125,-0.1529178023338318,-0.0947159081697464,0.11194989830255508
1789820949142485500,8.361485595703124,-0.10831800103187561,-0.07304013520479202,0.020020434632897377
1789820949152455700,8.37145556640625,-0.14616551995277405,-0.03630955517292023,0.00793873704969883
1789820949162425600,8.381425537109376,-0.11881262063980103,-0.10482834279537201,0.05404282733798027
1789820949172395800,8.391395751953125,-0.128903329372406,-0.06538239866495132,0.025723839178681374
1789820949182365700,8.40136572265625,-0.15941646695137024,-0.059161797165870667,0.014827882871031761
1789820949192335600,8.411335693359375,-0.1409519761800766,-0.08271745592355728,0.0031102406792342663
1789820949202305500,8.421305419921875,-0.15119901299476624,-0.10569734126329422,0.03546445071697235
1789820949212275500,8.431275390625,-0.14331713318824768,-0.14375416934490204,0.026987610384821892
1789820949222245600,8.44124560546875,-0.1613909900188446,-0.10562585294246674,-0.039779264479875565
1789820949232214800,8.45121484375,-0.16240033507347107,-0.13214507699012756,-0.08046917617321014
1789820949242184700,8.461184814453125,-0.14487046003341675,-0.18423540890216827,0.07264077663421631
1789820949252154600,8.471154541015625,-0.04987151548266411,-0.1410519927740097,0.010357163846492767
1789820949262124500,8.48112451171875,-0.008949408307671547,-0.025784729048609734,-0.06786685436964035
1789820949272094700,8.4910947265625,0.04283016547560692,-0.08035662770271301,0.02366200089454651
1789820949282064600,8.501064697265624,0.048041556030511856,-0.08809036016464233,0.1395731270313263
1789820949292034600,8.51103466796875,0.11400458961725235,-0.0888189971446991,0.021005740389227867
1789820949302004500,8.52100439453125,0.03757340461015701,-0.0488147996366024,-0.012477796524763107
1789820949311974400,8.530974365234375,0.021532919257879257,-0.10533985495567322,0.053195223212242126
1789820949321944800,8.54094482421875,0.09473647177219391,-0.150173619389534,0.013428222388029099
1789820949331914800,8.550914794921875,0.06991340965032578,-0.056004516780376434,-0.06262313574552536
1789820949341884700,8.560884765625,0.08978111296892166,-0.08014905452728271,-0.003908737096935511
1789820949351853600,8.570853515625,0.09325280785560608,-0.08478748053312302,0.02812696062028408
1789820949361823500,8.580823486328125,0.10238860547542572,-0.07980775833129883,-0.024866022169589996
1789820949371793400,8.59079345703125,0.11586659401655197,-0.08996877819299698,0.035307303071022034
1789820949381763600,8.600763671875,0.18832527101039886,-0.1503571718931198,0.0015307692810893059
1789820949391733800,8.610733642578126,0.11041075736284256,-0.04105757549405098,-0.08116438239812851
1789820949401703700,8.62070361328125,0.06948781758546829,-0.07904921472072601,-0.05118628591299057
1789820949411673600,8.630673583984375,0.07203246653079987,-0.0956721380352974,0.01433626376092434
1789820949421643800,8.640643798828124,0.18928879499435425,-0.06180839240550995,-0.09218773245811462
1789820949431613700,8.65061376953125,0.16879257559776306,-0.024012014269828796,-0.09453132003545761
1789820949441583600,8.66058349609375,0.1768190860748291,-0.0483945831656456,-0.002928959671407938
1789820949451553500,8.670553466796875,0.23772770166397095,-0.09249573200941086,-0.027696091681718826
1789820949461523500,8.6805234375,0.14744797348976135,-0.041238583624362946,0.005043188109993935
1789820949471492600,8.69049267578125,0.2206534892320633,-0.09015099704265594,0.00907627958804369
1789820949481462800,8.700462890625,0.23979870975017548,-0.10239573568105698,-0.0073668272234499454
1789820949491432700,8.7104326171875,0.15772327780723572,-0.027794208377599716,-0.051459986716508865
1789820949501402600,8.720402587890625,0.1699294000864029,-0.044091273099184036,0.034470196813344955
1789820949511372500,8.73037255859375,0.23859341442584991,-0.09061430394649506,0.060949210077524185
1789820949521342500,8.740342529296875,0.19538737833499908,-0.04972274228930473,0.04630666226148605
1789820949531312600,8.750312744140626,0.2268771231174469,-0.04294659197330475,-0.0377751886844635
1789820949541282600,8.760282470703125,0.17631544172763824,0.003054817207157612,-0.05231226980686188
1789820949551252500,8.77025244140625,0.13905729353427887,-0.06339957565069199,0.062218837440013885
1789820949561222700,8.78022265625,0.21584783494472504,-0.059558261185884476,0.0635446310043335
1789820949571192600,8.790192626953125,0.23296263813972473,-0.03977257385849953,-0.0215833131223917
1789820949581161500,8.800161376953126,0.09874329715967178,0.007402719929814339,0.031163739040493965
1789820949591131600,8.810131591796875,0.17257650196552277,-0.06413990259170532,-0.005145000759512186
1789820949601101600,8.8201015625,0.15212029218673706,-0.04955122619867325,-0.050307322293519974
1789820949611071500,8.830071533203125,0.10468246042728424,-0.05504639446735382,-0.013912029564380646
1789820949621041700,8.840041748046875,0.15837125480175018,-0.058993998914957047,-0.03925280645489693
1789820949631011800,8.85001171875,0.15447771549224854,-0.010912487283349037,-0.0395585373044014
1789820949640981800,8.859981689453125,0.21427886188030243,0.04452912136912346,-0.039842505007982254
1789820949650951700,8.86995166015625,0.21772338449954987,-0.004122571088373661,0.08046633005142212
1789820949660921600,8.879921630859375,0.14288005232810974,0.05128779634833336,0.13413311541080475
1789820949670891500,8.8898916015625,0.20890779793262482,0.08494136482477188,0.02403617464005947
1789820949680861700,8.89986181640625,0.22157758474349976,0.10203181952238083,-0.02742825075984001
1789820949690830600,8.90983056640625,0.09946738183498383,0.11209563910961151,-0.04449485242366791
1789820949700800800,8.91980078125,0.09980552643537521,0.0478140264749527,0.0006546364165842533
1789820949710770700,8.929770751953125,0.14777545630931854,0.04883774369955063,-0.06393954157829285
1789820949720740600,8.93974072265625,0.09234194457530975,0.08056549727916718,0.00829137209802866
1789820949730710500,8.94971044921875,0.13642765581607819,0.020014794543385506,-0.025943031534552574
1789820949740680700,8.9596806640625,0.06211192533373833,0.03722572699189186,-0.023651598021388054
1789820949750650600,8.969650634765625,-0.011845922097563744,-0.00026465742848813534,0.027417443692684174
1789820949760620500,8.97962060546875,0.02730216085910797,-0.04582434147596359,0.028512343764305115
1789820949770590500,8.989590576171874,-0.000541719957254827,0.052181582897901535,-0.15392909944057465
1789820949780560600,8.999560546875,0.005508855916559696,0.0859488919377327,-0.1738806813955307
1789820949790530600,9.009530517578124,-0.0019559841603040695,0.004033789038658142,0.10373867303133011
1789820949800499700,9.019499755859375,0.11868802458047867,-0.0016390946693718433,0.06511354446411133
1789820949810469600,9.0294697265625,0.060117125511169434,0.11514504998922348,-0.027090150862932205
1789820949820439600,9.039439453125,0.09800288826227188,0.10453923791646957,-0.06649767607450485
1789820949830409500,9.049409423828125,0.04803799092769623,0.04482211545109749,0.027314841747283936
1789820949840379600,9.059379638671874,0.03483192250132561,0.03265535458922386,0.024104934185743332
1789820949850349600,9.069349609375,0.06544442474842072,0.00453716516494751,0.012949218042194843
1789820949860319500,9.079319580078124,-0.002703949110582471,0.040303997695446014,0.05121392384171486
1789820949870289700,9.08928955078125,0.05358435586094856,0.047283876687288284,-0.04300259053707123
1789820949880259600,9.099259521484376,0.012938744388520718,0.0444856733083725,-0.016061102971434593
1789820949890229800,9.109229736328125,0.007424670271575451,-0.009570904076099396,0.04968595132231712
1789820949900198700,9.11919873046875,0.04617707431316376,-0.021675920113921165,0.051803067326545715
1789820949910168600,9.12916845703125,0.06099517270922661,0.07255151867866516,-0.04749821871519089
1789820949920138500,9.139138427734375,0.12875668704509735,0.02473684586584568,-0.03505343943834305
1789820949930108700,9.149108642578126,0.07473765313625336,0.03195534646511078,0.04850456863641739
1789820949940078600,9.15907861328125,0.09947773814201355,0.0538487434387207,0.028935369104146957
1789820949950048800,9.169048828125,0.04729975387454033,0.06486278027296066,0.013603285886347294
1789820949960018700,9.179018798828125,0.10004795342683792,0.05768832191824913,0.015019340440630913
1789820949969988600,9.188988525390625,0.09035617858171463,0.03963208943605423,0.01842791959643364
1789820949979958500,9.19895849609375,0.0027397130616009235,0.07116078585386276,0.04724344611167908
1789820949989928700,9.2089287109375,0.06189997121691704,0.042703840881586075,0.02150106430053711
1789820949999898600,9.218898681640624,0.02349044382572174,-0.014120005071163177,0.03966633975505829
1789820950009867800,9.22886767578125,-0.08412789553403854,0.04891009256243706,-0.010680988430976868
1789820950019837700,9.238837646484376,-0.035136282444000244,0.04406636580824852,-0.008355055004358292
1789820950029807600,9.2488076171875,-0.03432055562734604,0.06637033820152283,-0.029873928055167198
1789820950039777500,9.258777587890625,-0.16599318385124207,0.08939886838197708,0.09132851660251617
1789820950049747700,9.268747802734374,-0.0526285320520401,0.01911991462111473,0.03375869616866112
1789820950059717600,9.278717529296875,-0.07033991068601608,0.02068415842950344,-0.048642490059137344
1789820950069687600,9.2886875,-0.19114969670772552,0.10521848499774933,-0.023355776444077492
1789820950079657500,9.298657470703125,-0.11438149958848953,-0.00035975128412246704,0.06835956871509552
1789820950089627400,9.30862744140625,-0.18700431287288666,0.06683473289012909,0.028247574344277382
1789820950099597600,9.31859765625,-0.14085830748081207,0.05657712370157242,0.009550731629133224
1789820950109566700,9.328566650390625,-0.08642090111970901,0.010481269098818302,0.055998124182224274
1789820950119536600,9.33853662109375,-0.1274169236421585,0.052299048751592636,0.003301113611087203
1789820950129506300,9.34850634765625,-0.15797217190265656,0.09999226778745651,-0.09384594857692719
1789820950139476200,9.358476318359376,-0.17211835086345673,-0.014393427409231663,0.07552151381969452
1789820950149446100,9.368446044921875,-0.15318037569522858,0.08579075336456299,-0.010975077748298645
1789820950159416300,9.378416259765626,-0.13893859088420868,0.09651423990726471,-0.10094757378101349
1789820950169386500,9.388386474609375,-0.18755166232585907,0.08134061098098755,-0.003009295556694269
1789820950179356400,9.3983564453125,-0.10357925295829773,0.028406713157892227,0.053906723856925964
1789820950189326300,9.408326416015624,-0.08633848279714584,0.0938405841588974,-0.02446931041777134
1789820950199296500,9.418296630859375,-0.13799342513084412,0.11178389191627502,-0.009528975933790207
1789820950209266400,9.428266357421874,-0.1095721647143364,0.01837192289531231,0.12505759298801422
1789820950219235300,9.4382353515625,-0.059645988047122955,-0.024609552696347237,0.024928666651248932
1789820950229205200,9.448205322265625,-0.1624518185853958,0.0317341610789299,0.0596369244158268
1789820950239175400,9.458175537109375,-0.12873993813991547,0.02124849520623684,0.04972757026553154
1789820950249145300,9.468145263671875,-0.07900949567556381,0.0019295805832371116,0.05462517961859703
1789820950259115500,9.478115478515624,-0.14306731522083282,0.06530402600765228,0.034320175647735596
1789820950269085400,9.48808544921875,-0.04272076487541199,-0.009335539303719997,0.017024725675582886
1789820950279055400,9.498055419921876,-0.0059217363595962524,0.0068705943413078785,-0.03332819417119026
1789820950289025300,9.508025390625,-0.07822980731725693,0.015499352477490902,-0.03091546520590782
1789820950298995200,9.5179951171875,-0.04550008848309517,-0.05374496430158615,0.017326897010207176
1789820950308965400,9.52796533203125,-0.06631309539079666,-0.04445652291178703,-0.029869623482227325
1789820950318934500,9.5379345703125,-0.03448592126369476,-0.048969514667987823,-0.04374336078763008
1789820950328904400,9.547904541015624,0.07179377973079681,-0.059913646429777145,-0.08757448196411133
1789820950338874400,9.557874267578125,0.05299213156104088,-0.05890510603785515,-0.039783526211977005
1789820950348844300,9.56784423828125,0.022569457069039345,-0.021118726581335068,-0.006970549467951059
1789820950358814500,9.577814453125,0.1677175909280777,-0.07636254280805588,-0.02758767455816269
1789820950368784400,9.587784423828126,0.1449955850839615,-0.03822220489382744,0.001337640918791294
1789820950378754300,9.59775439453125,0.13378740847110748,-0.023225944489240646,0.008268783800303936
1789820950388724200,9.60772412109375,0.15853457152843475,0.0631323754787445,-0.1216021329164505
1789820950398694400,9.6176943359375,0.2263234704732895,0.009659834206104279,-0.028614399954676628
1789820950408664600,9.62766455078125,0.2223808467388153,-0.03312793746590614,0.1024681106209755
1789820950418634500,9.637634521484374,0.22314731776714325,0.0036143669858574867,0.03646485507488251
1789820950428603400,9.647603271484375,0.23710283637046814,0.05304470658302307,-0.060421161353588104
1789820950438573300,9.6575732421875,0.26664528250694275,0.07801477611064911,-0.09051275253295898
1789820950448543200,9.667543212890624,0.27661290764808655,-0.004276306368410587,0.028326140716671944
1789820950458513200,9.67751318359375,0.19223010540008545,-0.005960489623248577,0.1201106533408165
1789820950468483300,9.6874833984375,0.2546599805355072,0.051108215004205704,-0.07774688303470612
1789820950478453500,9.69745361328125,0.22119444608688354,0.10465292632579803,-0.09432985633611679
1789820950488423400,9.70742333984375,0.27246350049972534,0.050384897738695145,-0.020391717553138733
1789820950498393300,9.717393310546875,0.19767871499061584,0.047886114567518234,0.04123058542609215
1789820950508363300,9.72736328125,0.12046808004379272,0.1519017219543457,-0.07753229141235352
1789820950518333400,9.73733349609375,0.10916829109191895,0.18337708711624146,-0.07694798707962036
1789820950528303400,9.747303466796875,0.12095369398593903,0.09387286007404327,0.05810195207595825
1789820950538272300,9.757272216796874,0.02555154077708721,0.13053448498249054,0.08346935361623764
1789820950548242400,9.767242431640625,-0.006989276502281427,0.17832934856414795,0.004503531847149134
1789820950558212400,9.77721240234375,-0.09204132109880447,0.11741460859775543,0.14714908599853516
1789820950568182500,9.7871826171875,-0.11381106078624725,0.08413468301296234,0.18537798523902893
1789820950578152400,9.79715234375,-0.10119329392910004,0.12717972695827484,0.0222801361232996
1789820950588122400,9.807122314453125,-0.17251673340797424,0.1966341733932495,-0.16107210516929626
1789820950598092300,9.81709228515625,-0.26919427514076233,0.13651618361473083,-0.007421252783387899
1789820950608062200,9.827062255859374,-0.2518711984157562,0.028450962156057358,0.1305840164422989
1789820950618032400,9.837032470703125,-0.27452516555786133,0.1006869226694107,0.026960859075188637
1789820950628002300,9.847002197265626,-0.2486509531736374,0.12813213467597961,-0.1121102124452591
1789820950637972500,9.856972412109375,-0.25941842794418335,0.09918294101953506,-0.05137474089860916
1789820950647941400,9.86694140625,-0.24770422279834747,0.04636979103088379,0.0846046656370163
1789820950657911300,9.876911376953124,-0.26245445013046265,0.09197158366441727,0.06817387789487839
1789820950667881200,9.886881103515625,-0.2419542521238327,0.1180090457201004,0.006799203343689442
1789820950677851400,9.896851318359374,-0.1894070953130722,0.08396121859550476,-0.07331310957670212
1789820950687821300,9.9068212890625,-0.24653349816799164,0.047938499599695206,0.06625810265541077
1789820950697791200,9.916791259765626,-0.21714641153812408,0.015798641368746758,-0.009108753874897957
1789820950707761400,9.926761474609375,-0.29052290320396423,0.04687613248825073,-0.02863025851547718
1789820950717731600,9.936731689453126,-0.2548772692680359,0.0016187949804589152,-0.006665040738880634
1789820950727701500,9.946701416015625,-0.19191400706768036,-0.04478279501199722,0.009352275170385838
1789820950737671400,9.95667138671875,-0.21044185757637024,-0.03409974277019501,0.001790379174053669
1789820950747641300,9.966641357421874,-0.23003393411636353,-0.013613108545541763,-0.051810797303915024
1789820950757611300,9.976611328125,-0.212075874209404,-0.0901704877614975,0.033498115837574005
1789820950767580200,9.986580078125,-0.17420732975006104,-0.1561037003993988,0.0979657918214798
1789820950777550300,9.99655029296875,-0.17359812557697296,-0.10378539562225342,-0.027107732370495796
1789820950787520500,10.0065205078125,-0.1164509505033493,-0.11381938308477402,-0.10648484528064728
1789820950797490400,10.016490478515625,-0.13756565749645233,-0.11818081885576248,-0.0501474104821682
1789820950807460400,10.02646044921875,-0.07248838245868683,-0.15845847129821777,0.025026701390743256
1789820950817430300,10.03643017578125,-0.02713792957365513,-0.13378363847732544,0.022590119391679764
1789820950827400400,10.046400390625,-0.011046044528484344,-0.11929125338792801,0.03959945961833
1789820950837370400,10.056370361328124,0.05348283797502518,-0.19671711325645447,0.07205088436603546
1789820950847340300,10.06634033203125,0.09510218352079391,-0.14079339802265167,-0.009137175977230072
1789820950857310200,10.076310302734376,0.1271936446428299,-0.08889587223529816,-0.040745824575424194
1789820950867280400,10.0862802734375,0.10802926123142242,-0.1211390271782875,0.0017233355902135372
1789820950877250600,10.09625048828125,0.050709813833236694,-0.08230295032262802,-0.08319278806447983
1789820950887219500,10.106219482421874,0.059502772986888885,-0.11411520838737488,0.004797256551682949
1789820950897189400,10.116189453125,0.0822514146566391,-0.14085210859775543,0.11033978313207626
1789820950907159300,10.1261591796875,0.12092797458171844,-0.12521561980247498,0.0048133572563529015
1789820950917129200,10.136129150390625,0.1496182084083557,-0.10944277793169022,-0.02368566021323204
1789820950927099400,10.146099365234376,0.17060977220535278,-0.10978233069181442,0.020283659920096397
1789820950937069300,10.1560693359375,0.14312472939491272,-0.11514436453580856,0.0718199610710144
1789820950947039500,10.16603955078125,0.1771458089351654,-0.10086795687675476,0.022404208779335022
1789820950957009400,10.176009521484374,0.16749313473701477,-0.08454576134681702,0.04284876957535744
1789820950966979300,10.185979248046875,0.16555887460708618,-0.08290818333625793,0.04442296549677849
1789820950976949500,10.195949462890624,0.21761992573738098,-0.07245659828186035,0.08938314765691757
1789820950986919400,10.20591943359375,0.2572368383407593,-0.004819227382540703,-0.07844473421573639
1789820950996889300,10.215889404296876,0.18016399443149567,-0.04817599058151245,0.12288164347410202
1789820951006859300,10.225859375,0.2594388425350189,-0.07159023731946945,0.030377281829714775
1789820951016828400,10.235828369140625,0.2317354679107666,0.01728016324341297,-0.04697021469473839
1789820951026798300,10.24579833984375,0.20200367271900177,0.040288809686899185,-0.12564346194267273
1789820951036768500,10.2557685546875,0.13099157810211182,-0.05107860639691353,0.05214826017618179
1789820951046738400,10.265738525390624,0.18166302144527435,-0.03267722949385643,-0.032198045402765274
1789820951056708400,10.275708251953125,0.15625308454036713,0.011059954762458801,-0.026733357459306717
1789820951066678300,10.28567822265625,0.15692687034606934,0.03734748438000679,0.0046277595683932304
1789820951076648400,10.2956484375,0.21942774951457977,0.03632483631372452,0.002197527326643467
1789820951086618400,10.305618408203125,0.1574048548936844,0.05523194745182991,0.09113618731498718
1789820951096588300,10.31558837890625,0.1946425586938858,0.09886287897825241,0.09884048998355865
1789820951106558200,10.32555810546875,0.1966862678527832,0.11840595304965973,0.006973416544497013
1789820951116528400,10.3355283203125,0.10674264281988144,0.15893961489200592,0.042894646525382996
1789820951126498600,10.34549853515625,0.16130203008651733,0.003286908380687237,0.043122079223394394
1789820951136469200,10.35546923828125,-0.002502116374671459,0.04038240388035774,0.030323676764965057
1789820951146438100,10.365438232421875,0.05920092761516571,0.039289440959692,-0.08051682263612747
1789820951156408300,10.375408203125,0.0634872168302536,0.06634338945150375,-0.030142154544591904
1789820951166378200,10.385378173828125,0.10642457008361816,0.0460682138800621,0.00513860210776329
1789820951176348200,10.39534814453125,0.055790405720472336,0.16691255569458008,-0.04397173598408699
1789820951186318000,10.405318115234374,0.14641858637332916,0.08389250934123993,-0.010561048984527588
1789820951196288300,10.415288330078125,0.0834965705871582,0.1332012116909027,0.05892817676067352
1789820951206258200,10.425258056640626,0.1549515724182129,0.12484820187091827,0.00033597229048609734
1789820951216228400,10.435228271484375,0.042818278074264526,0.16152042150497437,-0.04410704970359802
1789820951226198300,10.4451982421875,-0.016392046585679054,0.13456949591636658,-0.015569415874779224
1789820951236168200,10.455168212890625,0.04228309169411659,0.10924212634563446,-0.051654472947120667
1789820951246138400,10.465138427734376,-0.039903655648231506,0.12968562543392181,-0.04366658627986908
1789820951256108300,10.4751083984375,-0.11647585034370422,0.15250393748283386,0.003576437244191766
1789820951266077200,10.4850771484375,-0.005252388771623373,0.0931471437215805,0.014295927248895168
1789820951276047000,10.495047119140626,-0.04496419429779053,0.15372438728809357,-0.05460312217473984
1789820951286017300,10.505017333984375,-0.056453071534633636,0.08209572732448578,0.0326652005314827
1789820951295987200,10.5149873046875,-0.05193968862295151,0.039086610078811646,0.09139032661914825
1789820951305957400,10.524957275390625,-0.1205187439918518,0.13688640296459198,0.022675178945064545
1789820951315927300,10.53492724609375,-0.13560745120048523,0.1687719076871872,-0.00676057068631053
1789820951325897200,10.544897216796874,-0.07039943337440491,0.11179198324680328,-0.01213056780397892
1789820951335867100,10.5548671875,-0.13008518517017365,0.1479729413986206,-0.027591431513428688
1789820951345837300,10.56483740234375,-0.1103477030992508,0.1338382214307785,0.02908623032271862
1789820951355807200,10.57480712890625,-0.08680601418018341,0.13319487869739532,0.05219375342130661
1789820951365777200,10.584777099609376,-0.1183418333530426,0.19660048186779022,-0.02367757447063923
1789820951375747300,10.594747314453125,-0.0915582999587059,0.1869640201330185,0.03932927921414375
1789820951385717200,10.60471728515625,-0.09765960276126862,0.16924388706684113,0.06524369865655899
1789820951395686100,10.61468603515625,-0.09358562529087067,0.1906120628118515,0.03257979080080986
1789820951405656300,10.62465625,-0.0593312531709671,0.12184444069862366,0.05670110508799553
1789820951415626200,10.634626220703124,-0.22289860248565674,0.16699089109897614,0.03744218870997429
1789820951425596200,10.64459619140625,-0.1898578405380249,0.13329923152923584,0.01890765316784382
1789820951435566000,10.654566162109376,-0.19777879118919373,0.12073510885238647,-0.05017801374197006
1789820951445536300,10.664536376953125,-0.25808820128440857,0.08365298807621002,0.08462374657392502
1789820951455506400,10.67450634765625,-0.1828593760728836,0.06011908873915672,0.02925734780728817
1789820951465476400,10.684476318359375,-0.2652759552001953,0.13138075172901154,-0.02351745031774044
1789820951475446300,10.6944462890625,-0.34771937131881714,0.10983417183160782,0.007414031308144331
1789820951485416200,10.704416259765624,-0.30686354637145996,0.010286539793014526,0.03384137526154518
1789820951495386000,10.71438623046875,-0.3075784742832184,-0.02543388120830059,0.05186887085437775
1789820951505356300,10.724356201171876,-0.3388884365558624,0.003593243658542633,-0.008622968569397926
1789820951515325200,10.7343251953125,-0.2848958969116211,-0.0056435344740748405,-0.0067870100028812885
1789820951525295400,10.74429541015625,-0.2629695534706116,-0.021650196984410286,0.0030227440875023603
1789820951535265300,10.754265380859374,-0.3037416338920593,0.02969733253121376,-0.027214866131544113
1789820951545235200,10.764235107421875,-0.25371068716049194,-0.06310184299945831,-0.011156802996993065
1789820951555205400,10.774205322265624,-0.2760735750198364,-0.12162405997514725,0.05111829563975334
1789820951565175300,10.78417529296875,-0.20536264777183533,-0.1018519476056099,0.00206819549202919
1789820951575145200,10.794145263671876,-0.19664496183395386,-0.04671957716345787,-0.11911290138959885
1789820951585115100,10.804115234375,-0.23744645714759827,-0.11361951380968094,0.0038228791672736406
1789820951595085000,10.8140849609375,-0.1825547069311142,-0.15365764498710632,0.003505112836137414
1789820951605055200,10.82405517578125,-0.12418168038129807,-0.16712871193885803,-0.01961112581193447
1789820951615025400,10.834025390625,-0.11728514730930328,-0.08813956379890442,-0.05689559504389763
1789820951624995300,10.843995361328124,-0.05648065358400345,-0.19107073545455933,0.038015469908714294
1789820951634964200,10.853964111328125,-0.028930898755788803,-0.19691060483455658,0.040059201419353485
1789820951644934100,10.86393408203125,0.046757735311985016,-0.20975102484226227,-0.002437656745314598
1789820951654904000,10.873904052734375,0.07786889374256134,-0.17657914757728577,-0.05038842558860779
1789820951664874200,10.883874267578125,0.11680085211992264,-0.21238695085048676,0.05243195965886116
1789820951674844200,10.89384423828125,0.1148216649889946,-0.15716631710529327,0.015408353880047798
1789820951684814300,10.903814453125,0.14380590617656708,-0.14696906507015228,0.006459334399551153
1789820951694784300,10.9137841796875,0.15465952455997467,-0.14459958672523499,0.03462069109082222
1789820951704754400,10.92375439453125,0.19119863212108612,-0.16400763392448425,0.03183475881814957
1789820951714724400,10.933724365234376,0.17946872115135193,-0.18044818937778473,0.09233959019184113
1789820951724694300,10.9436943359375,0.18600597977638245,-0.17286378145217896,0.04615452513098717
1789820951734664200,10.953664306640626,0.17282234132289886,-0.12853029370307922,-0.049970485270023346
1789820951744633000,10.963633056640624,0.11717265099287033,-0.11795168370008469,-0.034432537853717804
1789820951754603300,10.973603271484375,0.09606381505727768,-0.1472489982843399,0.052473410964012146
1789820951764573400,10.983573486328124,0.15001173317432404,-0.15735729038715363,0.01280162949115038
1789820951774543400,10.99354345703125,0.09526613354682922,-0.046116992831230164,-0.07055465877056122
1789820951784513300,11.00351318359375,0.06239686533808708,-0.12313534319400787,0.11023003607988358
1789820951794483200,11.013483154296875,0.1303565949201584,-0.13631658256053925,0.12087547034025192
1789820951804453000,11.023453125,0.15640230476856232,-0.056072067469358444,0.013938629999756813
1789820951814423300,11.03342333984375,0.12234553694725037,0.0029552995692938566,0.00701654190197587
1789820951824393200,11.043393310546875,0.08055627346038818,-0.07199643552303314,0.16598275303840637
1789820951834363100,11.053363037109374,0.08433859050273895,-0.023547537624835968,0.09390263259410858
1789820951844333000,11.0633330078125,0.08349543809890747,0.013370267115533352,0.017306922003626823
1789820951854303200,11.07330322265625,0.023087050765752792,0.03325052931904793,-0.007997441105544567
1789820951864272400,11.0832724609375,0.05789030343294144,-0.078154556453228,0.14496521651744843
1789820951874242300,11.0932421875,0.02097993716597557,-0.019082287326455116,0.000001266133040189743
1789820951884212200,11.103212158203124,-0.05192037299275398,0.05123342201113701,-0.0015340461395680904
1789820951894182100,11.11318212890625,0.05186938866972923,0.013042470440268517,-0.04830661043524742
1789820951904152000,11.123152099609374,-0.01913341134786606,0.057259462773799896,-0.0012757182121276855
1789820951914122200,11.133122314453125,-0.05866260826587677,0.031238816678524017,-0.0022824653424322605
1789820951924092400,11.143092529296876,-0.09925717860460281,0.0011714621214196086,0.05693398788571358
1789820951934062300,11.153062255859375,-0.07439735531806946,0.004785157740116119,0.03388277813792229
1789820951944032300,11.1630322265625,-0.07879876345396042,0.07280655205249786,-0.0457550585269928
1789820951954002200,11.173002197265625,-0.13542582094669342,0.0495549738407135,-0.05955986678600311
1789820951963972400,11.182972412109375,-0.15452228486537933,0.0322369709610939,-0.007850602269172668
1789820951973941200,11.192941162109374,-0.0824342891573906,0.05087953060865402,-0.01472187414765358
1789820951983911200,11.2029111328125,-0.03997365012764931,0.059987008571624756,-0.07740762084722519
1789820951993881300,11.21288134765625,-0.14811284840106964,0.1285715401172638,-0.0844728946685791
1789820952003851300,11.222851318359375,-0.012980863451957703,0.014618347398936749,-0.07933192700147629
1789820952013821200,11.2328212890625,-0.13072720170021057,0.04277222231030464,-0.008801569230854511
1789820952023791400,11.242791259765625,-0.12271748483181,0.022373205050826073,0.0002992507070302963
1789820952033761300,11.25276123046875,-0.12582910060882568,0.03430411219596863,-0.10001452267169952
1789820952043731200,11.262731201171874,-0.2131088823080063,0.0009019440039992332,0.0026601918507367373
1789820952053701000,11.272701171875,-0.15872162580490112,0.0023711773101240396,-0.05932348221540451
1789820952063671300,11.28267138671875,-0.09745720773935318,-0.03139983490109444,-0.017932096496224403
1789820952073641200,11.29264111328125,-0.10002675652503967,-0.01299778837710619,-0.059419598430395126
1789820952083610400,11.3026103515625,-0.14213505387306213,-0.016020476818084717,-0.08633057773113251
1789820952093580300,11.312580322265624,-0.13343031704425812,-0.046573422849178314,-0.06557435542345047
1789820952103550200,11.32255029296875,-0.11253516376018524,-0.11016544699668884,-0.03636213764548302
1789820952113520000,11.33252001953125,-0.125147745013237,-0.09520453214645386,-0.07038741558790207
1789820952123490300,11.342490234375,-0.009871480986475945,-0.1336967945098877,-0.047044537961483
1789820952133460200,11.352460205078126,-0.011137213557958603,-0.09167137742042542,-0.01654640957713127
1789820952143429600,11.3624296875,0.04129483550786972,-0.11200221627950668,-0.08983713388442993
1789820952153399600,11.372399658203125,0.04931722208857536,-0.13133381307125092,0.03876689448952675
1789820952163369500,11.382369384765624,0.11946621537208557,-0.12020447105169296,-0.04250052943825722
1789820952173339400,11.39233935546875,0.09933771938085556,-0.08635172992944717,-0.003548968117684126
1789820952183308300,11.402308349609376,0.21156224608421326,-0.12450125068426132,0.03605996072292328
1789820952193278200,11.4122783203125,0.22068116068840027,-0.053641244769096375,-0.021720828488469124
1789820952203248400,11.422248291015626,0.24865180253982544,-0.057323865592479706,0.009930307045578957
1789820952213218600,11.432218505859375,0.3389398157596588,-0.07787492871284485,0.009320829063653946
1789820952223188500,11.4421884765625,0.35407933592796326,-0.06083709001541138,0.02095964178442955
1789820952233158400,11.452158447265624,0.3327777683734894,-0.005865122191607952,-0.0025033880956470966
1789820952243128300,11.46212841796875,0.41700875759124756,-0.06184795871376991,0.014234846457839012
1789820952253098500,11.472098388671874,0.32757461071014404,0.0015034476527944207,0.023554189130663872
1789820952263068400,11.482068359375,0.41076216101646423,-0.05018771067261696,0.028096476569771767
1789820952273038300,11.492038330078126,0.35164743661880493,0.00044436799362301826,-0.006835851818323135
1789820952283008300,11.50200830078125,0.2749446630477905,0.03354719281196594,-0.010993844829499722
1789820952292977400,11.511977294921875,0.24191802740097046,-0.04328841716051102,0.07770087569952011
1789820952302947600,11.521947509765624,0.22539710998535156,-0.03296227753162384,-0.012269223108887672
1789820952312917500,11.53191748046875,0.18412388861179352,0.0380571074783802,-0.07537306845188141
1789820952322887400,11.541887451171876,0.13491399586200714,-0.00703313946723938,-0.017219217494130135
1789820952332857300,11.551857421875,-0.027931008487939835,-0.008359147235751152,0.10590353608131409
1789820952342827300,11.5618271484375,0.12230243533849716,-0.05216068774461746,-0.08947954326868057
1789820952352797400,11.57179736328125,0.02679157257080078,-0.05888202041387558,0.0033903338480740786
1789820952362767400,11.581767333984375,-0.05957181379199028,-0.027374695986509323,0.005984519142657518
1789820952372737300,11.5917373046875,-0.009374726563692093,-0.03347742557525635,-0.030535193160176277
1789820952382707500,11.60170751953125,0.011972906067967415,-0.0537765733897686,0.042592547833919525
1789820952392677400,11.611677490234374,-0.04536912217736244,-0.021601449698209763,0.04267902672290802
1789820952402646300,11.621646240234375,-0.03292097523808479,-0.030088944360613823,0.043303802609443665
1789820952412616400,11.631616455078126,-0.07910404354333878,-0.030742086470127106,0.013333899900317192
1789820952422586400,11.64158642578125,-0.08990076929330826,-0.049210045486688614,0.04622580483555794
1789820952432556300,11.651556396484375,-0.06593198329210281,-0.019695358350872993,-0.0755300521850586
1789820952442526500,11.6615263671875,-0.02025184966623783,-0.07983939349651337,0.05170247331261635
1789820952452496400,11.671496337890625,-0.004293428733944893,-0.03234723210334778,0.036266159266233444
1789820952462466600,11.681466552734374,-0.03508356586098671,0.02167951688170433,-0.011142898350954056
1789820952472436500,11.6914365234375,-0.0010072151198983192,-0.04536287486553192,0.050420619547367096
1789820952482406400,11.701406494140626,0.05311194807291031,-0.0336710624396801,-0.014141593128442764
1789820952492376300,11.711376220703125,0.03976400941610336,0.0051744794473052025,0.010759420692920685
1789820952502345200,11.72134521484375,0.09516920894384384,-0.018269861117005348,-0.011821789667010307
1789820952512315400,11.7313154296875,0.0638817846775055,0.003732656594365835,0.0308328028768301
1789820952522285600,11.74128564453125,0.0926005095243454,-0.03459582477807999,0.0517151840031147
1789820952532255500,11.75125537109375,0.08633486926555634,-0.036427222192287445,-0.0022271936759352684
1789820952542225400,11.761225341796875,0.03569246828556061,-0.013864388689398766,0.0017188126221299171
1789820952552195300,11.7711953125,0.06529445201158524,-0.0307876318693161,-0.025598226115107536
1789820952562165500,11.78116552734375,0.004725911654531956,0.0027109384536743164,-0.04921886324882507
1789820952572135400,11.791135498046875,-0.03837219998240471,0.039890408515930176,-0.08547521382570267
1789820952582105300,11.801105224609374,-0.08326058089733124,0.031757913529872894,-0.076296366751194
1789820952592075300,11.8110751953125,-0.14381296932697296,-0.047132253646850586,0.06339742988348007
1789820952602045200,11.821045166015624,-0.09151167422533035,-0.027461079880595207,-0.0013602622784674168
1789820952612014300,11.831014404296875,-0.09660960733890533,0.007640364579856396,-0.10049933940172195
1789820952621984500,11.840984619140626,-0.17791032791137695,-0.016263369470834732,-0.004811959806829691
1789820952631954400,11.850954345703125,-0.11909311264753342,-0.11529242247343063,0.06577560305595398
1789820952641924400,11.86092431640625,-0.11770454049110413,-0.054351307451725006,-0.015067841857671738
1789820952651894300,11.870894287109374,-0.15310581028461456,-0.008923555724322796,-0.01701490394771099
1789820952661864400,11.880864501953125,-0.04733598232269287,-0.05103292688727379,-0.010137824341654778
1789820952671834400,11.89083447265625,-0.04998626932501793,-0.033066730946302414,0.0017312327399849892
1789820952681804500,11.900804443359375,-0.017114873975515366,0.012676525861024857,-0.07202927768230438
1789820952691774500,11.9107744140625,0.06081482395529747,-0.04042738676071167,0.023172924295067787
1789820952701744400,11.920744384765625,0.08318750560283661,-0.06705446541309357,0.045246269553899765
1789820952711713300,11.93071337890625,0.04239354655146599,-0.031814899295568466,0.03475702181458473
1789820952721683500,11.940683349609374,0.085816390812397,-0.05735434591770172,-0.0013264147564768791
1789820952731653400,11.9506533203125,0.04516533017158508,-0.038133081048727036,0.06253693997859955
1789820952741623300,11.960623291015626,0.029055070132017136,-0.056964293122291565,0.06162826344370842
1789820952751593500,11.970593505859375,-0.004038855899125338,-0.033032938838005066,0.08973998576402664
1789820952761563400,11.9805634765625,0.020902978256344795,-0.07256410270929337,0.09018021076917648
1789820952771533600,11.990533447265625,0.07883201539516449,-0.01707233488559723,0.012265650555491447
1789820952781503500,12.00050341796875,0.08546674996614456,-0.036006610840559006,0.005969138815999031
1789820952791473400,12.010473388671874,0.09541702270507812,-0.003940163180232048,-0.003659177105873823
1789820952801443300,12.020443359375,0.11667730659246445,-0.05834641307592392,0.049263957887887955
1789820952811413200,12.030413330078124,0.12761647999286652,-0.012466481886804104,0.041134078055620193
1789820952821382400,12.04038232421875,0.18504568934440613,0.014596560969948769,0.04327605664730072
1789820952831352600,12.0503525390625,0.2373237907886505,0.04256049916148186,-0.08153089880943298
1789820952841322500,12.060322509765625,0.18857435882091522,0.08872666209936142,-0.024578135460615158
1789820952851292400,12.07029248046875,0.25333577394485474,-0.0029478634241968393,0.017613792791962624
1789820952861262300,12.080262451171874,0.26192474365234375,0.03317898139357567,-0.024628203362226486
1789820952871232500,12.090232421875,0.277844101190567,0.06713630259037018,-0.06140928715467453
1789820952881202400,12.100202392578124,0.2917652428150177,0.05289584398269653,-0.006494376342743635
1789820952891172400,12.11017236328125,0.30762121081352234,0.02666279301047325,0.01650557853281498
1789820952901142300,12.120142333984376,0.29874011874198914,0.05724174156785011,-0.047132253646850586
1789820952911112200,12.1301123046875,0.21795763075351715,0.042141143232584,0.018599307164549828
