time,seconds_elapsed,z,y,x
1788940682194056000,0.058055908203125,-0.781524658203125,-0.422637939453125,-0.0911102294921875
1788940682204025000,0.068025146484375,-0.8244781494140625,-0.4104766845703125,-0.1194305419921875
1788940682213995300,0.077995361328125,-0.85546875,-0.4125823974609375,-0.139251708984375
1788940682223964200,0.087964111328125,-0.8651123046875,-0.423858642578125,-0.1567840576171875
1788940682233934000,0.09793408203125,-0.862274169921875,-0.43048095703125,-0.164520263671875
1788940682243903200,0.1079033203125,-0.865692138671875,-0.4324951171875,-0.167694091796875
1788940682253873200,0.117873046875,-0.86700439453125,-0.433685302734375,-0.1741485595703125
1788940682263842000,0.127842041015625,-0.8868865966796875,-0.427947998046875,-0.1780242919921875
1788940682273812000,0.13781201171875,-0.93792724609375,-0.403717041015625,-0.175811767578125
1788940682283781000,0.147781005859375,-0.995361328125,-0.3755035400390625,-0.1798553466796875
1788940682293751000,0.1577509765625,-1.0498046875,-0.350189208984375,-0.1856842041015625
1788940682303720000,0.167719970703125,-1.08880615234375,-0.3418731689453125,-0.188385009765625
1788940682313690000,0.177690185546875,-1.111358642578125,-0.3498687744140625,-0.187774658203125
1788940682323660000,0.187659912109375,-1.115966796875,-0.36279296875,-0.1802825927734375
1788940682333629200,0.197629150390625,-1.0917205810546875,-0.3772430419921875,-0.170684814453125
1788940682343599000,0.20759912109375,-1.039825439453125,-0.4041290283203125,-0.1615753173828125
1788940682353568000,0.217568115234375,-0.97723388671875,-0.4366455078125,-0.1456451416015625
1788940682363538000,0.227537841796875,-0.906707763671875,-0.460906982421875,-0.142974853515625
1788940682373507000,0.237507080078125,-0.860565185546875,-0.468170166015625,-0.1436920166015625
1788940682383477200,0.247477294921875,-0.839447021484375,-0.4647216796875,-0.14617919921875
1788940682393446100,0.257446044921875,-0.8249969482421875,-0.463531494140625,-0.1330718994140625
1788940682403416000,0.267416015625,-0.845977783203125,-0.47027587890625,-0.1318817138671875
1788940682413385200,0.27738525390625,-0.8697662353515625,-0.4853057861328125,-0.13775634765625
1788940682423355100,0.287355224609375,-0.8768157958984375,-0.5033416748046875,-0.135467529296875
1788940682433325000,0.297324951171875,-0.8664093017578125,-0.5127716064453125,-0.121337890625
1788940682443294000,0.3072939453125,-0.8609161376953125,-0.5128936767578125,-0.0997772216796875
1788940682453264000,0.317263916015625,-0.8729095458984375,-0.5115966796875,-0.0750274658203125
1788940682463233000,0.32723291015625,-0.8765716552734375,-0.518585205078125,-0.054779052734375
1788940682473203200,0.337203125,-0.87908935546875,-0.5191802978515625,-0.054168701171875
1788940682483172000,0.347172119140625,-0.8854827880859375,-0.5097198486328125,-0.0589752197265625
1788940682493142000,0.35714208984375,-0.8805389404296875,-0.49749755859375,-0.061614990234375
1788940682503111200,0.367111083984375,-0.886444091796875,-0.482025146484375,-0.0512542724609375
1788940682513081000,0.3770810546875,-0.9160614013671875,-0.456329345703125,-0.0326995849609375
1788940682523050000,0.387050048828125,-0.9577484130859375,-0.421142578125,-0.01214599609375
1788940682533020000,0.39702001953125,-0.98773193359375,-0.3903045654296875,0.014892578125
1788940682542990000,0.406989990234375,-0.994659423828125,-0.3811798095703125,0.04571533203125
1788940682552959200,0.416959228515625,-0.98406982421875,-0.3876495361328125,0.0758056640625
1788940682562929200,0.42692919921875,-0.9577178955078125,-0.3836212158203125,0.0996551513671875
1788940682572898000,0.43689794921875,-0.9294281005859375,-0.3726806640625,0.1225433349609375
1788940682582868200,0.4468681640625,-0.8986663818359375,-0.3642730712890625,0.1420745849609375
1788940682592837000,0.456837158203125,-0.8648223876953125,-0.365997314453125,0.1493377685546875
1788940682602807000,0.46680712890625,-0.8226165771484375,-0.367767333984375,0.183746337890625
1788940682612776000,0.47677587890625,-0.787078857421875,-0.374359130859375,0.19158935546875
1788940682622746000,0.48674609375,-0.7567596435546875,-0.3733062744140625,0.1885528564453125
1788940682632715800,0.4967158203125,-0.7473602294921875,-0.3727569580078125,0.2065277099609375
1788940682642684700,0.5066845703125,-0.738739013671875,-0.337127685546875,0.2206573486328125
1788940682652654600,0.516654541015625,-0.7422637939453125,-0.335296630859375,0.1872406005859375
1788940682662623700,0.526623779296875,-0.739349365234375,-0.3337249755859375,0.156707763671875
1788940682672593700,0.53659375,-0.744720458984375,-0.3767852783203125,0.169586181640625
1788940682682562600,0.5465625,-0.8015899658203125,-0.41693115234375,0.1741943359375
1788940682692532500,0.556532470703125,-0.9177703857421875,-0.431396484375,0.1684112548828125
1788940682702501600,0.566501708984375,-1.0322113037109375,-0.4612579345703125,0.1336669921875
1788940682712471600,0.576471435546875,-1.0180816650390625,-0.483978271484375,0.148590087890625
1788940682722441700,0.586441650390625,-0.964080810546875,-0.52191162109375,0.10821533203125
1788940682732410600,0.59641064453125,-0.9386138916015625,-0.535400390625,0.10638427734375
1788940682742380500,0.606380615234375,-0.9426116943359375,-0.4885711669921875,0.1466064453125
1788940682752349700,0.616349609375,-0.925811767578125,-0.4334564208984375,0.16021728515625
1788940682762319600,0.626319580078125,-0.9186859130859375,-0.3969573974609375,0.157012939453125
1788940682772288500,0.63628857421875,-0.9015655517578125,-0.4141387939453125,0.171478271484375
1788940682782258400,0.646258544921875,-0.8707122802734375,-0.4464569091796875,0.1749725341796875
1788940682792228600,0.656228515625,-0.8563690185546875,-0.4591217041015625,0.173248291015625
1788940682802197800,0.66619775390625,-0.8807220458984375,-0.463531494140625,0.1774139404296875
1788940682812167700,0.676167724609375,-0.909576416015625,-0.45306396484375,0.1877899169921875
1788940682822136600,0.686136474609375,-0.932586669921875,-0.431915283203125,0.1891326904296875
1788940682832106500,0.6961064453125,-0.9533538818359375,-0.4204864501953125,0.178253173828125
1788940682842075600,0.70607568359375,-0.96795654296875,-0.4445343017578125,0.1230926513671875
1788940682852045600,0.716045654296875,-0.9501800537109375,-0.49151611328125,0.074493408203125
1788940682862015500,0.726015380859375,-0.9024810791015625,-0.5123138427734375,0.07110595703125
1788940682871984400,0.735984375,-0.8668975830078125,-0.5263519287109375,0.0468902587890625
1788940682881954600,0.74595458984375,-0.8316802978515625,-0.528533935546875,0.0391845703125
1788940682891923700,0.755923828125,-0.8040313720703125,-0.5330810546875,0.0299530029296875
1788940682901893600,0.7658935546875,-0.8096923828125,-0.534088134765625,0.023895263671875
1788940682911862500,0.775862548828125,-0.8422698974609375,-0.5267486572265625,0.0329437255859375
1788940682921832400,0.78583251953125,-0.870941162109375,-0.5165863037109375,0.0313262939453125
1788940682931802600,0.795802734375,-0.9019012451171875,-0.489715576171875,0.0218505859375
1788940682941771500,0.805771484375,-0.9553070068359375,-0.464263916015625,0.011505126953125
1788940682951741700,0.81574169921875,-1.01641845703125,-0.4491729736328125,-0.010955810546875
1788940682961710600,0.825710693359375,-1.053436279296875,-0.449493408203125,-0.03680419921875
1788940682971680800,0.8356806640625,-1.0724945068359375,-0.4579315185546875,-0.056854248046875
1788940682981649700,0.845649658203125,-1.062225341796875,-0.4692840576171875,-0.073394775390625
1788940682991619600,0.85561962890625,-1.0114593505859375,-0.46868896484375,-0.090240478515625
1788940683001589500,0.865589599609375,-0.9585418701171875,-0.452606201171875,-0.089141845703125
1788940683011558700,0.87555859375,-0.918243408203125,-0.4247894287109375,-0.067138671875
1788940683021528600,0.885528564453125,-0.90594482421875,-0.4206085205078125,-0.073638916015625
1788940683031497700,0.895497802734375,-0.8970794677734375,-0.4161529541015625,-0.0577239990234375
1788940683041467600,0.905467529296875,-0.8814239501953125,-0.3967132568359375,-0.0526580810546875
1788940683051436500,0.9154365234375,-0.8793182373046875,-0.400177001953125,-0.0807647705078125
1788940683061406700,0.92540673828125,-0.865142822265625,-0.404144287109375,-0.1012420654296875
1788940683071376600,0.935376708984375,-0.8401947021484375,-0.408416748046875,-0.1200714111328125
1788940683081345500,0.945345458984375,-0.814849853515625,-0.41705322265625,-0.149139404296875
1788940683091315500,0.9553154296875,-0.79034423828125,-0.4214324951171875,-0.1719818115234375
1788940683101284600,0.96528466796875,-0.78192138671875,-0.4184417724609375,-0.197113037109375
1788940683111254800,0.9752548828125,-0.7841796875,-0.4004364013671875,-0.2155303955078125
1788940683121223700,0.9852236328125,-0.7907562255859375,-0.3835296630859375,-0.2290191650390625
1788940683131193600,0.995193603515625,-0.7977142333984375,-0.3751220703125,-0.2370452880859375
1788940683141163500,1.00516357421875,-0.8056640625,-0.3799896240234375,-0.23486328125
1788940683151132700,1.015132568359375,-0.812896728515625,-0.384368896484375,-0.231842041015625
1788940683161102600,1.0251025390625,-0.8106842041015625,-0.3939056396484375,-0.23052978515625
1788940683171071500,1.035071533203125,-0.8087005615234375,-0.4101409912109375,-0.22442626953125
1788940683181041700,1.045041748046875,-0.8028106689453125,-0.4358367919921875,-0.2267303466796875
1788940683191011600,1.055011474609375,-0.799224853515625,-0.451629638671875,-0.2393341064453125
1788940683200980700,1.064980712890625,-0.7885284423828125,-0.455780029296875,-0.248504638671875
1788940683210950700,1.07495068359375,-0.7818603515625,-0.47637939453125,-0.2614288330078125
1788940683220919600,1.08491943359375,-0.7965087890625,-0.5050201416015625,-0.2749786376953125
1788940683230889500,1.094889404296875,-0.829345703125,-0.50689697265625,-0.2743072509765625
1788940683240858600,1.104858642578125,-0.8701171875,-0.498748779296875,-0.2630615234375
1788940683250828500,1.11482861328125,-0.9115142822265625,-0.49554443359375,-0.2414398193359375
1788940683260798700,1.124798828125,-0.9463653564453125,-0.490264892578125,-0.2138214111328125
1788940683270767600,1.134767578125,-0.9585723876953125,-0.4865264892578125,-0.19293212890625
1788940683280737500,1.144737548828125,-0.962249755859375,-0.48883056640625,-0.16949462890625
1788940683290706700,1.154706787109375,-0.9632110595703125,-0.4972381591796875,-0.15875244140625
1788940683300676600,1.164676513671875,-0.945770263671875,-0.50030517578125,-0.1546478271484375
1788940683310646500,1.174646484375,-0.9218902587890625,-0.5132904052734375,-0.1538848876953125
1788940683320615400,1.184615478515625,-0.9052276611328125,-0.5377349853515625,-0.1470794677734375
1788940683330585600,1.194585693359375,-0.88580322265625,-0.5582275390625,-0.1409149169921875
1788940683340554800,1.2045546875,-0.871002197265625,-0.5576324462890625,-0.1436004638671875
1788940683350524700,1.214524658203125,-0.881256103515625,-0.536376953125,-0.1417388916015625
1788940683360494600,1.22449462890625,-0.899810791015625,-0.5039520263671875,-0.13214111328125
1788940683370463500,1.23446337890625,-0.9177398681640625,-0.4636993408203125,-0.126739501953125
1788940683380433700,1.24443359375,-0.94854736328125,-0.426727294921875,-0.108734130859375
1788940683390402600,1.254402587890625,-0.98260498046875,-0.4019927978515625,-0.0783843994140625
1788940683400372500,1.26437255859375,-1.0138397216796875,-0.3686370849609375,-0.04180908203125
1788940683410341400,1.27434130859375,-1.0191650390625,-0.333526611328125,-0.01318359375
1788940683420311800,1.284311767578125,-1.0059661865234375,-0.315521240234375,0.0050506591796875
1788940683430281700,1.29428173828125,-0.9995574951171875,-0.304718017578125,0.018585205078125
1788940683440250600,1.304250732421875,-0.9842987060546875,-0.3013153076171875,0.0354766845703125
1788940683450220500,1.314220458984375,-0.9576416015625,-0.3033447265625,0.047760009765625
1788940683460189700,1.324189697265625,-0.9150848388671875,-0.2837677001953125,0.10174560546875
1788940683470159600,1.33415966796875,-0.85406494140625,-0.298980712890625,0.0707244873046875
1788940683480129800,1.3441298828125,-0.8041229248046875,-0.324371337890625,0.0501556396484375
1788940683490098700,1.3540986328125,-0.763916015625,-0.3350677490234375,0.0642242431640625
1788940683500068600,1.364068603515625,-0.719482421875,-0.3439788818359375,0.0507354736328125
1788940683510037800,1.374037841796875,-0.6969146728515625,-0.35321044921875,0.0375823974609375
1788940683520007700,1.384007568359375,-0.6841888427734375,-0.3690032958984375,0.0335235595703125
1788940683529977600,1.3939775390625,-0.679443359375,-0.3630828857421875,0.0565338134765625
1788940683539946500,1.403946533203125,-0.694610595703125,-0.339019775390625,0.0665740966796875
1788940683549916400,1.41391650390625,-0.7147979736328125,-0.3235015869140625,0.0718841552734375
1788940683559885600,1.423885498046875,-0.7465972900390625,-0.322509765625,0.0928955078125
1788940683569855700,1.433855712890625,-0.7820281982421875,-0.3423919677734375,0.1068115234375
1788940683579825700,1.44382568359375,-0.8079833984375,-0.3579254150390625,0.1206207275390625
1788940683589794600,1.453794677734375,-0.83746337890625,-0.3712158203125,0.1203155517578125
1788940683599764500,1.463764404296875,-0.8655548095703125,-0.3787994384765625,0.113006591796875
1788940683609733600,1.473733642578125,-0.8922271728515625,-0.379974365234375,0.1005859375
1788940683619703600,1.48370361328125,-0.9240264892578125,-0.3728790283203125,0.091339111328125
1788940683629673700,1.493673828125,-0.96221923828125,-0.364044189453125,0.095489501953125
1788940683639643000,1.503642822265625,-1.000213623046875,-0.3441314697265625,0.11151123046875
1788940683649612800,1.51361279296875,-1.041656494140625,-0.3312530517578125,0.1514129638671875
1788940683659583000,1.5235830078125,-1.0964813232421875,-0.3368988037109375,0.1903839111328125
1788940683669551900,1.5335517578125,-1.1614227294921875,-0.3315887451171875,0.219573974609375
1788940683679521800,1.543521728515625,-1.23291015625,-0.3102874755859375,0.2512054443359375
1788940683689490700,1.55349072265625,-1.285675048828125,-0.3043212890625,0.2928466796875
1788940683699460900,1.5634609375,-1.2883453369140625,-0.314300537109375,0.3202972412109375
1788940683709431000,1.57343115234375,-1.2774200439453125,-0.331756591796875,0.320343017578125
1788940683719400000,1.58339990234375,-1.24456787109375,-0.3447723388671875,0.31304931640625
1788940683729369900,1.593369873046875,-1.2175750732421875,-0.3446044921875,0.293182373046875
1788940683739338800,1.6033388671875,-1.1935272216796875,-0.3610687255859375,0.249542236328125
1788940683749309000,1.613308837890625,-1.148681640625,-0.3387298583984375,0.2641754150390625
1788940683759278800,1.62327880859375,-1.128021240234375,-0.30908203125,0.2445831298828125
1788940683769248000,1.633248046875,-1.1216278076171875,-0.3126373291015625,0.20343017578125
1788940683779218000,1.643218017578125,-1.09954833984375,-0.3148956298828125,0.1995849609375
1788940683789187000,1.65318701171875,-1.07025146484375,-0.3114471435546875,0.1775054931640625
1788940683799157000,1.663156982421875,-1.040679931640625,-0.31903076171875,0.1550445556640625
1788940683809127000,1.673126953125,-1.003448486328125,-0.3363494873046875,0.137939453125
1788940683819095800,1.683095703125,-0.955413818359375,-0.3721160888671875,0.1312408447265625
1788940683829065700,1.693065673828125,-0.9158935546875,-0.4120635986328125,0.1194610595703125
1788940683839035000,1.703034912109375,-0.8823699951171875,-0.444580078125,0.0987548828125
1788940683849005000,1.713005126953125,-0.8451995849609375,-0.4600982666015625,0.0881805419921875
1788940683858975000,1.72297509765625,-0.8126373291015625,-0.4659881591796875,0.076812744140625
1788940683868944000,1.73294384765625,-0.7843780517578125,-0.469573974609375,0.0631561279296875
1788940683878913800,1.742913818359375,-0.777313232421875,-0.467041015625,0.0452423095703125
1788940683888883700,1.7528837890625,-0.785369873046875,-0.45513916015625,0.02862548828125
1788940683898852900,1.762852783203125,-0.810272216796875,-0.43365478515625,0.012908935546875
1788940683908822800,1.77282275390625,-0.8484039306640625,-0.4086151123046875,0.000762939453125
1788940683918792000,1.7827919921875,-0.8908233642578125,-0.384521484375,-0.0123748779296875
1788940683928761900,1.792761962890625,-0.9285888671875,-0.351531982421875,-0.03045654296875
1788940683938732000,1.80273193359375,-0.96490478515625,-0.3162689208984375,-0.04522705078125
1788940683948701000,1.812700927734375,-0.9971923828125,-0.278350830078125,-0.0597381591796875
1788940683958670800,1.8226708984375,-1.022125244140625,-0.24053955078125,-0.0691986083984375
1788940683968639700,1.8326396484375,-1.0427703857421875,-0.219207763671875,-0.0802001953125
1788940683978610000,1.84260986328125,-1.0514984130859375,-0.2118988037109375,-0.0926666259765625
1788940683988580000,1.852580078125,-1.0283050537109375,-0.213714599609375,-0.10394287109375
1788940683998549000,1.862549072265625,-0.975189208984375,-0.22637939453125,-0.117034912109375
1788940684008519000,1.872518798828125,-0.9068450927734375,-0.2503204345703125,-0.128662109375
1788940684018488800,1.88248876953125,-0.8334808349609375,-0.2886505126953125,-0.1400146484375
1788940684028458000,1.8924580078125,-0.7718963623046875,-0.315185546875,-0.13946533203125
1788940684038428000,1.902427978515625,-0.72991943359375,-0.3291015625,-0.1418609619140625
1788940684048396800,1.912396728515625,-0.7139892578125,-0.3393096923828125,-0.164642333984375
1788940684058366700,1.92236669921875,-0.72637939453125,-0.3382568359375,-0.1767425537109375
1788940684068337000,1.9323369140625,-0.773345947265625,-0.3391876220703125,-0.189788818359375
1788940684078306000,1.94230615234375,-0.83380126953125,-0.3372650146484375,-0.1905517578125
1788940684088276000,1.95227587890625,-0.8785247802734375,-0.335723876953125,-0.1832733154296875
1788940684098246000,1.962245849609375,-0.9219512939453125,-0.3427886962890625,-0.1728668212890625
1788940684108214800,1.97221484375,-0.9544219970703125,-0.3643646240234375,-0.159759521484375
1788940684118184700,1.982184814453125,-0.9405975341796875,-0.3973236083984375,-0.1490631103515625
1788940684128153900,1.99215380859375,-0.8945465087890625,-0.4237060546875,-0.12445068359375
1788940684138124000,2.0021240234375,-0.8663330078125,-0.44000244140625,-0.1008758544921875
1788940684148094000,2.012093994140625,-0.8562164306640625,-0.4635162353515625,-0.088104248046875
1788940684158062800,2.022062744140625,-0.8507537841796875,-0.480010986328125,-0.0723724365234375
1788940684168032800,2.03203271484375,-0.84912109375,-0.4887542724609375,-0.0565185546875
1788940684178003000,2.0420029296875,-0.8691253662109375,-0.494476318359375,-0.03662109375
1788940684187971800,2.051971923828125,-0.8976287841796875,-0.4955596923828125,-0.018585205078125
1788940684197941800,2.061941650390625,-0.9159088134765625,-0.4880523681640625,-0.0086212158203125
1788940684207910700,2.07191064453125,-0.9292755126953125,-0.49151611328125,-0.0046539306640625
1788940684217881000,2.081881103515625,-0.9319610595703125,-0.507110595703125,-0.0038299560546875
1788940684227851000,2.09185107421875,-0.9110107421875,-0.5212249755859375,-0.0016632080078125
1788940684237820000,2.10181982421875,-0.8889312744140625,-0.5303497314453125,0.0035247802734375
1788940684247789800,2.111789794921875,-0.8809356689453125,-0.525634765625,0.01141357421875
1788940684257759700,2.121759765625,-0.8900909423828125,-0.51495361328125,0.018646240234375
1788940684267729000,2.13172900390625,-0.9089202880859375,-0.511077880859375,0.0181884765625
1788940684277699000,2.141698974609375,-0.933685302734375,-0.504150390625,0.0221710205078125
1788940684287668000,2.15166796875,-0.954193115234375,-0.4901580810546875,0.0353851318359375
1788940684297638000,2.161637939453125,-0.9709930419921875,-0.4748687744140625,0.0585479736328125
1788940684307607800,2.17160791015625,-0.9835662841796875,-0.4642333984375,0.0693511962890625
1788940684317577000,2.181576904296875,-0.990447998046875,-0.4593505859375,0.07794189453125
1788940684327547000,2.191546875,-0.9917755126953125,-0.452056884765625,0.09210205078125
1788940684337516800,2.201516845703125,-0.986328125,-0.43292236328125,0.1068878173828125
1788940684347485700,2.211485595703125,-0.96533203125,-0.402191162109375,0.127288818359375
1788940684357456000,2.221455810546875,-0.9505462646484375,-0.369873046875,0.141357421875
1788940684367425800,2.23142578125,-0.938201904296875,-0.3467864990234375,0.154693603515625
1788940684377395000,2.24139501953125,-0.9117279052734375,-0.33892822265625,0.1725921630859375
1788940684387364900,2.25136474609375,-0.872039794921875,-0.33831787109375,0.19549560546875
1788940684397333800,2.261333740234375,-0.82379150390625,-0.3496856689453125,0.207000732421875
1788940684407304000,2.271303955078125,-0.769744873046875,-0.3566131591796875,0.215667724609375
1788940684417274000,2.281274169921875,-0.7156982421875,-0.3583984375,0.2271881103515625
1788940684427243000,2.291242919921875,-0.681793212890625,-0.359039306640625,0.2343597412109375
1788940684437213000,2.301212890625,-0.6651458740234375,-0.3572845458984375,0.237762451171875
1788940684447182800,2.311182861328125,-0.6688690185546875,-0.36370849609375,0.2351531982421875
1788940684457152000,2.321152099609375,-0.6782379150390625,-0.3715972900390625,0.2366485595703125
1788940684467122000,2.331121826171875,-0.69647216796875,-0.3769073486328125,0.2418365478515625
1788940684477091800,2.341091796875,-0.72039794921875,-0.38214111328125,0.2417449951171875
1788940684487060700,2.351060791015625,-0.7372589111328125,-0.3910369873046875,0.24859619140625
1788940684497031000,2.361031005859375,-0.745269775390625,-0.406585693359375,0.253326416015625
1788940684507000000,2.371,-0.760284423828125,-0.4176483154296875,0.2556304931640625
1788940684516970000,2.380969970703125,-0.78009033203125,-0.413970947265625,0.2645263671875
1788940684526940000,2.39093994140625,-0.8000946044921875,-0.4066009521484375,0.27777099609375
1788940684536908800,2.40090869140625,-0.827392578125,-0.403411865234375,0.2825927734375
1788940684546878700,2.410878662109375,-0.865234375,-0.40093994140625,0.2780303955078125
1788940684556849000,2.420848876953125,-0.8959197998046875,-0.399322509765625,0.2752532958984375
1788940684566818000,2.430818115234375,-0.9286346435546875,-0.4051666259765625,0.2640228271484375
1788940684576788000,2.4407880859375,-0.9574127197265625,-0.4100799560546875,0.2440643310546875
1788940684586758000,2.4507578125,-0.96746826171875,-0.4165802001953125,0.2129974365234375
1788940684596726800,2.460726806640625,-0.969268798828125,-0.420379638671875,0.19171142578125
1788940684606697000,2.470697021484375,-0.9666748046875,-0.42926025390625,0.17529296875
1788940684616665900,2.480665771484375,-0.963531494140625,-0.4392547607421875,0.1682586669921875
1788940684626635800,2.4906357421875,-0.9587554931640625,-0.4522705078125,0.17449951171875
1788940684636606000,2.50060595703125,-0.934234619140625,-0.47625732421875,0.1802215576171875
1788940684646574800,2.510574951171875,-0.9032745361328125,-0.497222900390625,0.17437744140625
1788940684656545000,2.520544921875,-0.875274658203125,-0.5059356689453125,0.1651763916015625
1788940684666515000,2.530514892578125,-0.8627166748046875,-0.5067291259765625,0.1573638916015625
1788940684676483800,2.54048388671875,-0.86993408203125,-0.5111541748046875,0.1405181884765625
1788940684686454000,2.5504541015625,-0.9035797119140625,-0.5118865966796875,0.1179046630859375
1788940684696424000,2.560423828125,-0.931243896484375,-0.507568359375,0.0833892822265625
1788940684706393000,2.57039306640625,-0.951873779296875,-0.499053955078125,0.0635833740234375
1788940684716363000,2.580363037109375,-0.9694061279296875,-0.4934234619140625,0.0607757568359375
1788940684726333000,2.5903330078125,-0.976348876953125,-0.4925384521484375,0.063812255859375
1788940684736301800,2.6003017578125,-0.9799957275390625,-0.48095703125,0.066375732421875
1788940684746272000,2.61027197265625,-0.9754638671875,-0.4624786376953125,0.0559539794921875
1788940684756242000,2.620241943359375,-0.9668426513671875,-0.4461212158203125,0.041412353515625
1788940684766211000,2.630211181640625,-0.96295166015625,-0.4235687255859375,0.02685546875
1788940684776181000,2.640180908203125,-0.9640350341796875,-0.399444580078125,-0.0015106201171875
1788940684786150000,2.65014990234375,-0.9698333740234375,-0.3760833740234375,-0.0272674560546875
1788940684796119800,2.660119873046875,-0.9714813232421875,-0.3516845703125,-0.0475006103515625
1788940684806090000,2.670090087890625,-0.9765167236328125,-0.3410491943359375,-0.0747222900390625
1788940684816059000,2.680058837890625,-0.9632720947265625,-0.3419647216796875,-0.099090576171875
1788940684826029000,2.690029052734375,-0.916778564453125,-0.3434295654296875,-0.1237945556640625
1788940684835999000,2.6999990234375,-0.867340087890625,-0.3462066650390625,-0.1434783935546875
1788940684845968100,2.709968017578125,-0.8289794921875,-0.3480224609375,-0.1487274169921875
1788940684855938000,2.71993798828125,-0.804901123046875,-0.345733642578125,-0.1489410400390625
1788940684865908000,2.729907958984375,-0.790679931640625,-0.3473358154296875,-0.1594085693359375
1788940684875876900,2.739876953125,-0.788848876953125,-0.34906005859375,-0.1701812744140625
1788940684885847000,2.749846923828125,-0.79779052734375,-0.356353759765625,-0.1821746826171875
1788940684895817000,2.75981689453125,-0.818023681640625,-0.3652191162109375,-0.1916046142578125
1788940684905786000,2.7697861328125,-0.8389129638671875,-0.37298583984375,-0.1946868896484375
1788940684915756000,2.779756103515625,-0.8527374267578125,-0.387939453125,-0.1932525634765625
1788940684925726000,2.789725830078125,-0.8609466552734375,-0.4074554443359375,-0.1878509521484375
1788940684935694800,2.79969482421875,-0.861724853515625,-0.4176483154296875,-0.1979827880859375
1788940684945664800,2.809664794921875,-0.850830078125,-0.42144775390625,-0.213226318359375
1788940684955634000,2.819634033203125,-0.8437957763671875,-0.42584228515625,-0.2194061279296875
1788940684965604000,2.82960400390625,-0.8520050048828125,-0.42742919921875,-0.2255706787109375
1788940684975574000,2.839573974609375,-0.8733978271484375,-0.4123382568359375,-0.2279510498046875
1788940684985543000,2.84954296875,-0.909149169921875,-0.3854827880859375,-0.2266693115234375
1788940684995513000,2.85951318359375,-0.956787109375,-0.3459930419921875,-0.2194976806640625
1788940685005483000,2.86948291015625,-1.0075531005859375,-0.31219482421875,-0.210174560546875
1788940685015452000,2.879451904296875,-1.049560546875,-0.29901123046875,-0.2010040283203125
1788940685025421800,2.889421875,-1.0675811767578125,-0.299041748046875,-0.192596435546875
1788940685035392000,2.89939208984375,-1.0500335693359375,-0.316009521484375,-0.1789703369140625
1788940685045361200,2.909361083984375,-1.0054779052734375,-0.3488006591796875,-0.1568603515625
1788940685055331000,2.9193310546875,-0.9445037841796875,-0.3778839111328125,-0.1405487060546875
1788940685065301000,2.929301025390625,-0.8883819580078125,-0.4004364013671875,-0.13214111328125
1788940685075270000,2.939269775390625,-0.8484649658203125,-0.4108123779296875,-0.1357269287109375
1788940685085239800,2.94923974609375,-0.8418121337890625,-0.3983154296875,-0.1427154541015625
1788940685095210000,2.9592099609375,-0.8613433837890625,-0.3809661865234375,-0.146453857421875
1788940685105179100,2.96917919921875,-0.8966064453125,-0.382415771484375,-0.1410064697265625
1788940685115149000,2.979149169921875,-0.9252471923828125,-0.3864288330078125,-0.13116455078125
1788940685125119000,2.989118896484375,-0.9356231689453125,-0.37646484375,-0.112701416015625
1788940685135087900,2.999087890625,-0.92498779296875,-0.3641357421875,-0.0865020751953125
1788940685145057800,3.009057861328125,-0.9063262939453125,-0.361724853515625,-0.0600738525390625
1788940685155028000,3.019028076171875,-0.8889007568359375,-0.3578338623046875,-0.0389862060546875
1788940685164996900,3.028996826171875,-0.879547119140625,-0.3575439453125,-0.023284912109375
1788940685174967000,3.038967041015625,-0.870269775390625,-0.3518218994140625,-0.0045166015625
1788940685184936000,3.04893603515625,-0.8570098876953125,-0.3345184326171875,0.01324462890625
1788940685194906000,3.058906005859375,-0.8425140380859375,-0.3296356201171875,0.031951904296875
1788940685204876000,3.0688759765625,-0.84368896484375,-0.326141357421875,0.0475921630859375
1788940685214845000,3.078844970703125,-0.8453216552734375,-0.316436767578125,0.0877838134765625
1788940685224814800,3.08881494140625,-0.831085205078125,-0.3321533203125,0.1045684814453125
1788940685234785000,3.098784912109375,-0.8293609619140625,-0.3408355712890625,0.113189697265625
1788940685244754200,3.108754150390625,-0.8191986083984375,-0.3134307861328125,0.1026763916015625
1788940685254724000,3.11872412109375,-0.8094940185546875,-0.3052978515625,0.120330810546875
1788940685264694000,3.128694091796875,-0.8303985595703125,-0.31072998046875,0.130950927734375
1788940685274663000,3.138662841796875,-0.867889404296875,-0.2934722900390625,0.144134521484375
1788940685284632800,3.1486328125,-0.89678955078125,-0.256622314453125,0.16070556640625
1788940685294602800,3.158602783203125,-0.9001922607421875,-0.2143707275390625,0.1571044921875
1788940685304572000,3.168572021484375,-0.90338134765625,-0.183868408203125,0.1365203857421875
1788940685314542000,3.1785419921875,-0.94012451171875,-0.1965789794921875,0.0794830322265625
1788940685324512000,3.188511962890625,-0.9390716552734375,-0.248321533203125,-0.05352783203125
1788940685334481000,3.19848095703125,-0.9144744873046875,-0.266998291015625,-0.121978759765625
1788940685344451000,3.208451171875,-0.8059234619140625,-0.2813568115234375,-0.1242828369140625
1788940685354421000,3.2184208984375,-0.8149566650390625,-0.3170928955078125,-0.10601806640625
1788940685364390000,3.228389892578125,-0.8254241943359375,-0.359954833984375,-0.035614013671875
1788940685374360000,3.238360107421875,-0.79296875,-0.4209442138671875,0.016571044921875
1788940685384330000,3.248330078125,-0.83355712890625,-0.496551513671875,0.2710113525390625
1788940685394299100,3.258299072265625,-0.950103759765625,-0.554656982421875,0.481109619140625
1788940685404269000,3.26826904296875,-1.0187835693359375,-0.5550384521484375,0.419830322265625
1788940685414239000,3.278239013671875,-1.0658721923828125,-0.492431640625,0.2262420654296875
1788940685424208000,3.288207763671875,-1.097869873046875,-0.3452606201171875,0.0673828125
1788940685434177800,3.298177734375,-1.1068572998046875,-0.2961883544921875,-0.0052032470703125
1788940685444148000,3.30814794921875,-1.1199951171875,-0.3741912841796875,-0.05548095703125
1788940685454117000,3.3181171875,-1.092559814453125,-0.4177703857421875,-0.070556640625
1788940685464087000,3.328087158203125,-1.0261383056640625,-0.4224090576171875,-0.0530548095703125
1788940685474057000,3.338056884765625,-0.9601287841796875,-0.41827392578125,-0.0396881103515625
1788940685484025900,3.34802587890625,-0.8970947265625,-0.40252685546875,-0.0070953369140625
1788940685493996000,3.35799609375,-0.86407470703125,-0.404571533203125,0.0292816162109375
1788940685503966200,3.36796630859375,-0.8506317138671875,-0.4369049072265625,0.0543060302734375
1788940685513935000,3.37793505859375,-0.8565521240234375,-0.481048583984375,0.0642547607421875
1788940685523905000,3.387905029296875,-0.83990478515625,-0.5087738037109375,0.0767364501953125
1788940685533875000,3.397875,-0.8372344970703125,-0.5295867919921875,0.0969390869140625
1788940685543844000,3.407843994140625,-0.84881591796875,-0.5533599853515625,0.1074981689453125
1788940685553814000,3.41781396484375,-0.8475799560546875,-0.570556640625,0.1140289306640625
1788940685563784000,3.427783935546875,-0.8505706787109375,-0.567535400390625,0.067535400390625
1788940685573752800,3.4377529296875,-0.8715362548828125,-0.5381011962890625,0.0213470458984375
1788940685583723000,3.447722900390625,-0.8773651123046875,-0.5135955810546875,-0.035308837890625
1788940685593693000,3.45769287109375,-0.8838653564453125,-0.4993438720703125,-0.1045684814453125
1788940685603662000,3.467662109375,-0.922119140625,-0.4871826171875,-0.1500701904296875
1788940685613632000,3.477632080078125,-0.93634033203125,-0.478240966796875,-0.1835479736328125
1788940685623602000,3.487601806640625,-0.9183502197265625,-0.4491729736328125,-0.1655731201171875
1788940685633570600,3.497570556640625,-0.8809814453125,-0.396240234375,-0.1469573974609375
1788940685643540700,3.507540771484375,-0.8251495361328125,-0.3439178466796875,-0.1316070556640625
1788940685653510700,3.5175107421875,-0.7691650390625,-0.3132476806640625,-0.1301116943359375
1788940685663479600,3.5274794921875,-0.7825469970703125,-0.2884521484375,-0.1605072021484375
1788940685673449500,3.537449462890625,-0.81158447265625,-0.3029022216796875,-0.1693115234375
1788940685683419600,3.547419677734375,-0.8002777099609375,-0.3015594482421875,-0.194305419921875
1788940685693388800,3.557388916015625,-0.7833404541015625,-0.296905517578125,-0.2205352783203125
1788940685705850600,3.5698505859375,-0.754669189453125,-0.298553466796875,-0.23681640625
1788940685715820500,3.579820556640625,-0.7886810302734375,-0.2777099609375,-0.2695770263671875
1788940685725790500,3.58979052734375,-0.8776397705078125,-0.253143310546875,-0.2808685302734375
1788940685735759600,3.599759521484375,-0.979888916015625,-0.2495880126953125,-0.2847442626953125
1788940685745729800,3.609729736328125,-1.077362060546875,-0.239105224609375,-0.3151397705078125
1788940685755699700,3.61969970703125,-1.12347412109375,-0.24127197265625,-0.342987060546875
1788940685765668600,3.629668701171875,-1.119384765625,-0.23846435546875,-0.342926025390625
1788940685775638500,3.639638427734375,-1.1479949951171875,-0.2211761474609375,-0.3270263671875
1788940685785608400,3.6496083984375,-1.0615234375,-0.248016357421875,-0.327056884765625
1788940685795577600,3.65957763671875,-1.045379638671875,-0.2659759521484375,-0.3296051025390625
1788940685805547800,3.6695478515625,-1.07952880859375,-0.27490234375,-0.39422607421875
1788940685815517700,3.679517578125,-1.0970458984375,-0.285675048828125,-0.4397125244140625
1788940685825486600,3.689486572265625,-1.129425048828125,-0.30450439453125,-0.43609619140625
1788940685835456500,3.69945654296875,-1.1986083984375,-0.292327880859375,-0.3896026611328125
1788940685845426400,3.709426513671875,-1.2256622314453125,-0.2611541748046875,-0.3631134033203125
1788940685855395600,3.7193955078125,-1.2210235595703125,-0.2651519775390625,-0.36968994140625
1788940685865365500,3.729365478515625,-1.1836395263671875,-0.2664642333984375,-0.3493194580078125
1788940685875335700,3.739335693359375,-1.1346435546875,-0.2988433837890625,-0.2974395751953125
1788940685885304600,3.7493046875,-1.0794525146484375,-0.3142547607421875,-0.274383544921875
1788940685895274800,3.759274658203125,-0.98919677734375,-0.3206329345703125,-0.2476806640625
1788940685905244700,3.76924462890625,-0.9151153564453125,-0.3387451171875,-0.2068328857421875
1788940685915213600,3.779213623046875,-0.86737060546875,-0.344207763671875,-0.172576904296875
1788940685925183500,3.78918359375,-0.8487548828125,-0.335845947265625,-0.153106689453125
1788940685935153400,3.7991533203125,-0.8569488525390625,-0.3299713134765625,-0.1569976806640625
1788940685945122800,3.809122802734375,-0.8798828125,-0.3185882568359375,-0.154022216796875
1788940685955092700,3.8190927734375,-0.876190185546875,-0.310333251953125,-0.15057373046875
1788940685965062700,3.829062744140625,-0.856719970703125,-0.296539306640625,-0.147674560546875
1788940685975031600,3.839031494140625,-0.8478851318359375,-0.2961273193359375,-0.1358184814453125
1788940685985001500,3.84900146484375,-0.8418731689453125,-0.294525146484375,-0.1363677978515625
1788940685994971400,3.858971435546875,-0.8253021240234375,-0.279144287109375,-0.128814697265625
1788940686004940500,3.8689404296875,-0.8065948486328125,-0.25909423828125,-0.117431640625
1788940686014910700,3.87891064453125,-0.78973388671875,-0.2458953857421875,-0.1030426025390625
1788940686024880600,3.888880615234375,-0.8116607666015625,-0.2383575439453125,-0.07501220703125
1788940686034849500,3.898849609375,-0.8650360107421875,-0.232391357421875,-0.0462799072265625
1788940686044819700,3.90881982421875,-0.9373321533203125,-0.224761962890625,-0.038787841796875
1788940686054789600,3.91878955078125,-0.994537353515625,-0.2327880859375,-0.0387115478515625
1788940686064758500,3.928758544921875,-1.03515625,-0.2538909912109375,-0.0505218505859375
1788940686074728400,3.938728515625,-1.06591796875,-0.2648162841796875,-0.044342041015625
1788940686084698600,3.94869873046875,-1.0512237548828125,-0.2634124755859375,-0.0471954345703125
1788940686094667800,3.958667724609375,-1.0384368896484375,-0.25421142578125,-0.03326416015625
1788940686104637700,3.9686376953125,-1.0558624267578125,-0.2416534423828125,-0.0213775634765625
1788940686114607600,3.978607666015625,-1.084259033203125,-0.2298583984375,-0.0189056396484375
1788940686124576500,3.988576416015625,-1.1572723388671875,-0.2053070068359375,0.000152587890625
1788940686134546400,3.99854638671875,-1.1890106201171875,-0.2147216796875,-0.02288818359375
1788940686144516600,4.0085166015625,-1.1952362060546875,-0.2347869873046875,-0.011810302734375
1788940686154485800,4.01848583984375,-1.12677001953125,-0.235870361328125,0.01019287109375
1788940686164455700,4.02845556640625,-1.0542449951171875,-0.249786376953125,0.0305633544921875
1788940686174425600,4.038425537109375,-1.0169219970703125,-0.2952423095703125,0.0271148681640625
1788940686184394500,4.04839453125,-0.9835662841796875,-0.3326873779296875,0.01617431640625
1788940686194364700,4.05836474609375,-0.9478607177734375,-0.356842041015625,0.026092529296875
1788940686204334600,4.06833447265625,-0.9290771484375,-0.36688232421875,0.045501708984375
1788940686214303500,4.078303466796875,-0.9100494384765625,-0.35662841796875,0.06231689453125
1788940686224273700,4.088273681640625,-0.90216064453125,-0.3414459228515625,0.0899658203125
1788940686234243600,4.09824365234375,-0.9063720703125,-0.33087158203125,0.108306884765625
1788940686244212700,4.108212646484375,-0.9094390869140625,-0.3121337890625,0.1182861328125
1788940686254182700,4.1181826171875,-0.9164276123046875,-0.29718017578125,0.1217193603515625
1788940686264152600,4.128152587890625,-0.92633056640625,-0.28863525390625,0.125946044921875
1788940686274121500,4.13812158203125,-0.929168701171875,-0.2851104736328125,0.1260986328125
1788940686284091600,4.148091552734375,-0.9214324951171875,-0.2868499755859375,0.12957763671875
1788940686294061600,4.1580615234375,-0.91534423828125,-0.291748046875,0.1203765869140625
1788940686304030700,4.16803076171875,-0.9325714111328125,-0.2931365966796875,0.110687255859375
1788940686314000600,4.178000732421875,-0.9683074951171875,-0.289093017578125,0.0976409912109375
1788940686323970600,4.187970458984375,-0.9946746826171875,-0.281982421875,0.0750732421875
1788940686333939500,4.197939453125,-1.005340576171875,-0.2677001953125,0.069549560546875
1788940686343909400,4.207909423828125,-1.00946044921875,-0.2567291259765625,0.0771942138671875
1788940686353879800,4.2178798828125,-1.0109710693359375,-0.2515411376953125,0.0770111083984375
1788940686363848700,4.2278486328125,-1.00482177734375,-0.2466278076171875,0.08203125
1788940686373818600,4.237818603515625,-1.005126953125,-0.2530364990234375,0.07769775390625
1788940686383788500,4.24778857421875,-1.000152587890625,-0.26971435546875,0.0592041015625
1788940686393757700,4.2577578125,-1.0016326904296875,-0.284271240234375,0.0423583984375
1788940686403727600,4.2677275390625,-1.019439697265625,-0.2906341552734375,0.024688720703125
1788940686413696500,4.277696533203125,-1.0360260009765625,-0.2941131591796875,0.006988525390625
1788940686423666700,4.287666748046875,-1.05621337890625,-0.288482666015625,0.0032196044921875
1788940686433636600,4.29763671875,-1.072113037109375,-0.279510498046875,0.0098724365234375
1788940686443605800,4.307605712890625,-1.076141357421875,-0.28094482421875,0.0259246826171875
1788940686453575700,4.31757568359375,-1.061248779296875,-0.2862701416015625,0.0350341796875
1788940686463545600,4.327545654296875,-1.03131103515625,-0.2991943359375,0.038116455078125
1788940686473514500,4.337514404296875,-0.98956298828125,-0.320281982421875,0.026947021484375
1788940686483484400,4.347484375,-0.954559326171875,-0.3451690673828125,0.0084075927734375
1788940686493454600,4.35745458984375,-0.9401702880859375,-0.3644561767578125,-0.0120697021484375
1788940686503423700,4.367423828125,-0.9400634765625,-0.366485595703125,-0.027496337890625
1788940686513393700,4.3773935546875,-0.9749298095703125,-0.3437042236328125,-0.037994384765625
1788940686523363600,4.387363525390625,-1.0077667236328125,-0.3078765869140625,-0.0477142333984375
1788940686533332500,4.39733251953125,-1.033294677734375,-0.27813720703125,-0.056488037109375
1788940686543302700,4.407302734375,-1.0577850341796875,-0.2478485107421875,-0.073333740234375
1788940686553272600,4.4172724609375,-1.0720062255859375,-0.23822021484375,-0.1042633056640625
1788940686563241500,4.427241455078125,-1.064971923828125,-0.2347869873046875,-0.1209259033203125
1788940686573211600,4.437211669921875,-1.0280609130859375,-0.2426910400390625,-0.1392059326171875
1788940686583181600,4.447181640625,-0.970367431640625,-0.2569580078125,-0.149688720703125
1788940686593150700,4.457150634765625,-0.9179534912109375,-0.2682342529296875,-0.1500396728515625
1788940686603120600,4.46712060546875,-0.88031005859375,-0.2730255126953125,-0.140716552734375
1788940686613090600,4.477090576171875,-0.8590240478515625,-0.2707672119140625,-0.121490478515625
1788940686623059500,4.4870595703125,-0.8543243408203125,-0.268157958984375,-0.108856201171875
1788940686633029600,4.497029541015625,-0.853912353515625,-0.2607421875,-0.0970458984375
1788940686642998500,4.50699853515625,-0.870269775390625,-0.2494049072265625,-0.0968017578125
1788940686652968400,4.516968505859375,-0.8932647705078125,-0.249267578125,-0.1128997802734375
1788940686662938400,4.5269384765625,-0.9091949462890625,-0.2529754638671875,-0.1378936767578125
1788940686672907300,4.5369072265625,-0.9217987060546875,-0.2601318359375,-0.1677398681640625
1788940686682877200,4.546877197265625,-0.9346923828125,-0.26519775390625,-0.192657470703125
1788940686692847600,4.55684765625,-0.9568634033203125,-0.27545166015625,-0.2125244140625
1788940686702816500,4.56681640625,-0.9777069091796875,-0.285736083984375,-0.232269287109375
1788940686712786400,4.576786376953125,-0.9843597412109375,-0.3022308349609375,-0.2309112548828125
1788940686722756400,4.58675634765625,-0.9621429443359375,-0.3152618408203125,-0.1951904296875
1788940686732725500,4.5967255859375,-0.927947998046875,-0.3173980712890625,-0.1419830322265625
1788940686742695400,4.6066953125,-0.889434814453125,-0.3186798095703125,-0.0979461669921875
1788940686752665300,4.616665283203125,-0.864501953125,-0.3247222900390625,-0.0531158447265625
1788940686762634200,4.62663427734375,-0.85223388671875,-0.337677001953125,-0.0293731689453125
1788940686772604400,4.6366044921875,-0.8466033935546875,-0.3636932373046875,-0.0320281982421875
1788940686782574300,4.64657421875,-0.8504180908203125,-0.39019775390625,-0.0343017578125
1788940686792543500,4.65654345703125,-0.841583251953125,-0.40045166015625,-0.0209808349609375
1788940686802513400,4.666513427734375,-0.8191375732421875,-0.4018096923828125,-0.003387451171875
1788940686812482300,4.676482421875,-0.806915283203125,-0.3909454345703125,0.0040740966796875
1788940686822452200,4.6864521484375,-0.8096160888671875,-0.3651275634765625,-0.0027008056640625
1788940686832422400,4.69642236328125,-0.834014892578125,-0.3415374755859375,-0.0178680419921875
1788940686842391600,4.7063916015625,-0.871551513671875,-0.3305206298828125,-0.027618408203125
1788940686852361500,4.716361572265625,-0.9062652587890625,-0.330352783203125,-0.0357208251953125
1788940686862331400,4.726331298828125,-0.9287872314453125,-0.338531494140625,-0.0342254638671875
1788940686872300300,4.73630029296875,-0.9377593994140625,-0.3334197998046875,-0.011016845703125
1788940686882270500,4.7462705078125,-0.94500732421875,-0.3421173095703125,0.0148773193359375
1788940686892240400,4.756240478515625,-0.9333038330078125,-0.357757568359375,0.0351409912109375
1788940686902209300,4.766209228515625,-0.9082183837890625,-0.37109375,0.0453338623046875
1788940686912179500,4.776179443359375,-0.86993408203125,-0.3779144287109375,0.0569000244140625
1788940686922149400,4.7861494140625,-0.830291748046875,-0.380584716796875,0.0684814453125
1788940686932118500,4.796118408203125,-0.8156890869140625,-0.3775177001953125,0.0809783935546875
1788940686942088400,4.80608837890625,-0.836761474609375,-0.3618621826171875,0.095611572265625
1788940686952057300,4.816057373046875,-0.873199462890625,-0.3437957763671875,0.1087799072265625
1788940686962027300,4.82602734375,-0.903533935546875,-0.332855224609375,0.1128082275390625
1788940686971997400,4.83599755859375,-0.9221954345703125,-0.3336334228515625,0.1120452880859375
1788940686981966600,4.845966552734375,-0.9160308837890625,-0.3406524658203125,0.1117706298828125
1788940686991936500,4.8559365234375,-0.8847503662109375,-0.354766845703125,0.0988922119140625
1788940687001906400,4.865906494140625,-0.853759765625,-0.3737945556640625,0.088226318359375
1788940687011875300,4.875875244140625,-0.8350677490234375,-0.3918609619140625,0.0838165283203125
1788940687021845200,4.88584521484375,-0.820220947265625,-0.397369384765625,0.094268798828125
1788940687031815200,4.895815185546875,-0.8165435791015625,-0.3913421630859375,0.1141204833984375
1788940687041784300,4.905784423828125,-0.8372955322265625,-0.38262939453125,0.14044189453125
1788940687051754500,4.91575439453125,-0.862945556640625,-0.3674774169921875,0.1573944091796875
1788940687061724400,4.925724365234375,-0.886260986328125,-0.3503570556640625,0.1622772216796875
1788940687071693300,4.935693359375,-0.9229736328125,-0.3522491455078125,0.157379150390625
1788940687081663500,4.94566357421875,-0.9647064208984375,-0.373809814453125,0.134002685546875
1788940687091632400,4.95563232421875,-0.983123779296875,-0.3933868408203125,0.0962371826171875
1788940687101602300,4.965602294921875,-0.97271728515625,-0.4130859375,0.07403564453125
1788940687111572500,4.975572509765625,-0.95135498046875,-0.4303436279296875,0.060455322265625
1788940687121541400,4.985541259765625,-0.9434661865234375,-0.4463043212890625,0.0432586669921875
1788940687131511600,4.995511474609375,-0.949371337890625,-0.452972412109375,0.039794921875
1788940687141481500,5.0054814453125,-0.9642791748046875,-0.4436187744140625,0.04730224609375
1788940687151450400,5.015450439453125,-0.983001708984375,-0.423828125,0.0635833740234375
1788940687161420300,5.025420166015625,-1.002777099609375,-0.406494140625,0.0861968994140625
1788940687171389400,5.035389404296875,-1.014251708984375,-0.401123046875,0.1030731201171875
1788940687181359400,5.045359375,-1.0178680419921875,-0.405609130859375,0.108306884765625
1788940687191329500,5.05532958984375,-1.0136566162109375,-0.417022705078125,0.1111297607421875
1788940687201298400,5.06529833984375,-0.9904327392578125,-0.4278411865234375,0.099365234375
1788940687211268400,5.075268310546875,-0.9602508544921875,-0.436614990234375,0.08343505859375
1788940687221238300,5.08523828125,-0.9450531005859375,-0.448822021484375,0.0646514892578125
1788940687231207400,5.09520751953125,-0.9411773681640625,-0.446929931640625,0.03558349609375
1788940687241177300,5.10517724609375,-0.951751708984375,-0.4367523193359375,0.01007080078125
1788940687251147500,5.1151474609375,-0.9759063720703125,-0.4209136962890625,0.0093231201171875
1788940687261116400,5.125116455078125,-0.98980712890625,-0.4041595458984375,0.013641357421875
1788940687271086300,5.13508642578125,-0.9981536865234375,-0.388702392578125,0.02459716796875
1788940687281055500,5.145055419921875,-0.994110107421875,-0.3787078857421875,0.025482177734375
1788940687291025400,5.155025390625,-0.972564697265625,-0.3767547607421875,0.0155029296875
1788940687300995300,5.164995361328125,-0.9525604248046875,-0.388702392578125,0.0030059814453125
1788940687310964200,5.174964111328125,-0.9351806640625,-0.400604248046875,-0.0226898193359375
1788940687320934400,5.184934326171875,-0.9288482666015625,-0.4083099365234375,-0.0555877685546875
1788940687330904600,5.194904541015625,-0.9254150390625,-0.411346435546875,-0.08380126953125
1788940687340873500,5.20487353515625,-0.915191650390625,-0.40264892578125,-0.0996856689453125
1788940687350843400,5.214843505859375,-0.90594482421875,-0.3885040283203125,-0.1089935302734375
1788940687360812500,5.2248125,-0.90045166015625,-0.3798065185546875,-0.11334228515625
1788940687370782500,5.234782470703125,-0.8945770263671875,-0.3723602294921875,-0.110504150390625
1788940687380752400,5.24475244140625,-0.8844451904296875,-0.3681488037109375,-0.111602783203125
1788940687390721300,5.25472119140625,-0.866729736328125,-0.372894287109375,-0.11395263671875
1788940687400691500,5.26469140625,-0.8433837890625,-0.37408447265625,-0.1153564453125
1788940687410661400,5.274661376953125,-0.83160400390625,-0.3697967529296875,-0.1193084716796875
1788940687420630500,5.284630615234375,-0.841156005859375,-0.36199951171875,-0.127197265625
1788940687430600400,5.294600341796875,-0.8689727783203125,-0.35546875,-0.134918212890625
1788940687440570400,5.3045703125,-0.8922271728515625,-0.3400726318359375,-0.1422119140625
1788940687450539300,5.314539306640625,-0.9106597900390625,-0.3228912353515625,-0.1372528076171875
1788940687460509200,5.32450927734375,-0.9208831787109375,-0.3069610595703125,-0.129913330078125
1788940687470478300,5.334478271484375,-0.9225311279296875,-0.2920989990234375,-0.1175537109375
1788940687480448500,5.344448486328125,-0.919891357421875,-0.2816009521484375,-0.104461669921875
1788940687490418400,5.35441845703125,-0.8968963623046875,-0.281341552734375,-0.1015777587890625
1788940687500387300,5.36438720703125,-0.8691864013671875,-0.29669189453125,-0.1004486083984375
1788940687510357500,5.374357421875,-0.84930419921875,-0.333740234375,-0.1052703857421875
1788940687520326400,5.384326416015625,-0.8315887451171875,-0.3651885986328125,-0.1081085205078125
1788940687530296300,5.39429638671875,-0.8132476806640625,-0.3823089599609375,-0.1147003173828125
1788940687540266200,5.404266357421875,-0.804779052734375,-0.3989105224609375,-0.1239013671875
1788940687550235400,5.4142353515625,-0.8140716552734375,-0.4114837646484375,-0.135162353515625
1788940687560205600,5.42420556640625,-0.8410186767578125,-0.412506103515625,-0.1420745849609375
1788940687570175500,5.434175537109375,-0.87445068359375,-0.4100494384765625,-0.1373748779296875
1788940687580144400,5.444144287109375,-0.8997650146484375,-0.40960693359375,-0.1205902099609375
1788940687590114300,5.4541142578125,-0.9025726318359375,-0.407440185546875,-0.1072845458984375
1788940687600083500,5.46408349609375,-0.89947509765625,-0.423065185546875,-0.1028594970703125
1788940687610053400,5.474053466796875,-0.892242431640625,-0.444976806640625,-0.110107421875
1788940687620023600,5.4840234375,-0.8758087158203125,-0.455322265625,-0.1300048828125
1788940687629992400,5.493992431640625,-0.881683349609375,-0.4636993408203125,-0.1496734619140625
1788940687639962400,5.50396240234375,-0.91448974609375,-0.4647674560546875,-0.16253662109375
1788940687649932300,5.513932373046875,-0.9533843994140625,-0.4504241943359375,-0.1674652099609375
1788940687659901400,5.5239013671875,-0.98828125,-0.43011474609375,-0.1512908935546875
1788940687669871600,5.53387158203125,-1.010406494140625,-0.4148101806640625,-0.1159820556640625
1788940687679840500,5.543840576171875,-1.0109100341796875,-0.392669677734375,-0.070892333984375
1788940687689810400,5.553810546875,-0.9922027587890625,-0.375244140625,-0.02227783203125
1788940687699780400,5.5637802734375,-0.9561920166015625,-0.3696746826171875,0.0149383544921875
1788940687709749500,5.57374951171875,-0.9122161865234375,-0.3757476806640625,0.033111572265625
1788940687719719400,5.583719482421875,-0.8753204345703125,-0.394744873046875,0.0392303466796875
1788940687729689300,5.593689453125,-0.8497772216796875,-0.4104156494140625,0.04779052734375
1788940687739658500,5.603658447265625,-0.831298828125,-0.4189300537109375,0.054473876953125
1788940687749628400,5.61362841796875,-0.8170013427734375,-0.423797607421875,0.0647735595703125
1788940687759597600,5.62359765625,-0.80059814453125,-0.4292755126953125,0.0859527587890625
1788940687769567500,5.6335673828125,-0.7937469482421875,-0.4387054443359375,0.10980224609375
1788940687779537400,5.643537353515625,-0.7965087890625,-0.4513092041015625,0.1266632080078125
1788940687789506600,5.653506591796875,-0.7931671142578125,-0.4676055908203125,0.1377410888671875
1788940687799476500,5.6634765625,-0.7796478271484375,-0.4803924560546875,0.138916015625
1788940687809446700,5.67344677734375,-0.779632568359375,-0.48980712890625,0.1325531005859375
1788940687819415600,5.68341552734375,-0.8059539794921875,-0.49908447265625,0.1205291748046875
1788940687829385500,5.693385498046875,-0.8634796142578125,-0.48828125,0.1060791015625
1788940687839354600,5.703354736328125,-0.92559814453125,-0.4554901123046875,0.0876007080078125
1788940687849324500,5.713324462890625,-0.98468017578125,-0.4287109375,0.0762176513671875
1788940687859294500,5.72329443359375,-1.033599853515625,-0.407623291015625,0.0706329345703125
1788940687869263400,5.733263427734375,-1.0497589111328125,-0.3846588134765625,0.0701904296875
1788940687879233300,5.7432333984375,-1.051055908203125,-0.3702850341796875,0.085906982421875
1788940687889202700,5.75320263671875,-1.0239410400390625,-0.3662872314453125,0.1167449951171875
1788940687899172600,5.763172607421875,-0.96612548828125,-0.370758056640625,0.1510467529296875
1788940687909142500,5.773142578125,-0.906402587890625,-0.388336181640625,0.1753082275390625
1788940687919111400,5.783111328125,-0.8613128662109375,-0.4196319580078125,0.1857452392578125
1788940687929081300,5.793081298828125,-0.8175506591796875,-0.446380615234375,0.18865966796875
1788940687939051300,5.80305126953125,-0.7879486083984375,-0.4697723388671875,0.2047576904296875
1788940687949020400,5.8130205078125,-0.78448486328125,-0.4913177490234375,0.2284393310546875
1788940687958990600,5.822990478515625,-0.7905120849609375,-0.5054779052734375,0.2431488037109375
1788940687968959500,5.83295947265625,-0.806396484375,-0.519317626953125,0.2398834228515625
1788940687978929400,5.842929443359375,-0.8209075927734375,-0.5372467041015625,0.224273681640625
1788940687988899600,5.852899658203125,-0.8330078125,-0.5528564453125,0.2052764892578125
1788940687998868500,5.862868408203125,-0.8448028564453125,-0.5626678466796875,0.1861114501953125
1788940688008838400,5.87283837890625,-0.8518524169921875,-0.5620269775390625,0.1635894775390625
1788940688018808300,5.882808349609375,-0.87164306640625,-0.5418701171875,0.1349639892578125
1788940688028777500,5.892777587890625,-0.9084930419921875,-0.503326416015625,0.095367431640625
1788940688038747600,5.90274755859375,-0.9792938232421875,-0.453643798828125,0.0660400390625
1788940688048716500,5.912716552734375,-1.10565185546875,-0.4013671875,0.0355072021484375
1788940688058686500,5.9226865234375,-1.24310302734375,-0.3432464599609375,0.007080078125
1788940688068656400,5.932656494140625,-1.32354736328125,-0.28594970703125,-0.0077972412109375
1788940688078625500,5.94262548828125,-1.3394775390625,-0.238861083984375,0.0046844482421875
1788940688088595500,5.952595458984375,-1.28387451171875,-0.240875244140625,0.03045654296875
1788940688098565600,5.962565673828125,-1.132476806640625,-0.3042144775390625,0.0753021240234375
1788940688108534500,5.972534423828125,-0.9511260986328125,-0.38519287109375,0.107666015625
1788940688118504400,5.98250439453125,-0.7823486328125,-0.4542236328125,0.1215972900390625
1788940688128473600,5.9924736328125,-0.6732330322265625,-0.5246429443359375,0.1130828857421875
1788940688138443500,6.002443603515625,-0.6015167236328125,-0.5677947998046875,0.10455322265625
1788940688148413400,6.012413330078125,-0.59307861328125,-0.57733154296875,0.0845794677734375
1788940688158382300,6.02238232421875,-0.6804656982421875,-0.5538177490234375,0.0331878662109375
1788940688168352300,6.032352294921875,-0.826171875,-0.5014190673828125,-0.0193023681640625
1788940688178322400,6.042322509765625,-0.946563720703125,-0.45489501953125,-0.06219482421875
1788940688188291600,6.05229150390625,-1.038421630859375,-0.42449951171875,-0.1034698486328125
1788940688198261500,6.062261474609375,-1.075347900390625,-0.3968353271484375,-0.1302947998046875
1788940688208230400,6.07223046875,-1.0528411865234375,-0.3813323974609375,-0.1265869140625
1788940688218200300,6.082200439453125,-0.97412109375,-0.3873748779296875,-0.10491943359375
1788940688228170500,6.09217041015625,-0.89569091796875,-0.400726318359375,-0.0900115966796875
1788940688238139400,6.102139404296875,-0.8355255126953125,-0.4015045166015625,-0.0844573974609375
1788940688248109600,6.112109619140625,-0.79693603515625,-0.3974151611328125,-0.0783538818359375
1788940688258079500,6.12207958984375,-0.789031982421875,-0.386627197265625,-0.0744476318359375
1788940688268048600,6.132048583984375,-0.810943603515625,-0.3665771484375,-0.0765380859375
1788940688278018600,6.1420185546875,-0.84136962890625,-0.341522216796875,-0.08123779296875
1788940688287987500,6.151987548828125,-0.8640899658203125,-0.3172454833984375,-0.0891265869140625
1788940688297957400,6.161957275390625,-0.8854827880859375,-0.303070068359375,-0.1063079833984375
1788940688307927300,6.17192724609375,-0.90301513671875,-0.3074493408203125,-0.141082763671875
1788940688317896400,6.181896484375,-0.9101715087890625,-0.3163604736328125,-0.1743011474609375
1788940688327866600,6.19186669921875,-0.911865234375,-0.328582763671875,-0.20233154296875
1788940688337836500,6.20183642578125,-0.906341552734375,-0.34185791015625,-0.22003173828125
1788940688347805400,6.211805419921875,-0.8877105712890625,-0.3515777587890625,-0.2223052978515625
1788940688357775400,6.221775390625,-0.86480712890625,-0.36029052734375,-0.2180633544921875
1788940688367744500,6.23174462890625,-0.839447021484375,-0.3683013916015625,-0.2172088623046875
1788940688377714400,6.24171435546875,-0.822265625,-0.3863525390625,-0.2077484130859375
1788940688387684600,6.2516845703125,-0.807708740234375,-0.4071807861328125,-0.1856689453125
1788940688397653500,6.261653564453125,-0.779876708984375,-0.4287109375,-0.16351318359375
1788940688407623400,6.27162353515625,-0.7501068115234375,-0.4526519775390625,-0.1470794677734375
1788940688417592600,6.281592529296875,-0.7302093505859375,-0.4769744873046875,-0.137481689453125
1788940688427562500,6.2915625,-0.729156494140625,-0.4987945556640625,-0.1484222412109375
1788940688437532400,6.301532470703125,-0.7460784912109375,-0.512786865234375,-0.1666412353515625
1788940688447501300,6.311501220703125,-0.78375244140625,-0.517974853515625,-0.189605712890625
1788940688457471500,6.321471435546875,-0.8270721435546875,-0.5110626220703125,-0.222625732421875
1788940688467441700,6.331441650390625,-0.8768157958984375,-0.490509033203125,-0.2432098388671875
1788940688477410600,6.34141064453125,-0.9295196533203125,-0.45880126953125,-0.2458648681640625
1788940688487380500,6.35138037109375,-0.9757232666015625,-0.42425537109375,-0.2189178466796875
1788940688497349400,6.361349365234375,-1.0035400390625,-0.4004974365234375,-0.1707763671875
1788940688507319600,6.371319580078125,-0.9932098388671875,-0.38336181640625,-0.1146240234375
1788940688517289500,6.38128955078125,-0.937835693359375,-0.3968505859375,-0.0657196044921875
1788940688527258400,6.39125830078125,-0.86602783203125,-0.4384307861328125,-0.0335540771484375
1788940688537228500,6.401228515625,-0.7928924560546875,-0.4770660400390625,-0.01409912109375
1788940688547198500,6.411198486328125,-0.7356719970703125,-0.514923095703125,-0.0063323974609375
1788940688557167600,6.421167724609375,-0.7197723388671875,-0.54144287109375,-0.0112152099609375
1788940688567137500,6.431137451171875,-0.747100830078125,-0.54644775390625,-0.0365753173828125
1788940688577106400,6.4411064453125,-0.81768798828125,-0.534698486328125,-0.058929443359375
1788940688587076400,6.451076416015625,-0.893157958984375,-0.51220703125,-0.0674591064453125
1788940688597046300,6.46104638671875,-0.9562530517578125,-0.4971160888671875,-0.065765380859375
1788940688607015400,6.471015380859375,-0.9907684326171875,-0.4878082275390625,-0.038787841796875
1788940688616985600,6.480985595703125,-0.9895477294921875,-0.4845123291015625,0.013031005859375
1788940688626955500,6.49095556640625,-0.9364013671875,-0.473907470703125,0.0704345703125
1788940688636924400,6.50092431640625,-0.879669189453125,-0.4669647216796875,0.1146240234375
1788940688646894300,6.510894287109375,-0.8437652587890625,-0.4754791259765625,0.1331939697265625
1788940688656863500,6.520863525390625,-0.8335418701171875,-0.4803619384765625,0.1315765380859375
1788940688666833400,6.53083349609375,-0.8703460693359375,-0.4703216552734375,0.1199951171875
1788940688676803600,6.540803466796875,-0.9326324462890625,-0.4432373046875,0.1204681396484375
1788940688686772500,6.5507724609375,-0.989654541015625,-0.3964080810546875,0.1382293701171875
1788940688696742700,6.56074267578125,-1.0349884033203125,-0.359283447265625,0.1660919189453125
1788940688706711600,6.570711669921875,-1.0633544921875,-0.33154296875,0.18951416015625
1788940688716681500,6.580681396484375,-1.046417236328125,-0.3166656494140625,0.212615966796875
1788940688726651400,6.5906513671875,-0.9843292236328125,-0.3264312744140625,0.2285614013671875
1788940688736620500,6.60062060546875,-0.9091339111328125,-0.35516357421875,0.2354583740234375
1788940688746590500,6.610590576171875,-0.8409423828125,-0.37860107421875,0.22857666015625
1788940688756560600,6.620560546875,-0.7954559326171875,-0.399139404296875,0.2186737060546875
1788940688766529500,6.630529541015625,-0.78497314453125,-0.4149169921875,0.2139434814453125
1788940688776499500,6.64049951171875,-0.799346923828125,-0.418426513671875,0.2067108154296875
1788940688786468600,6.650468505859375,-0.8390960693359375,-0.4115142822265625,0.2049713134765625
1788940688796438500,6.6604384765625,-0.8782958984375,-0.4076995849609375,0.2143402099609375
1788940688806408400,6.670408447265625,-0.8983001708984375,-0.405303955078125,0.233428955078125
1788940688816377300,6.68037744140625,-0.9027557373046875,-0.4096832275390625,0.241973876953125
1788940688826347500,6.690347412109375,-0.9056243896484375,-0.42864990234375,0.243194580078125
1788940688836316700,6.700316650390625,-0.9000701904296875,-0.4485626220703125,0.2435150146484375
1788940688846286600,6.71028662109375,-0.9005889892578125,-0.450225830078125,0.233795166015625
1788940688856256500,6.720256591796875,-0.9114990234375,-0.4495391845703125,0.2231597900390625
1788940688866225400,6.730225341796875,-0.939056396484375,-0.44525146484375,0.205535888671875
1788940688876195300,6.7401953125,-0.9814605712890625,-0.4309844970703125,0.1840667724609375
1788940688886165500,6.75016552734375,-1.02783203125,-0.410888671875,0.163482666015625
1788940688896134400,6.760134521484375,-1.078704833984375,-0.3939208984375,0.15191650390625
1788940688906104600,6.7701044921875,-1.12506103515625,-0.38671875,0.148040771484375
1788940688916073500,6.780073486328125,-1.1186370849609375,-0.3906097412109375,0.1471710205078125
1788940688926043400,6.79004345703125,-1.0417022705078125,-0.4100799560546875,0.1509857177734375
1788940688936013600,6.800013671875,-0.9552459716796875,-0.453643798828125,0.1411285400390625
1788940688945982500,6.809982421875,-0.883209228515625,-0.48577880859375,0.1287994384765625
1788940688955952400,6.819952392578125,-0.82421875,-0.508575439453125,0.1067657470703125
1788940688965921300,6.82992138671875,-0.8060150146484375,-0.5208892822265625,0.0749664306640625
1788940688975891700,6.8398916015625,-0.84527587890625,-0.51812744140625,0.0428619384765625
1788940688985861600,6.849861572265625,-0.92962646484375,-0.498992919921875,0.01934814453125
1788940688995830500,6.85983056640625,-0.9919281005859375,-0.4620208740234375,0.0100860595703125
1788940689005800400,6.869800537109375,-1.022674560546875,-0.423187255859375,0.00762939453125
1788940689015769600,6.87976953125,-1.0264739990234375,-0.39483642578125,0.014892578125
1788940689025739500,6.889739501953125,-1.0114593505859375,-0.3769683837890625,0.0198516845703125
1788940689035709400,6.89970947265625,-0.9865570068359375,-0.3648529052734375,0.0107574462890625
1788940689045678300,6.90967822265625,-0.9679718017578125,-0.3580322265625,-0.0129241943359375
1788940689055648500,6.9196484375,-0.956085205078125,-0.352325439453125,-0.032623291015625
1788940689065617700,6.92961767578125,-0.95233154296875,-0.3401031494140625,-0.0445709228515625
1788940689075587600,6.939587646484375,-0.94873046875,-0.321563720703125,-0.0525360107421875
1788940689085557500,6.9495576171875,-0.9423980712890625,-0.2998199462890625,-0.050201416015625
1788940689095526400,6.9595263671875,-0.939605712890625,-0.2826995849609375,-0.0356597900390625
1788940689105496300,6.969496337890625,-0.936248779296875,-0.2680206298828125,-0.0249786376953125
1788940689115465500,6.979465576171875,-0.9147186279296875,-0.26531982421875,-0.02764892578125
1788940689125435600,6.989435546875,-0.86346435546875,-0.284698486328125,-0.044586181640625
1788940689135405600,6.999405517578125,-0.8071746826171875,-0.315338134765625,-0.0672454833984375
1788940689145374500,7.00937451171875,-0.7648468017578125,-0.34307861328125,-0.089691162109375
1788940689155344400,7.019344482421875,-0.7369384765625,-0.3617706298828125,-0.1107025146484375
1788940689165313500,7.0293134765625,-0.7375335693359375,-0.3750457763671875,-0.1366424560546875
1788940689175283500,7.039283447265625,-0.758544921875,-0.382537841796875,-0.15472412109375
1788940689185253400,7.04925341796875,-0.7886199951171875,-0.3764801025390625,-0.1607818603515625
1788940689195222300,7.05922216796875,-0.8199310302734375,-0.3604736328125,-0.1527557373046875
1788940689205192400,7.0691923828125,-0.8519134521484375,-0.351226806640625,-0.13818359375
1788940689215161600,7.07916162109375,-0.86322021484375,-0.347686767578125,-0.1258087158203125
1788940689225131500,7.089131591796875,-0.844512939453125,-0.3517913818359375,-0.10858154296875
1788940689235101400,7.099101318359375,-0.80706787109375,-0.374420166015625,-0.0907135009765625
1788940689245070300,7.1090703125,-0.77197265625,-0.4003753662109375,-0.0805511474609375
1788940689255040500,7.11904052734375,-0.7504730224609375,-0.4216156005859375,-0.0736083984375
1788940689265009400,7.129009521484375,-0.7437591552734375,-0.44744873046875,-0.075714111328125
1788940689274979600,7.1389794921875,-0.7585601806640625,-0.472015380859375,-0.080596923828125
1788940689284949500,7.148949462890625,-0.7865447998046875,-0.4765625,-0.0809783935546875
1788940689294918700,7.158918701171875,-0.8277587890625,-0.4636993408203125,-0.073883056640625
1788940689304888600,7.168888671875,-0.872802734375,-0.4489898681640625,-0.0637969970703125
1788940689314857500,7.178857421875,-0.9176483154296875,-0.43902587890625,-0.0555419921875
1788940689324827400,7.188827392578125,-0.973876953125,-0.4267425537109375,-0.044921875
1788940689334797300,7.19879736328125,-1.0312652587890625,-0.41754150390625,-0.0407867431640625
1788940689344766500,7.208766357421875,-1.0800323486328125,-0.4141082763671875,-0.0532379150390625
1788940689354736600,7.218736572265625,-1.109222412109375,-0.41473388671875,-0.069061279296875
1788940689364705500,7.22870556640625,-1.1240234375,-0.4275665283203125,-0.0845184326171875
1788940689374675500,7.238675537109375,-1.1251678466796875,-0.44219970703125,-0.10308837890625
1788940689384645400,7.248645263671875,-1.1134185791015625,-0.44915771484375,-0.10986328125
1788940689394614500,7.258614501953125,-1.08843994140625,-0.454925537109375,-0.106292724609375
1788940689404584400,7.26858447265625,-1.058258056640625,-0.4565582275390625,-0.105133056640625
1788940689414553300,7.27855322265625,-1.0162200927734375,-0.46795654296875,-0.0911407470703125
1788940689424523500,7.2885234375,-0.958984375,-0.4805908203125,-0.065887451171875
1788940689434493400,7.298493408203125,-0.8982696533203125,-0.4839630126953125,-0.0394134521484375
1788940689444462600,7.308462646484375,-0.8460845947265625,-0.4946746826171875,-0.0204315185546875
1788940689454432500,7.3184326171875,-0.808837890625,-0.5091400146484375,-0.0012664794921875
1788940689464401400,7.3284013671875,-0.7879791259765625,-0.512176513671875,0.0180511474609375
1788940689474371300,7.338371337890625,-0.779571533203125,-0.499267578125,0.0358428955078125
1788940689484341500,7.348341552734375,-0.7944488525390625,-0.47821044921875,0.0604400634765625
1788940689494310400,7.358310302734375,-0.8202362060546875,-0.45343017578125,0.0841522216796875
1788940689504280600,7.368280517578125,-0.8472137451171875,-0.4319305419921875,0.0982208251953125
1788940689514249500,7.37824951171875,-0.86248779296875,-0.4231109619140625,0.1016693115234375
1788940689524219400,7.388219482421875,-0.8460693359375,-0.43414306640625,0.103912353515625
1788940689534189600,7.398189453125,-0.803314208984375,-0.44989013671875,0.1142730712890625
1788940689544158500,7.408158447265625,-0.768798828125,-0.4565887451171875,0.118804931640625
1788940689554128400,7.41812841796875,-0.7574462890625,-0.468048095703125,0.1202392578125
1788940689564097300,7.42809716796875,-0.7549285888671875,-0.4733734130859375,0.1138763427734375
1788940689574067700,7.438067626953125,-0.7610931396484375,-0.4668121337890625,0.100006103515625
1788940689584036600,7.44803662109375,-0.7914886474609375,-0.454681396484375,0.090667724609375
1788940689594006500,7.458006591796875,-0.837493896484375,-0.4278564453125,0.0854644775390625
1788940689603976400,7.4679765625,-0.8816986083984375,-0.394744873046875,0.0939483642578125
1788940689613945600,7.477945556640625,-0.934173583984375,-0.3619842529296875,0.1127777099609375
1788940689623915500,7.48791552734375,-0.9603271484375,-0.3360595703125,0.1331939697265625
1788940689633884400,7.497884521484375,-0.944732666015625,-0.3330230712890625,0.1588592529296875
1788940689643854600,7.5078544921875,-0.9047088623046875,-0.35333251953125,0.1736602783203125
1788940689653824500,7.517824462890625,-0.8673095703125,-0.3807220458984375,0.17938232421875
1788940689663793700,7.527793701171875,-0.8456573486328125,-0.410919189453125,0.1800079345703125
1788940689673763600,7.537763671875,-0.840972900390625,-0.4364013671875,0.174713134765625
1788940689683732500,7.547732421875,-0.8480224609375,-0.4481201171875,0.164337158203125
1788940689693702700,7.55770263671875,-0.85345458984375,-0.4526214599609375,0.1494140625
1788940689703672600,7.567672607421875,-0.8652496337890625,-0.4471588134765625,0.1379241943359375
1788940689713641700,7.577641845703125,-0.892669677734375,-0.43829345703125,0.1280517578125
1788940689723611600,7.587611572265625,-0.939483642578125,-0.4298248291015625,0.1196441650390625
1788940689733580500,7.59758056640625,-0.98553466796875,-0.415924072265625,0.110687255859375
1788940689743550500,7.607550537109375,-1.0118560791015625,-0.4056854248046875,0.1056365966796875
1788940689753519600,7.61751953125,-1.0100250244140625,-0.41082763671875,0.1100311279296875
1788940689763489500,7.627489501953125,-0.9876556396484375,-0.4308929443359375,0.105316162109375
1788940689773459700,7.637459716796875,-0.951263427734375,-0.4566650390625,0.103759765625
1788940689783428600,7.6474287109375,-0.9177093505859375,-0.4747467041015625,0.1063385009765625
1788940689793398500,7.6573984375,-0.8929901123046875,-0.4807586669921875,0.10272216796875
1788940689803367700,7.66736767578125,-0.8852081298828125,-0.4847869873046875,0.0986175537109375
1788940689813337600,7.677337646484375,-0.9044036865234375,-0.4879302978515625,0.0831146240234375
1788940689823307500,7.6873076171875,-0.9398651123046875,-0.48095703125,0.0659332275390625
1788940689833276400,7.6972763671875,-0.96240234375,-0.4708709716796875,0.059539794921875
1788940689843246600,7.70724658203125,-0.9633026123046875,-0.4625244140625,0.06060791015625
1788940689853215700,7.7172158203125,-0.9577789306640625,-0.4558258056640625,0.0705718994140625
1788940689863185700,7.727185546875,-0.965240478515625,-0.4510040283203125,0.0740509033203125
1788940689873154600,7.737154541015625,-0.9694366455078125,-0.448974609375,0.0612640380859375
1788940689883124500,7.74712451171875,-0.9666900634765625,-0.4479522705078125,0.0486907958984375
1788940689893094700,7.7570947265625,-0.963897705078125,-0.450653076171875,0.0357208251953125
1788940689903063600,7.7670634765625,-0.9678955078125,-0.452239990234375,0.027099609375
1788940689913033500,7.777033447265625,-0.972076416015625,-0.4493255615234375,0.01263427734375
1788940689923002600,7.787002685546875,-0.9625701904296875,-0.441619873046875,0.002227783203125
1788940689932972500,7.79697265625,-0.953399658203125,-0.44000244140625,-0.0065155029296875
1788940689942942700,7.806942626953125,-0.94732666015625,-0.4386138916015625,-0.01654052734375
1788940689952911600,7.81691162109375,-0.9250030517578125,-0.428070068359375,-0.0297393798828125
1788940689962881500,7.826881591796875,-0.9019775390625,-0.4127960205078125,-0.04644775390625
1788940689972850700,7.8368505859375,-0.8958892822265625,-0.3943939208984375,-0.0661773681640625
1788940689982820600,7.846820556640625,-0.9102020263671875,-0.369781494140625,-0.085205078125
1788940689992789500,7.85678955078125,-0.9379425048828125,-0.3389434814453125,-0.1043548583984375
1788940690002759700,7.866759765625,-0.9715423583984375,-0.3206939697265625,-0.1157989501953125
1788940690012729600,7.8767294921875,-0.9836273193359375,-0.3108367919921875,-0.119049072265625
1788940690022698800,7.88669873046875,-0.958740234375,-0.3089447021484375,-0.120819091796875
1788940690032668700,7.896668701171875,-0.9031219482421875,-0.3173828125,-0.1124725341796875
1788940690042637600,7.906637451171875,-0.832366943359375,-0.3315277099609375,-0.1086883544921875
1788940690052607500,7.916607421875,-0.788360595703125,-0.355987548828125,-0.1194915771484375
1788940690062576600,7.92657666015625,-0.7679290771484375,-0.37994384765625,-0.1319427490234375
1788940690072546600,7.936546630859375,-0.76995849609375,-0.396331787109375,-0.152130126953125
1788940690082516700,7.946516845703125,-0.7872314453125,-0.4019317626953125,-0.16827392578125
1788940690092485600,7.956485595703125,-0.8175811767578125,-0.393341064453125,-0.170745849609375
1788940690102455600,7.96645556640625,-0.8496246337890625,-0.377716064453125,-0.163787841796875
1788940690112424700,7.9764248046875,-0.8628387451171875,-0.359771728515625,-0.1389617919921875
1788940690122394600,7.98639453125,-0.869659423828125,-0.3569183349609375,-0.096832275390625
1788940690132364500,7.996364501953125,-0.864837646484375,-0.372528076171875,-0.0573883056640625
1788940690142333400,8.00633349609375,-0.8389739990234375,-0.40411376953125,-0.034393310546875
1788940690152303600,8.0163037109375,-0.8133087158203125,-0.4396514892578125,-0.028350830078125
1788940690162272800,8.026272705078124,-0.8070068359375,-0.4605712890625,-0.03558349609375
1788940690172242700,8.03624267578125,-0.838287353515625,-0.4644927978515625,-0.062255859375
1788940690182211600,8.046211669921876,-0.91455078125,-0.4420013427734375,-0.0962371826171875
1788940690192181500,8.056181396484375,-1.0079498291015625,-0.415740966796875,-0.12078857421875
1788940690202151400,8.0661513671875,-1.088348388671875,-0.3896331787109375,-0.1291351318359375
1788940690212120600,8.07612060546875,-1.1400604248046875,-0.3685760498046875,-0.11358642578125
1788940690222090500,8.086090576171875,-1.134429931640625,-0.362213134765625,-0.0847015380859375
1788940690232059600,8.0960595703125,-1.04400634765625,-0.3827362060546875,-0.0399169921875
1788940690242029600,8.106029541015625,-0.9222869873046875,-0.43035888671875,-0.002777099609375
1788940690251998700,8.115998779296875,-0.8054656982421875,-0.483612060546875,0.024322509765625
1788940690261968600,8.12596875,-0.70684814453125,-0.537353515625,0.06036376953125
1788940690271938600,8.1359384765625,-0.6337738037109375,-0.5724639892578125,0.08538818359375
1788940690281907500,8.145907470703126,-0.599273681640625,-0.5956878662109375,0.0958709716796875
1788940690291877600,8.155877685546875,-0.640777587890625,-0.5936431884765625,0.0800933837890625
1788940690301846500,8.165846435546875,-0.761962890625,-0.550018310546875,0.0346832275390625
1788940690311816700,8.175816650390624,-0.899261474609375,-0.4897308349609375,-0.00225830078125
1788940690321785600,8.18578564453125,-1.054718017578125,-0.42156982421875,-0.0140380859375
1788940690331755500,8.195755615234376,-1.1929779052734375,-0.355560302734375,-0.0134735107421875
1788940690341725700,8.2057255859375,-1.2859649658203125,-0.31195068359375,-0.0091094970703125
1788940690351694600,8.215694580078125,-1.320098876953125,-0.2801513671875,0.0168304443359375
1788940690361664500,8.22566455078125,-1.25970458984375,-0.266387939453125,0.06640625
1788940690371633400,8.23563330078125,-1.1203765869140625,-0.2938232421875,0.1155548095703125
1788940690381603800,8.245603759765626,-0.98333740234375,-0.3444061279296875,0.1390533447265625
1788940690391572700,8.25557275390625,-0.8731536865234375,-0.394622802734375,0.1494140625
1788940690401542700,8.265542724609375,-0.8027496337890625,-0.4390106201171875,0.1513214111328125
1788940690411511600,8.275511474609376,-0.7556304931640625,-0.455291748046875,0.152557373046875
1788940690421481700,8.285481689453125,-0.732666015625,-0.45343017578125,0.1382904052734375
1788940690431451600,8.29545166015625,-0.7353057861328125,-0.4409942626953125,0.1324462890625
1788940690441420500,8.305420654296874,-0.775848388671875,-0.4228973388671875,0.1347808837890625
1788940690451390500,8.315390380859375,-0.823272705078125,-0.405731201171875,0.1396026611328125
1788940690461359600,8.325359619140626,-0.8523712158203125,-0.388641357421875,0.14837646484375
1788940690471329800,8.335329833984375,-0.851348876953125,-0.38031005859375,0.157745361328125
1788940690481298700,8.345298583984375,-0.8233642578125,-0.37774658203125,0.1553802490234375
1788940690491268600,8.3552685546875,-0.80657958984375,-0.3771820068359375,0.1540069580078125
1788940690501238500,8.365238525390625,-0.8148040771484375,-0.3763275146484375,0.1453704833984375
1788940690511207700,8.375207763671876,-0.829193115234375,-0.3723297119140625,0.144927978515625
1788940690521177600,8.385177490234375,-0.84686279296875,-0.36798095703125,0.1579132080078125
1788940690531146500,8.395146484375,-0.8729248046875,-0.3687744140625,0.1850128173828125
1788940690541116700,8.40511669921875,-0.8819122314453125,-0.3746185302734375,0.2102203369140625
1788940690551085800,8.4150859375,-0.8715667724609375,-0.3863525390625,0.2288360595703125
1788940690561055700,8.4250556640625,-0.8618621826171875,-0.410919189453125,0.23583984375
1788940690571025700,8.435025634765625,-0.8673553466796875,-0.4391021728515625,0.23443603515625
1788940690580994600,8.44499462890625,-0.873626708984375,-0.4583740234375,0.235565185546875
1788940690590964500,8.454964599609376,-0.882965087890625,-0.4725799560546875,0.2308197021484375
1788940690600933600,8.46493359375,-0.8960418701171875,-0.4781646728515625,0.21502685546875
1788940690610903600,8.474903564453125,-0.919189453125,-0.4726409912109375,0.1844635009765625
1788940690620872400,8.48487255859375,-0.974090576171875,-0.4566192626953125,0.147552490234375
1788940690630842600,8.494842529296875,-1.05828857421875,-0.429046630859375,0.1238250732421875
1788940690640811300,8.504811279296876,-1.147003173828125,-0.3932037353515625,0.1167449951171875
1788940690650781200,8.51478125,-1.2151641845703125,-0.3544464111328125,0.1089630126953125
1788940690660751400,8.52475146484375,-1.236114501953125,-0.33660888671875,0.1056671142578125
1788940690670720300,8.53472021484375,-1.19189453125,-0.337799072265625,0.1142425537109375
1788940690680690200,8.544690185546875,-1.08026123046875,-0.364013671875,0.1211395263671875
1788940690690659300,8.554659423828125,-0.979034423828125,-0.3975067138671875,0.12469482421875
1788940690700629200,8.564629150390624,-0.9076995849609375,-0.4162750244140625,0.12298583984375
1788940690710598100,8.57459814453125,-0.86505126953125,-0.432403564453125,0.1056365966796875
1788940690720568000,8.584568115234376,-0.8441009521484375,-0.4373931884765625,0.0889892578125
1788940690730538500,8.59453857421875,-0.842987060546875,-0.438262939453125,0.06756591796875
1788940690740507400,8.60450732421875,-0.853729248046875,-0.4323883056640625,0.03997802734375
1788940690750477300,8.614477294921874,-0.8730010986328125,-0.4168548583984375,0.0146636962890625
1788940690760446200,8.6244462890625,-0.893524169921875,-0.3941802978515625,-0.01446533203125
1788940690770416400,8.63441650390625,-0.91339111328125,-0.381683349609375,-0.045989990234375
1788940690780385300,8.64438525390625,-0.9228363037109375,-0.3806915283203125,-0.0703887939453125
1788940690790355200,8.654355224609375,-0.8854217529296875,-0.386505126953125,-0.0639801025390625
1788940690800324000,8.664323974609376,-0.8161773681640625,-0.40118408203125,-0.0495147705078125
1788940690810294300,8.674294189453125,-0.757965087890625,-0.4187469482421875,-0.03594970703125
1788940690820264400,8.684264404296876,-0.712066650390625,-0.4367523193359375,-0.0257720947265625
1788940690830233300,8.6942333984375,-0.687896728515625,-0.4488067626953125,-0.0233612060546875
1788940690840203300,8.704203369140625,-0.6959686279296875,-0.4451141357421875,-0.0213775634765625
1788940690850172200,8.714172119140626,-0.7402801513671875,-0.4290008544921875,-0.018798828125
1788940690860142300,8.724142333984375,-0.7939910888671875,-0.409698486328125,-0.0165252685546875
1788940690870111200,8.734111328125,-0.8150482177734375,-0.402679443359375,-0.016754150390625
1788940690880081200,8.7440810546875,-0.8127899169921875,-0.4032745361328125,-0.0184783935546875
1788940690890050000,8.754050048828125,-0.80230712890625,-0.4090576171875,-0.0278167724609375
1788940690900020500,8.7640205078125,-0.7925262451171875,-0.4150390625,-0.0561981201171875
1788940690909990400,8.773990478515625,-0.7965240478515625,-0.4129180908203125,-0.0815887451171875
1788940690919959300,8.783959228515625,-0.807830810546875,-0.4040985107421875,-0.1015167236328125
1788940690929929200,8.79392919921875,-0.8358612060546875,-0.3858642578125,-0.1180877685546875
1788940690939898400,8.8038984375,-0.85882568359375,-0.3721923828125,-0.12115478515625
1788940690949868300,8.813868408203126,-0.861602783203125,-0.35528564453125,-0.113372802734375
1788940690959837200,8.823837158203125,-0.8556060791015625,-0.3402862548828125,-0.088775634765625
1788940690969807400,8.833807373046875,-0.845001220703125,-0.3322296142578125,-0.06988525390625
1788940690979776300,8.8437763671875,-0.85205078125,-0.327972412109375,-0.0604248046875
1788940690989746400,8.853746337890625,-0.8542633056640625,-0.3381500244140625,-0.0603790283203125
1788940690999716400,8.86371630859375,-0.8437347412109375,-0.359039306640625,-0.073486328125
1788940691009685200,8.873685302734375,-0.8372039794921875,-0.37335205078125,-0.0843505859375
1788940691019655200,8.8836552734375,-0.854217529296875,-0.3751220703125,-0.098602294921875
1788940691029624300,8.893624267578126,-0.8757476806640625,-0.3698577880859375,-0.10797119140625
1788940691039594200,8.90359423828125,-0.9024505615234375,-0.3634185791015625,-0.1068572998046875
1788940691049563100,8.913563232421875,-0.94085693359375,-0.360992431640625,-0.1009521484375
1788940691059533300,8.923533203125,-0.955596923828125,-0.3708038330078125,-0.0860595703125
1788940691069502500,8.93350244140625,-0.9288177490234375,-0.4056243896484375,-0.05865478515625
1788940691079472400,8.943472412109376,-0.8663787841796875,-0.45654296875,-0.0322723388671875
1788940691089441300,8.953441162109375,-0.8201446533203125,-0.5035247802734375,0.0031890869140625
1788940691099411200,8.9634111328125,-0.78515625,-0.549530029296875,0.0368194580078125
1788940691109381000,8.973381103515624,-0.77923583984375,-0.5887298583984375,0.0423736572265625
1788940691119350300,8.983350341796875,-0.7982330322265625,-0.6173248291015625,0.00848388671875
1788940691129320400,8.993320556640626,-0.8398895263671875,-0.6397247314453125,-0.0316162109375
1788940691139289300,9.003289306640625,-0.898956298828125,-0.6503143310546875,-0.067413330078125
1788940691149259300,9.01325927734375,-0.9761810302734375,-0.6370849609375,-0.1006317138671875
1788940691159228400,9.023228515625,-1.0827789306640625,-0.6058349609375,-0.1204071044921875
1788940691169198300,9.0331982421875,-1.2122955322265625,-0.5541534423828125,-0.12860107421875
1788940691179167200,9.043167236328125,-1.321990966796875,-0.4925537109375,-0.12548828125
1788940691189137200,9.05313720703125,-1.3812713623046875,-0.4336395263671875,-0.1117401123046875
1788940691199106300,9.063106201171875,-1.370758056640625,-0.38360595703125,-0.0739288330078125
1788940691209076200,9.073076171875,-1.2896575927734375,-0.3606414794921875,-0.0197601318359375
1788940691219046400,9.08304638671875,-1.1624755859375,-0.370849609375,0.020355224609375
1788940691229015300,9.093015380859375,-1.029296875,-0.3881378173828125,0.0285797119140625
1788940691238985200,9.102985107421874,-0.925140380859375,-0.40228271484375,0.0250244140625
1788940691248954400,9.112954345703125,-0.863616943359375,-0.4119415283203125,0.0166778564453125
1788940691258924300,9.12292431640625,-0.836822509765625,-0.403717041015625,0.0235443115234375
1788940691268893200,9.13289306640625,-0.8277587890625,-0.3809814453125,0.049072265625
1788940691278863000,9.142863037109375,-0.8271026611328125,-0.3554229736328125,0.093353271484375
1788940691288832300,9.152832275390624,-0.8117523193359375,-0.343994140625,0.125946044921875
1788940691298802400,9.162802490234375,-0.7571563720703125,-0.352294921875,0.136688232421875
1788940691308771300,9.172771240234376,-0.68963623046875,-0.3811492919921875,0.1388397216796875
1788940691318741200,9.1827412109375,-0.637115478515625,-0.419677734375,0.147979736328125
1788940691328711200,9.192711181640625,-0.6020050048828125,-0.44903564453125,0.157073974609375
1788940691338680300,9.202680419921874,-0.5880126953125,-0.4634857177734375,0.164886474609375
1788940691348650200,9.212650146484375,-0.5956878662109375,-0.4678192138671875,0.1717376708984375
1788940691358619100,9.222619140625,-0.6160736083984375,-0.4580841064453125,0.1795806884765625
1788940691368589000,9.232589111328124,-0.645111083984375,-0.4421234130859375,0.1959991455078125
1788940691378558200,9.24255810546875,-0.6851654052734375,-0.424407958984375,0.2257537841796875
1788940691388528400,9.2525283203125,-0.7520599365234375,-0.4091339111328125,0.2551116943359375
1788940691398497300,9.262497314453125,-0.824188232421875,-0.401885986328125,0.273193359375
1788940691408467200,9.27246728515625,-0.875274658203125,-0.4176788330078125,0.28729248046875
1788940691418436400,9.282436279296874,-0.897308349609375,-0.450836181640625,0.2920989990234375
1788940691428406300,9.29240625,-0.885223388671875,-0.507415771484375,0.2805023193359375
1788940691438375200,9.302375244140626,-0.834716796875,-0.5672607421875,0.2646942138671875
1788940691448345000,9.312344970703125,-0.7847442626953125,-0.6002044677734375,0.2374267578125
1788940691458315300,9.322315185546875,-0.775970458984375,-0.60986328125,0.199462890625
1788940691468284400,9.332284423828124,-0.83636474609375,-0.5955657958984375,0.1551666259765625
1788940691478254300,9.34225439453125,-0.9380950927734375,-0.542510986328125,0.11993408203125
1788940691488223200,9.35222314453125,-1.0594482421875,-0.4753265380859375,0.1037139892578125
1788940691498193200,9.362193115234374,-1.1762847900390625,-0.419677734375,0.107666015625
1788940691508162300,9.372162353515625,-1.28399658203125,-0.3590850830078125,0.1246795654296875
1788940691518132200,9.38213232421875,-1.3130950927734375,-0.317138671875,0.1370086669921875
1788940691528101000,9.39210107421875,-1.2470550537109375,-0.3109130859375,0.1588287353515625
1788940691538071000,9.402071044921875,-1.104278564453125,-0.3524627685546875,0.18182373046875
1788940691548040200,9.412040283203124,-0.961151123046875,-0.4191131591796875,0.1761322021484375
1788940691558010400,9.42201025390625,-0.8419036865234375,-0.474029541015625,0.1638336181640625
1788940691567979300,9.431979248046876,-0.7707061767578125,-0.511932373046875,0.1636962890625
1788940691577949200,9.44194921875,-0.7368316650390625,-0.5193328857421875,0.1640625
1788940691587919400,9.45191943359375,-0.747833251953125,-0.500732421875,0.1483001708984375
1788940691597888300,9.46188818359375,-0.8094940185546875,-0.466949462890625,0.12109375
1788940691607858200,9.471858154296875,-0.9023895263671875,-0.43621826171875,0.0993499755859375
1788940691617827000,9.4818271484375,-0.9907684326171875,-0.4101409912109375,0.093170166015625
1788940691627797200,9.49179736328125,-1.06231689453125,-0.3935394287109375,0.081939697265625
1788940691637766400,9.501766357421875,-1.0667877197265625,-0.383880615234375,0.072021484375
1788940691647736600,9.511736572265624,-0.9824371337890625,-0.40252685546875,0.07855224609375
1788940691657705500,9.52170556640625,-0.87823486328125,-0.4566497802734375,0.081756591796875
1788940691667675400,9.53167529296875,-0.8059234619140625,-0.4998016357421875,0.0671234130859375
1788940691677644500,9.54164453125,-0.7697906494140625,-0.524810791015625,0.036224365234375
1788940691687614500,9.551614501953125,-0.78448486328125,-0.536224365234375,0.004302978515625
1788940691697583400,9.561583251953126,-0.8330841064453125,-0.5197906494140625,-0.0187530517578125
1788940691707553300,9.57155322265625,-0.8950347900390625,-0.4808807373046875,-0.0286712646484375
1788940691717522400,9.5815224609375,-0.9434661865234375,-0.4421844482421875,-0.0223541259765625
1788940691727492600,9.59149267578125,-0.9918060302734375,-0.401519775390625,-0.0336456298828125
1788940691737461500,9.60146142578125,-1.03546142578125,-0.3593292236328125,-0.0634307861328125
1788940691747431400,9.611431396484376,-1.0692138671875,-0.3262939453125,-0.0960693359375
1788940691757401300,9.6214013671875,-1.0860443115234375,-0.302978515625,-0.14007568359375
1788940691767370500,9.63137060546875,-1.077972412109375,-0.290191650390625,-0.170013427734375
1788940691777340400,9.64134033203125,-1.039154052734375,-0.296966552734375,-0.1891021728515625
1788940691787309300,9.651309326171875,-0.9575347900390625,-0.3135833740234375,-0.1865386962890625
1788940691797279200,9.661279296875,-0.8701629638671875,-0.3257293701171875,-0.16375732421875
1788940691807248600,9.67124853515625,-0.7805328369140625,-0.3376922607421875,-0.133056640625
1788940691817218600,9.681218505859375,-0.705352783203125,-0.36090087890625,-0.104949951171875
1788940691827187500,9.6911875,-0.6481781005859375,-0.389984130859375,-0.088409423828125
1788940691837157400,9.701157470703125,-0.6038665771484375,-0.415679931640625,-0.080078125
1788940691847126500,9.71112646484375,-0.59222412109375,-0.43865966796875,-0.0849456787109375
1788940691857096400,9.721096435546874,-0.6165771484375,-0.4530029296875,-0.098297119140625
1788940691867065300,9.7310654296875,-0.669891357421875,-0.4527587890625,-0.1182861328125
1788940691877035300,9.74103515625,-0.724578857421875,-0.4462890625,-0.14166259765625
1788940691887004400,9.75100439453125,-0.7741241455078125,-0.442779541015625,-0.1494140625
1788940691896974600,9.760974609375,-0.8208160400390625,-0.436431884765625,-0.16119384765625
1788940691906944500,9.770944580078124,-0.8527984619140625,-0.440032958984375,-0.169219970703125
1788940691916913400,9.780913330078125,-0.8647308349609375,-0.4514007568359375,-0.17437744140625
1788940691926882600,9.790882568359375,-0.8651885986328125,-0.4651031494140625,-0.1666717529296875
1788940691936852500,9.8008525390625,-0.86279296875,-0.4693603515625,-0.1521148681640625
1788940691946821400,9.8108212890625,-0.8759765625,-0.4610443115234375,-0.141998291015625
1788940691956791300,9.820791259765626,-0.8970184326171875,-0.4487457275390625,-0.13470458984375
1788940691966760400,9.830760498046875,-0.9354095458984375,-0.440032958984375,-0.12017822265625
1788940691976730600,9.840730712890625,-0.9981536865234375,-0.4221343994140625,-0.1176910400390625
1788940691986699500,9.850699462890624,-1.06494140625,-0.398040771484375,-0.126556396484375
1788940691996669400,9.86066943359375,-1.1151275634765625,-0.38116455078125,-0.1400146484375
1788940692006638600,9.870638671875,-1.121337890625,-0.381744384765625,-0.1388397216796875
1788940692016608500,9.8806083984375,-1.08013916015625,-0.3981475830078125,-0.128814697265625
1788940692026577400,9.890577392578125,-0.9988555908203125,-0.439178466796875,-0.1013641357421875
1788940692036547300,9.90054736328125,-0.9294586181640625,-0.47137451171875,-0.0688629150390625
1788940692046517200,9.910517333984375,-0.8696136474609375,-0.4892730712890625,-0.031219482421875
1788940692056486400,9.920486328125,-0.824005126953125,-0.50384521484375,0.0048828125
1788940692066456600,9.93045654296875,-0.8142852783203125,-0.52001953125,0.0291900634765625
1788940692076425500,9.940425537109375,-0.8306884765625,-0.5286865234375,0.0499114990234375
1788940692086395400,9.9503955078125,-0.8629608154296875,-0.5263214111328125,0.0602569580078125
1788940692096364500,9.960364501953125,-0.8907470703125,-0.5144500732421875,0.076416015625
1788940692106334500,9.97033447265625,-0.9031829833984375,-0.5012969970703125,0.098663330078125
1788940692116303400,9.980303466796874,-0.9025421142578125,-0.4951934814453125,0.1204071044921875
1788940692126273300,9.990273193359375,-0.900360107421875,-0.4911041259765625,0.142364501953125
1788940692136242400,10.000242431640626,-0.903564453125,-0.488067626953125,0.15472412109375
1788940692146212600,10.010212646484375,-0.9066314697265625,-0.4832611083984375,0.158447265625
1788940692156181500,10.020181396484375,-0.9002227783203125,-0.4733123779296875,0.1530609130859375
1788940692166151400,10.0301513671875,-0.888885498046875,-0.4514923095703125,0.1412811279296875
1788940692176120600,10.04012060546875,-0.9056243896484375,-0.4202880859375,0.1295928955078125
1788940692186090500,10.050090576171876,-0.9354400634765625,-0.3801727294921875,0.1220703125
1788940692196059400,10.060059326171874,-0.9748992919921875,-0.3397979736328125,0.132080078125
1788940692206029300,10.070029296875,-1.00604248046875,-0.30389404296875,0.15093994140625
1788940692215999500,10.07999951171875,-0.998443603515625,-0.273895263671875,0.1800689697265625
1788940692225968400,10.089968505859375,-0.9659271240234375,-0.2711029052734375,0.2007293701171875
1788940692235938600,10.0999384765625,-0.911651611328125,-0.2860565185546875,0.212158203125
1788940692245907500,10.109907470703124,-0.8647308349609375,-0.3116455078125,0.2144317626953125
1788940692255877400,10.11987744140625,-0.814453125,-0.3322601318359375,0.2074737548828125
1788940692265846500,10.129846435546876,-0.776947021484375,-0.349761962890625,0.2057647705078125
1788940692275816400,10.13981640625,-0.76336669921875,-0.371063232421875,0.2130126953125
1788940692285785300,10.149785400390625,-0.7578125,-0.394683837890625,0.21832275390625
1788940692295755300,10.15975537109375,-0.7538299560546875,-0.4141845703125,0.219757080078125
1788940692305724400,10.169724365234375,-0.7518768310546875,-0.4293212890625,0.2136383056640625
1788940692315694600,10.179694580078126,-0.756927490234375,-0.43804931640625,0.199188232421875
1788940692325663500,10.18966357421875,-0.7850189208984375,-0.447021484375,0.1720428466796875
1788940692335633400,10.19963330078125,-0.8313446044921875,-0.4495391845703125,0.1507110595703125
1788940692345603600,10.209603515625,-0.888336181640625,-0.449249267578125,0.1356658935546875
1788940692355572500,10.219572509765625,-0.9337310791015625,-0.444122314453125,0.1247406005859375
1788940692365542400,10.22954248046875,-0.9568328857421875,-0.4278717041015625,0.1110076904296875
1788940692375511300,10.23951123046875,-0.9720001220703125,-0.4138031005859375,0.100433349609375
1788940692385481500,10.2494814453125,-0.9948272705078125,-0.401885986328125,0.0810699462890625
1788940692395450600,10.25945068359375,-1.026397705078125,-0.3896484375,0.0555267333984375
1788940692405420500,10.269420654296875,-1.0706024169921875,-0.3715667724609375,0.03802490234375
1788940692415389400,10.279389404296875,-1.12139892578125,-0.3544158935546875,0.0130767822265625
1788940692425359400,10.289359375,-1.165679931640625,-0.3402252197265625,-0.011444091796875
1788940692435328500,10.29932861328125,-1.1965789794921875,-0.3373260498046875,-0.0424652099609375
1788940692445298400,10.30929833984375,-1.2076416015625,-0.3461456298828125,-0.080047607421875
1788940692455267300,10.319267333984374,-1.1735992431640625,-0.3641815185546875,-0.10369873046875
1788940692465237500,10.329237548828125,-1.0874786376953125,-0.3923187255859375,-0.1172027587890625
1788940692475206400,10.339206298828126,-1.0016021728515625,-0.4296417236328125,-0.1230010986328125
1788940692485176600,10.349176513671875,-0.9361114501953125,-0.4621429443359375,-0.1186981201171875
1788940692495145500,10.3591455078125,-0.8682861328125,-0.492095947265625,-0.1142425537109375
1788940692505115400,10.369115478515624,-0.8086090087890625,-0.5155181884765625,-0.10638427734375
1788940692515084500,10.37908447265625,-0.760040283203125,-0.5312957763671875,-0.1020355224609375
1788940692525054500,10.389054443359376,-0.7303009033203125,-0.5514068603515625,-0.102081298828125
1788940692535024400,10.3990244140625,-0.7218170166015625,-0.56439208984375,-0.096954345703125
1788940692544993300,10.4089931640625,-0.736602783203125,-0.56634521484375,-0.0983734130859375
1788940692554963700,10.418963623046874,-0.7677459716796875,-0.5596771240234375,-0.0962371826171875
1788940692564932600,10.4289326171875,-0.811920166015625,-0.5355987548828125,-0.0974273681640625
1788940692574902500,10.438902587890626,-0.85052490234375,-0.501495361328125,-0.10675048828125
1788940692584871400,10.448871337890624,-0.8773193359375,-0.4654541015625,-0.1217193603515625
1788940692594841600,10.458841552734375,-0.913970947265625,-0.4326324462890625,-0.1436614990234375
1788940692604810500,10.468810546875,-0.96588134765625,-0.397003173828125,-0.157928466796875
1788940692614780400,10.478780517578125,-1.0160980224609375,-0.3609466552734375,-0.1558837890625
1788940692624749300,10.488749267578125,-1.048828125,-0.327972412109375,-0.1403045654296875
1788940692634719500,10.498719482421874,-1.040374755859375,-0.2973175048828125,-0.1076812744140625
1788940692644688600,10.508688720703125,-0.971099853515625,-0.2847900390625,-0.064300537109375
1788940692654658600,10.518658447265626,-0.8988800048828125,-0.301666259765625,-0.043304443359375
1788940692664627500,10.52862744140625,-0.8296966552734375,-0.3235321044921875,-0.039398193359375
1788940692674597400,10.538597412109375,-0.778839111328125,-0.3418731689453125,-0.04412841796875
1788940692684566500,10.54856640625,-0.766937255859375,-0.365386962890625,-0.048095703125
1788940692694536400,10.558536376953125,-0.786285400390625,-0.371124267578125,-0.0767822265625
1788940692704505300,10.56850537109375,-0.817352294921875,-0.3739776611328125,-0.0998992919921875
1788940692714475500,10.5784755859375,-0.8480682373046875,-0.368408203125,-0.1118011474609375
1788940692724444700,10.588444580078125,-0.8654022216796875,-0.35833740234375,-0.1248779296875
1788940692734414600,10.59841455078125,-0.872955322265625,-0.358154296875,-0.1348724365234375
1788940692744383500,10.608383544921875,-0.87982177734375,-0.3609619140625,-0.141082763671875
1788940692754353400,10.618353515625,-0.88568115234375,-0.36322021484375,-0.1433563232421875
1788940692764323600,10.628323486328124,-0.897613525390625,-0.3674468994140625,-0.138336181640625
1788940692774292500,10.63829248046875,-0.9107208251953125,-0.3710479736328125,-0.1298828125
1788940692784262400,10.648262451171876,-0.9147186279296875,-0.3711395263671875,-0.1254730224609375
1788940692794231300,10.658231201171875,-0.92230224609375,-0.3703155517578125,-0.1190643310546875
1788940692804201700,10.66820166015625,-0.935333251953125,-0.364410400390625,-0.095367431640625
1788940692814170600,10.678170654296874,-0.950408935546875,-0.35699462890625,-0.07696533203125
1788940692824140500,10.688140625,-0.9604644775390625,-0.360076904296875,-0.06427001953125
1788940692834109400,10.698109375,-0.9537811279296875,-0.3792724609375,-0.0574951171875
1788940692844079600,10.70807958984375,-0.9234771728515625,-0.4040374755859375,-0.0543060302734375
1788940692854048500,10.718048583984375,-0.8851776123046875,-0.4311065673828125,-0.0546722412109375
1788940692864018400,10.728018310546876,-0.8716583251953125,-0.45654296875,-0.059234619140625
1788940692873987300,10.7379873046875,-0.8699798583984375,-0.4734344482421875,-0.0659027099609375
1788940692883957500,10.74795751953125,-0.8650665283203125,-0.4826507568359375,-0.0613555908203125
1788940692893926700,10.7579267578125,-0.865509033203125,-0.4857330322265625,-0.051422119140625
1788940692903896600,10.767896484375,-0.8783111572265625,-0.4849395751953125,-0.03228759765625
1788940692913865500,10.777865478515626,-0.892608642578125,-0.48028564453125,-0.0063323974609375
1788940692923835400,10.78783544921875,-0.8932037353515625,-0.47418212890625,0.0181884765625
1788940692933804500,10.797804443359375,-0.889984130859375,-0.4738006591796875,0.043426513671875
1788940692943774500,10.8077744140625,-0.879730224609375,-0.4819793701171875,0.070465087890625
1788940692953743400,10.817743408203125,-0.8665313720703125,-0.4931793212890625,0.0856781005859375
1788940692963713300,10.82771337890625,-0.852142333984375,-0.498443603515625,0.0939483642578125
1788940692973682400,10.837682373046874,-0.8548736572265625,-0.50018310546875,0.0958251953125
1788940692983652600,10.847652587890625,-0.8739776611328125,-0.4920501708984375,0.0893707275390625
1788940692993621500,10.85762158203125,-0.91796875,-0.474945068359375,0.07574462890625
1788940693003591400,10.86759130859375,-0.963043212890625,-0.4502410888671875,0.073333740234375
1788940693013560600,10.877560546875,-1.001983642578125,-0.4244842529296875,0.0825653076171875
1788940693023530500,10.887530517578124,-1.0299224853515625,-0.3962554931640625,0.10223388671875
1788940693033499400,10.89749951171875,-1.0383758544921875,-0.3731689453125,0.1218719482421875
1788940693043469300,10.90746923828125,-1.009246826171875,-0.3668212890625,0.1337127685546875
1788940693053438500,10.9174384765625,-0.951446533203125,-0.380584716796875,0.1412506103515625
1788940693063408600,10.92740869140625,-0.8971710205078125,-0.4087066650390625,0.141632080078125
1788940693073377500,10.93737744140625,-0.8474578857421875,-0.4304351806640625,0.1407012939453125
1788940693083347500,10.947347412109375,-0.8083343505859375,-0.4410400390625,0.132476806640625
1788940693093316600,10.957316650390625,-0.78875732421875,-0.4415435791015625,0.1336822509765625
1788940693103286500,10.96728662109375,-0.7888641357421875,-0.4408721923828125,0.143310546875
1788940693113255400,10.97725537109375,-0.792266845703125,-0.4384307861328125,0.1534576416015625
1788940693123225300,10.987225341796876,-0.7926788330078125,-0.4270477294921875,0.154693603515625
1788940693133194500,10.997194580078125,-0.7852783203125,-0.414154052734375,0.1595306396484375
1788940693143164700,11.00716455078125,-0.7890472412109375,-0.39874267578125,0.15484619140625
1788940693153133600,11.017133544921874,-0.8100433349609375,-0.386566162109375,0.138031005859375
1788940693163103500,11.027103515625,-0.8368682861328125,-0.3874969482421875,0.147186279296875
1788940693173072600,11.03707275390625,-0.8720703125,-0.3793182373046875,0.135772705078125
1788940693183042600,11.04704248046875,-0.8954925537109375,-0.3805694580078125,0.1477813720703125
1788940693193011500,11.057011474609375,-0.898895263671875,-0.380096435546875,0.1739349365234375
1788940693202981400,11.0669814453125,-0.88848876953125,-0.375823974609375,0.192047119140625
1788940693212950500,11.076950439453125,-0.8750762939453125,-0.379913330078125,0.201629638671875
1788940693222920400,11.08692041015625,-0.869293212890625,-0.3870849609375,0.1935577392578125
1788940693232889300,11.096889404296874,-0.8894805908203125,-0.3959197998046875,0.1743621826171875
1788940693242859500,11.106859619140625,-0.9240570068359375,-0.394744873046875,0.14166259765625
1788940693252829400,11.116829345703126,-0.96051025390625,-0.3900909423828125,0.1076202392578125
1788940693262798600,11.126798583984375,-0.992095947265625,-0.387176513671875,0.085205078125
1788940693272767500,11.136767578125,-1.0242462158203125,-0.3741912841796875,0.0635986328125
1788940693282737400,11.1467373046875,-1.054840087890625,-0.3581390380859375,0.0533599853515625
1788940693292706600,11.15670654296875,-1.0747833251953125,-0.3526458740234375,0.057525634765625
1788940693302676500,11.166676513671876,-1.0556793212890625,-0.3558502197265625,0.0627899169921875
1788940693312645400,11.176645263671874,-1.001190185546875,-0.374237060546875,0.06903076171875
1788940693322615600,11.186615478515625,-0.9406890869140625,-0.4073638916015625,0.068359375
1788940693332584700,11.196584716796876,-0.903839111328125,-0.43927001953125,0.052490234375
1788940693342554600,11.2065546875,-0.878997802734375,-0.4561614990234375,0.04296875
1788940693352523500,11.2165234375,-0.8728485107421875,-0.4628753662109375,0.0411529541015625
1788940693362493400,11.226493408203124,-0.8928070068359375,-0.4622344970703125,0.0438079833984375
1788940693372462600,11.236462646484375,-0.930419921875,-0.4533233642578125,0.0374908447265625
1788940693382432500,11.2464326171875,-0.9707794189453125,-0.445709228515625,0.0208587646484375
1788940693392401400,11.2564013671875,-0.995880126953125,-0.444976806640625,-0.0014495849609375
1788940693402371300,11.266371337890625,-0.9997711181640625,-0.4490814208984375,-0.023193359375
1788940693412340500,11.276340576171876,-1.0061798095703125,-0.4606170654296875,-0.044586181640625
1788940693422310700,11.286310546875,-1.0042877197265625,-0.4648590087890625,-0.0587310791015625
1788940693432279600,11.296279541015625,-0.9900665283203125,-0.457183837890625,-0.068359375
1788940693442249500,11.30624951171875,-0.976776123046875,-0.4471282958984375,-0.0720672607421875
1788940693452218600,11.316218505859375,-0.964324951171875,-0.4325714111328125,-0.07330322265625
1788940693462188500,11.3261884765625,-0.957733154296875,-0.4136505126953125,-0.081695556640625
1788940693472157400,11.336157470703125,-0.9525299072265625,-0.3933868408203125,-0.0923614501953125
1788940693482127400,11.34612744140625,-0.960296630859375,-0.3851776123046875,-0.1054840087890625
1788940693492096500,11.356096435546876,-0.9589080810546875,-0.3739013671875,-0.1145782470703125
1788940693502066700,11.366066650390625,-0.960113525390625,-0.358184814453125,-0.116241455078125
1788940693512035600,11.37603564453125,-0.9554290771484375,-0.3476409912109375,-0.1247711181640625
1788940693522005500,11.386005615234374,-0.9403076171875,-0.34710693359375,-0.1343231201171875
1788940693531974700,11.395974609375,-0.92547607421875,-0.3564910888671875,-0.14678955078125
1788940693541944600,11.405944580078126,-0.8999786376953125,-0.3660430908203125,-0.1502685546875
1788940693551913500,11.41591357421875,-0.8774261474609375,-0.371185302734375,-0.1448516845703125
1788940693561883400,11.42588330078125,-0.8565826416015625,-0.372833251953125,-0.132354736328125
1788940693571852500,11.4358525390625,-0.82275390625,-0.3766937255859375,-0.126495361328125
1788940693581822700,11.44582275390625,-0.7980499267578125,-0.389739990234375,-0.1203765869140625
1788940693591791600,11.45579150390625,-0.78131103515625,-0.40228271484375,-0.112030029296875
1788940693601761500,11.465761474609375,-0.7921142578125,-0.407562255859375,-0.1224365234375
1788940693611730700,11.475730712890625,-0.8219757080078125,-0.4031524658203125,-0.140899658203125
1788940693621700600,11.48570068359375,-0.8657073974609375,-0.3928070068359375,-0.148651123046875
1788940693631669500,11.49566943359375,-0.9151611328125,-0.3742218017578125,-0.1580352783203125
1788940693641640000,11.505639892578126,-0.950469970703125,-0.35955810546875,-0.16357421875
1788940693651608800,11.51560888671875,-0.9758758544921875,-0.3443145751953125,-0.166900634765625
1788940693661579000,11.5255791015625,-0.9998321533203125,-0.3299102783203125,-0.1689453125
1788940693671548000,11.5355478515625,-1.01922607421875,-0.32470703125,-0.1690673828125
1788940693681518000,11.54551806640625,-1.0185089111328125,-0.33367919921875,-0.173004150390625
1788940693691487000,11.555487060546875,-0.9834442138671875,-0.355926513671875,-0.1675567626953125
1788940693701457000,11.565456787109374,-0.92755126953125,-0.3710479736328125,-0.1515655517578125
1788940693711426000,11.575426025390625,-0.8775787353515625,-0.3810272216796875,-0.1222686767578125
1788940693721396000,11.58539599609375,-0.850799560546875,-0.3859100341796875,-0.0972137451171875
1788940693731364900,11.59536474609375,-0.8350830078125,-0.39300537109375,-0.0713043212890625
1788940693741335000,11.6053349609375,-0.828704833984375,-0.4050750732421875,-0.0518951416015625
1788940693751304000,11.615303955078126,-0.8278350830078125,-0.414794921875,-0.04248046875
1788940693761273900,11.62527392578125,-0.8328399658203125,-0.4259490966796875,-0.0329437255859375
1788940693771242800,11.63524267578125,-0.83740234375,-0.438720703125,-0.026519775390625
1788940693781213000,11.645212890625,-0.843292236328125,-0.4430999755859375,-0.019500732421875
1788940693791182000,11.65518212890625,-0.8782196044921875,-0.44110107421875,-0.0125579833984375
1788940693801152000,11.665152099609376,-0.920623779296875,-0.4351043701171875,-0.013336181640625
1788940693811121000,11.675120849609375,-0.9470367431640625,-0.42889404296875,-0.0204620361328125
1788940693821090800,11.6850908203125,-0.9654693603515625,-0.42864990234375,-0.02520751953125
1788940693831060000,11.69506005859375,-0.9771728515625,-0.425872802734375,-0.0285491943359375
1788940693841028900,11.70502880859375,-0.98284912109375,-0.4123382568359375,-0.0328826904296875
1788940693850998800,11.714998779296875,-0.9901275634765625,-0.3995208740234375,-0.0249481201171875
1788940693860968000,11.724968017578124,-0.9995880126953125,-0.3867645263671875,-0.0050048828125
1788940693870938000,11.734938232421875,-0.9965972900390625,-0.3778228759765625,0.0171356201171875
1788940693880907000,11.744906982421876,-0.961700439453125,-0.37554931640625,0.046661376953125
1788940693890877000,11.754876953125,-0.904632568359375,-0.3852996826171875,0.0716705322265625
1788940693900846000,11.76484619140625,-0.85223388671875,-0.40625,0.07928466796875
1788940693910816000,11.77481591796875,-0.80841064453125,-0.4227294921875,0.0837860107421875
1788940693920785000,11.784784912109375,-0.7768707275390625,-0.4351348876953125,0.0887451171875
1788940693930754800,11.7947548828125,-0.76959228515625,-0.4356842041015625,0.0925750732421875
1788940693940724000,11.804723876953124,-0.779693603515625,-0.432464599609375,0.098602294921875
1788940693950694100,11.814694091796875,-0.7909698486328125,-0.4293670654296875,0.1038665771484375
1788940693960663000,11.8246630859375,-0.799102783203125,-0.4296722412109375,0.1172332763671875
1788940693970633000,11.834633056640625,-0.8011474609375,-0.434783935546875,0.1272125244140625
1788940693980602000,11.84460205078125,-0.7974853515625,-0.445159912109375,0.135162353515625
1788940693990572000,11.854572021484374,-0.8004150390625,-0.4602203369140625,0.1480560302734375
1788940694000541000,11.864541015625,-0.8018035888671875,-0.475433349609375,0.1629180908203125
1788940694010510800,11.8745107421875,-0.7981719970703125,-0.4915313720703125,0.1694488525390625
1788940694020480000,11.88447998046875,-0.799346923828125,-0.502593994140625,0.1672821044921875
1788940694030450000,11.894449951171875,-0.8148040771484375,-0.5074615478515625,0.1619415283203125
1788940694040418800,11.904418701171876,-0.856475830078125,-0.50970458984375,0.1467132568359375
1788940694050389000,11.914388916015625,-0.9226531982421875,-0.48699951171875,0.1155853271484375
1788940694060358100,11.924358154296876,-1.007415771484375,-0.45477294921875,0.092803955078125
1788940694070327000,11.9343271484375,-1.071044921875,-0.429290771484375,0.0940093994140625
1788940694080297000,11.944296875,-1.1219940185546875,-0.401275634765625,0.1065826416015625
1788940694090266000,11.95426611328125,-1.1396026611328125,-0.3784332275390625,0.131866455078125
1788940694100236000,11.964236083984375,-1.113922119140625,-0.3722686767578125,0.146484375
1788940694110205000,11.974204833984375,-1.0385284423828125,-0.367462158203125,0.167816162109375
1788940694120174800,11.9841748046875,-0.95257568359375,-0.3756256103515625,0.1726226806640625
1788940694130144000,11.99414404296875,-0.882415771484375,-0.377044677734375,0.1652069091796875
1788940694140114200,12.0041142578125,-0.853912353515625,-0.380950927734375,0.1485748291015625
1788940694150083000,12.0140830078125,-0.85736083984375,-0.3776702880859375,0.14788818359375
1788940694160053000,12.024052978515625,-0.8946380615234375,-0.3535308837890625,0.1195220947265625
1788940694170022000,12.03402197265625,-0.937652587890625,-0.3466339111328125,0.1045684814453125
1788940694179992000,12.043991943359375,-0.9461517333984375,-0.3520050048828125,0.0823516845703125
1788940694189961000,12.0539609375,-0.9176788330078125,-0.37548828125,0.0682373046875
1788940694199931000,12.063930908203124,-0.880950927734375,-0.412017822265625,0.0579681396484375
1788940694209899800,12.073899658203125,-0.8514251708984375,-0.4398193359375,0.04010009765625
1788940694219870200,12.0838701171875,-0.8240966796875,-0.4635009765625,0.0327606201171875
1788940694229839000,12.093839111328125,-0.806243896484375,-0.48858642578125,0.0208892822265625
1788940694239809000,12.10380908203125,-0.809478759765625,-0.5062408447265625,-0.00262451171875
1788940694249778000,12.11377783203125,-0.83587646484375,-0.51275634765625,-0.0328521728515625
1788940694259747000,12.1237470703125,-0.87396240234375,-0.506317138671875,-0.0593719482421875
1788940694269717000,12.133717041015625,-0.9188690185546875,-0.49566650390625,-0.073883056640625
1788940694279686000,12.143685791015624,-0.94818115234375,-0.486328125,-0.08013916015625
1788940694289655800,12.15365576171875,-0.962005615234375,-0.480560302734375,-0.072265625
1788940694299625000,12.163625,-0.961029052734375,-0.482208251953125,-0.061370849609375
1788940694309595000,12.173594970703125,-0.93243408203125,-0.4886322021484375,-0.0472564697265625
1788940694319563800,12.183563720703125,-0.8878631591796875,-0.49932861328125,-0.04248046875
1788940694329534000,12.193533935546874,-0.85943603515625,-0.505584716796875,-0.0554962158203125
1788940694339503000,12.203503173828125,-0.8623809814453125,-0.5003662109375,-0.088043212890625
1788940694349473000,12.21347314453125,-0.886322021484375,-0.4766693115234375,-0.126861572265625
1788940694359442000,12.22344189453125,-0.922027587890625,-0.451416015625,-0.1566314697265625
1788940694369411800,12.233411865234375,-0.9593658447265625,-0.4234161376953125,-0.1731109619140625
1788940694379381000,12.243381103515626,-0.9845428466796875,-0.39794921875,-0.179351806640625
1788940694389351000,12.253350830078125,-0.9888153076171875,-0.3816070556640625,-0.1668243408203125
1788940694399319800,12.26331982421875,-0.960235595703125,-0.3694915771484375,-0.1419525146484375
1788940694409289000,12.2732890625,-0.9090118408203125,-0.368072509765625,-0.123870849609375
1788940694419259100,12.283259033203125,-0.86163330078125,-0.3756561279296875,-0.1147003173828125
1788940694429228000,12.29322802734375,-0.8281097412109375,-0.3822784423828125,-0.110260009765625
1788940694439198000,12.303197998046874,-0.8181915283203125,-0.389312744140625,-0.1118927001953125
1788940694449167000,12.3131669921875,-0.83135986328125,-0.3839111328125,-0.1180572509765625
1788940694459137000,12.323136962890626,-0.8642578125,-0.37005615234375,-0.13055419921875
1788940694469106000,12.33310595703125,-0.9105987548828125,-0.354949951171875,-0.158050537109375
1788940694479075800,12.343075927734375,-0.9444122314453125,-0.3392486572265625,-0.19354248046875
1788940694489045000,12.353044921875,-0.9751739501953125,-0.3277435302734375,-0.2274017333984375
1788940694499015200,12.36301513671875,-1.01556396484375,-0.316558837890625,-0.242340087890625
1788940694508984000,12.372984130859376,-1.0439605712890625,-0.3084564208984375,-0.23443603515625
1788940694518954000,12.3829541015625,-1.033966064453125,-0.2967529296875,-0.2133026123046875
1788940694528923100,12.392923095703125,-0.96270751953125,-0.3117828369140625,-0.1996002197265625
1788940694538893000,12.40289306640625,-0.867767333984375,-0.356292724609375,-0.1719207763671875
1788940694548862000,12.412862060546875,-0.799072265625,-0.3882293701171875,-0.1648101806640625
1788940694558831000,12.4228310546875,-0.7448577880859375,-0.4114990234375,-0.1586761474609375
1788940694568801000,12.432801025390624,-0.7219390869140625,-0.4349517822265625,-0.1422271728515625
1788940694578770000,12.44277001953125,-0.7155914306640625,-0.4539794921875,-0.124908447265625
1788940694588739800,12.45273974609375,-0.719024658203125,-0.4692840576171875,-0.10833740234375
1788940694598709000,12.462708984375,-0.73382568359375,-0.482666015625,-0.0935516357421875
1788940694608679200,12.47267919921875,-0.7356414794921875,-0.4901885986328125,-0.0782318115234375
1788940694618648000,12.48264794921875,-0.7389678955078125,-0.5044097900390625,-0.0657501220703125
1788940694628618000,12.492617919921875,-0.73651123046875,-0.517669677734375,-0.0575408935546875
1788940694638587000,12.5025869140625,-0.7209930419921875,-0.524871826171875,-0.057281494140625
1788940694648556300,12.512556396484374,-0.7090606689453125,-0.53558349609375,-0.0581512451171875
1788940694658525200,12.522525146484375,-0.7366790771484375,-0.5392303466796875,-0.06829833984375
1788940694668495000,12.5324951171875,-0.827301025390625,-0.517303466796875,-0.0904541015625
1788940694678464300,12.54246435546875,-0.9269256591796875,-0.480316162109375,-0.0967254638671875
1788940694688433200,12.55243310546875,-1.013763427734375,-0.436492919921875,-0.0783843994140625
1788940694698403000,12.562403076171876,-1.10479736328125,-0.3851318359375,-0.05108642578125
1788940694708372200,12.572372314453125,-1.17547607421875,-0.3364105224609375,-0.010223388671875
1788940694718342400,12.58234228515625,-1.19635009765625,-0.308990478515625,0.0352325439453125
1788940694728311300,12.592311279296876,-1.146636962890625,-0.3068389892578125,0.0852203369140625
1788940694738281200,12.60228125,-1.035858154296875,-0.3360443115234375,0.1266632080078125
1788940694748250400,12.61225048828125,-0.94708251953125,-0.380462646484375,0.13897705078125
1788940694758220300,12.62222021484375,-0.8832550048828125,-0.4189910888671875,0.139007568359375
1788940694768189200,12.632189208984375,-0.8501434326171875,-0.443939208984375,0.12677001953125
1788940694778159000,12.6421591796875,-0.84307861328125,-0.4478607177734375,0.1116180419921875
1788940694788128300,12.652128173828125,-0.8601531982421875,-0.44036865234375,0.1045379638671875
1788940694798097200,12.66209716796875,-0.8895721435546875,-0.42645263671875,0.1101531982421875
1788940694808067300,12.6720673828125,-0.9048309326171875,-0.42059326171875,0.124664306640625
1788940694818036200,12.6820361328125,-0.8857879638671875,-0.424407958984375,0.1471710205078125
1788940694828006100,12.692006103515626,-0.845855712890625,-0.43817138671875,0.168609619140625
1788940694837975300,12.701975341796874,-0.83343505859375,-0.4557647705078125,0.179656982421875
1788940694847945200,12.7119453125,-0.8253936767578125,-0.4704132080078125,0.1827545166015625
1788940694857914000,12.7219140625,-0.8180389404296875,-0.47869873046875,0.1901092529296875
1788940694867884000,12.731884033203125,-0.821533203125,-0.47674560546875,0.1901397705078125
1788940694877853200,12.741853271484375,-0.8440399169921875,-0.4545135498046875,0.1762847900390625
1788940694887823400,12.7518232421875,-0.9127960205078125,-0.4127655029296875,0.150390625
1788940694897792300,12.761792236328125,-0.9919586181640625,-0.367462158203125,0.1283721923828125
1788940694907761400,12.771761474609375,-1.08062744140625,-0.3328704833984375,0.1066741943359375
1788940694917731300,12.7817314453125,-1.1683807373046875,-0.3079681396484375,0.1020050048828125
1788940694927700200,12.7917001953125,-1.207855224609375,-0.2969970703125,0.1154327392578125
1788940694937670100,12.801670166015626,-1.1551666259765625,-0.2981414794921875,0.1513519287109375
1788940694947639300,12.811639404296875,-1.02813720703125,-0.328369140625,0.1910400390625
