time,seconds_elapsed,z,y,x
1788940682192809200,0.056809326171875,0.39214086532592773,-0.3493257761001587,-0.11100295186042786
1788940682202779100,0.066779052734375,0.37005022168159485,-0.2669536769390106,-0.19159314036369324
1788940682212748000,0.076748046875,0.32783833146095276,-0.1534031331539154,-0.2636987566947937
1788940682222718000,0.086718017578125,0.27368348836898804,-0.051771849393844604,-0.3177947402000427
1788940682232688000,0.096688232421875,0.22314706444740295,0.017066335305571556,-0.3491649031639099
1788940682242657300,0.1066572265625,0.18160147964954376,0.03290761634707451,-0.3610974848270416
1788940682252627200,0.116627197265625,0.1563350111246109,-0.00965608935803175,-0.37931403517723083
1788940682262596000,0.12659619140625,0.14622564613819122,-0.07564070075750351,-0.40241163969039917
1788940682272566000,0.13656591796875,0.1495351642370224,-0.13934750854969025,-0.4212297797203064
1788940682282535200,0.14653515625,0.15885889530181885,-0.17905284464359283,-0.42817506194114685
1788940682292505000,0.156505126953125,0.1715182214975357,-0.18519754707813263,-0.4239523410797119
1788940682302474000,0.166473876953125,0.18147924542427063,-0.13424675166606903,-0.4098045527935028
1788940682312444200,0.176444091796875,0.18896432220935822,-0.029576800763607025,-0.3629952371120453
1788940682322413300,0.186413330078125,0.19585445523262024,0.08910324424505234,-0.27536606788635254
1788940682332383200,0.19638330078125,0.20358534157276154,0.18890626728534698,-0.15255172550678253
1788940682342352100,0.20635205078125,0.1914365440607071,0.23455524444580078,-0.005132177844643593
1788940682352322000,0.216322021484375,0.15598507225513458,0.1888687163591385,0.14499394595623016
1788940682362292000,0.2262919921875,0.09678620100021362,0.06519711017608643,0.2660452723503113
1788940682372261000,0.23626123046875,0.030469758436083794,-0.03707998991012573,0.35279613733291626
1788940682382231000,0.24623095703125,-0.027938956394791603,-0.13124670088291168,0.38335245847702026
1788940682392200000,0.256199951171875,-0.08491276204586029,-0.18303214013576508,0.37341806292533875
1788940682402170000,0.266170166015625,-0.16053268313407898,-0.15421593189239502,0.36384719610214233
1788940682412139300,0.27613916015625,-0.23131364583969116,-0.09688100963830948,0.34364044666290283
1788940682422109200,0.286109130859375,-0.297299325466156,-0.0063210129737854,0.28229960799217224
1788940682432078000,0.296078125,-0.354606568813324,0.07445771992206573,0.18966206908226013
1788940682442048000,0.306048095703125,-0.40768176317214966,0.13845933973789215,0.09392809122800827
1788940682452017200,0.31601708984375,-0.44283148646354675,0.16377028822898865,0.022822491824626923
1788940682461987000,0.325987060546875,-0.4914376437664032,0.1120261400938034,-0.01715874671936035
1788940682471957200,0.335957275390625,-0.5549388527870178,0.01859791949391365,-0.029076924547553062
1788940682481926100,0.345926025390625,-0.6254953145980835,-0.08296039700508118,-0.042824696749448776
1788940682491896000,0.35589599609375,-0.7040079832077026,-0.19614261388778687,-0.09061538428068161
1788940682501865200,0.365865234375,-0.7793634533882141,-0.2834482192993164,-0.16952884197235107
1788940682511835100,0.375835205078125,-0.8177393078804016,-0.2854471802711487,-0.251537948846817
1788940682521804000,0.385803955078125,-0.8279546499252319,-0.21607397496700287,-0.29175862669944763
1788940682531774000,0.39577392578125,-0.8237743377685547,-0.08712398260831833,-0.28050756454467773
1788940682541743000,0.4057431640625,-0.8101745843887329,0.05386616289615631,-0.22466640174388885
1788940682551713000,0.415713134765625,-0.7920041084289551,0.13833977282047272,-0.1302352398633957
1788940682561682000,0.425681884765625,-0.7527027726173401,0.1555456519126892,-0.01733318343758583
1788940682571652000,0.435652099609375,-0.6890718936920166,0.1257246434688568,0.10057321190834045
1788940682581622000,0.4456220703125,-0.6184659004211426,0.07596640288829803,0.21407580375671387
1788940682591591200,0.455591064453125,-0.5351552963256836,0.009966880083084106,0.2998200058937073
1788940682601561000,0.46556103515625,-0.42806506156921387,-0.09132219105958939,0.35183048248291016
1788940682611530000,0.475530029296875,-0.36085912585258484,-0.13984791934490204,0.3771829605102539
1788940682621500000,0.4855,-0.33224958181381226,-0.21247364580631256,0.3367375433444977
1788940682631469000,0.495468994140625,-0.3014053702354431,-0.28777000308036804,0.2665270268917084
1788940682641438500,0.5054384765625,-0.2686961591243744,-0.35304006934165955,0.18544548749923706
1788940682651408600,0.51540869140625,-0.29185396432876587,-0.4183916449546814,0.10713257640600204
1788940682661377800,0.525377685546875,-0.3217791020870209,-0.5405170321464539,0.05754052475094795
1788940682671347700,0.53534765625,-0.3522251546382904,-0.7620238661766052,0.023858994245529175
1788940682681316600,0.545316650390625,-0.349563866853714,-0.9975618124008179,0.015916915610432625
1788940682691286500,0.55528662109375,-0.3039385974407196,-1.1610820293426514,0.07218338549137115
1788940682701255700,0.565255615234375,-0.25725868344306946,-0.8728640675544739,0.1547730714082718
1788940682711225600,0.5752255859375,-0.1760120391845703,-0.48246464133262634,0.17354676127433777
1788940682721194500,0.585194580078125,-0.16625848412513733,-0.16348053514957428,0.13471387326717377
1788940682731164700,0.59516455078125,-0.1403331458568573,0.06872180849313736,0.10091117024421692
1788940682741134600,0.605134521484375,-0.059970125555992126,0.2321954220533371,0.0820903405547142
1788940682751103700,0.615103759765625,0.008767658844590187,0.2632729113101959,0.07610169053077698
1788940682761073700,0.62507373046875,0.08944519609212875,0.31022951006889343,0.0719226598739624
1788940682771042600,0.63504248046875,0.1972491592168808,0.32579728960990906,0.07384759187698364
1788940682781012500,0.645012451171875,0.2882741391658783,0.2681819200515747,0.0714145302772522
1788940682790981600,0.654981689453125,0.34074026346206665,0.1609119176864624,0.03405197709798813
1788940682800951800,0.664951904296875,0.37080204486846924,0.08717671036720276,-0.006983341183513403
1788940682810921700,0.674921630859375,0.4145905375480652,0.0033159018494188786,-0.044314734637737274
1788940682820890600,0.684890625,0.46974459290504456,-0.03701447695493698,-0.0637318417429924
1788940682830860500,0.694860595703125,0.5603706240653992,-0.013736318796873093,-0.05904148146510124
1788940682840829700,0.70482958984375,0.5840474963188171,0.0829063355922699,-0.046116627752780914
1788940682850799600,0.714799560546875,0.587886393070221,0.1737488955259323,-0.06613215059041977
1788940682860768500,0.7247685546875,0.5819289088249207,0.23976705968379974,-0.131112739443779
1788940682870738400,0.734738525390625,0.5530141592025757,0.27979516983032227,-0.21137775480747223
1788940682880707600,0.74470751953125,0.5154460072517395,0.2771565020084381,-0.2781197726726532
1788940682890677800,0.754677734375,0.45199355483055115,0.20098264515399933,-0.33280858397483826
1788940682900647700,0.764647705078125,0.4027833938598633,0.08612050116062164,-0.37041693925857544
1788940682910616600,0.774616455078125,0.37485483288764954,-0.05216732993721962,-0.3991641700267792
1788940682920586500,0.78458642578125,0.3767422139644623,-0.16968943178653717,-0.4221557676792145
1788940682930555600,0.7945556640625,0.39249348640441895,-0.23788394033908844,-0.4380814731121063
1788940682940525600,0.804525634765625,0.42870795726776123,-0.2166026085615158,-0.4444964826107025
1788940682950494500,0.814494384765625,0.4821977913379669,-0.07825139909982681,-0.4177170693874359
1788940682960464600,0.824464599609375,0.5296984910964966,0.10410962253808975,-0.3564643859863281
1788940682970434600,0.8344345703125,0.5630854368209839,0.2942050099372864,-0.2581407427787781
1788940682980403700,0.84440380859375,0.5654876232147217,0.4569888412952423,-0.14229749143123627
1788940682990373600,0.85437353515625,0.5202522277832031,0.5176021456718445,-0.04199059307575226
1788940683000342500,0.864342529296875,0.5009999871253967,0.47712260484695435,0.035706598311662674
1788940683010312400,0.8743125,0.49392077326774597,0.36783260107040405,0.10301559418439865
1788940683020281600,0.884281494140625,0.4755881130695343,0.2510649859905243,0.16593624651432037
1788940683030251500,0.89425146484375,0.46312904357910156,0.15281671285629272,0.23983390629291534
1788940683040221700,0.9042216796875,0.4743878245353699,0.03570100665092468,0.3270875811576843
1788940683050190600,0.914190673828125,0.46598848700523376,-0.036138564348220825,0.43459832668304443
1788940683060160500,0.924160400390625,0.4599721133708954,-0.05170420557260513,0.49944764375686646
1788940683070129700,0.934129638671875,0.445540189743042,-0.04207048937678337,0.5167051553726196
1788940683080099600,0.944099609375,0.4113691747188568,-0.03484053909778595,0.482340008020401
1788940683090069500,0.954069580078125,0.3703650236129761,-0.05169675126671791,0.4167546033859253
1788940683100038700,0.96403857421875,0.3290119767189026,-0.07822716236114502,0.327896386384964
1788940683110008800,0.9740087890625,0.29364466667175293,-0.07134555280208588,0.23182524740695953
1788940683119977700,0.983977783203125,0.2716629207134247,-0.05511385202407837,0.1335791051387787
1788940683129947600,0.99394775390625,0.2563375234603882,-0.05486804246902466,0.046178679913282394
1788940683139916500,1.00391650390625,0.23233124613761902,-0.052272260189056396,-0.01290168333798647
1788940683149886700,1.01388671875,0.20188598334789276,-0.07590461522340775,-0.02917413040995598
1788940683159856600,1.023856689453125,0.16397854685783386,-0.10970652103424072,-0.018727881833910942
1788940683169825500,1.033825439453125,0.11753914505243301,-0.14321601390838623,0.006588927004486322
1788940683179795500,1.04379541015625,0.0629161149263382,-0.17797133326530457,0.03279176726937294
1788940683189764600,1.0537646484375,0.01432434469461441,-0.1924581229686737,0.05642146244645119
1788940683199734800,1.06373486328125,-0.03217471390962601,-0.2243526726961136,0.03851277008652687
1788940683209704700,1.07370458984375,-0.08843159675598145,-0.28251850605010986,-0.03681660443544388
1788940683219673600,1.083673583984375,-0.14779691398143768,-0.25785258412361145,-0.15546682476997375
1788940683229643500,1.0936435546875,-0.18555201590061188,-0.11016778647899628,-0.2969384789466858
1788940683239612700,1.10361279296875,-0.2135050892829895,0.07680290192365646,-0.42968931794166565
1788940683249582600,1.11358251953125,-0.22954849898815155,0.23620107769966125,-0.5079646706581116
1788940683259551500,1.123551513671875,-0.23233257234096527,0.3438897132873535,-0.5105082988739014
1788940683269521700,1.133521728515625,-0.23770657181739807,0.3597925305366516,-0.44150230288505554
1788940683279491600,1.14349169921875,-0.252063125371933,0.3232763409614563,-0.32341426610946655
1788940683289460700,1.153460693359375,-0.28022846579551697,0.28622910380363464,-0.1848931461572647
1788940683299430700,1.1634306640625,-0.3342072665691376,0.24081367254257202,-0.06562774628400803
1788940683309399600,1.173399658203125,-0.4011988341808319,0.17051847279071808,0.01582050882279873
1788940683319369500,1.183369384765625,-0.47279924154281616,0.09166786819696426,0.04554591327905655
1788940683329339400,1.19333935546875,-0.5390943884849548,0.00041012681322172284,0.01329769566655159
1788940683339308500,1.20330859375,-0.6172813177108765,-0.07591420412063599,-0.06515583395957947
1788940683349278700,1.21327880859375,-0.6780394911766052,-0.12540745735168457,-0.1789758801460266
1788940683359247600,1.22324755859375,-0.7193030118942261,-0.12431156635284424,-0.32639649510383606
1788940683369217500,1.233217529296875,-0.7403596043586731,-0.08448772132396698,-0.47647467255592346
1788940683379187500,1.2431875,-0.7517483234405518,-0.016599217429757118,-0.5962108969688416
1788940683389156600,1.253156494140625,-0.7470025420188904,0.05895865708589554,-0.648613691329956
1788940683399126500,1.26312646484375,-0.716982901096344,0.14610394835472107,-0.6266005039215088
1788940683409095400,1.273095458984375,-0.6921164393424988,0.16849686205387115,-0.5499254465103149
1788940683419065600,1.283065673828125,-0.6721682548522949,0.14936259388923645,-0.44278407096862793
1788940683429034800,1.29303466796875,-0.6547706127166748,0.13032232224941254,-0.31141701340675354
1788940683439004700,1.303004638671875,-0.6246942281723022,0.11625177413225174,-0.155171737074852
1788940683448974600,1.312974609375,-0.59638512134552,0.12107502669095993,0.00580888707190752
1788940683458943500,1.322943603515625,-0.5035438537597656,0.09021831303834915,0.13069409132003784
1788940683468913700,1.33291357421875,-0.5065247416496277,0.041374072432518005,0.1965482085943222
1788940683478882600,1.342882568359375,-0.49410000443458557,0.03407088667154312,0.2245044708251953
1788940683488852500,1.3528525390625,-0.4852801561355591,-0.0007115966291166842,0.20575769245624542
1788940683498822700,1.36282275390625,-0.48873719573020935,-0.045631133019924164,0.13455700874328613
1788940683508791800,1.372791748046875,-0.5123160481452942,-0.06380508095026016,0.046596795320510864
1788940683518761700,1.38276171875,-0.5371750593185425,-0.07674697786569595,-0.06263887882232666
1788940683528730600,1.392730712890625,-0.5189265012741089,-0.0928705483675003,-0.18246407806873322
1788940683538700500,1.402700439453125,-0.489961713552475,-0.10026801377534866,-0.29011306166648865
1788940683548670500,1.41267041015625,-0.44857779145240784,-0.08158593624830246,-0.37174028158187866
1788940683558639600,1.4226396484375,-0.41649654507637024,-0.03308924287557602,-0.429629385471344
1788940683568609800,1.43260986328125,-0.39076295495033264,0.013557353988289833,-0.46154579520225525
1788940683578578700,1.44257861328125,-0.3793531656265259,0.06746319681406021,-0.4879041612148285
1788940683588548600,1.452548583984375,-0.3792559802532196,0.11299419403076172,-0.5169163942337036
1788940683598518500,1.4625185546875,-0.38676875829696655,0.14392787218093872,-0.5461288690567017
1788940683608487700,1.47248779296875,-0.40776512026786804,0.15785834193229675,-0.5822421312332153
1788940683618457600,1.48245751953125,-0.4355296194553375,0.18540288507938385,-0.6207029223442078
1788940683628426500,1.492426513671875,-0.4534550905227661,0.19612610340118408,-0.6673053503036499
1788940683638397000,1.50239697265625,-0.45973482728004456,0.15560556948184967,-0.7151908278465271
1788940683648366800,1.512366943359375,-0.42831405997276306,0.09841338545084,-0.7500737309455872
1788940683658336000,1.5223359375,-0.3617675304412842,0.08242696523666382,-0.7507411241531372
1788940683668306000,1.532305908203125,-0.2802678644657135,0.10732192546129227,-0.6986608505249023
1788940683678275800,1.54227587890625,-0.19086235761642456,0.18006190657615662,-0.5793994665145874
1788940683688244700,1.55224462890625,-0.09132032841444016,0.25607067346572876,-0.423198401927948
1788940683698215000,1.56221484375,0.0020658141002058983,0.31168651580810547,-0.2885931730270386
1788940683708184000,1.57218408203125,0.08108526468276978,0.32438820600509644,-0.19096516072750092
1788940683718154000,1.582154052734375,0.14094939827919006,0.27608564496040344,-0.1452978104352951
1788940683728124000,1.5921240234375,0.18632113933563232,0.18646575510501862,-0.11585736274719238
1788940683738092800,1.6020927734375,0.17971836030483246,0.07744286209344864,-0.08270366489887238
1788940683748063000,1.61206298828125,0.24009089171886444,-0.07371602952480316,-0.05762947350740433
1788940683758032000,1.622031982421875,0.2860450744628906,-0.20785599946975708,-0.022357769310474396
1788940683768001800,1.632001708984375,0.3213426172733307,-0.2768196165561676,0.047202933579683304
1788940683777972000,1.641971923828125,0.36517664790153503,-0.3262702524662018,0.15654833614826202
1788940683787940900,1.65194091796875,0.42395368218421936,-0.38984230160713196,0.2896363437175751
1788940683797911000,1.6619111328125,0.5046618580818176,-0.4134853184223175,0.4488885700702667
1788940683807880000,1.6718798828125,0.6049413084983826,-0.4136728048324585,0.6142120361328125
1788940683817849900,1.681849853515625,0.7274991869926453,-0.44432365894317627,0.7668196558952332
1788940683827819800,1.69181982421875,0.8353838324546814,-0.488834410905838,0.894663393497467
1788940683837789000,1.701788818359375,0.9209136366844177,-0.500086784362793,0.9751558303833008
1788940683847759000,1.711759033203125,0.975656270980835,-0.49762070178985596,0.9871874451637268
1788940683857729000,1.72172900390625,1.0100725889205933,-0.4866151809692383,0.9101869463920593
1788940683867698000,1.731697998046875,1.0314748287200928,-0.4697682857513428,0.7692817449569702
1788940683877667800,1.741667724609375,1.0348340272903442,-0.4458962678909302,0.6004613041877747
1788940683887637000,1.751636962890625,1.0204370021820068,-0.4151521921157837,0.4262591600418091
1788940683897607000,1.76160693359375,0.9820569157600403,-0.38350212574005127,0.2712264358997345
1788940683907576800,1.771576904296875,0.924248456954956,-0.36745497584342957,0.14031477272510529
1788940683917545700,1.781545654296875,0.8574920296669006,-0.34692201018333435,0.037037111818790436
1788940683927516000,1.791515869140625,0.7896860837936401,-0.331299364566803,-0.03405703604221344
1788940683937485000,1.801485107421875,0.7329149842262268,-0.32489126920700073,-0.06814096868038177
1788940683947455000,1.811455078125,0.6864023208618164,-0.30316492915153503,-0.059243615716695786
1788940683957425000,1.8214248046875,0.6613129377365112,-0.2843664884567261,-0.0043745082803070545
1788940683967393800,1.831393798828125,0.646008312702179,-0.26548412442207336,0.08930990844964981
1788940683977363700,1.84136376953125,0.6337878704071045,-0.2272038608789444,0.2169640064239502
1788940683987332900,1.851332763671875,0.6128050684928894,-0.15213680267333984,0.35350772738456726
1788940683997303000,1.861302978515625,0.5712723135948181,-0.06135603412985802,0.4726053476333618
1788940684007273000,1.87127294921875,0.4943564534187317,0.006453904323279858,0.538567066192627
1788940684017241900,1.881241943359375,0.3849540650844574,0.011411911807954311,0.5326077342033386
1788940684027212000,1.8912119140625,0.2778435945510864,0.004485029727220535,0.4640622138977051
1788940684037182000,1.901181884765625,0.17920783162117004,-0.022216355428099632,0.3520493805408478
1788940684047150800,1.91115087890625,0.08810961991548538,-0.08376467227935791,0.21336527168750763
1788940684057120800,1.921120849609375,0.013147760182619095,-0.12008299678564072,0.07534775137901306
1788940684067090000,1.93108984375,-0.038667500019073486,-0.1212792918086052,-0.035959333181381226
1788940684077060000,1.94106005859375,-0.062010638415813446,-0.07703379541635513,-0.09886825829744339
1788940684087030000,1.951030029296875,-0.0624050535261631,-0.005088767968118191,-0.1219131201505661
1788940684096999000,1.9609990234375,-0.05073587968945503,0.12258423864841461,-0.0871889665722847
1788940684106968800,1.97096875,-0.03002048283815384,0.28641897439956665,0.010995659045875072
1788940684116938800,1.980938720703125,-0.03909919783473015,0.4106961786746979,0.12978382408618927
1788940684126908000,1.990907958984375,-0.0724174752831459,0.4656752943992615,0.20481066405773163
1788940684136877800,2.0008779296875,-0.09542851895093918,0.47371724247932434,0.2586347460746765
1788940684146847000,2.010846923828125,-0.12821681797504425,0.4612261950969696,0.28797319531440735
1788940684156817000,2.02081689453125,-0.16574528813362122,0.4069637656211853,0.2781653106212616
1788940684166786800,2.030786865234375,-0.20493903756141663,0.31839290261268616,0.22276489436626434
1788940684176756000,2.040755859375,-0.24032364785671234,0.23479892313480377,0.14364585280418396
1788940684186726000,2.050725830078125,-0.2663789689540863,0.16922417283058167,0.05842016637325287
1788940684196695800,2.06069580078125,-0.29078176617622375,0.12622611224651337,-0.0037827540654689074
1788940684206664700,2.070664794921875,-0.31961289048194885,0.11097445338964462,-0.023032348603010178
1788940684216635000,2.080634765625,-0.36013129353523254,0.09618964791297913,-0.017836786806583405
1788940684226604000,2.09060400390625,-0.4091733992099762,0.05566805601119995,-0.019246399402618408
1788940684236574000,2.100573974609375,-0.4452855885028839,0.004628041293472052,-0.03711540997028351
1788940684246544000,2.1105439453125,-0.466126412153244,-0.03921717777848244,-0.07197565585374832
1788940684256512800,2.1205126953125,-0.47159281373023987,-0.062481753528118134,-0.10944393277168274
1788940684266483000,2.13048291015625,-0.4777655005455017,-0.06441680341959,-0.1258878856897354
1788940684276452900,2.140452880859375,-0.4781700372695923,-0.05061284452676773,-0.11830133944749832
1788940684286421800,2.150421875,-0.4702540636062622,-0.04170004278421402,-0.07874967157840729
1788940684296392000,2.160391845703125,-0.45636940002441406,-0.04326651245355606,-0.008868326433002949
1788940684306361900,2.17036181640625,-0.4513157904148102,-0.04697869345545769,0.07119295001029968
1788940684316331000,2.1803310546875,-0.45627617835998535,-0.04272642359137535,0.14569514989852905
1788940684326301000,2.190301025390625,-0.4542178213596344,-0.019421901553869247,0.2053089439868927
1788940684336269800,2.200269775390625,-0.4357520043849945,0.002764361212030053,0.23262259364128113
1788940684346239700,2.21023974609375,-0.40073198080062866,0.014067349024116993,0.23386335372924805
1788940684356210000,2.2202099609375,-0.34803441166877747,0.03970852866768837,0.2381686270236969
1788940684366179000,2.230178955078125,-0.2959384620189667,0.09271395951509476,0.25970134139060974
1788940684376149000,2.24014892578125,-0.2485184669494629,0.17128759622573853,0.29163211584091187
1788940684386119000,2.250118896484375,-0.20888742804527283,0.24269519746303558,0.32474079728126526
1788940684396087800,2.260087890625,-0.18674218654632568,0.28203701972961426,0.3523029088973999
1788940684406057700,2.2700576171875,-0.1852092742919922,0.2966441810131073,0.3654751777648926
1788940684416028000,2.28002783203125,-0.1897246539592743,0.2723388373851776,0.35115644335746765
1788940684425996800,2.289996826171875,-0.19556550681591034,0.21694615483283997,0.3061276972293854
1788940684435967000,2.299967041015625,-0.19641265273094177,0.15240710973739624,0.23840218782424927
1788940684445935900,2.309935791015625,-0.1952589750289917,0.10568461567163467,0.16944655776023865
1788940684455905800,2.31990576171875,-0.1877344846725464,0.07949722558259964,0.11479928344488144
1788940684465876000,2.3298759765625,-0.18700531125068665,0.0833878368139267,0.07512777298688889
1788940684475844900,2.339844970703125,-0.1849791705608368,0.09214883297681808,0.051184091717004776
1788940684485814800,2.349814697265625,-0.17451322078704834,0.09822643548250198,0.026552781462669373
1788940684495785000,2.359784912109375,-0.16507524251937866,0.09417416900396347,-0.01864559017121792
1788940684505754000,2.369754150390625,-0.1458839625120163,0.11989790946245193,-0.0731370598077774
1788940684515724000,2.37972412109375,-0.10489898175001144,0.16469627618789673,-0.1374092549085617
1788940684525694000,2.38969384765625,-0.04853690788149834,0.18451179563999176,-0.20311157405376434
1788940684535662800,2.399662841796875,0.017303356900811195,0.1702985018491745,-0.26078739762306213
1788940684545632800,2.4096328125,0.08704967796802521,0.1514076292514801,-0.31318801641464233
1788940684555602000,2.419601806640625,0.15897074341773987,0.12778832018375397,-0.35540255904197693
1788940684565571800,2.42957177734375,0.23174801468849182,0.10953261703252792,-0.3780548870563507
1788940684575542000,2.4395419921875,0.29562631249427795,0.0806993767619133,-0.3748124837875366
1788940684585511000,2.449510986328125,0.3409762382507324,0.04063344746828079,-0.34384897351264954
1788940684595480800,2.459480712890625,0.38378095626831055,0.021152157336473465,-0.30507680773735046
1788940684605450800,2.46945068359375,0.4247720539569855,0.03761262446641922,-0.27308693528175354
1788940684615420000,2.479419921875,0.4707163870334625,0.09697741270065308,-0.2412504404783249
1788940684625389800,2.489389892578125,0.5168609619140625,0.16575726866722107,-0.21346540749073029
1788940684635360000,2.499360107421875,0.5552443265914917,0.20193125307559967,-0.1918642371892929
1788940684645329000,2.509328857421875,0.5792708396911621,0.1693251132965088,-0.17927788197994232
1788940684655299000,2.519299072265625,0.5715718865394592,0.07728280127048492,-0.1839032620191574
1788940684665268000,2.52926806640625,0.5494822859764099,-0.06064310669898987,-0.21113115549087524
1788940684675238000,2.53923779296875,0.5455549359321594,-0.1945551037788391,-0.256427526473999
1788940684685208000,2.5492080078125,0.5736076235771179,-0.27952513098716736,-0.29619625210762024
1788940684695177000,2.559177001953125,0.5974324941635132,-0.28734442591667175,-0.3315204083919525
1788940684705147100,2.569147216796875,0.6233171224594116,-0.22480034828186035,-0.3421437740325928
1788940684715117000,2.579116943359375,0.6667096018791199,-0.14420591294765472,-0.3130332827568054
1788940684725086000,2.5890859375,0.7123713493347168,-0.08169033378362656,-0.2574706971645355
1788940684735056000,2.599055908203125,0.7516199350357056,-0.0168538149446249,-0.18452057242393494
1788940684745025800,2.60902587890625,0.7850620746612549,0.03208256885409355,-0.11603979021310806
1788940684754995000,2.618994873046875,0.813965380191803,0.04574085772037506,-0.05567844212055206
1788940684764965000,2.628965087890625,0.8403109312057495,0.029954703524708748,-0.022700252011418343
1788940684774935000,2.63893505859375,0.8470178246498108,0.023936225101351738,-0.005605421494692564
1788940684784904000,2.648904052734375,0.8277040719985962,0.02064802125096321,-0.0019092201255261898
1788940684794873900,2.658873779296875,0.7860037684440613,-0.007283213082700968,-0.018606973811984062
1788940684804843800,2.66884375,0.7381883263587952,-0.028719795867800713,-0.04110828787088394
1788940684814813000,2.67881298828125,0.693595290184021,-0.022657642140984535,-0.06490203738212585
1788940684824783000,2.688783203125,0.6525455713272095,-0.0009928264189511538,-0.0874616727232933
1788940684834752000,2.698751953125,0.608728289604187,0.0012575446162372828,-0.09959769994020462
1788940684844722000,2.708721923828125,0.5753934979438782,-0.055636096745729446,-0.08471435308456421
1788940684854692000,2.718692138671875,0.5493864417076111,-0.12821681797504425,-0.0475936159491539
1788940684864661000,2.728660888671875,0.5291088223457336,-0.19905690848827362,-0.0054791877046227455
1788940684874631000,2.738630859375,0.511221706867218,-0.24638020992279053,0.032710809260606766
1788940684884600800,2.748600830078125,0.4955865740776062,-0.23974016308784485,0.06574279069900513
1788940684894570000,2.758570068359375,0.49082112312316895,-0.1425744593143463,0.07054953277111053
1788940684904540200,2.7685400390625,0.49181288480758667,0.012267584912478924,0.045527536422014236
1788940684914510000,2.778510009765625,0.48708975315093994,0.17587383091449738,-0.006616090890020132
1788940684924479000,2.78847900390625,0.4645077586174011,0.29933372139930725,-0.06482400000095367
1788940684934449000,2.798448974609375,0.4159969389438629,0.3675660192966461,-0.11620170623064041
1788940684944418800,2.808418701171875,0.3437693417072296,0.35894936323165894,-0.15849989652633667
1788940684954388000,2.818387939453125,0.2555798292160034,0.28526049852371216,-0.19821135699748993
1788940684964358100,2.828358154296875,0.15432192385196686,0.17375315725803375,-0.24359267950057983
1788940684974328000,2.838328125,0.045460425317287445,0.05481744185090065,-0.28556305170059204
1788940684984297000,2.848296875,-0.05450185760855675,-0.04429316148161888,-0.31715425848960876
1788940684994267000,2.858266845703125,-0.12858353555202484,-0.07537518441677094,-0.328342467546463
1788940685004237000,2.868237060546875,-0.17885629832744598,-0.031747277826070786,-0.3112556040287018
1788940685014206000,2.8782060546875,-0.22108577191829681,0.06704774498939514,-0.25060904026031494
1788940685024175900,2.88817578125,-0.25894632935523987,0.20019620656967163,-0.15519064664840698
1788940685034144800,2.898144775390625,-0.2938894033432007,0.30519533157348633,-0.02359693869948387
1788940685044115000,2.908114990234375,-0.3313923180103302,0.34422767162323,0.11072465032339096
1788940685054085000,2.918085205078125,-0.3813263177871704,0.311610609292984,0.20737209916114807
1788940685064054000,2.928053955078125,-0.44582274556159973,0.19026900827884674,0.23807914555072784
1788940685074024000,2.93802392578125,-0.5220168828964233,0.039380427449941635,0.19991923868656158
1788940685083993900,2.947993896484375,-0.5885825753211975,-0.0604657419025898,0.09972020238637924
1788940685093963000,2.957962890625,-0.647421658039093,-0.08653222769498825,-0.025500565767288208
1788940685103933000,2.967932861328125,-0.701526939868927,-0.04059456288814545,-0.13086667656898499
1788940685113903000,2.977903076171875,-0.7500132918357849,0.0557977519929409,-0.18850679695606232
1788940685123872000,2.9878720703125,-0.7913687229156494,0.15388676524162292,-0.1947210133075714
1788940685133842000,2.997842041015625,-0.8171475529670715,0.22756259143352509,-0.16486725211143494
1788940685143811800,3.007811767578125,-0.844751238822937,0.28600460290908813,-0.10452880710363388
1788940685153781000,3.017781005859375,-0.865976870059967,0.33022716641426086,-0.027602333575487137
1788940685163751000,3.0277509765625,-0.8895394802093506,0.3340168595314026,0.048838380724191666
1788940685173721000,3.03772119140625,-0.9117739200592041,0.30909234285354614,0.11539530009031296
1788940685183690000,3.04768994140625,-0.9178733825683594,0.2583165168762207,0.15522713959217072
1788940685193660000,3.057659912109375,-0.9269347786903381,0.20742163062095642,0.16874533891677856
1788940685203630000,3.067630126953125,-0.9237448573112488,0.17481175065040588,0.1736021488904953
1788940685213599000,3.077598876953125,-0.9028816223144531,0.10230453312397003,0.18648386001586914
1788940685223569000,3.08756884765625,-0.8692967891693115,0.012794358655810356,0.1888045370578766
1788940685233538800,3.097538818359375,-0.8280811905860901,-0.06177894398570061,0.20037038624286652
1788940685243508000,3.107508056640625,-0.7999946475028992,-0.17725707590579987,0.22153931856155396
1788940685253478100,3.11747802734375,-0.7449737787246704,-0.29192718863487244,0.236814945936203
1788940685263448000,3.127447998046875,-0.6805918216705322,-0.41684916615486145,0.23038819432258606
1788940685273417000,3.1374169921875,-0.6070425510406494,-0.5242573618888855,0.23072536289691925
1788940685283387000,3.147386962890625,-0.538185715675354,-0.58698570728302,0.27251380681991577
1788940685293356800,3.157356689453125,-0.4308411478996277,-0.9027183651924133,0.2936108410358429
1788940685303326000,3.167325927734375,-0.34607750177383423,-1.3499925136566162,0.3414401412010193
1788940685313296100,3.177296142578125,-0.2759133279323578,-1.692064642906189,0.39680755138397217
1788940685323265000,3.18726513671875,-0.3014594614505768,-1.8332269191741943,0.44686591625213623
1788940685333235000,3.19723486328125,-0.3430319130420685,-1.7372503280639648,0.47142210602760315
1788940685343204900,3.207204833984375,-0.39866510033607483,-1.6547657251358032,0.452340304851532
1788940685353174000,3.217174072265625,-0.48673850297927856,-1.2939945459365845,0.3822523057460785
1788940685363144000,3.22714404296875,-0.6234995126724243,-0.901608407497406,0.2555481493473053
1788940685373113900,3.23711376953125,-0.8253900408744812,-0.6016493439674377,0.047086551785469055
1788940685383082800,3.247082763671875,-0.8516048789024353,-0.3034685254096985,-0.21433812379837036
1788940685393053000,3.257052978515625,-0.6434905529022217,-0.18598318099975586,-0.42620643973350525
1788940685403023000,3.267023193359375,-0.3090510666370392,-0.15356053411960602,-0.5367651581764221
1788940685412992000,3.276991943359375,-0.02630617283284664,-0.1579161286354065,-0.5037140250205994
1788940685422962000,3.2869619140625,0.14448101818561554,-0.1337870955467224,-0.41958022117614746
1788940685432931800,3.296931884765625,0.23767434060573578,-0.11258672922849655,-0.3208238184452057
1788940685442901000,3.30690087890625,0.28714069724082947,-0.14538542926311493,-0.24127733707427979
1788940685452871200,3.31687109375,0.3029415011405945,-0.20695345103740692,-0.20918011665344238
1788940685462841000,3.326841064453125,0.2722855806350708,-0.36445945501327515,-0.24274633824825287
1788940685472810000,3.33681005859375,0.20761257410049438,-0.5607179403305054,-0.300621896982193
1788940685482780000,3.34677978515625,0.15959738194942474,-0.7141202688217163,-0.3700110912322998
1788940685492749800,3.356749755859375,0.13460814952850342,-0.7811741232872009,-0.4485839009284973
1788940685502719000,3.366718994140625,0.11344613134860992,-0.8053098320960999,-0.5285975337028503
1788940685512689000,3.37668896484375,0.09116985648870468,-0.7609990835189819,-0.5918313264846802
1788940685522659000,3.3866591796875,0.07273785024881363,-0.6557488441467285,-0.654376208782196
1788940685532628000,3.3966279296875,0.08272816985845566,-0.5133013725280762,-0.6929563879966736
1788940685542598000,3.406597900390625,0.12842614948749542,-0.38361451029777527,-0.6820893287658691
1788940685552568000,3.416568115234375,0.20050832629203796,-0.371417760848999,-0.6306080222129822
1788940685562537000,3.426536865234375,0.25936153531074524,-0.39278537034988403,-0.547086775302887
1788940685572507000,3.4365068359375,0.28455209732055664,-0.41469651460647583,-0.43500950932502747
1788940685582477000,3.44647705078125,0.2820782959461212,-0.4311559200286865,-0.3586452305316925
1788940685592446200,3.4564462890625,0.28328630328178406,-0.42359867691993713,-0.28796014189720154
1788940685602416000,3.466416015625,0.29519224166870117,-0.3997577726840973,-0.1947801411151886
1788940685612386000,3.476385986328125,0.3205937147140503,-0.4439247250556946,-0.0944383516907692
1788940685622355000,3.48635498046875,0.3827633559703827,-0.45470544695854187,-0.017011474817991257
1788940685632324900,3.496324951171875,0.44617828726768494,-0.393875390291214,0.020626980811357498
1788940685642294500,3.50629443359375,0.5390962362289429,-0.24513918161392212,0.009168198332190514
1788940685652263700,3.516263671875,0.6639143228530884,-0.12486843019723892,-0.05885586142539978
1788940685662233600,3.526233642578125,0.7845363616943359,0.024580709636211395,-0.1357346624135971
1788940685672203500,3.53620361328125,0.8513100743293762,0.22546428442001343,-0.20732815563678741
1788940685682172400,3.54617236328125,0.8952466249465942,0.34234002232551575,-0.2735772132873535
1788940685692142600,3.556142578125,0.9052206873893738,0.36969175934791565,-0.3436649441719055
1788940685705850600,3.5698505859375,0.8140668272972107,0.15599839389324188,-0.5263506174087524
1788940685715820500,3.579820556640625,0.6852899193763733,0.0724177435040474,-0.6869730353355408
1788940685725790500,3.58979052734375,0.5955986380577087,-0.0028610338922590017,-0.7666556239128113
1788940685735759600,3.599759521484375,0.5618430972099304,-0.08003225177526474,-0.7693212032318115
1788940685745729800,3.609729736328125,0.5173898935317993,-0.04261643439531326,-0.6883379220962524
1788940685755699700,3.61969970703125,0.43923914432525635,0.008301072753965855,-0.5716893076896667
1788940685765668600,3.629668701171875,0.37946078181266785,0.021046163514256477,-0.4209813177585602
1788940685775638500,3.639638427734375,0.3310199975967407,-0.12831908464431763,-0.30709388852119446
1788940685785608400,3.6496083984375,0.313515841960907,-0.22778496146202087,-0.30733197927474976
1788940685795577600,3.65957763671875,0.2970939874649048,-0.17089611291885376,-0.32070237398147583
1788940685805547800,3.6695478515625,0.2283167988061905,-0.007119428366422653,-0.29332590103149414
1788940685815517700,3.679517578125,0.12406042963266373,0.09110061824321747,-0.23441703617572784
1788940685825486600,3.689486572265625,0.027186347171664238,0.11928751319646835,-0.12949301302433014
1788940685835456500,3.69945654296875,-0.03214222192764282,0.14189615845680237,0.01543434988707304
1788940685845426400,3.709426513671875,-0.07841172069311142,0.252472460269928,0.16555461287498474
1788940685855395600,3.7193955078125,-0.14372201263904572,0.4608176648616791,0.31427431106567383
1788940685865365500,3.729365478515625,-0.16826917231082916,0.6102465987205505,0.4078735113143921
1788940685875335700,3.739335693359375,-0.17158080637454987,0.7548410296440125,0.4505719542503357
1788940685885304600,3.7493046875,-0.19837461411952972,0.8636279702186584,0.43965619802474976
1788940685895274800,3.759274658203125,-0.23795823752880096,0.8842469453811646,0.3869205415248871
1788940685905244700,3.76924462890625,-0.2644375264644623,0.8241106867790222,0.32374078035354614
1788940685915213600,3.779213623046875,-0.2647336423397064,0.7342489361763,0.25394973158836365
1788940685925183500,3.78918359375,-0.2595333158969879,0.6320443153381348,0.18896618485450745
1788940685935153400,3.7991533203125,-0.2833060026168823,0.5443519949913025,0.1615835726261139
1788940685945122800,3.809122802734375,-0.31960329413414,0.5253037214279175,0.16811390221118927
1788940685955092700,3.8190927734375,-0.3590463101863861,0.5060959458351135,0.18002036213874817
1788940685965062700,3.829062744140625,-0.37791961431503296,0.460632860660553,0.16595222055912018
1788940685975031600,3.839031494140625,-0.41029244661331177,0.4138443171977997,0.13172394037246704
1788940685985001500,3.84900146484375,-0.43120890855789185,0.39531058073043823,0.06168866530060768
1788940685994971400,3.858971435546875,-0.4200473427772522,0.3746172785758972,-0.024591362103819847
1788940686004940500,3.8689404296875,-0.39340880513191223,0.3972991704940796,-0.14232492446899414
1788940686014910700,3.87891064453125,-0.3771616518497467,0.3899829089641571,-0.29260072112083435
1788940686024880600,3.888880615234375,-0.34605327248573303,0.3465512990951538,-0.41996532678604126
1788940686034849500,3.898849609375,-0.30628350377082825,0.3027082085609436,-0.4752357602119446
1788940686044819700,3.90881982421875,-0.26677045226097107,0.27736103534698486,-0.4555286467075348
1788940686054789600,3.91878955078125,-0.2419319450855255,0.25141599774360657,-0.39243781566619873
1788940686064758500,3.928758544921875,-0.2451607584953308,0.2224447876214981,-0.3085162937641144
1788940686074728400,3.938728515625,-0.28222450613975525,0.19227011501789093,-0.24396765232086182
1788940686084698600,3.94869873046875,-0.33545976877212524,0.11564004421234131,-0.2164585292339325
1788940686094667800,3.958667724609375,-0.35517486929893494,-0.00478516798466444,-0.203024759888649
1788940686104637700,3.9686376953125,-0.3579147458076477,-0.05723532661795616,-0.1773201823234558
1788940686114607600,3.978607666015625,-0.3339891731739044,-0.033364616334438324,-0.12030643969774246
1788940686124576500,3.988576416015625,-0.271595299243927,0.05986147001385689,0.024763403460383415
1788940686134546400,3.99854638671875,-0.24415168166160583,0.23750390112400055,0.1745702028274536
1788940686144516600,4.0085166015625,-0.18170002102851868,0.4081350266933441,0.32268059253692627
1788940686154485800,4.01848583984375,-0.12126703560352325,0.5016775131225586,0.3709823191165924
1788940686164455700,4.02845556640625,-0.05457642674446106,0.5298675894737244,0.35004350543022156
1788940686174425600,4.038425537109375,-0.04820481315255165,0.5835273265838623,0.3141683042049408
1788940686184394500,4.04839453125,-0.09283566474914551,0.5836077928543091,0.26579439640045166
1788940686194364700,4.05836474609375,-0.1573275774717331,0.532809853553772,0.22815833985805511
1788940686204334600,4.06833447265625,-0.2234266996383667,0.4518130123615265,0.19959327578544617
1788940686214303500,4.078303466796875,-0.2767610251903534,0.3532685935497284,0.1648978739976883
1788940686224273700,4.088273681640625,-0.30347973108291626,0.2304007112979889,0.1339207887649536
1788940686234243600,4.09824365234375,-0.3077532947063446,0.12842269241809845,0.10684388875961304
1788940686244212700,4.108212646484375,-0.2891175448894501,0.053397975862026215,0.07039187103509903
1788940686254182700,4.1181826171875,-0.247202068567276,0.016201073303818703,0.03533774986863136
1788940686264152600,4.128152587890625,-0.19601744413375854,-0.0004953479510731995,0.0136612169444561
1788940686274121500,4.13812158203125,-0.14839638769626617,-0.024572720751166344,-0.00019973708549514413
1788940686284091600,4.148091552734375,-0.10509791970252991,-0.08123254030942917,-0.018096178770065308
1788940686294061600,4.1580615234375,-0.09853296726942062,-0.17387139797210693,-0.054364971816539764
1788940686304030700,4.16803076171875,-0.11035952717065811,-0.2684016227722168,-0.07240708917379379
1788940686314000600,4.178000732421875,-0.11956954002380371,-0.30422380566596985,-0.0683865174651146
1788940686323970600,4.187970458984375,-0.11585549265146255,-0.28819262981414795,-0.05925692990422249
1788940686333939500,4.197939453125,-0.09313926100730896,-0.2611570358276367,-0.0737043172121048
1788940686343909400,4.207909423828125,-0.053157493472099304,-0.21781514585018158,-0.10253516584634781
1788940686353879800,4.2178798828125,0.005282380152493715,-0.16151219606399536,-0.1265757828950882
1788940686363848700,4.2278486328125,0.0792229175567627,-0.12399065494537354,-0.14201518893241882
1788940686373818600,4.237818603515625,0.14914953708648682,-0.09242767095565796,-0.16255562007427216
1788940686383788500,4.24778857421875,0.2009592056274414,-0.08756846189498901,-0.1952619105577469
1788940686393757700,4.2577578125,0.2295178771018982,-0.10481030493974686,-0.22844275832176208
1788940686403727600,4.2677275390625,0.2422613650560379,-0.11022291332483292,-0.2581676244735718
1788940686413696500,4.277696533203125,0.2592555284500122,-0.0992586761713028,-0.27277109026908875
1788940686423666700,4.287666748046875,0.2856764793395996,-0.06208121404051781,-0.2568903863430023
1788940686433636600,4.29763671875,0.33460569381713867,0.009328787215054035,-0.21495065093040466
1788940686443605800,4.307605712890625,0.3985934555530548,0.07773793488740921,-0.14163382351398468
1788940686453575700,4.31757568359375,0.46284353733062744,0.11228472739458084,-0.04601889103651047
1788940686463545600,4.327545654296875,0.5189158916473389,0.1035546213388443,0.03442375361919403
1788940686473514500,4.337514404296875,0.5468404293060303,0.03285541757941246,0.07579649239778519
1788940686483484400,4.347484375,0.5282002091407776,-0.07471658289432526,0.09083084017038345
1788940686493454600,4.35745458984375,0.4745641052722931,-0.19302591681480408,0.08463765680789948
1788940686503423700,4.367423828125,0.39632442593574524,-0.3103538751602173,0.06196536496281624
1788940686513393700,4.3773935546875,0.33674925565719604,-0.357181578874588,0.05150127410888672
1788940686523363600,4.387363525390625,0.32210347056388855,-0.35386911034584045,0.0472833588719368
1788940686533332500,4.39733251953125,0.3408167064189911,-0.2949501574039459,0.07995475083589554
1788940686543302700,4.407302734375,0.3776138722896576,-0.1869661509990692,0.15414829552173615
1788940686553272600,4.4172724609375,0.42296722531318665,-0.026147713884711266,0.25060904026031494
1788940686563241500,4.427241455078125,0.45352381467819214,0.14121171832084656,0.3440990447998047
1788940686573211600,4.437211669921875,0.44793862104415894,0.2862456142902374,0.39620086550712585
1788940686583181600,4.447181640625,0.4163990914821625,0.36685124039649963,0.39863845705986023
1788940686593150700,4.457150634765625,0.37312883138656616,0.39517608284950256,0.3801952600479126
1788940686603120600,4.46712060546875,0.32106778025627136,0.36319124698638916,0.3509814739227295
1788940686613090600,4.477090576171875,0.2740166485309601,0.279066801071167,0.32641834020614624
1788940686623059500,4.4870595703125,0.23374244570732117,0.16708698868751526,0.31432756781578064
1788940686633029600,4.497029541015625,0.2151743620634079,0.04313815012574196,0.3135872185230255
1788940686642998500,4.50699853515625,0.20727701485157013,-0.05440199002623558,0.3350299298763275
1788940686652968400,4.516968505859375,0.19107061624526978,-0.12632571160793304,0.37864717841148376
1788940686662938400,4.5269384765625,0.1479196846485138,-0.18304012715816498,0.41854211688041687
1788940686672907300,4.5369072265625,0.08912774175405502,-0.22059789299964905,0.44302085041999817
1788940686682877200,4.546877197265625,0.025342907756567,-0.22792664170265198,0.4594528079032898
1788940686692847600,4.55684765625,-0.04382124915719032,-0.1808805614709854,0.4894583821296692
1788940686702816500,4.56681640625,-0.12223829329013824,-0.06549672037363052,0.5254334211349487
1788940686712786400,4.576786376953125,-0.1990358680486679,0.09562160074710846,0.5613837242126465
1788940686722756400,4.58675634765625,-0.2580597698688507,0.2342607080936432,0.5718488693237305
1788940686732725500,4.5967255859375,-0.29693421721458435,0.3411749005317688,0.5541039705276489
1788940686742695400,4.6066953125,-0.3105546832084656,0.4029032588005066,0.5067185759544373
1788940686752665300,4.616665283203125,-0.2989118695259094,0.440610408782959,0.4483775198459625
1788940686762634200,4.62663427734375,-0.2777796983718872,0.46419376134872437,0.3969273865222931
1788940686772604400,4.6366044921875,-0.28195419907569885,0.4902895390987396,0.3553873896598816
1788940686782574300,4.64657421875,-0.3180197775363922,0.5062911510467529,0.33264613151550293
1788940686792543500,4.65654345703125,-0.3689442276954651,0.4648238718509674,0.312394917011261
1788940686802513400,4.666513427734375,-0.42899903655052185,0.3504464328289032,0.2751319706439972
1788940686812482300,4.676482421875,-0.4840676188468933,0.17604586482048035,0.22283999621868134
1788940686822452200,4.6864521484375,-0.5137394666671753,-0.002377137541770935,0.16933363676071167
1788940686832422400,4.69642236328125,-0.5144497752189636,-0.1189357116818428,0.12185320258140564
1788940686842391600,4.7063916015625,-0.5013845562934875,-0.1628142148256302,0.08690347522497177
1788940686852361500,4.716361572265625,-0.495934396982193,-0.12186944484710693,0.05433780699968338
1788940686862331400,4.726331298828125,-0.47083809971809387,-0.03856257349252701,0.038603316992521286
1788940686872300300,4.73630029296875,-0.4320022761821747,0.06916388869285583,0.049198705703020096
1788940686882270500,4.7462705078125,-0.39494597911834717,0.18412989377975464,0.06673987954854965
1788940686892240400,4.756240478515625,-0.35914483666419983,0.28070515394210815,0.09370066225528717
1788940686902209300,4.766209228515625,-0.3417948782444,0.321654736995697,0.11746378242969513
1788940686912179500,4.776179443359375,-0.3367745578289032,0.2835342288017273,0.11067857593297958
1788940686922149400,4.7861494140625,-0.34803974628448486,0.16744811832904816,0.0725967064499855
1788940686932118500,4.796118408203125,-0.35998082160949707,0.017426660284399986,0.02153884805738926
1788940686942088400,4.80608837890625,-0.3495497405529022,-0.09061884880065918,-0.006699447985738516
1788940686952057300,4.816057373046875,-0.2967382073402405,-0.13511574268341064,-0.005257346201688051
1788940686962027300,4.82602734375,-0.2229987233877182,-0.11572500318288803,0.014972558245062828
1788940686971997400,4.83599755859375,-0.15060894191265106,-0.04652462527155876,0.04971962049603462
1788940686981966600,4.845966552734375,-0.0884409174323082,0.009615343064069748,0.08206477761268616
1788940686991936500,4.8559365234375,-0.055201202630996704,0.04258953779935837,0.0747022032737732
1788940687001906400,4.865906494140625,-0.05288904905319214,0.06488658487796783,0.04068005084991455
1788940687011875300,4.875875244140625,-0.06240851804614067,0.07781676948070526,-0.014882010407745838
1788940687021845200,4.88584521484375,-0.06667649745941162,0.0599789135158062,-0.087493896484375
1788940687031815200,4.895815185546875,-0.06136056408286095,0.02359507419168949,-0.15408357977867126
1788940687041784300,4.905784423828125,-0.029929136857390404,-0.019026154652237892,-0.18770731985569
1788940687051754500,4.91575439453125,0.033247701823711395,-0.08451834321022034,-0.18878722190856934
1788940687061724400,4.925724365234375,0.1127832755446434,-0.17813271284103394,-0.16909635066986084
1788940687071693300,4.935693359375,0.18580368161201477,-0.25866857171058655,-0.10980905592441559
1788940687081663500,4.94566357421875,0.23133601248264313,-0.2723263204097748,-0.024408670142292976
1788940687091632400,4.95563232421875,0.24453064799308777,-0.24762684106826782,0.05157371237874031
1788940687101602300,4.965602294921875,0.23611240088939667,-0.22927100956439972,0.0820554569363594
1788940687111572500,4.975572509765625,0.21168215572834015,-0.2052423655986786,0.06372518092393875
1788940687121541400,4.985541259765625,0.17449671030044556,-0.17246977984905243,0.012836170382797718
1788940687131511600,4.995511474609375,0.13427364826202393,-0.13192634284496307,-0.056828130036592484
1788940687141481500,5.0054814453125,0.11404880881309509,-0.0809803381562233,-0.12978675961494446
1788940687151450400,5.015450439453125,0.12456110119819641,-0.02244165912270546,-0.17607009410858154
1788940687161420300,5.025420166015625,0.1703490912914276,0.025777002796530724,-0.1820153445005417
1788940687171389400,5.035389404296875,0.22757084667682648,0.06384769082069397,-0.16001737117767334
1788940687181359400,5.045359375,0.2726688086986542,0.06142687425017357,-0.10911743342876434
1788940687191329500,5.05532958984375,0.30752211809158325,0.024576982483267784,-0.03930000215768814
1788940687201298400,5.06529833984375,0.3246920704841614,-0.045826878398656845,0.017423199489712715
1788940687211268400,5.075268310546875,0.31941795349121094,-0.14624349772930145,0.048403218388557434
1788940687221238300,5.08523828125,0.2949983477592468,-0.24629738926887512,0.05989183112978935
1788940687231207400,5.09520751953125,0.26118233799934387,-0.3137299716472626,0.04446759819984436
1788940687241177300,5.10517724609375,0.23808632791042328,-0.3170698285102844,0.027841750532388687
1788940687251147500,5.1151474609375,0.24366699159145355,-0.25133609771728516,0.017946243286132812
1788940687261116400,5.125116455078125,0.27387601137161255,-0.16221927106380463,0.018999258056282997
1788940687271086300,5.13508642578125,0.32509180903434753,-0.07093249261379242,0.047993358224630356
1788940687281055500,5.145055419921875,0.38836079835891724,-0.017464477568864822,0.10158628225326538
1788940687291025400,5.155025390625,0.4433002173900604,-0.023264842107892036,0.16735516488552094
1788940687300995300,5.164995361328125,0.46886709332466125,-0.07888150215148926,0.22796551883220673
1788940687310964200,5.174964111328125,0.4674372375011444,-0.16045598685741425,0.27977466583251953
1788940687320934400,5.184934326171875,0.43344730138778687,-0.2360953539609909,0.32857975363731384
1788940687330904600,5.194904541015625,0.3916785418987274,-0.27697592973709106,0.3595331311225891
1788940687340873500,5.20487353515625,0.3605067729949951,-0.27911660075187683,0.3632871210575104
1788940687350843400,5.214843505859375,0.34709402918815613,-0.23519600927829742,0.35080382227897644
1788940687360812500,5.2248125,0.3438764214515686,-0.15102173388004303,0.33328208327293396
1788940687370782500,5.234782470703125,0.3522115647792816,-0.046871367841959,0.3124774694442749
1788940687380752400,5.24475244140625,0.3592284619808197,0.06439763307571411,0.28067508339881897
1788940687390721300,5.25472119140625,0.3535759150981903,0.1392260640859604,0.23583009839057922
1788940687400691500,5.26469140625,0.334506094455719,0.15524443984031677,0.18482577800750732
1788940687410661400,5.274661376953125,0.2945442795753479,0.1057400107383728,0.12884798645973206
1788940687420630500,5.284630615234375,0.24659326672554016,0.046419963240623474,0.09724505990743637
1788940687430600400,5.294600341796875,0.1969412863254547,0.008873919025063515,0.09369027614593506
1788940687440570400,5.3045703125,0.15804795920848846,-0.0002681803307496011,0.10624334961175919
1788940687450539300,5.314539306640625,0.13775014877319336,0.03158029541373253,0.12948475778102875
1788940687460509200,5.32450927734375,0.12974387407302856,0.08143813163042068,0.15904158353805542
1788940687470478300,5.334478271484375,0.14041250944137573,0.13483504951000214,0.20846132934093475
1788940687480448500,5.344448486328125,0.17077866196632385,0.21586517989635468,0.26780349016189575
1788940687490418400,5.35441845703125,0.20801791548728943,0.26939526200294495,0.3028687834739685
1788940687500387300,5.36438720703125,0.2208959013223648,0.2817957401275635,0.3151526153087616
1788940687510357500,5.374357421875,0.19561557471752167,0.2747194468975067,0.31741470098495483
1788940687520326400,5.384326416015625,0.15006273984909058,0.24974991381168365,0.295055091381073
1788940687530296300,5.39429638671875,0.09380079060792923,0.20260849595069885,0.24305792152881622
1788940687540266200,5.404266357421875,0.030854051932692528,0.14708185195922852,0.17174352705478668
1788940687550235400,5.4142353515625,-0.03797055035829544,0.10398179292678833,0.09423462301492691
1788940687560205600,5.42420556640625,-0.10055350512266159,0.09101645648479462,0.0410827212035656
1788940687570175500,5.434175537109375,-0.14135313034057617,0.08364748954772949,0.029948310926556587
1788940687580144400,5.444144287109375,-0.165012389421463,0.0798085480928421,0.04141028970479965
1788940687590114300,5.4541142578125,-0.17322877049446106,0.05837329477071762,0.050331879407167435
1788940687600083500,5.46408349609375,-0.18159615993499756,0.043356530368328094,0.036311667412519455
1788940687610053400,5.474053466796875,-0.20006385445594788,0.030897729098796844,-0.024895763024687767
1788940687620023600,5.4840234375,-0.24348190426826477,0.003916711080819368,-0.1352718025445938
1788940687629992400,5.493992431640625,-0.2986189126968384,-0.019157182425260544,-0.25714045763015747
1788940687639962400,5.50396240234375,-0.36192306876182556,0.0006796387024223804,-0.35935524106025696
1788940687649932300,5.513932373046875,-0.4195844829082489,0.07580261677503586,-0.41423311829566956
1788940687659901400,5.5239013671875,-0.450363427400589,0.1877371370792389,-0.4160344898700714
1788940687669871600,5.53387158203125,-0.4618951976299286,0.3013864755630493,-0.364211767911911
1788940687679840500,5.543840576171875,-0.4491138756275177,0.3907640278339386,-0.27286961674690247
1788940687689810400,5.553810546875,-0.40321484208106995,0.4361986219882965,-0.15794329345226288
1788940687699780400,5.5637802734375,-0.3440777361392975,0.4300749599933624,-0.047209855169057846
1788940687709749500,5.57374951171875,-0.2996647357940674,0.370897114276886,0.03870824724435806
1788940687719719400,5.583719482421875,-0.28816068172454834,0.2751524746417999,0.1096189022064209
1788940687729689300,5.593689453125,-0.29204198718070984,0.17868319153785706,0.16358520090579987
1788940687739658500,5.603658447265625,-0.28989094495773315,0.11604297906160355,0.1866806596517563
1788940687749628400,5.61362841796875,-0.2739716172218323,0.10008159279823303,0.1803964078426361
1788940687759597600,5.62359765625,-0.24746465682983398,0.10655893385410309,0.13782630860805511
1788940687769567500,5.6335673828125,-0.21292158961296082,0.1323188841342926,0.07930414378643036
1788940687779537400,5.643537353515625,-0.17231957614421844,0.16336682438850403,0.02340838685631752
1788940687789506600,5.653506591796875,-0.14252571761608124,0.16851817071437836,-0.03160027042031288
1788940687799476500,5.6634765625,-0.1254948079586029,0.11254998296499252,-0.11089029908180237
1788940687809446700,5.67344677734375,-0.13640683889389038,0.005292499903589487,-0.2028931975364685
1788940687819415600,5.68341552734375,-0.17887307703495026,-0.12485139071941376,-0.2750278413295746
1788940687829385500,5.693385498046875,-0.22625736892223358,-0.21994967758655548,-0.3006996512413025
1788940687839354600,5.703354736328125,-0.25360456109046936,-0.2801397740840912,-0.28861820697784424
1788940687849324500,5.713324462890625,-0.262334406375885,-0.25415292382240295,-0.2440137267112732
1788940687859294500,5.72329443359375,-0.2525981664657593,-0.15421167016029358,-0.1719461977481842
1788940687869263400,5.733263427734375,-0.23037222027778625,-0.022599052637815475,-0.08907821029424667
1788940687879233300,5.7432333984375,-0.19189806282520294,0.13227175176143646,0.004046939779073
1788940687889202700,5.75320263671875,-0.1332845538854599,0.2626532018184662,0.09705943614244461
1788940687899172600,5.763172607421875,-0.07257194072008133,0.33728376030921936,0.16713999211788177
1788940687909142500,5.773142578125,-0.02582041174173355,0.3614671230316162,0.2072589099407196
1788940687919111400,5.783111328125,-0.0016365124611184,0.3485308289527893,0.22332097589969635
1788940687929081300,5.793081298828125,0.009044361300766468,0.2869342863559723,0.21147948503494263
1788940687939051300,5.80305126953125,0.014708371832966805,0.20181594789028168,0.1766597181558609
1788940687949020400,5.8130205078125,0.03039412386715412,0.10373625159263611,0.13948892056941986
1788940687958990600,5.822990478515625,0.055510129779577255,0.010845457203686237,0.09904935210943222
1788940687968959500,5.83295947265625,0.08249647170305252,-0.050217896699905396,0.05808513984084129
1788940687978929400,5.842929443359375,0.09800725430250168,-0.10202570259571075,0.005283711478114128
1788940687988899600,5.852899658203125,0.10708543658256531,-0.1375509351491928,-0.07010611891746521
1788940687998868500,5.862868408203125,0.09758088737726212,-0.1796959936618805,-0.1701219230890274
1788940688008838400,5.87283837890625,0.08004529774188995,-0.26524817943573,-0.304059237241745
1788940688018808300,5.882808349609375,0.06282423436641693,-0.3728598654270172,-0.46322891116142273
1788940688028777500,5.892777587890625,0.053288254886865616,-0.5281046032905579,-0.6224755644798279
1788940688038747600,5.90274755859375,0.04984452202916145,-0.7121891975402832,-0.7222615480422974
1788940688048716500,5.912716552734375,0.05752135068178177,-0.7915468811988831,-0.6835652589797974
1788940688058686500,5.9226865234375,0.08121336251497269,-0.6662139892578125,-0.5264864563941956
1788940688068656400,5.932656494140625,0.20087717473506927,-0.4084516763687134,-0.23077169060707092
1788940688078625500,5.94262548828125,0.4116751551628113,-0.010439325124025345,0.18340951204299927
1788940688088595500,5.952595458984375,0.6576239466667175,0.3644048571586609,0.6020925045013428
1788940688098565600,5.962565673828125,0.8341041803359985,0.618877112865448,0.8440532088279724
1788940688108534500,5.972534423828125,0.9440684914588928,0.6624264121055603,0.9068524241447449
1788940688118504400,5.98250439453125,0.9684672951698303,0.5224131345748901,0.842893660068512
1788940688128473600,5.9924736328125,0.9184257388114929,0.25064393877983093,0.6725687980651855
1788940688138443500,6.002443603515625,0.8337294459342957,-0.13086427748203278,0.43313518166542053
1788940688148413400,6.012413330078125,0.7278323173522949,-0.5581993460655212,0.18771158158779144
1788940688158382300,6.02238232421875,0.6079179048538208,-0.839684009552002,0.02803562954068184
1788940688168352300,6.032352294921875,0.5317248702049255,-0.9509064555168152,-0.00932346098124981
1788940688178322400,6.042322509765625,0.4923045039176941,-0.8746215105056763,0.049734532833099365
1788940688188291600,6.05229150390625,0.4818859398365021,-0.6359586119651794,0.17288681864738464
1788940688198261500,6.062261474609375,0.49411386251449585,-0.31421011686325073,0.3018637001514435
1788940688208230400,6.07223046875,0.5193470120429993,-0.018487930297851562,0.3877139091491699
1788940688218200300,6.082200439453125,0.5200157761573792,0.1671098917722702,0.3915911912918091
1788940688228170500,6.09217041015625,0.49055638909339905,0.2659427225589752,0.33038535714149475
1788940688238139400,6.102139404296875,0.4462437927722931,0.2659376859664917,0.23279303312301636
1788940688248109600,6.112109619140625,0.4005064070224762,0.20074082911014557,0.12365669012069702
1788940688258079500,6.12207958984375,0.35633575916290283,0.11735831946134567,0.027894748374819756
1788940688268048600,6.132048583984375,0.330846905708313,0.053036853671073914,-0.01943654753267765
1788940688278018600,6.1420185546875,0.3274098336696625,0.016921725124120712,-0.028079304844141006
1788940688287987500,6.151987548828125,0.34625673294067383,0.006878145970404148,-0.016085226088762283
1788940688297957400,6.161957275390625,0.3682723045349121,0.01296560000628233,0.004229366313666105
1788940688307927300,6.17192724609375,0.37671080231666565,0.05495379492640495,0.026932815089821815
1788940688317896400,6.181896484375,0.3680054545402527,0.10967323184013367,0.05076730623841286
1788940688327866600,6.19186669921875,0.340634822845459,0.18297913670539856,0.0747983381152153
1788940688337836500,6.20183642578125,0.30124160647392273,0.2333325892686844,0.10365422070026398
1788940688347805400,6.211805419921875,0.2653488516807556,0.25878283381462097,0.13183578848838806
1788940688357775400,6.221775390625,0.23040764033794403,0.26508545875549316,0.15740853548049927
1788940688367744500,6.23174462890625,0.19176091253757477,0.24947933852672577,0.17372386157512665
1788940688377714400,6.24171435546875,0.15828391909599304,0.24278095364570618,0.19533726572990417
1788940688387684600,6.2516845703125,0.12981659173965454,0.23634542524814606,0.21384197473526
1788940688397653500,6.261653564453125,0.10320068895816803,0.19480623304843903,0.21433545649051666
1788940688407623400,6.27162353515625,0.06839822977781296,0.11384187638759613,0.18796804547309875
1788940688417592600,6.281592529296875,0.01906716823577881,0.005397428758442402,0.1350473016500473
1788940688427562500,6.2915625,-0.05577697977423668,-0.1167852059006691,0.06481042504310608
1788940688437532400,6.301532470703125,-0.15182015299797058,-0.21911929547786713,-0.011860653758049011
1788940688447501300,6.311501220703125,-0.26486334204673767,-0.2697124481201172,-0.09058582782745361
1788940688457471500,6.321471435546875,-0.3784511685371399,-0.24702683091163635,-0.1785612255334854
1788940688467441700,6.331441650390625,-0.4817914068698883,-0.17073951661586761,-0.24347789585590363
1788940688477410600,6.34141064453125,-0.5697430968284607,-0.04388383403420448,-0.2619282901287079
1788940688487380500,6.35138037109375,-0.6093024611473083,0.11909949034452438,-0.2139011025428772
1788940688497349400,6.361349365234375,-0.5958897471427917,0.2925724685192108,-0.10577969253063202
1788940688507319600,6.371319580078125,-0.5345219969749451,0.4323623478412628,0.0424201600253582
1788940688517289500,6.38128955078125,-0.4780355393886566,0.4893001914024353,0.1658848375082016
1788940688527258400,6.39125830078125,-0.45521971583366394,0.4548697769641876,0.2313394844532013
1788940688537228500,6.401228515625,-0.46758317947387695,0.3095797002315521,0.2257622927427292
1788940688547198500,6.411198486328125,-0.519955575466156,0.08225572109222412,0.14962731301784515
1788940688557167600,6.421167724609375,-0.603864312171936,-0.14997777342796326,0.0240776389837265
1788940688567137500,6.431137451171875,-0.6979058384895325,-0.31592652201652527,-0.11635324358940125
1788940688577106400,6.4411064453125,-0.7771143913269043,-0.362564355134964,-0.22753435373306274
1788940688587076400,6.451076416015625,-0.8299299478530884,-0.2747032046318054,-0.3012959361076355
1788940688597046300,6.46104638671875,-0.8515385389328003,-0.07765724509954453,-0.32995712757110596
1788940688607015400,6.471015380859375,-0.853270947933197,0.15431846678256989,-0.3157068192958832
1788940688616985600,6.480985595703125,-0.8362312316894531,0.34092801809310913,-0.28603947162628174
1788940688626955500,6.49095556640625,-0.7951876521110535,0.40144622325897217,-0.2849411964416504
1788940688636924400,6.50092431640625,-0.7483317255973816,0.37636512517929077,-0.3165646195411682
1788940688646894300,6.510894287109375,-0.714972734451294,0.2914014756679535,-0.3944764733314514
1788940688656863500,6.520863525390625,-0.7209081053733826,0.17315047979354858,-0.5004811882972717
1788940688666833400,6.53083349609375,-0.747706949710846,0.07872996479272842,-0.5614569187164307
1788940688676803600,6.540803466796875,-0.7565992474555969,0.018322015181183815,-0.5506780743598938
1788940688686772500,6.5507724609375,-0.7311413288116455,-0.017973940819501877,-0.4624307453632355
1788940688696742700,6.56074267578125,-0.6690813899040222,-0.010629741474986076,-0.30736419558525085
1788940688706711600,6.570711669921875,-0.5689108371734619,0.053879477083683014,-0.10510405153036118
1788940688716681500,6.580681396484375,-0.4504827558994293,0.10918587446212769,0.08022985607385635
1788940688726651400,6.5906513671875,-0.34518587589263916,0.12399943917989731,0.1960398107767105
1788940688736620500,6.60062060546875,-0.2631954252719879,0.10062035173177719,0.2193203717470169
1788940688746590500,6.610590576171875,-0.2128472924232483,0.036984384059906006,0.1570223718881607
1788940688756560600,6.620560546875,-0.18327873945236206,-0.030356308445334435,0.03701021522283554
1788940688766529500,6.630529541015625,-0.1569209098815918,-0.07469341158866882,-0.09858942031860352
1788940688776499500,6.64049951171875,-0.13647794723510742,-0.09430146962404251,-0.21150612831115723
1788940688786468600,6.650468505859375,-0.0961851254105568,-0.05504593998193741,-0.27344217896461487
1788940688796438500,6.6604384765625,-0.04711797833442688,-0.0017086841398850083,-0.2882869243621826
1788940688806408400,6.670408447265625,0.009906427003443241,0.027288345620036125,-0.2659379243850708
1788940688816377300,6.68037744140625,0.0641973614692688,0.03460591286420822,-0.22695858776569366
1788940688826347500,6.690347412109375,0.10227310657501221,0.02052871137857437,-0.18446944653987885
1788940688836316700,6.700316650390625,0.12530332803726196,-0.004051466938108206,-0.18086113035678864
1788940688846286600,6.71028662109375,0.14952370524406433,-0.037098631262779236,-0.210704505443573
1788940688856256500,6.720256591796875,0.17892900109291077,-0.08041414618492126,-0.2543819546699524
1788940688866225400,6.730225341796875,0.20547698438167572,-0.12131018191576004,-0.27607712149620056
1788940688876195300,6.7401953125,0.2321229875087738,-0.1360747516155243,-0.2685600817203522
1788940688886165500,6.75016552734375,0.26261138916015625,-0.12872841954231262,-0.22374467551708221
1788940688896134400,6.760134521484375,0.3063271641731262,-0.07295383512973785,-0.11360299587249756
1788940688906104600,6.7701044921875,0.3724236488342285,0.06569938361644745,0.05536791682243347
1788940688916073500,6.780073486328125,0.45197412371635437,0.20949995517730713,0.2258128821849823
1788940688926043400,6.79004345703125,0.5214008688926697,0.2762198746204376,0.33667415380477905
1788940688936013600,6.800013671875,0.5428675413131714,0.26537707448005676,0.36542031168937683
1788940688945982500,6.809982421875,0.5314511060714722,0.15662449598312378,0.3237706124782562
1788940688955952400,6.819952392578125,0.4948744475841522,-0.00011957593233091757,0.20444075763225555
1788940688965921300,6.82992138671875,0.43518316745758057,-0.17086975276470184,0.048340633511543274
1788940688975891700,6.8398916015625,0.35878264904022217,-0.28099676966667175,-0.07296768575906754
1788940688985861600,6.849861572265625,0.2980250418186188,-0.30703824758529663,-0.12056289613246918
1788940688995830500,6.85983056640625,0.27276840806007385,-0.2682000398635864,-0.11150815337896347
1788940689005800400,6.869800537109375,0.28110116720199585,-0.19589680433273315,-0.08148527145385742
1788940689015769600,6.87976953125,0.31321409344673157,-0.11519822478294373,-0.05973710119724274
1788940689025739500,6.889739501953125,0.3602372705936432,-0.030880684033036232,-0.06016693264245987
1788940689035709400,6.89970947265625,0.40218818187713623,0.037950046360492706,-0.08285413682460785
1788940689045678300,6.90967822265625,0.41782253980636597,0.09504742175340652,-0.11639079451560974
1788940689055648500,6.9196484375,0.41353005170822144,0.12373818457126617,-0.1382223218679428
1788940689065617700,6.92961767578125,0.40513309836387634,0.12287852168083191,-0.11417051404714584
1788940689075587600,6.939587646484375,0.4014957547187805,0.09716782718896866,-0.04536109045147896
1788940689085557500,6.9495576171875,0.4096788465976715,0.03087322786450386,0.06205937638878822
1788940689095526400,6.9595263671875,0.4334912598133087,-0.04279220476746559,0.19912189245224
1788940689105496300,6.969496337890625,0.4836423099040985,-0.07312054932117462,0.35750967264175415
1788940689115465500,6.979465576171875,0.5517065525054932,-0.07287713885307312,0.4902738332748413
1788940689125435600,6.989435546875,0.594300389289856,-0.06549672037363052,0.5545985102653503
1788940689135405600,6.999405517578125,0.5901508927345276,-0.05842309445142746,0.5464074015617371
1788940689145374500,7.00937451171875,0.5531436204910278,-0.06636650860309601,0.47740277647972107
1788940689155344400,7.019344482421875,0.4878389239311218,-0.08167142421007156,0.3771968185901642
1788940689165313500,7.0293134765625,0.40824979543685913,-0.08069378137588501,0.2744443416595459
1788940689175283500,7.039283447265625,0.32486703991889954,-0.05547710880637169,0.19142402708530426
1788940689185253400,7.04925341796875,0.24500975012779236,-0.021523933857679367,0.14038054645061493
1788940689195222300,7.05922216796875,0.1916368156671524,0.018697787076234818,0.13082511723041534
1788940689205192400,7.0691923828125,0.16081444919109344,0.08104238659143448,0.16610082983970642
1788940689215161600,7.07916162109375,0.14150546491146088,0.13975682854652405,0.23097915947437286
1788940689225131500,7.089131591796875,0.1261126548051834,0.15564419329166412,0.2891995906829834
1788940689235101400,7.099101318359375,0.10714509338140488,0.13740552961826324,0.30297160148620605
1788940689245070300,7.1090703125,0.07381802797317505,0.09545888006687164,0.26681971549987793
1788940689255040500,7.11904052734375,0.03123275376856327,0.03160826116800308,0.18642686307430267
1788940689265009400,7.129009521484375,-0.03154807165265083,-0.03399258852005005,0.07193490862846375
1788940689274979600,7.1389794921875,-0.11676044017076492,-0.07887031137943268,-0.05970221385359764
1788940689284949500,7.148949462890625,-0.20422716438770294,-0.1151747927069664,-0.1917361468076706
1788940689294918700,7.158918701171875,-0.26558825373649597,-0.1256796270608902,-0.3134974539279938
1788940689304888600,7.168888671875,-0.2944886088371277,-0.12447721511125565,-0.42025694251060486
1788940689314857500,7.178857421875,-0.3062310218811035,-0.12352513521909714,-0.4978015422821045
1788940689324827400,7.188827392578125,-0.30371859669685364,-0.13379961252212524,-0.5224099159240723
1788940689334797300,7.19879736328125,-0.2794545590877533,-0.1340145319700241,-0.49336016178131104
1788940689344766500,7.208766357421875,-0.2479056715965271,-0.12769190967082977,-0.41738659143447876
1788940689354736600,7.218736572265625,-0.2248682677745819,-0.12332965433597565,-0.3149488866329193
1788940689364705500,7.22870556640625,-0.2176087498664856,-0.11133770644664764,-0.1987013816833496
1788940689374675500,7.238675537109375,-0.23385483026504517,-0.08702810853719711,-0.09127665311098099
1788940689384645400,7.248645263671875,-0.24864496290683746,-0.03321840614080429,0.0016429040115326643
1788940689394614500,7.258614501953125,-0.2602190673351288,0.041613224893808365,0.07127337902784348
1788940689404584400,7.26858447265625,-0.26524046063423157,0.14250920712947845,0.12920671701431274
1788940689414553300,7.27855322265625,-0.2674359679222107,0.24376951158046722,0.1767614632844925
1788940689424523500,7.2885234375,-0.26968368887901306,0.3091999292373657,0.2080831676721573
1788940689434493400,7.298493408203125,-0.26732170581817627,0.340412974357605,0.2138180136680603
1788940689444462600,7.308462646484375,-0.2776380181312561,0.3330557346343994,0.19148661196231842
1788940689454432500,7.3184326171875,-0.3092622458934784,0.2937341630458832,0.1497061401605606
1788940689464401400,7.3284013671875,-0.35077640414237976,0.22244133055210114,0.10520338267087936
1788940689474371300,7.338371337890625,-0.38905373215675354,0.12205693125724792,0.0694483146071434
1788940689484341500,7.348341552734375,-0.41317158937454224,0.036191027611494064,0.058168232440948486
1788940689494310400,7.358310302734375,-0.3995354175567627,-0.019897541031241417,0.08263948559761047
1788940689504280600,7.368280517578125,-0.35657596588134766,-0.03582244738936424,0.13874056935310364
1788940689514249500,7.37824951171875,-0.3178703784942627,-0.004743622615933418,0.21505984663963318
1788940689524219400,7.388219482421875,-0.2956090271472931,0.016046877950429916,0.25746244192123413
1788940689534189600,7.398189453125,-0.28862354159355164,0.013438044115900993,0.24583187699317932
1788940689544158500,7.408158447265625,-0.28893032670021057,-0.008201736956834793,0.18963678181171417
1788940689554128400,7.41812841796875,-0.298982709646225,-0.028385035693645477,0.10868067294359207
1788940689564097300,7.42809716796875,-0.32872676849365234,-0.047377102077007294,0.008972455747425556
1788940689574067700,7.438067626953125,-0.3651106059551239,-0.08192123472690582,-0.09817343950271606
1788940689584036600,7.44803662109375,-0.4021602272987366,-0.08745847642421722,-0.18996141850948334
1788940689594006500,7.458006591796875,-0.43123263120651245,-0.07658718526363373,-0.2498689591884613
1788940689603976400,7.4679765625,-0.4392324984073639,-0.037213947623968124,-0.2645893096923828
1788940689613945600,7.477945556640625,-0.40302574634552,0.04897819459438324,-0.212609201669693
1788940689623915500,7.48791552734375,-0.33476918935775757,0.14178402721881866,-0.11791971325874329
1788940689633884400,7.497884521484375,-0.25590261816978455,0.19520944356918335,-0.038365498185157776
1788940689643854600,7.5078544921875,-0.19376307725906372,0.19072841107845306,0.005654689855873585
1788940689653824500,7.517824462890625,-0.15933053195476532,0.13817597925662994,0.016652213409543037
1788940689663793700,7.527793701171875,-0.14013154804706573,0.04965516924858093,0.007380152121186256
1788940689673763600,7.537763671875,-0.13186775147914886,-0.028969865292310715,-0.01961870864033699
1788940689683732500,7.547732421875,-0.12734943628311157,-0.08302377909421921,-0.05625448375940323
1788940689693702700,7.55770263671875,-0.11756817251443863,-0.12447614967823029,-0.10535944253206253
1788940689703672600,7.567672607421875,-0.11019627749919891,-0.16380038857460022,-0.1615833044052124
1788940689713641700,7.577641845703125,-0.09783202409744263,-0.20344845950603485,-0.1961548626422882
1788940689723611600,7.587611572265625,-0.07537731528282166,-0.20392276346683502,-0.18977420032024384
1788940689733580500,7.59758056640625,-0.03489060699939728,-0.1587321162223816,-0.14215607941150665
1788940689743550500,7.607550537109375,0.03079865872859955,-0.09612386673688889,-0.07693898677825928
1788940689753519600,7.61751953125,0.09460080415010452,-0.04573126882314682,-0.017227722331881523
1788940689763489500,7.627489501953125,0.13807106018066406,-0.029998911544680595,0.022158564999699593
1788940689773459700,7.637459716796875,0.15961523354053497,-0.061222609132528305,0.034687940031290054
1788940689783428600,7.6474287109375,0.17768557369709015,-0.11664565652608871,0.01395869255065918
1788940689793398500,7.6573984375,0.1960637867450714,-0.1955079734325409,-0.040592167526483536
1788940689803367700,7.66736767578125,0.2168380320072174,-0.26674196124076843,-0.11287941038608551
1788940689813337600,7.677337646484375,0.23226386308670044,-0.2765892446041107,-0.17122314870357513
1788940689823307500,7.6873076171875,0.25157231092453003,-0.23749937117099762,-0.19989021122455597
1788940689833276400,7.6972763671875,0.2790982127189636,-0.1829991191625595,-0.20196640491485596
1788940689843246600,7.70724658203125,0.31574809551239014,-0.1631537675857544,-0.1939050257205963
1788940689853215700,7.7172158203125,0.3501420319080353,-0.18457862734794617,-0.16923217475414276
1788940689863185700,7.727185546875,0.37955185770988464,-0.21224594116210938,-0.12154880166053772
1788940689873154600,7.737154541015625,0.40665778517723083,-0.24669021368026733,-0.06432972103357315
1788940689883124500,7.74712451171875,0.41737619042396545,-0.2884264588356018,-0.01318344660103321
1788940689893094700,7.7570947265625,0.41817063093185425,-0.3204752206802368,0.027159182354807854
1788940689903063600,7.7670634765625,0.4142957031726837,-0.31710419058799744,0.06113765761256218
1788940689913033500,7.777033447265625,0.4180142879486084,-0.28208866715431213,0.09001244604587555
1788940689923002600,7.787002685546875,0.42099621891975403,-0.22859269380569458,0.09877078235149384
1788940689932972500,7.79697265625,0.4222484529018402,-0.15499837696552277,0.10282917320728302
1788940689942942700,7.806942626953125,0.41664010286331177,-0.08874185383319855,0.10683217644691467
1788940689952911600,7.81691162109375,0.39726534485816956,-0.0639832466840744,0.10067334771156311
1788940689962881500,7.826881591796875,0.36532604694366455,-0.06961263716220856,0.07676482200622559
1788940689972850700,7.8368505859375,0.3289152979850769,-0.09456431865692139,0.058046791702508926
1788940689982820600,7.846820556640625,0.2999262511730194,-0.10819198191165924,0.05835917964577675
1788940689992789500,7.85678955078125,0.2811432480812073,-0.08158354461193085,0.09292514622211456
1788940690002759700,7.866759765625,0.27958130836486816,0.00030599720776081085,0.1668395847082138
1788940690012729600,7.8767294921875,0.2858740985393524,0.11468237638473511,0.25980013608932495
1788940690022698800,7.88669873046875,0.29459089040756226,0.2307184338569641,0.3256832957267761
1788940690032668700,7.896668701171875,0.30111217498779297,0.29589131474494934,0.3405173718929291
1788940690042637600,7.906637451171875,0.2934523820877075,0.29171067476272583,0.29900482296943665
1788940690052607500,7.916607421875,0.2655773460865021,0.24198147654533386,0.22135555744171143
1788940690062576600,7.92657666015625,0.2076493352651596,0.17492227256298065,0.13498711585998535
1788940690072546600,7.936546630859375,0.12667405605316162,0.10713151097297668,0.04729267954826355
1788940690082516700,7.946516845703125,0.04024755582213402,0.0634482130408287,-0.02263660356402397
1788940690092485600,7.956485595703125,-0.03808027505874634,0.06985338032245636,-0.06910903006792068
1788940690102455600,7.96645556640625,-0.08959220349788666,0.11875434964895248,-0.09366577118635178
1788940690112424700,7.9764248046875,-0.10988841950893402,0.1903584897518158,-0.11592713743448257
1788940690122394600,7.98639453125,-0.09907891601324081,0.2746845483779907,-0.1301899552345276
1788940690132364500,7.996364501953125,-0.0807419866323471,0.32840850949287415,-0.14283359050750732
1788940690142333400,8.00633349609375,-0.08484085649251938,0.3201388716697693,-0.18070267140865326
1788940690152303600,8.0163037109375,-0.11341843754053116,0.2587394118309021,-0.25382187962532043
1788940690162272800,8.026272705078124,-0.17622323334217072,0.12762081623077393,-0.3515279293060303
1788940690172242700,8.03624267578125,-0.25724589824676514,-0.01636113040149212,-0.4328411817550659
1788940690182211600,8.046211669921876,-0.327709436416626,-0.12595845758914948,-0.44041600823402405
1788940690192181500,8.056181396484375,-0.3899022340774536,-0.13570749759674072,-0.36265143752098083
1788940690202151400,8.0661513671875,-0.41583290696144104,-0.04915183410048485,-0.19444963335990906
1788940690212120600,8.07612060546875,-0.40680158138275146,0.14302586019039154,0.04679546877741814
1788940690222090500,8.086090576171875,-0.3588756024837494,0.3620157241821289,0.3083074986934662
1788940690232059600,8.0960595703125,-0.303088515996933,0.4952006936073303,0.49987345933914185
1788940690242029600,8.106029541015625,-0.2817531228065491,0.5460979342460632,0.5881045460700989
1788940690251998700,8.115998779296875,-0.29559117555618286,0.4960358440876007,0.5648945569992065
1788940690261968600,8.12596875,-0.3324725031852722,0.35365474224090576,0.44226714968681335
1788940690271938600,8.1359384765625,-0.39285778999328613,0.1298924833536148,0.21477994322776794
1788940690281907500,8.145907470703126,-0.4723270535469055,-0.1802680343389511,-0.09664824604988098
1788940690291877600,8.155877685546875,-0.5682511925697327,-0.4479442238807678,-0.4142107665538788
1788940690301846500,8.165846435546875,-0.6527999043464661,-0.6296077370643616,-0.6600093245506287
1788940690311816700,8.175816650390624,-0.7148145437240601,-0.6994441151618958,-0.8062165975570679
1788940690321785600,8.18578564453125,-0.7382716536521912,-0.6559653282165527,-0.7937285304069519
1788940690331755500,8.195755615234376,-0.7132600545883179,-0.47785791754722595,-0.6478291153907776
1788940690341725700,8.2057255859375,-0.6498233079910278,-0.1873493790626526,-0.39122822880744934
1788940690351694600,8.215694580078125,-0.5344804525375366,0.16368666291236877,-0.06710393726825714
1788940690361664500,8.22566455078125,-0.37904345989227295,0.4266818165779114,0.22014115750789642
1788940690371633400,8.23563330078125,-0.24225977063179016,0.5525209903717041,0.3881290853023529
1788940690381603800,8.245603759765626,-0.160588338971138,0.5515619516372681,0.4386833608150482
1788940690391572700,8.25557275390625,-0.14703871309757233,0.47205594182014465,0.4001697897911072
1788940690401542700,8.265542724609375,-0.17491668462753296,0.36561259627342224,0.3118683993816376
1788940690411511600,8.275511474609376,-0.20643679797649384,0.2492353916168213,0.20360532402992249
1788940690421481700,8.285481689453125,-0.24528086185455322,0.12629269063472748,0.09032110869884491
1788940690431451600,8.29545166015625,-0.2820385992527008,0.02762789838016033,0.004282363224774599
1788940690441420500,8.305420654296874,-0.3045292794704437,-0.010838799178600311,-0.027277693152427673
1788940690451390500,8.315390380859375,-0.30164268612861633,-0.0019166769925504923,-0.0008543420699425042
1788940690461359600,8.325359619140626,-0.279550164937973,0.04910789057612419,0.04469556733965874
1788940690471329800,8.335329833984375,-0.2467344105243683,0.09094668179750443,0.07302041351795197
1788940690481298700,8.345298583984375,-0.22864222526550293,0.09640110284090042,0.050406184047460556
1788940690491268600,8.3552685546875,-0.21977736055850983,0.07200735062360764,0.008363923989236355
1788940690501238500,8.365238525390625,-0.21717199683189392,0.05104614049196243,-0.029403695836663246
1788940690511207700,8.375207763671876,-0.2092517614364624,0.043294478207826614,-0.06502853333950043
1788940690521177600,8.385177490234375,-0.19261153042316437,0.04841919615864754,-0.08183600753545761
1788940690531146500,8.395146484375,-0.15718749165534973,0.06349349021911621,-0.07132850587368011
1788940690541116700,8.40511669921875,-0.10506809502840042,0.08762119710445404,-0.05952724069356918
1788940690551085800,8.4150859375,-0.05158436298370361,0.0751141905784607,-0.06740140914916992
1788940690561055700,8.4250556640625,-0.014250840991735458,0.03620674088597298,-0.09991700947284698
1788940690571025700,8.435025634765625,0.008058459497988224,0.0016740630380809307,-0.14856576919555664
1788940690580994600,8.44499462890625,0.029863091185688972,-0.058886218816041946,-0.21568462252616882
1788940690590964500,8.454964599609376,0.04513898119330406,-0.14663231372833252,-0.2916867136955261
1788940690600933600,8.46493359375,0.04884983226656914,-0.2558203339576721,-0.38442277908325195
1788940690610903600,8.474903564453125,0.04465428739786148,-0.3708025813102722,-0.49687182903289795
1788940690620872400,8.48487255859375,0.033959563821554184,-0.45493102073669434,-0.5877947807312012
1788940690630842600,8.494842529296875,0.03422694653272629,-0.4786968231201172,-0.6085389852523804
1788940690640811300,8.504811279296876,0.07498316466808319,-0.4004456698894501,-0.5283615589141846
1788940690650781200,8.51478125,0.149021178483963,-0.23592863976955414,-0.36568185687065125
1788940690660751400,8.52475146484375,0.25472575426101685,-0.02305471897125244,-0.1500624716281891
1788940690670720300,8.53472021484375,0.3688046634197235,0.12653504312038422,0.05227598920464516
1788940690680690200,8.544690185546875,0.4383603036403656,0.1548801213502884,0.16427549719810486
1788940690690659300,8.554659423828125,0.47965821623802185,0.0927288681268692,0.2158193737268448
1788940690700629200,8.564629150390624,0.5019930601119995,-0.019961457699537277,0.22147352993488312
1788940690710598100,8.57459814453125,0.5190833806991577,-0.1238550990819931,0.20489296317100525
1788940690720568000,8.584568115234376,0.5394387245178223,-0.19870802760124207,0.1801585853099823
1788940690730538500,8.59453857421875,0.5484596490859985,-0.2413841187953949,0.1585259884595871
1788940690740507400,8.60450732421875,0.5475863814353943,-0.26348409056663513,0.15872547030448914
1788940690750477300,8.614477294921874,0.5453892946243286,-0.28126761317253113,0.19610026478767395
1788940690760446200,8.6244462890625,0.5448688864707947,-0.2779669165611267,0.2757498323917389
1788940690770416400,8.63441650390625,0.5347715020179749,-0.2126254439353943,0.4022989869117737
1788940690780385300,8.64438525390625,0.5199052095413208,-0.09040499478578568,0.5396072864532471
1788940690790355200,8.654355224609375,0.5145317912101746,0.02370160073041916,0.6293795108795166
1788940690800324000,8.664323974609376,0.5079537630081177,0.10490430891513824,0.651012659072876
1788940690810294300,8.674294189453125,0.5002191662788391,0.15935903787612915,0.6187465786933899
1788940690820264400,8.684264404296876,0.4677578806877136,0.1504366397857666,0.5341512560844421
1788940690830233300,8.6942333984375,0.41132548451423645,0.09517418593168259,0.4217933118343353
1788940690840203300,8.704203369140625,0.35327762365341187,0.030235666781663895,0.32104673981666565
1788940690850172200,8.714172119140626,0.3200536370277405,0.0015124091878533363,0.285384863615036
1788940690860142300,8.724142333984375,0.3069540858268738,0.0029862024821341038,0.2922004461288452
1788940690870111200,8.734111328125,0.29850172996520996,0.008669122122228146,0.29781171679496765
1788940690880081200,8.7440810546875,0.2821155786514282,-0.001829591696150601,0.2840231955051422
1788940690890050000,8.754050048828125,0.2545417249202728,-0.03347806632518768,0.24995897710323334
1788940690900020500,8.7640205078125,0.20084868371486664,-0.07153383642435074,0.19029323756694794
1788940690909990400,8.773990478515625,0.1304600089788437,-0.11434228718280792,0.12448733299970627
1788940690919959300,8.783959228515625,0.058766644448041916,-0.126723051071167,0.06111768260598183
1788940690929929200,8.79392919921875,-0.000333161442540586,-0.08924971520900726,0.017971010878682137
1788940690939898400,8.8038984375,-0.04001506045460701,-0.006243514828383923,-0.023428360000252724
1788940690949868300,8.813868408203126,-0.0587911456823349,0.0828368291258812,-0.059418052434921265
1788940690959837200,8.823837158203125,-0.050518035888671875,0.13621322810649872,-0.09082071483135223
1788940690969807400,8.833807373046875,-0.0329853817820549,0.15864476561546326,-0.11522325873374939
1788940690979776300,8.8437763671875,-0.007649930194020271,0.16465899348258972,-0.11225143820047379
1788940690989746400,8.853746337890625,-0.0014532869681715965,0.14792288839817047,-0.09221887588500977
1788940690999716400,8.86371630859375,-0.026200445368885994,0.09413395822048187,-0.08775994926691055
1788940691009685200,8.873685302734375,-0.07716695964336395,0.020171048119664192,-0.10205099731683731
1788940691019655200,8.8836552734375,-0.12083560973405838,-0.015409582294523716,-0.11301949620246887
1788940691029624300,8.893624267578126,-0.14607492089271545,-0.03182397410273552,-0.13205550611019135
1788940691039594200,8.90359423828125,-0.15648388862609863,0.023332219570875168,-0.14894607663154602
1788940691049563100,8.913563232421875,-0.1402905285358429,0.14319364726543427,-0.12011042982339859
1788940691059533300,8.923533203125,-0.10207150876522064,0.27782124280929565,-0.06073338910937309
1788940691069502500,8.93350244140625,-0.07190960645675659,0.3552316129207611,-0.0126380305737257
1788940691079472400,8.943472412109376,-0.07395358383655548,0.3420249819755554,-0.007305849809199572
1788940691089441300,8.953441162109375,-0.08676072955131531,0.23857103288173676,-0.0304561760276556
1788940691099411200,8.9634111328125,-0.12013386189937592,0.05531651899218559,-0.09355338662862778
1788940691109381000,8.973381103515624,-0.16213510930538177,-0.1556045114994049,-0.177528977394104
1788940691119350300,8.983350341796875,-0.2161663919687271,-0.36269670724868774,-0.2898472547531128
1788940691129320400,8.993320556640626,-0.3046693503856659,-0.5430672764778137,-0.4411720633506775
1788940691139289300,9.003289306640625,-0.41461557149887085,-0.6827998757362366,-0.6260601878166199
1788940691149259300,9.01325927734375,-0.5296798348426819,-0.7500532269477844,-0.8162708282470703
1788940691159228400,9.023228515625,-0.6366710066795349,-0.7261515855789185,-0.9579518437385559
1788940691169198300,9.0331982421875,-0.7053989171981812,-0.5731937289237976,-0.9949484467506409
1788940691179167200,9.043167236328125,-0.7166129946708679,-0.296330988407135,-0.8973580002784729
1788940691189137200,9.05313720703125,-0.6720566749572754,0.040645964443683624,-0.6985660791397095
1788940691199106300,9.063106201171875,-0.5786671042442322,0.3392640948295593,-0.43852168321609497
1788940691209076200,9.073076171875,-0.4693230092525482,0.5219454765319824,-0.1833871304988861
1788940691219046400,9.08304638671875,-0.3890790343284607,0.5795184969902039,0.014036190696060658
1788940691229015300,9.093015380859375,-0.3632916510105133,0.4991389811038971,0.12317945808172226
1788940691238985200,9.102985107421874,-0.3876819610595703,0.35523346066474915,0.1796315461397171
1788940691248954400,9.112954345703125,-0.4346467852592468,0.2057475745677948,0.22324027121067047
1788940691258924300,9.12292431640625,-0.4751816987991333,0.09645037353038788,0.28547167778015137
1788940691268893200,9.13289306640625,-0.47826483845710754,0.042875826358795166,0.37590864300727844
1788940691278863000,9.142863037109375,-0.42398136854171753,0.06295020133256912,0.5185360908508301
1788940691288832300,9.152832275390624,-0.3371700346469879,0.11525441706180573,0.6712633371353149
1788940691298802400,9.162802490234375,-0.27194496989250183,0.15856008231639862,0.7703350782394409
1788940691308771300,9.172771240234376,-0.24711205065250397,0.155917689204216,0.7935119867324829
1788940691318741200,9.1827412109375,-0.2582925260066986,0.11500781029462814,0.7521922588348389
1788940691328711200,9.192711181640625,-0.3013435900211334,0.03838733583688736,0.6639550924301147
1788940691338680300,9.202680419921874,-0.3574276268482208,-0.03127562999725342,0.5460103154182434
1788940691348650200,9.212650146484375,-0.40389102697372437,-0.06710739433765411,0.4285968840122223
1788940691358619100,9.222619140625,-0.43683138489723206,-0.0808037668466568,0.3185103237628937
1788940691368589000,9.232589111328124,-0.4472123980522156,-0.08128926157951355,0.21142302453517914
1788940691378558200,9.24255810546875,-0.4356212317943573,-0.09254937618970871,0.1264711171388626
1788940691388528400,9.2525283203125,-0.38643398880958557,-0.0891069695353508,0.09636382013559341
1788940691398497300,9.262497314453125,-0.3012349307537079,-0.06639473885297775,0.1356654167175293
1788940691408467200,9.27246728515625,-0.19247198104858398,-0.019090870395302773,0.21594880521297455
1788940691418436400,9.282436279296874,-0.09573052078485489,0.01506736595183611,0.30144694447517395
1788940691428406300,9.29240625,-0.043895553797483444,-0.004595017991960049,0.333463191986084
1788940691438375200,9.302375244140626,-0.046733416616916656,-0.11702196300029755,0.26972973346710205
1788940691448345000,9.312344970703125,-0.0901075229048729,-0.3262002170085907,0.1057506650686264
1788940691458315300,9.322315185546875,-0.1707616150379181,-0.5843595862388611,-0.12503941357135773
1788940691468284400,9.332284423828124,-0.26968473196029663,-0.8059247136116028,-0.3594095706939697
1788940691478254300,9.34225439453125,-0.32781729102134705,-0.92799311876297,-0.5397796034812927
1788940691488223200,9.35222314453125,-0.32463958859443665,-0.8988906145095825,-0.6023215651512146
1788940691498193200,9.362193115234374,-0.26509636640548706,-0.7137439250946045,-0.5247253179550171
1788940691508162300,9.372162353515625,-0.11813675612211227,-0.3921786844730377,-0.3223796486854553
1788940691518132200,9.38213232421875,0.08388610929250717,-0.012541624717414379,-0.057199105620384216
1788940691528101000,9.39210107421875,0.30745822191238403,0.26961684226989746,0.169814333319664
1788940691538071000,9.402071044921875,0.46370959281921387,0.40346065163612366,0.29374587535858154
1788940691548040200,9.412040283203124,0.5334527492523193,0.38479161262512207,0.28239306807518005
1788940691558010400,9.42201025390625,0.5342831015586853,0.2701782286167145,0.17092753946781158
1788940691567979300,9.431979248046876,0.5023995041847229,0.09706396609544754,0.008013717830181122
1788940691577949200,9.44194921875,0.4799945652484894,-0.11058936268091202,-0.1658155918121338
1788940691587919400,9.45191943359375,0.4802984297275543,-0.29481804370880127,-0.3037438988685608
1788940691597888300,9.46188818359375,0.4953271746635437,-0.41135212779045105,-0.3504349887371063
1788940691607858200,9.471858154296875,0.5134167075157166,-0.45160073041915894,-0.29282495379447937
1788940691617827000,9.4818271484375,0.537139892578125,-0.39576491713523865,-0.13163073360919952
1788940691627797200,9.49179736328125,0.5866754651069641,-0.2187051773071289,0.10826601833105087
1788940691637766400,9.501766357421875,0.6651194095611572,-0.02943405508995056,0.3403509259223938
1788940691647736600,9.511736572265624,0.7256368398666382,0.05098169296979904,0.46113139390945435
1788940691657705500,9.52170556640625,0.7289053201675415,0.06423917412757874,0.44563740491867065
1788940691667675400,9.53167529296875,0.6842910051345825,0.01050350721925497,0.3207918703556061
1788940691677644500,9.54164453125,0.6001795530319214,-0.0464700311422348,0.132249653339386
1788940691687614500,9.551614501953125,0.5049545168876648,-0.07561513036489487,-0.05068155378103256
1788940691697583400,9.561583251953126,0.41515591740608215,-0.07654058188199997,-0.19453299045562744
1788940691707553300,9.57155322265625,0.36109453439712524,-0.06801606714725494,-0.2807970345020294
1788940691717522400,9.5815224609375,0.33145782351493835,-0.08100643754005432,-0.3173973858356476
1788940691727492600,9.59149267578125,0.3186805248260498,-0.09568018466234207,-0.29345184564590454
1788940691737461500,9.60146142578125,0.31984376907348633,-0.10083979368209839,-0.19496123492717743
1788940691747431400,9.611431396484376,0.33308422565460205,-0.06465303152799606,-0.05248451232910156
1788940691757401300,9.6214013671875,0.3399336040019989,0.029953105375170708,0.12197357416152954
1788940691767370500,9.63137060546875,0.3395080268383026,0.1688646525144577,0.30940765142440796
1788940691777340400,9.64134033203125,0.32488539814949036,0.318636029958725,0.47642967104911804
1788940691787309300,9.651309326171875,0.2929471731185913,0.4201887547969818,0.5775717496871948
1788940691797279200,9.661279296875,0.2775288224220276,0.5057327151298523,0.6177763938903809
1788940691807248600,9.67124853515625,0.2800005078315735,0.5332726836204529,0.5871686935424805
1788940691817218600,9.681218505859375,0.2809427082538605,0.5290896892547607,0.5087692141532898
1788940691827187500,9.6911875,0.2808218002319336,0.4718724489212036,0.3836696445941925
1788940691837157400,9.701157470703125,0.2578560411930084,0.3429515063762665,0.2197970747947693
1788940691847126500,9.71112646484375,0.20825600624084473,0.18608784675598145,0.04747563973069191
1788940691857096400,9.721096435546874,0.14832448959350586,0.03003406524658203,-0.10407047718763351
1788940691867065300,9.7310654296875,0.09136293828487396,-0.08891788870096207,-0.20470814406871796
1788940691877035300,9.74103515625,0.03563735634088516,-0.18560181558132172,-0.27231326699256897
1788940691887004400,9.75100439453125,-0.014135526493191719,-0.24477486312389374,-0.3155134916305542
1788940691896974600,9.760974609375,-0.055868856608867645,-0.24939703941345215,-0.3390768766403198
1788940691906944500,9.770944580078124,-0.09396537393331528,-0.22097179293632507,-0.3594295382499695
1788940691916913400,9.780913330078125,-0.14964941143989563,-0.19503633677959442,-0.39500510692596436
1788940691926882600,9.790882568359375,-0.2184188961982727,-0.20271475613117218,-0.45126280188560486
1788940691936852500,9.8008525390625,-0.2744118571281433,-0.23205693066120148,-0.5210211277008057
1788940691946821400,9.8108212890625,-0.3143254518508911,-0.27469921112060547,-0.5878150463104248
1788940691956791300,9.820791259765626,-0.34370145201683044,-0.3274676203727722,-0.6420109272003174
1788940691966760400,9.830760498046875,-0.3725157678127289,-0.4052199423313141,-0.6525170803070068
1788940691976730600,9.840730712890625,-0.384983628988266,-0.450282484292984,-0.586982011795044
1788940691986699500,9.850699462890624,-0.37918221950531006,-0.423866331577301,-0.4338419735431671
1788940691996669400,9.86066943359375,-0.35863086581230164,-0.31618380546569824,-0.2185371369123459
1788940692006638600,9.870638671875,-0.33278888463974,-0.17619048058986664,0.0037976677995175123
1788940692016608500,9.8806083984375,-0.32040145993232727,-0.038063228130340576,0.16024160385131836
1788940692026577400,9.890577392578125,-0.3437991738319397,0.04953612759709358,0.21380256116390228
1788940692036547300,9.90054736328125,-0.3740055561065674,0.131971076130867,0.19399955868721008
1788940692046517200,9.910517333984375,-0.3920929431915283,0.15796886384487152,0.12065477669239044
1788940692056486400,9.920486328125,-0.4148150384426117,0.13964231312274933,0.01338691171258688
1788940692066456600,9.93045654296875,-0.4507378935813904,0.10905831307172775,-0.0873894989490509
1788940692076425500,9.940425537109375,-0.49369627237319946,0.08311326056718826,-0.1444389373064041
1788940692086395400,9.9503955078125,-0.5350884199142456,0.07619942724704742,-0.14803606271743774
1788940692096364500,9.960364501953125,-0.5591703653335571,0.07622019946575165,-0.1093834787607193
1788940692106334500,9.97033447265625,-0.5689542889595032,0.06570044904947281,-0.06155151128768921
1788940692116303400,9.980303466796874,-0.5762023329734802,0.0441802442073822,-0.017680194228887558
1788940692126273300,9.990273193359375,-0.5776902437210083,0.021471470594406128,-0.000803209375590086
1788940692136242400,10.000242431640626,-0.5794020891189575,0.02058463729918003,0.0010221211705356836
1788940692146212600,10.010212646484375,-0.5839004516601562,0.030780550092458725,-0.008695486932992935
1788940692156181500,10.020181396484375,-0.5922853946685791,0.02714267186820507,-0.05095133185386658
1788940692166151400,10.0301513671875,-0.6067602634429932,0.007202785462141037,-0.1182161197066307
1788940692176120600,10.04012060546875,-0.6163673400878906,0.00723527604714036,-0.17965658009052277
1788940692186090500,10.050090576171876,-0.6087813377380371,0.023999875411391258,-0.2101857215166092
1788940692196059400,10.060059326171874,-0.5725159645080566,0.08357878029346466,-0.17299628257751465
1788940692206029300,10.070029296875,-0.4876210689544678,0.17742644250392914,-0.07312454283237457
1788940692215999500,10.07999951171875,-0.3680137097835541,0.25519368052482605,0.046910785138607025
1788940692225968400,10.089968505859375,-0.23928821086883545,0.304327130317688,0.16505099833011627
1788940692235938600,10.0999384765625,-0.13606196641921997,0.29142946004867554,0.2575385868549347
1788940692245907500,10.109907470703124,-0.0753440260887146,0.23955772817134857,0.3137536644935608
1788940692255877400,10.11987744140625,-0.0265439935028553,0.15350939333438873,0.31662988662719727
1788940692265846500,10.129846435546876,0.021710887551307678,0.07378660887479782,0.27101632952690125
1788940692275816400,10.13981640625,0.06876441836357117,0.01281779445707798,0.20456166565418243
1788940692285785300,10.149785400390625,0.11352789402008057,-0.030192790552973747,0.11946194618940353
1788940692295755300,10.15975537109375,0.1542540192604065,-0.077788807451725,0.019119365140795708
1788940692305724400,10.169724365234375,0.188343808054924,-0.13590431213378906,-0.09001138061285019
1788940692315694600,10.179694580078126,0.21801967918872833,-0.19932802021503448,-0.20631881058216095
1788940692325663500,10.18966357421875,0.2304965853691101,-0.24741165339946747,-0.316353976726532
1788940692335633400,10.19963330078125,0.23551692068576813,-0.2706506550312042,-0.40079614520072937
1788940692345603600,10.209603515625,0.23922030627727509,-0.26279035210609436,-0.44817113876342773
1788940692355572500,10.219572509765625,0.25312119722366333,-0.2352527230978012,-0.4788488745689392
1788940692365542400,10.22954248046875,0.28273263573646545,-0.22518038749694824,-0.5125442743301392
1788940692375511300,10.23951123046875,0.3252774178981781,-0.2516506016254425,-0.5454212427139282
1788940692385481500,10.2494814453125,0.3611544668674469,-0.3125898540019989,-0.5777464509010315
1788940692395450600,10.25945068359375,0.3939899206161499,-0.3830331265926361,-0.5984450578689575
1788940692405420500,10.269420654296875,0.43871742486953735,-0.44045329093933105,-0.5799067616462708
1788940692415389400,10.279389404296875,0.4960568845272064,-0.45368492603302,-0.5110821723937988
1788940692425359400,10.289359375,0.5757881999015808,-0.42242369055747986,-0.37975719571113586
1788940692435328500,10.29932861328125,0.656313955783844,-0.33476361632347107,-0.20125934481620789
1788940692445298400,10.30929833984375,0.7327091097831726,-0.1811934858560562,0.009947705082595348
1788940692455267300,10.319267333984374,0.8034543991088867,-0.022758042439818382,0.1966605931520462
1788940692465237500,10.329237548828125,0.8462018370628357,0.09197519719600677,0.31905069947242737
1788940692475206400,10.339206298828126,0.8580752611160278,0.1893576830625534,0.39229241013526917
1788940692485176600,10.349176513671875,0.8610960841178894,0.2518647313117981,0.432168185710907
1788940692495145500,10.3591455078125,0.8403903245925903,0.25822436809539795,0.4420975148677826
1788940692505115400,10.369115478515624,0.801862895488739,0.214757040143013,0.420057475566864
1788940692515084500,10.37908447265625,0.7423670887947083,0.12071976065635681,0.3814227283000946
1788940692525054500,10.389054443359376,0.6547325849533081,-0.007197459228336811,0.3237466514110565
1788940692535024400,10.3990244140625,0.553052544593811,-0.13827718794345856,0.2639980912208557
1788940692544993300,10.4089931640625,0.440310001373291,-0.23805996775627136,0.19491249322891235
1788940692554963700,10.418963623046874,0.34397974610328674,-0.28958094120025635,0.1316152811050415
1788940692564932600,10.4289326171875,0.27191033959388733,-0.2821677625179291,0.07943250983953476
1788940692574902500,10.438902587890626,0.21639035642147064,-0.2654170095920563,0.02606196142733097
1788940692584871400,10.448871337890624,0.1604466587305069,-0.2506340742111206,-0.03736601397395134
1788940692594841600,10.458841552734375,0.10169467329978943,-0.22480808198451996,-0.08057446777820587
1788940692604810500,10.468810546875,0.04608573764562607,-0.1500672549009323,-0.0710454136133194
1788940692614780400,10.478780517578125,0.00917645450681448,-0.01709589548408985,0.0062523032538592815
1788940692624749300,10.488749267578125,0.009089901112020016,0.1702074110507965,0.13732457160949707
1788940692634719500,10.498719482421874,0.0526600144803524,0.332907110452652,0.29395943880081177
1788940692644688600,10.508688720703125,0.10854458808898926,0.3923227787017822,0.41587895154953003
1788940692654658600,10.518658447265626,0.13573679327964783,0.391706258058548,0.4851054549217224
1788940692664627500,10.52862744140625,0.12571051716804504,0.30335748195648193,0.4804081618785858
1788940692674597400,10.538597412109375,0.10081742703914642,0.18249444663524628,0.40746018290519714
1788940692684566500,10.54856640625,0.06313183158636093,0.08398651331663132,0.3094334900379181
1788940692694536400,10.558536376953125,0.012799152173101902,0.04975796863436699,0.21868866682052612
1788940692704505300,10.56850537109375,-0.032278310507535934,0.06531748920679092,0.14501871168613434
1788940692714475500,10.5784755859375,-0.07028508186340332,0.10393358767032623,0.09063775837421417
1788940692724444700,10.588444580078125,-0.10976644605398178,0.1327492594718933,0.05297053977847099
1788940692734414600,10.59841455078125,-0.1527450680732727,0.1592668890953064,0.021392373368144035
1788940692744383500,10.608383544921875,-0.19531835615634918,0.1749747395515442,-0.01371980644762516
1788940692754353400,10.618353515625,-0.24453411996364594,0.18089868128299713,-0.055200669914484024
1788940692764323600,10.628323486328124,-0.28942275047302246,0.19148127734661102,-0.08860044181346893
1788940692774292500,10.63829248046875,-0.3225655257701874,0.20331290364265442,-0.10877521336078644
1788940692784262400,10.648262451171876,-0.3599110245704651,0.20023775100708008,-0.1269262582063675
1788940692794231300,10.658231201171875,-0.3916045129299164,0.17693296074867249,-0.13362783193588257
1788940692804201700,10.66820166015625,-0.4077105224132538,0.14376302063465118,-0.1072513535618782
1788940692814170600,10.678170654296874,-0.40421006083488464,0.11758308857679367,-0.05907077714800835
1788940692824140500,10.688140625,-0.38488030433654785,0.11906380951404572,0.01007820013910532
1788940692834109400,10.698109375,-0.3710009753704071,0.13546834886074066,0.06889304518699646
1788940692844079600,10.70807958984375,-0.36983636021614075,0.126011461019516,0.07295995950698853
1788940692854048500,10.718048583984375,-0.3862917721271515,0.1034100130200386,0.027279024943709373
1788940692864018400,10.728018310546876,-0.41391488909721375,0.10031808167695999,-0.036200348287820816
1788940692873987300,10.7379873046875,-0.4421955347061157,0.11653939634561539,-0.09848529100418091
1788940692883957500,10.74795751953125,-0.46957868337631226,0.1178739070892334,-0.15710227191448212
1788940692893926700,10.7579267578125,-0.49646809697151184,0.1080297976732254,-0.20157119631767273
1788940692903896600,10.767896484375,-0.5119320154190063,0.10276871919631958,-0.2123868316411972
1788940692913865500,10.777865478515626,-0.5072477459907532,0.09228252619504929,-0.19420409202575684
1788940692923835400,10.78783544921875,-0.48980993032455444,0.07049600034952164,-0.16382674872875214
1788940692933804500,10.797804443359375,-0.46715494990348816,0.0412270650267601,-0.12784051895141602
1788940692943774500,10.8077744140625,-0.4388900101184845,0.001745968358591199,-0.1017569899559021
1788940692953743400,10.817743408203125,-0.4292967617511749,-0.05164481699466705,-0.10080836713314056
1788940692963713300,10.82771337890625,-0.4198459982872009,-0.11520275473594666,-0.1285257488489151
1788940692973682400,10.837682373046874,-0.41894346475601196,-0.18121320009231567,-0.1770583987236023
1788940692983652600,10.847652587890625,-0.42453476786613464,-0.21692591905593872,-0.23808953166007996
1788940692993621500,10.85762158203125,-0.4150605797767639,-0.20301702618598938,-0.2721377909183502
1788940693003591400,10.86759130859375,-0.39923474192619324,-0.15372298657894135,-0.2635331153869629
1788940693013560600,10.877560546875,-0.3754945397377014,-0.0896017849445343,-0.2128845751285553
1788940693023530500,10.887530517578124,-0.3260079324245453,-0.016565926373004913,-0.112515889108181
1788940693033499400,10.89749951171875,-0.2549055218696594,0.049486059695482254,0.02804734744131565
1788940693043469300,10.90746923828125,-0.1788424551486969,0.08277237415313721,0.16496525704860687
1788940693053438500,10.9174384765625,-0.12991006672382355,0.06340374052524567,0.2631235122680664
1788940693063408600,10.92740869140625,-0.11098510771989822,0.029560821130871773,0.3179031312465668
1788940693073377500,10.93737744140625,-0.11785393208265305,-0.021616345271468163,0.31917959451675415
1788940693083347500,10.947347412109375,-0.13250797986984253,-0.0638735219836235,0.2823278307914734
1788940693093316600,10.957316650390625,-0.14717693626880646,-0.08623315393924713,0.2285120040178299
1788940693103286500,10.96728662109375,-0.16032229363918304,-0.08363151550292969,0.170485720038414
1788940693113255400,10.97725537109375,-0.16626328229904175,-0.07017482817173004,0.11637721210718155
1788940693123225300,10.987225341796876,-0.16352954506874084,-0.04878591373562813,0.060629259794950485
1788940693133194500,10.997194580078125,-0.15568439662456512,-0.05318092927336693,-0.0071164988912642
1788940693143164700,11.00716455078125,-0.15355120599269867,-0.06614653021097183,-0.07661674916744232
1788940693153133600,11.017133544921874,-0.14080744981765747,-0.04269979149103165,-0.14142955839633942
1788940693163103500,11.027103515625,-0.12204627692699432,-0.011457451619207859,-0.20251156389713287
1788940693173072600,11.03707275390625,-0.11772317439317703,0.04410887137055397,-0.2321312427520752
1788940693183042600,11.04704248046875,-0.09837610274553299,0.0952460914850235,-0.23869353532791138
1788940693193011500,11.057011474609375,-0.060856159776449203,0.11655031144618988,-0.23780110478401184
1788940693202981400,11.0669814453125,-0.007010771427303553,0.09363195300102234,-0.24214233458042145
1788940693212950500,11.076950439453125,0.04637601971626282,0.03269189968705177,-0.2632127106189728
1788940693222920400,11.08692041015625,0.08783797919750214,-0.0555892251431942,-0.3110196590423584
1788940693232889300,11.096889404296874,0.12878753244876862,-0.1224265769124031,-0.3595277965068817
1788940693242859500,11.106859619140625,0.160903662443161,-0.1499178558588028,-0.3990432620048523
1788940693252829400,11.116829345703126,0.1907971203327179,-0.14225886762142181,-0.43667131662368774
1788940693262798600,11.126798583984375,0.2198798954486847,-0.11817724257707596,-0.4661006033420563
1788940693272767500,11.136767578125,0.2518295645713806,-0.06687996536493301,-0.4615204930305481
1788940693282737400,11.1467373046875,0.3062579333782196,-0.00022370553051587194,-0.4006156027317047
1788940693292706600,11.15670654296875,0.37565723061561584,0.0825960785150528,-0.2947240471839905
1788940693302676500,11.166676513671876,0.4456813335418701,0.13340599834918976,-0.1800302267074585
1788940693312645400,11.176645263671874,0.49689364433288574,0.11693274229764938,-0.1004863902926445
1788940693322615600,11.186615478515625,0.5243908166885376,0.06217868626117706,-0.06488259136676788
1788940693332584700,11.196584716796876,0.5279855132102966,-0.005134840961545706,-0.06631830334663391
1788940693342554600,11.2065546875,0.5318841338157654,-0.07669664174318314,-0.10347579419612885
1788940693352523500,11.2165234375,0.5538216829299927,-0.12836863100528717,-0.15629532933235168
1788940693362493400,11.226493408203124,0.5884866714477539,-0.16563770174980164,-0.19536283612251282
1788940693372462600,11.236462646484375,0.6293368935585022,-0.16498921811580658,-0.19906435906887054
1788940693382432500,11.2464326171875,0.6748146414756775,-0.14243118464946747,-0.1635284721851349
1788940693392401400,11.2564013671875,0.7071848511695862,-0.13492266833782196,-0.10201025754213333
1788940693402371300,11.266371337890625,0.7161490321159363,-0.15138046443462372,-0.030904119834303856
1788940693412340500,11.276340576171876,0.6994118690490723,-0.15663860738277435,0.044917941093444824
1788940693422310700,11.286310546875,0.6722148656845093,-0.15152508020401,0.11035607010126114
1788940693432279600,11.296279541015625,0.6466173529624939,-0.14030012488365173,0.15622928738594055
1788940693442249500,11.30624951171875,0.6265147924423218,-0.13375140726566315,0.18026617169380188
1788940693452218600,11.316218505859375,0.6108362078666687,-0.11335079371929169,0.19028711318969727
1788940693462188500,11.3261884765625,0.6023332476615906,-0.07972145825624466,0.18264810740947723
1788940693472157400,11.336157470703125,0.6001604199409485,-0.04529104754328728,0.18315570056438446
1788940693482127400,11.34612744140625,0.5932335257530212,0.015848737210035324,0.19486403465270996
1788940693492096500,11.356096435546876,0.5780463218688965,0.0505627766251564,0.21356074512004852
1788940693502066700,11.366066650390625,0.5733979940414429,0.08339768648147583,0.26478666067123413
1788940693512035600,11.37603564453125,0.5647875070571899,0.0999111533164978,0.3308762013912201
1788940693522005500,11.386005615234374,0.5347284078598022,0.10058439522981644,0.3980799913406372
1788940693531974700,11.395974609375,0.48844823241233826,0.10013538599014282,0.4589609205722809
1788940693541944600,11.405944580078126,0.43027761578559875,0.10323770344257355,0.49735012650489807
1788940693551913500,11.41591357421875,0.37759920954704285,0.12699469923973083,0.5196745991706848
1788940693561883400,11.42588330078125,0.33917221426963806,0.15317091345787048,0.5072045922279358
1788940693571852500,11.4358525390625,0.2982886731624603,0.17098745703697205,0.4533102214336395
1788940693581822700,11.44582275390625,0.2513110637664795,0.1533253788948059,0.3664783835411072
1788940693591791600,11.45579150390625,0.20015093684196472,0.09157146513462067,0.26372671127319336
1788940693601761500,11.465761474609375,0.12196798622608185,0.03527729585766792,0.1612759679555893
1788940693611730700,11.475730712890625,0.03846456855535507,-0.008784170262515545,0.06946083158254623
1788940693621700600,11.48570068359375,-0.035600606352090836,-0.03169481083750725,0.008460862562060356
1788940693631669500,11.49566943359375,-0.10030529648065567,-0.01906530372798443,-0.016946226358413696
1788940693641640000,11.505639892578126,-0.15660957992076874,-0.0029148298781365156,-0.027219103649258614
1788940693651608800,11.51560888671875,-0.19984599947929382,0.0248401015996933,-0.02269306220114231
1788940693661579000,11.5255791015625,-0.22974158823490143,0.07124648243188858,0.01666366495192051
1788940693671548000,11.5355478515625,-0.2539995312690735,0.13974644243717194,0.08780655264854431
1788940693681518000,11.54551806640625,-0.2868935465812683,0.20736996829509735,0.1653471440076828
1788940693691487000,11.555487060546875,-0.33927419781684875,0.24361185729503632,0.2110363394021988
1788940693701457000,11.565456787109374,-0.3957481384277344,0.22689786553382874,0.21510031819343567
1788940693711426000,11.575426025390625,-0.444307416677475,0.19376440346240997,0.1852196604013443
1788940693721396000,11.58539599609375,-0.4721483588218689,0.15561382472515106,0.13524916768074036
1788940693731364900,11.59536474609375,-0.4865419566631317,0.1240798681974411,0.07755471020936966
1788940693741335000,11.6053349609375,-0.49331942200660706,0.0920385792851448,0.01757606491446495
1788940693751304000,11.615303955078126,-0.5045909881591797,0.0622151717543602,-0.03430497646331787
1788940693761273900,11.62527392578125,-0.5193225145339966,0.03385703265666962,-0.08295107632875443
1788940693771242800,11.63524267578125,-0.5363540053367615,-0.011404188349843025,-0.14099706709384918
1788940693781213000,11.645212890625,-0.5531548261642456,-0.08050762861967087,-0.2027941197156906
1788940693791182000,11.65518212890625,-0.5606247186660767,-0.12516990303993225,-0.23876383900642395
1788940693801152000,11.665152099609376,-0.5510882139205933,-0.13936960697174072,-0.2485424429178238
1788940693811121000,11.675120849609375,-0.5392032861709595,-0.1398620307445526,-0.2612973749637604
1788940693821090800,11.6850908203125,-0.5293477177619934,-0.12205719947814941,-0.27867797017097473
1788940693831060000,11.69506005859375,-0.5213997960090637,-0.10969001054763794,-0.28772446513175964
1788940693841028900,11.70502880859375,-0.5153019428253174,-0.08627523481845856,-0.2812652289867401
1788940693850998800,11.714998779296875,-0.5004857182502747,-0.05829739570617676,-0.249818354845047
1788940693860968000,11.724968017578124,-0.46908146142959595,-0.017731325700879097,-0.17295660078525543
1788940693870938000,11.734938232421875,-0.4240335524082184,0.019165173172950745,-0.06312517076730728
1788940693880907000,11.744906982421876,-0.3715367913246155,0.015052719041705132,0.05837941914796829
1788940693890877000,11.754876953125,-0.33002105355262756,-0.033065542578697205,0.15312376618385315
1788940693900846000,11.76484619140625,-0.3061612546443939,-0.09932631999254227,0.20835506916046143
1788940693910816000,11.77481591796875,-0.3008999228477478,-0.1742788553237915,0.2145189493894577
1788940693920785000,11.784784912109375,-0.3053274154663086,-0.2392738312482834,0.18221135437488556
1788940693930754800,11.7947548828125,-0.29591792821884155,-0.2610750198364258,0.14324557781219482
1788940693940724000,11.804723876953124,-0.27199023962020874,-0.23616273701190948,0.11436785757541656
1788940693950694100,11.814694091796875,-0.25088682770729065,-0.2037035971879959,0.09397123754024506
1788940693960663000,11.8246630859375,-0.2277522087097168,-0.16668619215488434,0.09240502864122391
1788940693970633000,11.834633056640625,-0.20491373538970947,-0.14860890805721283,0.09858542680740356
1788940693980602000,11.84460205078125,-0.1924450844526291,-0.14159974455833435,0.09331449866294861
1788940693990572000,11.854572021484374,-0.18785884976387024,-0.14218483865261078,0.08159606158733368
1788940694000541000,11.864541015625,-0.17448924481868744,-0.15245318412780762,0.05413620546460152
1788940694010510800,11.8745107421875,-0.167644664645195,-0.1839410662651062,0.0015720640076324344
1788940694020480000,11.88447998046875,-0.17572815716266632,-0.23320555686950684,-0.0877988263964653
1788940694030450000,11.894449951171875,-0.18759307265281677,-0.30331912636756897,-0.18120867013931274
1788940694040418800,11.904418701171876,-0.22199684381484985,-0.35269254446029663,-0.2805733382701874
1788940694050389000,11.914388916015625,-0.2515834867954254,-0.34756994247436523,-0.3461616635322571
1788940694060358100,11.924358154296876,-0.26103293895721436,-0.2745966613292694,-0.3533998727798462
1788940694070327000,11.9343271484375,-0.25785738229751587,-0.15459702908992767,-0.3111568093299866
1788940694080297000,11.944296875,-0.22466106712818146,0.00902491994202137,-0.20515954494476318
1788940694090266000,11.95426611328125,-0.17404477298259735,0.18237219750881195,-0.058030012995004654
1788940694100236000,11.964236083984375,-0.11294705420732498,0.3069165349006653,0.09486765414476395
1788940694110205000,11.974204833984375,-0.04772065207362175,0.3235724866390228,0.20014454424381256
1788940694120174800,11.9841748046875,0.003925233148038387,0.2636566758155823,0.22435428202152252
1788940694130144000,11.99414404296875,0.04441753029823303,0.12254562228918076,0.18533949553966522
1788940694140114200,12.0041142578125,0.09935534745454788,-0.004549744538962841,0.10185738652944565
1788940694150083000,12.0140830078125,0.16153456270694733,-0.09886426478624344,0.01438293419778347
1788940694160053000,12.024052978515625,0.23682425916194916,-0.10813739150762558,-0.01116130780428648
1788940694170022000,12.03402197265625,0.337761789560318,-0.059774648398160934,0.02039581909775734
1788940694179992000,12.043991943359375,0.42329639196395874,-0.00023142869758885354,0.06723815947771072
1788940694189961000,12.0539609375,0.4889952540397644,0.021755628287792206,0.10364863276481628
1788940694199931000,12.063930908203124,0.5316268801689148,0.028504079207777977,0.10775335878133774
1788940694209899800,12.073899658203125,0.5634908080101013,0.007991347461938858,0.08352871239185333
1788940694219870200,12.0838701171875,0.5861130356788635,-0.04856353998184204,0.040719468146562576
1788940694229839000,12.093839111328125,0.6009258031845093,-0.14986886084079742,-0.021410217508673668
1788940694239809000,12.10380908203125,0.5948311686515808,-0.2458004504442215,-0.07691981643438339
1788940694249778000,12.11377783203125,0.5712118148803711,-0.32012155652046204,-0.11112066358327866
1788940694259747000,12.1237470703125,0.5530948638916016,-0.3459278345108032,-0.11846299469470978
1788940694269717000,12.133717041015625,0.5450119376182556,-0.3139752447605133,-0.0947938859462738
1788940694279686000,12.143685791015624,0.5444409251213074,-0.24510376155376434,-0.04252961650490761
1788940694289655800,12.15365576171875,0.5414187908172607,-0.16689923405647278,0.01894865743815899
1788940694299625000,12.163625,0.5450286865234375,-0.09066811949014664,0.09466765075922012
1788940694309595000,12.173594970703125,0.5493195652961731,-0.08589573204517365,0.15387797355651855
1788940694319563800,12.183563720703125,0.5338618159294128,-0.1504422277212143,0.16814745962619781
1788940694329534000,12.193533935546874,0.49793070554733276,-0.24013137817382812,0.15110109746456146
1788940694339503000,12.203503173828125,0.4521203339099884,-0.3170139193534851,0.11506293714046478
1788940694349473000,12.21347314453125,0.39988163113594055,-0.3327910006046295,0.0694001168012619
1788940694359442000,12.22344189453125,0.36272892355918884,-0.26978886127471924,0.03165300190448761
1788940694369411800,12.233411865234375,0.3364344835281372,-0.1384177953004837,0.02558205835521221
1788940694379381000,12.243381103515626,0.320091187953949,0.02617967315018177,0.058589544147253036
1788940694389351000,12.253350830078125,0.3157654106616974,0.1568489968776703,0.11882678419351578
1788940694399319800,12.26331982421875,0.3144279718399048,0.21151544153690338,0.1830369234085083
1788940694409289000,12.2732890625,0.3022695779800415,0.19051508605480194,0.22785259783267975
1788940694419259100,12.283259033203125,0.2744414210319519,0.12587884068489075,0.22983665764331818
1788940694429228000,12.29322802734375,0.2337011694908142,0.04641250520944595,0.18361057341098785
