time,seconds_elapsed,z,y,x
1788940682212748000,0.076748046875,0.3259819447994232,-0.15024369955062866,-0.25747862458229065
1788940682222718000,0.086718017578125,0.2718272805213928,-0.048611119389534,-0.311574250459671
1788940682232688000,0.096688232421875,0.22129085659980774,0.020227063447237015,-0.3429444134235382
1788940682242657300,0.1066572265625,0.1797453910112381,0.03606920689344406,-0.35487672686576843
1788940682252627200,0.116627197265625,0.15447892248630524,-0.0064944978803396225,-0.37309327721595764
1788940682262596000,0.12659619140625,0.14436961710453033,-0.07247867435216904,-0.3961907625198364
1788940682272566000,0.13656591796875,0.1476791352033615,-0.13618548214435577,-0.41500890254974365
1788940682282535200,0.14653515625,0.15700262784957886,-0.17589254677295685,-0.4219546914100647
1788940682292505000,0.156505126953125,0.16966195404529572,-0.18203724920749664,-0.41773197054862976
1788940682302474000,0.166473876953125,0.17962339520454407,-0.1310834288597107,-0.403583288192749
1788940682312444200,0.176444091796875,0.18710847198963165,-0.026413481682538986,-0.3567739725112915
1788940682322413300,0.186413330078125,0.1939988136291504,0.09226807951927185,-0.26914435625076294
1788940682332383200,0.19638330078125,0.2017296999692917,0.1920710951089859,-0.14633002877235413
1788940682342352100,0.20635205078125,0.18958063423633575,0.2377181351184845,0.0010889535769820213
1788940682352322000,0.216322021484375,0.15412916243076324,0.1920316070318222,0.1512150764465332
1788940682362292000,0.2262919921875,0.09493044018745422,0.0683610737323761,0.2722667157649994
1788940682372261000,0.23626123046875,0.028614001348614693,-0.03391602262854576,0.35901758074760437
1788940682382231000,0.24623095703125,-0.029794897884130478,-0.12808403372764587,0.38957351446151733
1788940682392200000,0.256199951171875,-0.08676870167255402,-0.17986947298049927,0.3796391189098358
1788940682402170000,0.266170166015625,-0.16238856315612793,-0.1510528326034546,0.37006840109825134
1788940682412139300,0.27613916015625,-0.2331695258617401,-0.09371790289878845,0.34986165165901184
1788940682422109200,0.286109130859375,-0.29915541410446167,-0.003159421496093273,0.28852036595344543
1788940682432078000,0.296078125,-0.35646265745162964,0.07761931419372559,0.19588282704353333
1788940682442048000,0.306048095703125,-0.4095374345779419,0.14162395894527435,0.1001497283577919
1788940682452017200,0.31601708984375,-0.444687157869339,0.16693490743637085,0.029044127091765404
1788940682461987000,0.325987060546875,-0.4932933449745178,0.1151905357837677,-0.010937174782156944
1788940682471957200,0.335957275390625,-0.5567945241928101,0.021762318909168243,-0.022855352610349655
1788940682481926100,0.345926025390625,-0.6273510456085205,-0.0797964334487915,-0.03660324960947037
1788940682491896000,0.35589599609375,-0.7058637142181396,-0.1929786503314972,-0.0843939408659935
1788940682501865200,0.365865234375,-0.7812191843986511,-0.28028425574302673,-0.16330739855766296
1788940682511835100,0.375835205078125,-0.8195950388908386,-0.282283216714859,-0.2453165054321289
1788940682521804000,0.385803955078125,-0.829810380935669,-0.2129100114107132,-0.2855371832847595
1788940682531774000,0.39577392578125,-0.8256300687789917,-0.08396001160144806,-0.2742861211299896
1788940682541743000,0.4057431640625,-0.8120303153991699,0.05703013017773628,-0.21844495832920074
1788940682551713000,0.415713134765625,-0.7938598394393921,0.1415037363767624,-0.12401379644870758
1788940682561682000,0.425681884765625,-0.7545585036277771,0.15870961546897888,-0.011111736297607422
1788940682571652000,0.435652099609375,-0.6909276247024536,0.12888860702514648,0.10679465532302856
1788940682581622000,0.4456220703125,-0.6203216314315796,0.07913036644458771,0.22029724717140198
1788940682591591200,0.455591064453125,-0.5370110273361206,0.013130847364664078,0.3060414493083954
1788940682601561000,0.46556103515625,-0.42992082238197327,-0.08815822005271912,0.35805192589759827
1788940682611530000,0.475530029296875,-0.36271488666534424,-0.13668395578861237,0.383404403924942
1788940682621500000,0.4855,-0.33410534262657166,-0.2093096822500229,0.3429589867591858
1788940682631469000,0.495468994140625,-0.3032611310482025,-0.28460603952407837,0.2727484703063965
1788940682641438500,0.5054384765625,-0.27055108547210693,-0.3498702645301819,0.19166862964630127
1788940682651408600,0.51540869140625,-0.293708860874176,-0.415221631526947,0.11335577815771103
1788940682661377800,0.525377685546875,-0.32363373041152954,-0.537345290184021,0.06376422941684723
1788940682671347700,0.53534765625,-0.3540797829627991,-0.7588521242141724,0.03008269891142845
1788940682681316600,0.545316650390625,-0.3514188826084137,-0.9943926334381104,0.02213986963033676
1788940682691286500,0.55528662109375,-0.3057936131954193,-1.1579128503799438,0.07840634137392044
1788940682701255700,0.565255615234375,-0.25911369919776917,-0.8696948885917664,0.16099601984024048
1788940682711225600,0.5752255859375,-0.17786705493927002,-0.4792954921722412,0.17976970970630646
1788940682721194500,0.585194580078125,-0.16811349987983704,-0.16031137108802795,0.14093682169914246
1788940682731164700,0.59516455078125,-0.1421879082918167,0.07189270108938217,0.1071346253156662
1788940682741134600,0.605134521484375,-0.06182488799095154,0.2353663146495819,0.08831379562616348
1788940682751103700,0.615103759765625,0.006912898272275925,0.26644381880760193,0.08232514560222626
1788940682761073700,0.62507373046875,0.08759085088968277,0.3134032189846039,0.07814692705869675
1788940682771042600,0.63504248046875,0.19539481401443481,0.3289709985256195,0.08007185906171799
1788940682781012500,0.645012451171875,0.28641948103904724,0.27135345339775085,0.0776381716132164
1788940682790981600,0.654981689453125,0.3388856053352356,0.16408346593379974,0.04027561843395233
1788940682800951800,0.664951904296875,0.36894750595092773,0.09034912288188934,-0.0007594483904540539
1788940682810921700,0.674921630859375,0.4127359986305237,0.0064883120357990265,-0.038090839982032776
1788940682820890600,0.684890625,0.4678899645805359,-0.03384271636605263,-0.057508137077093124
1788940682830860500,0.694860595703125,0.5585159659385681,-0.010564559139311314,-0.052817776799201965
1788940682840829700,0.70482958984375,0.5821934342384338,0.08608178049325943,-0.039891861379146576
1788940682850799600,0.714799560546875,0.5860323309898376,0.17692434787750244,-0.05990738421678543
1788940682860768500,0.7247685546875,0.5800744891166687,0.24294033646583557,-0.1248885989189148
1788940682870738400,0.734738525390625,0.5511597394943237,0.2829684615135193,-0.20515361428260803
1788940682880707600,0.74470751953125,0.5135915279388428,0.2803293466567993,-0.27189576625823975
1788940682890677800,0.754677734375,0.4501390755176544,0.20415548980236053,-0.3265845775604248
1788940682900647700,0.764647705078125,0.4009298086166382,0.08929942548274994,-0.3641911745071411
1788940682910616600,0.774616455078125,0.37300124764442444,-0.048988405615091324,-0.39293840527534485
1788940682920586500,0.78458642578125,0.374888151884079,-0.16651377081871033,-0.41593092679977417
1788940682930555600,0.7945556640625,0.39063942432403564,-0.2347082793712616,-0.431856632232666
1788940682940525600,0.804525634765625,0.4268534481525421,-0.2134299874305725,-0.43827253580093384
1788940682950494500,0.814494384765625,0.4803432822227478,-0.07507877051830292,-0.41149312257766724
1788940682960464600,0.824464599609375,0.5278441309928894,0.10728311538696289,-0.35024017095565796
1788940682970434600,0.8344345703125,0.5612310767173767,0.2973785102367401,-0.2519165277481079
1788940682980403700,0.84440380859375,0.5636336207389832,0.4601649343967438,-0.1360725313425064
1788940682990373600,0.85437353515625,0.5183982253074646,0.520778238773346,-0.035765640437603
1788940683000342500,0.864342529296875,0.49914610385894775,0.48029935359954834,0.04193173721432686
1788940683010312400,0.8743125,0.492066890001297,0.37100934982299805,0.10924073308706284
1788940683020281600,0.884281494140625,0.4737340211868286,0.2542404234409332,0.1721610128879547
1788940683030251500,0.89425146484375,0.4612749516963959,0.15599216520786285,0.24605867266654968
1788940683040221700,0.9042216796875,0.47253453731536865,0.03888189047574997,0.333313912153244
1788940683050190600,0.914190673828125,0.46413519978523254,-0.03295768052339554,0.4408246576786041
1788940683060160500,0.924160400390625,0.4581182599067688,-0.04852723702788353,0.5056728720664978
1788940683070129700,0.934129638671875,0.4436863362789154,-0.03889352083206177,0.522930383682251
1788940683080099600,0.944099609375,0.4095153212547302,-0.031663570553064346,0.48856520652770996
1788940683090069500,0.954069580078125,0.3685111701488495,-0.04851978272199631,0.42297980189323425
1788940683100038700,0.96403857421875,0.3271581828594208,-0.0750497579574585,0.3341217041015625
1788940683110008800,0.9740087890625,0.2917908728122711,-0.06816814839839935,0.23805058002471924
1788940683119977700,0.983977783203125,0.2698092460632324,-0.051935579627752304,0.1398046761751175
1788940683129947600,0.99394775390625,0.2544838488101959,-0.05168977007269859,0.0524042546749115
1788940683139916500,1.00391650390625,0.23047803342342377,-0.04909094423055649,-0.006675238721072674
1788940683149886700,1.01388671875,0.2000327706336975,-0.07272329926490784,-0.022947685793042183
1788940683159856600,1.023856689453125,0.1621253341436386,-0.10652520507574081,-0.012501437216997147
1788940683169825500,1.033825439453125,0.11568593233823776,-0.14003469049930573,0.01281537115573883
1788940683179795500,1.04379541015625,0.061062708497047424,-0.17479132115840912,0.03901784121990204
1788940683189764600,1.0537646484375,0.012470937334001064,-0.18927811086177826,0.06264753639698029
1788940683199734800,1.06373486328125,-0.034027956426143646,-0.221171572804451,0.04473915323615074
1788940683209704700,1.07370458984375,-0.09028483927249908,-0.27933740615844727,-0.030590221285820007
1788940683219673600,1.083673583984375,-0.14964991807937622,-0.2546699643135071,-0.14924000203609467
1788940683229643500,1.0936435546875,-0.18740501999855042,-0.10698515921831131,-0.2907116711139679
1788940683239612700,1.10361279296875,-0.21535862982273102,0.07998204231262207,-0.42346349358558655
1788940683249582600,1.11358251953125,-0.23140203952789307,0.23938022553920746,-0.5017388463020325
1788940683259551500,1.123551513671875,-0.23418568074703217,0.34707167744636536,-0.5042816400527954
1788940683269521700,1.133521728515625,-0.23955968022346497,0.36297449469566345,-0.435275673866272
1788940683279491600,1.14349169921875,-0.25391629338264465,0.3264578878879547,-0.31718775629997253
1788940683289460700,1.153460693359375,-0.28208163380622864,0.28941065073013306,-0.1786666363477707
1788940683299430700,1.1634306640625,-0.33606043457984924,0.24399520456790924,-0.059401240199804306
1788940683309399600,1.173399658203125,-0.4030520021915436,0.1737000048160553,0.02204701490700245
1788940683319369500,1.183369384765625,-0.47465217113494873,0.09485092759132385,0.05177285522222519
1788940683329339400,1.19333935546875,-0.5409473180770874,0.0035931861493736506,0.01952463574707508
1788940683339308500,1.20330859375,-0.6191349625587463,-0.07273571193218231,-0.05893019586801529
1788940683349278700,1.21327880859375,-0.6798931360244751,-0.1222289651632309,-0.17275024950504303
1788940683359247600,1.22324755859375,-0.7211559414863586,-0.12112829089164734,-0.32016947865486145
1788940683369217500,1.233217529296875,-0.7422125339508057,-0.08130444586277008,-0.47024765610694885
1788940683379187500,1.2431875,-0.7536010146141052,-0.01341441459953785,-0.5899834632873535
1788940683389156600,1.253156494140625,-0.7488552331924438,0.06214345991611481,-0.642386257648468
1788940683399126500,1.26312646484375,-0.7188355922698975,0.14928874373435974,-0.6203730702400208
1788940683409095400,1.273095458984375,-0.6939691305160522,0.17168165743350983,-0.5436980128288269
1788940683419065600,1.283065673828125,-0.6740211844444275,0.15254566073417664,-0.4365571439266205
1788940683429034800,1.29303466796875,-0.6566235423088074,0.13350537419319153,-0.3051900863647461
1788940683439004700,1.303004638671875,-0.62654709815979,0.11943548917770386,-0.14894461631774902
1788940683448974600,1.312974609375,-0.5982379913330078,0.12425874173641205,0.01203601248562336
1788940683458943500,1.322943603515625,-0.5053967237472534,0.09340202808380127,0.1369212120771408
1788940683468913700,1.33291357421875,-0.5083776116371155,0.04455778747797012,0.20277532935142517
1788940683478882600,1.342882568359375,-0.4959528148174286,0.03725481778383255,0.23073166608810425
1788940683488852500,1.3528525390625,-0.4871329665184021,0.0024723345413804054,0.21198487281799316
1788940683498822700,1.36282275390625,-0.49059000611305237,-0.042447201907634735,0.14078420400619507
1788940683508791800,1.372791748046875,-0.5141688585281372,-0.060621149837970734,0.0528239831328392
1788940683518761700,1.38276171875,-0.5390275716781616,-0.07356108725070953,-0.05641113594174385
1788940683528730600,1.392730712890625,-0.520779013633728,-0.08968465775251389,-0.1762363314628601
1788940683538700500,1.402700439453125,-0.49181413650512695,-0.09708146750926971,-0.28388512134552
1788940683548670500,1.41267041015625,-0.4504302144050598,-0.07839938998222351,-0.36551234126091003
1788940683558639600,1.4226396484375,-0.4183487892150879,-0.02990160509943962,-0.4234011471271515
1788940683568609800,1.43260986328125,-0.3926151990890503,0.01674499176442623,-0.45531755685806274
1788940683578578700,1.44257861328125,-0.381205290555954,0.07065148651599884,-0.48167574405670166
1788940683588548600,1.452548583984375,-0.3811081051826477,0.11618248373270035,-0.5106879472732544
1788940683598518500,1.4625185546875,-0.38862133026123047,0.14711332321166992,-0.5399012565612793
1788940683608487700,1.47248779296875,-0.40961769223213196,0.16104379296302795,-0.576014518737793
1788940683618457600,1.48245751953125,-0.43738219141960144,0.18858833611011505,-0.6144753098487854
1788940683628426500,1.492426513671875,-0.45530766248703003,0.19931155443191528,-0.6610777378082275
1788940683638397000,1.50239697265625,-0.46158701181411743,0.158793643116951,-0.7089624404907227
1788940683648366800,1.512366943359375,-0.43016624450683594,0.10160145908594131,-0.7438453435897827
1788940683658336000,1.5223359375,-0.36362016201019287,0.0856119841337204,-0.7445136308670044
1788940683668306000,1.532305908203125,-0.2821204960346222,0.11050694435834885,-0.6924333572387695
1788940683678275800,1.54227587890625,-0.192714124917984,0.18325260281562805,-0.5731703639030457
1788940683688244700,1.55224462890625,-0.093172088265419,0.2592613697052002,-0.41696929931640625
1788940683698215000,1.56221484375,0.00021371012553572655,0.3148750364780426,-0.28236469626426697
1788940683708184000,1.57218408203125,0.07923316210508347,0.32757672667503357,-0.18473666906356812
1788940683718154000,1.582154052734375,0.13909770548343658,0.2792767882347107,-0.1390685886144638
1788940683728124000,1.5921240234375,0.18446944653987885,0.18965688347816467,-0.10962814092636108
1788940683738092800,1.6020927734375,0.17786656320095062,0.08063333481550217,-0.076474629342556
1788940683748063000,1.61206298828125,0.2382390946149826,-0.07052555680274963,-0.05140043795108795
1788940683758032000,1.622031982421875,0.2841932773590088,-0.20466552674770355,-0.01612873189151287
1788940683768001800,1.632001708984375,0.31949082016944885,-0.2736291289329529,0.05343197286128998
1788940683777972000,1.641971923828125,0.36332467198371887,-0.3230808675289154,0.16277706623077393
1788940683787940900,1.65194091796875,0.4221017062664032,-0.3866529166698456,0.29586508870124817
1788940683797911000,1.6619111328125,0.5028098225593567,-0.41029638051986694,0.4551171660423279
1788940683807880000,1.6718798828125,0.6030892729759216,-0.41048386693000793,0.620440661907196
1788940683817849900,1.681849853515625,0.7256473302841187,-0.44113361835479736,0.7730485796928406
1788940683827819800,1.69181982421875,0.8335319757461548,-0.4856443703174591,0.9008923172950745
1788940683837789000,1.701788818359375,0.9190619587898254,-0.496895432472229,0.9813851118087769
1788940683847759000,1.711759033203125,0.9738045930862427,-0.494429349899292,0.9934167265892029
1788940683857729000,1.72172900390625,1.0082210302352905,-0.4834231734275818,0.9164164066314697
1788940683867698000,1.731697998046875,1.02962327003479,-0.4665762782096863,0.7755112051963806
1788940683877667800,1.741667724609375,1.0329827070236206,-0.4427029490470886,0.6066911220550537
1788940683887637000,1.751636962890625,1.0185856819152832,-0.41195887327194214,0.4324890077114105
1788940683897607000,1.76160693359375,0.9802060723304749,-0.3803057372570038,0.2774571180343628
1788940683907576800,1.771576904296875,0.9223976135253906,-0.3642585873603821,0.14654546976089478
1788940683917545700,1.781545654296875,0.8556407690048218,-0.34372803568840027,0.043267130851745605
1788940683927516000,1.791515869140625,0.7878348231315613,-0.3281053900718689,-0.02782701700925827
1788940683937485000,1.801485107421875,0.7310637831687927,-0.32169708609580994,-0.06191088631749153
1788940683947455000,1.811455078125,0.6845511198043823,-0.29997074604034424,-0.05301353335380554
1788940683957425000,1.8214248046875,0.6594619750976562,-0.2811707556247711,0.0018560015596449375
1788940683967393800,1.831393798828125,0.644157350063324,-0.2622883915901184,0.09554041922092438
1788940683977363700,1.84136376953125,0.6319359540939331,-0.2240142524242401,0.22319279611110687
1788940683987332900,1.851332763671875,0.610953152179718,-0.14894719421863556,0.35973653197288513
1788940683997303000,1.861302978515625,0.5694211721420288,-0.058161403983831406,0.4788355529308319
1788940684007273000,1.87127294921875,0.4925053119659424,0.009648534469306469,0.5447972416877747
1788940684017241900,1.881241943359375,0.38310304284095764,0.014607198536396027,0.5388381481170654
1788940684027212000,1.8912119140625,0.27599257230758667,0.0076803164556622505,0.4702925980091095
1788940684037182000,1.901181884765625,0.17735661566257477,-0.01902216300368309,0.3582794666290283
1788940684047150800,1.91115087890625,0.0862584114074707,-0.08057048171758652,0.21959535777568817
1788940684057120800,1.921120849609375,0.011297074146568775,-0.11688552051782608,0.08157874643802643
1788940684067090000,1.93108984375,-0.04051818698644638,-0.11808181554079056,-0.02972833439707756
1788940684077060000,1.94106005859375,-0.0638609379529953,-0.0738339051604271,-0.0926365852355957
1788940684087030000,1.951030029296875,-0.06425534933805466,-0.0018888800404965878,-0.11568144708871841
1788940684096999000,1.9609990234375,-0.05258702114224434,0.12577886879444122,-0.0809587612748146
1788940684106968800,1.97096875,-0.031871624290943146,0.28961360454559326,0.01722586154937744
1788940684116938800,1.980938720703125,-0.04095044359564781,0.41389015316963196,0.13601385056972504
1788940684126908000,1.990907958984375,-0.07426872104406357,0.46886926889419556,0.2110406905412674
1788940684136877800,2.0008779296875,-0.0972798690199852,0.4769105613231659,0.26486459374427795
1788940684146847000,2.010846923828125,-0.13006816804409027,0.46441951394081116,0.2942030429840088
1788940684156817000,2.02081689453125,-0.1675962507724762,0.41015949845314026,0.28439581394195557
1788940684166786800,2.030786865234375,-0.2067900002002716,0.3215886354446411,0.2289953976869583
1788940684176756000,2.040755859375,-0.24217510223388672,0.2379915863275528,0.14987550675868988
1788940684186726000,2.050725830078125,-0.2682304084300995,0.1724168360233307,0.06464982032775879
1788940684196695800,2.06069580078125,-0.29263219237327576,0.12942512333393097,0.0024486726615577936
1788940684206664700,2.070664794921875,-0.32146331667900085,0.11417346447706223,-0.01680092141032219
1788940684216635000,2.080634765625,-0.3619823157787323,0.09938493371009827,-0.011606398969888687
1788940684226604000,2.09060400390625,-0.41102442145347595,0.05886334180831909,-0.01301601156592369
1788940684236574000,2.100573974609375,-0.447136789560318,0.007822234183549881,-0.030885327607393265
1788940684246544000,2.1105439453125,-0.4679776132106781,-0.036022983491420746,-0.06574557721614838
1788940684256512800,2.1205126953125,-0.4734431207180023,-0.05928186699748039,-0.10321225970983505
1788940684266483000,2.13048291015625,-0.47961580753326416,-0.061216916888952255,-0.11965621262788773
1788940684276452900,2.140452880859375,-0.4800206124782562,-0.047414712607860565,-0.11207015812397003
1788940684286421800,2.150421875,-0.47210463881492615,-0.038501910865306854,-0.072518490254879
1788940684296392000,2.160391845703125,-0.4582200050354004,-0.040068596601486206,-0.0026372051797807217
1788940684306361900,2.17036181640625,-0.4531663954257965,-0.04378077760338783,0.0774240717291832
1788940684316331000,2.1803310546875,-0.4581267535686493,-0.03952828794717789,0.15192633867263794
1788940684326301000,2.190301025390625,-0.45606839656829834,-0.016223767772316933,0.2115401327610016
1788940684336269800,2.200269775390625,-0.4376026690006256,0.005962057039141655,0.23885364830493927
1788940684346239700,2.21023974609375,-0.40258264541625977,0.017265044152736664,0.2400944083929062
1788940684356210000,2.2202099609375,-0.34988483786582947,0.04290753975510597,0.2444000542163849
1788940684366179000,2.230178955078125,-0.2977888882160187,0.09591297060251236,0.26593276858329773
1788940684376149000,2.24014892578125,-0.2503688335418701,0.17448703944683075,0.2978636622428894
1788940684386119000,2.250118896484375,-0.21073779463768005,0.2458946406841278,0.3309723436832428
1788940684396087800,2.260087890625,-0.18859244883060455,0.2852371335029602,0.35853463411331177
1788940684406057700,2.2700576171875,-0.18705953657627106,0.29984429478645325,0.37170690298080444
1788940684416028000,2.28002783203125,-0.19157527387142181,0.27553674578666687,0.35738757252693176
1788940684425996800,2.289996826171875,-0.19741612672805786,0.22014406323432922,0.3123588263988495
1788940684435967000,2.299967041015625,-0.19826234877109528,0.15561072528362274,0.24463489651679993
1788940684445935900,2.309935791015625,-0.1971086710691452,0.10888823121786118,0.1756792664527893
1788940684455905800,2.31990576171875,-0.189584881067276,0.08269645273685455,0.1210307702422142
1788940684465876000,2.3298759765625,-0.18885570764541626,0.08658706396818161,0.08135925978422165
1788940684475844900,2.339844970703125,-0.1868295669555664,0.095348060131073,0.05741557851433754
1788940684485814800,2.349814697265625,-0.17636361718177795,0.1014256626367569,0.032784268260002136
1788940684495785000,2.359784912109375,-0.16692648828029633,0.09736814349889755,-0.012415570206940174
1788940684505754000,2.369754150390625,-0.14773520827293396,0.12309188395738602,-0.06690704077482224
1788940684515724000,2.37972412109375,-0.10674910247325897,0.16789725422859192,-0.13117727637290955
1788940684525694000,2.38969384765625,-0.050387028604745865,0.18771277368068695,-0.19687959551811218
1788940684535662800,2.399662841796875,0.015452706255018711,0.17349620163440704,-0.2545563280582428
1788940684545632800,2.4096328125,0.0851990282535553,0.15460532903671265,-0.306956946849823
1788940684555602000,2.419601806640625,0.15712104737758636,0.13099193572998047,-0.34916985034942627
1788940684565571800,2.42957177734375,0.22989831864833832,0.11273623257875443,-0.37182217836380005
1788940684575542000,2.4395419921875,0.29377612471580505,0.08389992266893387,-0.3685806393623352
1788940684585511000,2.449510986328125,0.3391260504722595,0.04383399337530136,-0.3376171290874481
1788940684595480800,2.459480712890625,0.38193172216415405,0.024358632043004036,-0.2988433241844177
1788940684605450800,2.46945068359375,0.422922819852829,0.04081910103559494,-0.2668534517288208
1788940684615420000,2.479419921875,0.4688665270805359,0.10017993301153183,-0.2350180447101593
1788940684625389800,2.489389892578125,0.5150110721588135,0.16895979642868042,-0.2072330117225647
1788940684635360000,2.499360107421875,0.5533945560455322,0.20513443648815155,-0.1856316477060318
1788940684645329000,2.509328857421875,0.5774210691452026,0.17252829670906067,-0.1730452924966812
1788940684655299000,2.519299072265625,0.5697221755981445,0.08048641681671143,-0.17767055332660675
1788940684665268000,2.52926806640625,0.5476325750350952,-0.05743948742747307,-0.20489844679832458
1788940684675238000,2.53923779296875,0.5437055826187134,-0.19134950637817383,-0.2501942813396454
1788940684685208000,2.5492080078125,0.5717582702636719,-0.2763195335865021,-0.2899630069732666
1788940684695177000,2.559177001953125,0.5955823063850403,-0.2841438949108124,-0.3252885639667511
1788940684705147100,2.569147216796875,0.6214669346809387,-0.22159980237483978,-0.33591192960739136
1788940684715117000,2.579116943359375,0.6648597717285156,-0.14100317656993866,-0.30680081248283386
1788940684725086000,2.5890859375,0.7105215191841125,-0.0784875899553299,-0.25123822689056396
1788940684735056000,2.599055908203125,0.7497699856758118,-0.013651733286678791,-0.1782882958650589
1788940684745025800,2.60902587890625,0.7832121253013611,0.03528464958071709,-0.10980751365423203
1788940684754995000,2.618994873046875,0.8121152520179749,0.04894184321165085,-0.0494464673101902
1788940684764965000,2.628965087890625,0.8384608030319214,0.033155687153339386,-0.01646827720105648
1788940684774935000,2.63893505859375,0.8451685905456543,0.02714269980788231,0.000628072302788496
1788940684784904000,2.648904052734375,0.8258548378944397,0.023854495957493782,0.00432427367195487
1788940684794873900,2.658873779296875,0.7841542363166809,-0.004078716039657593,-0.012374025769531727
1788940684804843800,2.66884375,0.7363387942314148,-0.025515299290418625,-0.03487534075975418
1788940684814813000,2.67881298828125,0.6917455196380615,-0.019454682245850563,-0.05866951495409012
1788940684824783000,2.688783203125,0.65069580078125,0.002210133010521531,-0.08122915029525757
1788940684834752000,2.698751953125,0.6068794131278992,0.004465999081730843,-0.09336365759372711
1788940684844722000,2.708721923828125,0.5735446214675903,-0.05242764204740524,-0.0784803181886673
1788940684854692000,2.718692138671875,0.5475370287895203,-0.12501144409179688,-0.04136042669415474
1788940684864661000,2.728660888671875,0.5272594094276428,-0.19585153460502625,0.0007540029473602772
1788940684874631000,2.738630859375,0.5093721747398376,-0.24317549169063568,0.0389438197016716
1788940684884600800,2.748600830078125,0.4937370717525482,-0.23653544485569,0.07197579741477966
1788940684894570000,2.758570068359375,0.4889715909957886,-0.13936996459960938,0.0767824798822403
1788940684904540200,2.7685400390625,0.4899633526802063,0.015472082421183586,0.051760483533144
1788940684914510000,2.778510009765625,0.4852406084537506,0.17908073961734772,-0.000382476020604372
1788940684924479000,2.78847900390625,0.4626586139202118,0.3025406301021576,-0.05859038606286049
1788940684934449000,2.798448974609375,0.41414695978164673,0.37076789140701294,-0.10996948927640915
1788940684944418800,2.808418701171875,0.3419193625450134,0.36215123534202576,-0.1522676795721054
1788940684954388000,2.818387939453125,0.25373056530952454,0.28846675157546997,-0.19197791814804077
1788940684964358100,2.828358154296875,0.15247267484664917,0.17695941030979156,-0.23735924065113068
1788940684974328000,2.838328125,0.043611276894807816,0.05802435800433159,-0.27932944893836975
1788940684984297000,2.848296875,-0.05635100603103638,-0.04108624532818794,-0.3109206557273865
1788940684994267000,2.858266845703125,-0.13043290376663208,-0.07216958701610565,-0.3221092224121094
1788940685004237000,2.868237060546875,-0.18070566654205322,-0.02854168228805065,-0.30502235889434814
1788940685014206000,2.8782060546875,-0.22293546795845032,0.07025136053562164,-0.24437633156776428
1788940685024175900,2.88817578125,-0.2607960104942322,0.20339982211589813,-0.14895793795585632
1788940685034144800,2.898144775390625,-0.2957385778427124,0.30840203166007996,-0.01736338436603546
1788940685044115000,2.908114990234375,-0.3332414925098419,0.3474343717098236,0.11695820838212967
1788940685054085000,2.918085205078125,-0.38317543268203735,0.31481775641441345,0.21360577642917633
1788940685064054000,2.928053955078125,-0.4476718604564667,0.193476140499115,0.2443128228187561
1788940685074024000,2.93802392578125,-0.5238661170005798,0.04258690029382706,0.20615273714065552
1788940685083993900,2.947993896484375,-0.590431809425354,-0.057259269058704376,0.10595369338989258
1788940685093963000,2.957962890625,-0.6492701768875122,-0.08332157135009766,-0.019265923649072647
1788940685103933000,2.967932861328125,-0.7033754587173462,-0.03738390654325485,-0.12463203072547913
1788940685113903000,2.977903076171875,-0.7518622279167175,0.05900576710700989,-0.18227288126945496
1788940685123872000,2.9878720703125,-0.793217658996582,0.1570947766304016,-0.18848709762096405
1788940685133842000,2.997842041015625,-0.8189970850944519,0.23076730966567993,-0.1586342453956604
1788940685143811800,3.007811767578125,-0.8466007709503174,0.2892093062400818,-0.09829580038785934
1788940685153781000,3.017781005859375,-0.8678260445594788,0.3334340751171112,-0.02136871963739395
1788940685163751000,3.0277509765625,-0.8913886547088623,0.33722376823425293,0.05507199466228485
1788940685173721000,3.03772119140625,-0.9136233329772949,0.3122974932193756,0.12162843346595764
1788940685183690000,3.04768994140625,-0.9197227954864502,0.26152166724205017,0.1614602655172348
1788940685193660000,3.057659912109375,-0.928784191608429,0.2106270045042038,0.17497852444648743
1788940685203630000,3.067630126953125,-0.9255942702293396,0.17801712453365326,0.17983533442020416
1788940685213599000,3.077598876953125,-0.9047309756278992,0.10551013052463531,0.19271710515022278
1788940685223569000,3.08756884765625,-0.8711461424827576,0.01599995419383049,0.19503778219223022
1788940685233538800,3.097538818359375,-0.8299307227134705,-0.05857422947883606,0.20660339295864105
1788940685243508000,3.107508056640625,-0.8018441796302795,-0.17405235767364502,0.2277723252773285
1788940685253478100,3.11747802734375,-0.746821939945221,-0.28871431946754456,0.24305018782615662
1788940685263448000,3.127447998046875,-0.6824399828910828,-0.41363629698753357,0.23662343621253967
1788940685273417000,3.1374169921875,-0.6088913083076477,-0.5210482478141785,0.2369595766067505
1788940685283387000,3.147386962890625,-0.5400344729423523,-0.583776593208313,0.2787480354309082
1788940685293356800,3.157356689453125,-0.4326891005039215,-0.8995044231414795,0.2998463809490204
1788940685303326000,3.167325927734375,-0.34792545437812805,-1.3467785120010376,0.3476756811141968
1788940685313296100,3.177296142578125,-0.2777625620365143,-1.688858151435852,0.4030410349369049
1788940685323265000,3.18726513671875,-0.3033086955547333,-1.8300204277038574,0.45309939980506897
1788940685333235000,3.19723486328125,-0.34488099813461304,-1.734043002128601,0.477655827999115
1788940685343204900,3.207204833984375,-0.4005141854286194,-1.6515583992004395,0.4585740268230438
1788940685353174000,3.217174072265625,-0.4885876178741455,-1.2907874584197998,0.38848596811294556
1788940685363144000,3.22714404296875,-0.6253486275672913,-0.8984012603759766,0.26178181171417236
1788940685373113900,3.23711376953125,-0.8272389769554138,-0.5984411239624023,0.05332053080201149
1788940685383082800,3.247082763671875,-0.8534538149833679,-0.3002603054046631,-0.20810414850711823
1788940685393053000,3.257052978515625,-0.6453390717506409,-0.18277253210544586,-0.4199717938899994
1788940685403023000,3.267023193359375,-0.3108995854854584,-0.15034988522529602,-0.5305305123329163
1788940685412992000,3.276991943359375,-0.028155284002423286,-0.15470899641513824,-0.4974803626537323
1788940685422962000,3.2869619140625,0.1426319032907486,-0.13057996332645416,-0.4133465588092804
1788940685432931800,3.296931884765625,0.23582537472248077,-0.10937871783971786,-0.31458988785743713
1788940685442901000,3.30690087890625,0.28529173135757446,-0.14217741787433624,-0.23504342138767242
1788940685452871200,3.31687109375,0.3010924160480499,-0.20374609529972076,-0.20294637978076935
1788940685462841000,3.326841064453125,0.27043649554252625,-0.361252099275589,-0.23651260137557983
1788940685472810000,3.33681005859375,0.20576360821723938,-0.5575098991394043,-0.29438796639442444
1788940685482780000,3.34677978515625,0.15774841606616974,-0.7109122276306152,-0.36377716064453125
1788940685492749800,3.356749755859375,0.13275940716266632,-0.7779647707939148,-0.4423496127128601
1788940685502719000,3.366718994140625,0.11159738898277283,-0.8021004796028137,-0.5223632454872131
1788940685512689000,3.37668896484375,0.08932089060544968,-0.7577910423278809,-0.5855973958969116
1788940685522659000,3.3866591796875,0.07088888436555862,-0.6525408029556274,-0.6481422781944275
1788940685532628000,3.3966279296875,0.08087939023971558,-0.5100922584533691,-0.6867221593856812
1788940685542598000,3.406597900390625,0.12657736241817474,-0.38040539622306824,-0.6758551001548767
1788940685552568000,3.416568115234375,0.19865988194942474,-0.368206650018692,-0.6243732571601868
1788940685562537000,3.426536865234375,0.2575130760669708,-0.389574259519577,-0.5408520102500916
1788940685572507000,3.4365068359375,0.2827039062976837,-0.41148388385772705,-0.42877432703971863
1788940685582477000,3.44647705078125,0.2802301049232483,-0.42794328927993774,-0.35241004824638367
1788940685592446200,3.4564462890625,0.2814372777938843,-0.42039111256599426,-0.28172633051872253
1788940685602416000,3.466416015625,0.2933432161808014,-0.3965502083301544,-0.1885463446378708
1788940685612386000,3.476385986328125,0.31874504685401917,-0.440714955329895,-0.08820395171642303
1788940685622355000,3.48635498046875,0.38091468811035156,-0.4514956772327423,-0.010777072980999947
1788940685632324900,3.496324951171875,0.44433003664016724,-0.390663206577301,0.026862045750021935
1788940685642294500,3.50629443359375,0.5372479557991028,-0.24192698299884796,0.01540326327085495
1788940685652263700,3.516263671875,0.6620659232139587,-0.1216571107506752,-0.052621036767959595
1788940685662233600,3.526233642578125,0.7826879620552063,0.027792025357484818,-0.12949983775615692
1788940685672203500,3.53620361328125,0.8494617938995361,0.22867625951766968,-0.2010931521654129
1788940685682172400,3.54617236328125,0.8933983445167542,0.345551997423172,-0.267342209815979
1788940685692142600,3.556142578125,0.9033724069595337,0.3729037344455719,-0.337429940700531
1788940685710835700,3.574835693359375,0.7503765821456909,0.10905194282531738,-0.6035420894622803
1788940685720805600,3.5848056640625,0.6301087737083435,0.04399197921156883,-0.733427107334137
1788940685730774500,3.5947744140625,0.5732978582382202,-0.042573343962430954,-0.7712209224700928
1788940685740744700,3.60474462890625,0.5430867075920105,-0.07171817868947983,-0.7317951917648315
1788940685750714600,3.614714599609375,0.47953173518180847,-0.007098106667399406,-0.6218308806419373
1788940685760683500,3.62468359375,0.3954927623271942,0.0011750035919249058,-0.5142114758491516
1788940685770653400,3.6346533203125,0.35928529500961304,-0.032743167132139206,-0.3326565623283386
1788940685780623600,3.64462353515625,0.3118898272514343,-0.18650662899017334,-0.293404757976532
1788940685790592800,3.6545927734375,0.30958884954452515,-0.22564369440078735,-0.3139815330505371
1788940685800562700,3.664562744140625,0.26597291231155396,-0.07942710071802139,-0.3059923052787781
1788940685810532600,3.67453271484375,0.17486490309238434,0.05297420546412468,-0.2629712224006653
1788940685820501500,3.68450146484375,0.06664229929447174,0.10978396236896515,-0.18584688007831573
1788940685830471400,3.694471435546875,-0.007539632264524698,0.12604163587093353,-0.053543344140052795
1788940685840441600,3.704441650390625,-0.05567200854420662,0.19207896292209625,0.09531456977128983
1788940685850410800,3.71441064453125,-0.10357154160737991,0.3437371551990509,0.24990080296993256
1788940685860380700,3.724380615234375,-0.16379305720329285,0.5514986515045166,0.37589895725250244
1788940685870350600,3.7343505859375,-0.17116191983222961,0.6810890436172485,0.44326284527778625
1788940685880319500,3.744319580078125,-0.18148060142993927,0.8260408639907837,0.4589821398258209
1788940685890289700,3.75428955078125,-0.21942712366580963,0.8899099826812744,0.42016497254371643
1788940685900259600,3.764259521484375,-0.2565063238143921,0.8598766922950745,0.36085477471351624
1788940685910229800,3.774229736328125,-0.27031072974205017,0.7858209013938904,0.29677894711494446
1788940685920198700,3.78419873046875,-0.2626911401748657,0.6873475909233093,0.22673222422599792
1788940685930168600,3.79416845703125,-0.27081137895584106,0.5839275121688843,0.17534449696540833
1788940685940137700,3.8041376953125,-0.30285826325416565,0.5346997976303101,0.17068876326084137
1788940685950107600,3.814107666015625,-0.34060266613960266,0.5124725699424744,0.18103398382663727
1788940685960077600,3.82407763671875,-0.37346526980400085,0.4962269961833954,0.18194957077503204
1788940685970046500,3.83404638671875,-0.39402341842651367,0.4378516972064972,0.15812937915325165
1788940685980016600,3.8440166015625,-0.42754676938056946,0.40502265095710754,0.10891789197921753
1788940685989986600,3.853986572265625,-0.4328917860984802,0.3882458806037903,0.029024267569184303
1788940685999955700,3.863955810546875,-0.40453898906707764,0.38721951842308044,-0.0715034082531929
1788940686009925600,3.873925537109375,-0.3878958225250244,0.40312522649765015,-0.2082253098487854
1788940686019895600,3.8838955078125,-0.3655756115913391,0.37318742275238037,-0.35580679774284363
1788940686029864400,3.893864501953125,-0.3270110785961151,0.326913058757782,-0.452865332365036
1788940686039834600,3.903834716796875,-0.2892839312553406,0.29122376441955566,-0.46685412526130676
1788940686049804800,3.9138046875,-0.2508658468723297,0.26979923248291016,-0.41981393098831177
1788940686059773700,3.923773681640625,-0.24149630963802338,0.23987971246242523,-0.3461117446422577
1788940686069743600,3.93374365234375,-0.25997552275657654,0.2123280167579651,-0.26596760749816895
1788940686079713500,3.943713623046875,-0.31106188893318176,0.1653362661600113,-0.2202741503715515
1788940686089682700,3.9536826171875,-0.35301512479782104,0.058093760162591934,-0.20060324668884277
1788940686099652600,3.963652587890625,-0.36013856530189514,-0.034500353038311005,-0.18510204553604126
1788940686109622800,3.973622802734375,-0.35303327441215515,-0.05731155350804329,-0.15054507553577423
1788940686119591700,3.983591796875,-0.2991980016231537,0.019949940964579582,-0.0420452356338501
1788940686129561600,3.9935615234375,-0.26281091570854187,0.1416272222995758,0.10210582613945007
1788940686139531500,4.003531494140625,-0.21668122708797455,0.34151825308799744,0.26705777645111084
1788940686149500700,4.013500732421875,-0.15720516443252563,0.4644435942173004,0.3626333773136139
1788940686159470600,4.023470703125,-0.08616214990615845,0.5159581303596497,0.3721509873867035
1788940686169440500,4.0334404296875,-0.04463168978691101,0.561622679233551,0.33833763003349304
1788940686179409400,4.043409423828125,-0.06683233380317688,0.597420334815979,0.2980426847934723
1788940686189379600,4.053379638671875,-0.12663504481315613,0.5634477734565735,0.25006788969039917
1788940686199349800,4.063349853515625,-0.19253896176815033,0.49733343720436096,0.21909506618976593
1788940686209318700,4.073318603515625,-0.25373488664627075,0.4127069413661957,0.18717990815639496
1788940686219288600,4.08328857421875,-0.2958778142929077,0.2943115830421448,0.15534982085227966
1788940686229258500,4.093258544921875,-0.3095170557498932,0.17892594635486603,0.12837916612625122
1788940686239227600,4.1032275390625,-0.3041960597038269,0.08971644192934036,0.09689845889806747
1788940686249197600,4.113197509765625,-0.27434617280960083,0.03459210693836212,0.056558944284915924
1788940686259167700,4.123167724609375,-0.22553867101669312,0.008076876401901245,0.029357951134443283
1788940686269136600,4.13313671875,-0.17463116347789764,-0.005267982371151447,0.011978029273450375
1788940686279106600,4.1431064453125,-0.12734512984752655,-0.04338899999856949,-0.0026938579976558685
1788940686289076500,4.153076416015625,-0.10103689879179001,-0.12207727879285812,-0.028685789555311203
1788940686299045600,4.163045654296875,-0.1072005182504654,-0.2247338742017746,-0.05845140665769577
1788940686309015600,4.173015625,-0.11461777240037918,-0.29495182633399963,-0.06363201886415482
1788940686318985700,4.18298583984375,-0.12192761152982712,-0.29807624220848083,-0.055028676986694336
1788940686328954600,4.19295458984375,-0.110031358897686,-0.2723948359489441,-0.05815146863460541
1788940686338924500,4.202924560546875,-0.0749782994389534,-0.24053996801376343,-0.07942479848861694
1788940686348894700,4.212894775390625,-0.02892347238957882,-0.18465545773506165,-0.1096712276339531
1788940686358863600,4.222863525390625,0.03968062251806259,-0.14034871757030487,-0.1292387992143631
1788940686368833500,4.23283349609375,0.11600828915834427,-0.10410008579492569,-0.14452697336673737
1788940686378803500,4.242803466796875,0.17687617242336273,-0.08127706497907639,-0.17121903598308563
1788940686388772600,4.252772705078125,0.21677331626415253,-0.09063992649316788,-0.20568762719631195
1788940686398742800,4.26274267578125,0.23641066253185272,-0.10652408003807068,-0.2384817898273468
1788940686408712700,4.272712646484375,0.24639618396759033,-0.10225716233253479,-0.26371604204177856
1788940686418681600,4.282681640625,0.27010229229927063,-0.08305923640727997,-0.26302334666252136
1788940686428651500,4.292651611328125,0.3060855567455292,-0.024496376514434814,-0.2325870543718338
1788940686438621400,4.302621337890625,0.3640489876270294,0.05165484920144081,-0.17428725957870483
1788940686448590600,4.312590576171875,0.42791423201560974,0.10271241515874863,-0.09026037156581879
1788940686458560800,4.322560791015625,0.4926639497280121,0.11840242892503738,0.004856821149587631
1788940686468530700,4.33253076171875,0.535614550113678,0.0772191509604454,0.06701505184173584
1788940686478499600,4.34249951171875,0.5409486293792725,-0.016055669635534286,0.08983035385608673
1788940686488469500,4.352469482421875,0.5023881196975708,-0.127755269408226,0.09728830307722092
1788940686498439400,4.362439453125,0.4346282184123993,-0.25491297245025635,0.08079320937395096
1788940686508408600,4.37240869140625,0.35902419686317444,-0.3351161777973175,0.05994629114866257
1788940686518378500,4.38237841796875,0.3268148601055145,-0.364517480134964,0.057821620255708694
1788940686528347400,4.392347412109375,0.32510101795196533,-0.3247341513633728,0.06407618522644043
1788940686538317600,4.402317626953125,0.3564631938934326,-0.24546141922473907,0.12061935663223267
1788940686548287700,4.412287841796875,0.3977036774158478,-0.10595735907554626,0.2079731971025467
1788940686558256600,4.422256591796875,0.44092437624931335,0.05952800065279007,0.30853283405303955
1788940686568226600,4.4322265625,0.45230528712272644,0.223342165350914,0.3827638626098633
1788940686578196500,4.442196533203125,0.4327332079410553,0.33910658955574036,0.40982821583747864
1788940686588165600,4.45216552734375,0.39294594526290894,0.389271080493927,0.39776375889778137
1788940686598135800,4.4621357421875,0.34564369916915894,0.3912205100059509,0.3714176416397095
1788940686608105700,4.472105712890625,0.29715684056282043,0.33164212107658386,0.34266775846481323
1788940686618074600,4.48207470703125,0.2503664493560791,0.2291780710220337,0.3259582817554474
1788940686628044500,4.49204443359375,0.21931086480617523,0.10697615146636963,0.31819766759872437
1788940686638014200,4.50201416015625,0.20992721617221832,-0.005849736277014017,0.32501721382141113
1788940686647983400,4.5119833984375,0.19976280629634857,-0.08984050899744034,0.36169132590293884
1788940686657953500,4.52195361328125,0.17150826752185822,-0.15344078838825226,0.4052976667881012
1788940686667923500,4.53192333984375,0.1169210821390152,-0.2018374800682068,0.4378204941749573
1788940686677892400,4.541892333984375,0.05385901778936386,-0.2286190241575241,0.45542052388191223
1788940686687862300,4.5518623046875,-0.011182914488017559,-0.20970886945724487,0.47903352975845337
1788940686697832400,4.56183251953125,-0.08602040261030197,-0.12889552116394043,0.5129166841506958
1788940686707801300,4.57180126953125,-0.16271193325519562,0.01620461978018284,0.5519350171089172
1788940686717771300,4.581771240234375,-0.23444950580596924,0.17249596118927002,0.5780134797096252
1788940686727741400,4.591741455078125,-0.28171035647392273,0.29709354043006897,0.5733184814453125
1788940686737710600,4.601710693359375,-0.30812546610832214,0.37876203656196594,0.5413168668746948
1788940686747680500,4.611680419921875,-0.30766454339027405,0.42563262581825256,0.48343390226364136
1788940686757649400,4.6216494140625,-0.2881486415863037,0.45656469464302063,0.4280809164047241
1788940686767619300,4.631619384765625,-0.27669623494148254,0.47710761427879333,0.3809284269809723
1788940686777589200,4.64158935546875,-0.3001120686531067,0.5061666369438171,0.3468508720397949
1788940686787558400,4.651558349609375,-0.3445477783679962,0.4981667101383209,0.3290462791919708
1788940686797528600,4.661528564453125,-0.39955830574035645,0.4188351333141327,0.30288630723953247
1788940686807498500,4.67149853515625,-0.4610511064529419,0.27352961897850037,0.25788092613220215
1788940686817467400,4.68146728515625,-0.5054934024810791,0.08639274537563324,0.20149913430213928
1788940686827437300,4.691437255859375,-0.5172457098960876,-0.06615642458200455,0.15061409771442413
1788940686837407200,4.7014072265625,-0.510720431804657,-0.14532127976417542,0.10713186115026474
1788940686847376400,4.71137646484375,-0.4981386363506317,-0.15372544527053833,0.08064549416303635
1788940686857346300,4.72134619140625,-0.4904293119907379,-0.08014682680368423,0.04888783022761345
1788940686867316500,4.73131640625,-0.4520864188671112,0.013366302475333214,0.050463154911994934
1788940686877285400,4.741285400390625,-0.41666877269744873,0.13051477074623108,0.06334779411554337
1788940686887255600,4.751255615234375,-0.3792453110218048,0.23916952311992645,0.08636149764060974
1788940686897224400,4.761224365234375,-0.35098305344581604,0.31598949432373047,0.1153678447008133
1788940686907194400,4.7711943359375,-0.33753928542137146,0.3154301941394806,0.12399182468652725
1788940686917164300,4.781164306640625,-0.34252259135246277,0.23631992936134338,0.10120262205600739
1788940686927133400,4.791133544921875,-0.3575422465801239,0.09636235982179642,0.05147005617618561
1788940686937103600,4.801103515625,-0.3601857125759125,-0.042851727455854416,0.01080518402159214
1788940686947073500,4.811073486328125,-0.3293047249317169,-0.11831963062286377,-0.0017843171954154968
1788940686957042400,4.82104248046875,-0.2619539201259613,-0.12913206219673157,0.007114635780453682
1788940686967012400,4.831012451171875,-0.19004440307617188,-0.08075134456157684,0.03847583755850792
1788940686976982300,4.840982177734375,-0.12068822979927063,-0.01183459535241127,0.07589671015739441
1788940686986951400,4.850951416015625,-0.06895098090171814,0.030865885317325592,0.08986148238182068
1788940686996921300,4.86092138671875,-0.05307134985923767,0.057548362761735916,0.06762169301509857
1788940687006891500,4.8708916015625,-0.059192340821027756,0.07689365744590759,0.02236982248723507
1788940687016860400,4.8808603515625,-0.06748010218143463,0.07709286361932755,-0.04549391567707062
1788940687026830300,4.890830322265625,-0.06763319671154022,0.044338662177324295,-0.11765680462121964
1788940687036799500,4.900799560546875,-0.051411353051662445,0.008905302733182907,-0.16860972344875336
1788940687046769400,4.910769287109375,-0.0036143921315670013,-0.046393923461437225,-0.1852615475654602
1788940687056739300,4.9207392578125,0.07082308828830719,-0.12642431259155273,-0.17762626707553864
1788940687066708200,4.930708251953125,0.14622196555137634,-0.2205623984336853,-0.138123020529747
1788940687076678400,4.940678466796875,0.21045102179050446,-0.26898640394210815,-0.06278778612613678
1788940687086648600,4.950648681640625,0.23910292983055115,-0.2601802945137024,0.023564433678984642
1788940687096617500,4.960617431640625,0.24074555933475494,-0.2356238216161728,0.07984767854213715
1788940687106587400,4.97058740234375,0.22458547353744507,-0.21738845109939575,0.08605602383613586
1788940687116557300,4.980557373046875,0.19294285774230957,-0.1871594339609146,0.04740050062537193
1788940687126526500,4.9905263671875,0.15330339968204498,-0.15097111463546753,-0.014285273849964142
1788940687136496400,5.000496337890625,0.11955209076404572,-0.10343848168849945,-0.08874406665563583
1788940687146465300,5.01046533203125,0.11103416979312897,-0.04785342141985893,-0.15058597922325134
1788940687156435500,5.020435546875,0.14180618524551392,0.007181867957115173,-0.17886555194854736
1788940687166405400,5.0304052734375,0.19744494557380676,0.051575012505054474,-0.16921314597129822
1788940687176374500,5.04037451171875,0.2494490146636963,0.07004109770059586,-0.13188175857067108
1788940687186344400,5.050344482421875,0.291769802570343,0.048567403107881546,-0.06774700433015823
1788940687196314400,5.060314453125,0.31915348768234253,-0.002073405310511589,-0.0001889960840344429
1788940687206283300,5.070283203125,0.3234420120716095,-0.09252665191888809,0.04254015535116196
1788940687216253200,5.080253173828125,0.3061099052429199,-0.19150303304195404,0.06246113032102585
1788940687226222300,5.090222412109375,0.27548402547836304,-0.2821415364742279,0.06039365753531456
1788940687236192500,5.100192626953125,0.2451018989086151,-0.3223100006580353,0.040798917412757874
1788940687246162400,5.110162353515625,0.23709870874881744,-0.28781774640083313,0.02689274400472641
1788940687256131300,5.12013134765625,0.253551185131073,-0.2053564339876175,0.02076188288629055
1788940687266101200,5.130101318359375,0.29469141364097595,-0.11129380762577057,0.03433169052004814
1788940687276071400,5.140071533203125,0.3546261191368103,-0.034604888409376144,0.0797489732503891
1788940687286040300,5.150040283203125,0.41470980644226074,-0.009663548320531845,0.14097538590431213
1788940687296010500,5.160010498046875,0.4585086703300476,-0.04137859866023064,0.20526595413684845
1788940687305980400,5.16998046875,0.47015416622161865,-0.11439169198274612,0.261895090341568
1788940687315949600,5.179949462890625,0.45060044527053833,-0.19755661487579346,0.31235000491142273
1788940687325919500,5.18991943359375,0.4103306531906128,-0.2570846676826477,0.35270315408706665
1788940687335888400,5.199888427734375,0.37101998925209045,-0.2815071940422058,0.3700059950351715
1788940687345858300,5.2098583984375,0.3516428768634796,-0.2581954002380371,0.3654322028160095
1788940687355828200,5.219828125,0.34120914340019226,-0.19629555940628052,0.348657488822937
1788940687365797400,5.22979736328125,0.3450801968574524,-0.09760355949401855,0.3289412558078766
1788940687375767600,5.239767578125,0.354894757270813,0.011281384155154228,0.3032636046409607
1788940687385737500,5.249737548828125,0.3555394411087036,0.11117881536483765,0.2657144069671631
1788940687395706400,5.259706298828125,0.34325188398361206,0.1578826755285263,0.21739080548286438
1788940687405676300,5.26967626953125,0.31602954864501953,0.13943885266780853,0.16180875897407532
1788940687415645400,5.2796455078125,0.26916512846946716,0.07645056396722794,0.11463990807533264
1788940687425615400,5.289615478515625,0.2188137024641037,0.027689091861248016,0.09818309545516968
1788940687435585500,5.29958544921875,0.17281851172447205,0.004696691408753395,0.10539253801107407
1788940687445554400,5.309554443359375,0.14351242780685425,0.015219299122691154,0.12275636941194534
1788940687455524400,5.3195244140625,0.13084723055362701,0.058298058807849884,0.15046283602714539
1788940687465494300,5.329494384765625,0.13052262365818024,0.10699684172868729,0.18904437124729156
1788940687475463400,5.33946337890625,0.15327027440071106,0.17559054493904114,0.24587276577949524
1788940687485433300,5.349433349609375,0.18956917524337769,0.2525153160095215,0.2954101860523224
1788940687495402200,5.35940234375,0.21602129936218262,0.28232595324516296,0.31614476442337036
1788940687505372200,5.3693720703125,0.21041667461395264,0.2831789553165436,0.32398778200149536
1788940687515342600,5.379342529296875,0.17325253784656525,0.266589879989624,0.31749942898750305
1788940687525311500,5.3893115234375,0.12119516730308533,0.2311151772737503,0.27929601073265076
1788940687535281400,5.399281494140625,0.06270016729831696,0.1789798140525818,0.21539506316184998
1788940687545251300,5.409251220703125,-0.004049798473715782,0.12481919676065445,0.13818152248859406
1788940687555220500,5.419220458984375,-0.0741596445441246,0.09845896810293198,0.06978914141654968
1788940687565190400,5.4291904296875,-0.1257476806640625,0.08955230563879013,0.035203102976083755
1788940687575159300,5.4391591796875,-0.1573639214038849,0.08622335642576218,0.04234543442726135
1788940687585129500,5.44912939453125,-0.17121686041355133,0.07555164396762848,0.05452569201588631
1788940687595099400,5.459099365234375,-0.17714451253414154,0.05188332870602608,0.054318495094776154
1788940687605068500,5.469068603515625,-0.18981215357780457,0.04133216664195061,0.01998530887067318
1788940687615038500,5.47903857421875,-0.2215101718902588,0.02312120422720909,-0.068930983543396
1788940687625008400,5.48900830078125,-0.26942160725593567,-0.007535096257925034,-0.1898525357246399
1788940687634977300,5.498977294921875,-0.3297025263309479,-0.013365287333726883,-0.30636900663375854
1788940687644947500,5.508947509765625,-0.39576253294944763,0.035384953022003174,-0.3877086043357849
1788940687654916600,5.51891650390625,-0.4388359487056732,0.12917669117450714,-0.41629230976104736
1788940687664886500,5.528886474609375,-0.4610256850719452,0.2487875521183014,-0.3887696862220764
1788940687674856400,5.5388564453125,-0.4600360691547394,0.3549533784389496,-0.31587469577789307
1788940687684825300,5.548825439453125,-0.4309401512145996,0.42420506477355957,-0.21115322411060333
1788940687694795300,5.558795166015625,-0.37517249584198,0.44429782032966614,-0.09504446387290955
1788940687704765400,5.568765380859375,-0.31906065344810486,0.41068336367607117,0.0036397262010723352
1788940687714734600,5.578734619140625,-0.2912444770336151,0.32921355962753296,0.0834413468837738
1788940687724704500,5.58870458984375,-0.29139262437820435,0.22701843082904816,0.14684048295021057
1788940687734673400,5.59867333984375,-0.29261767864227295,0.14359809458255768,0.18511062860488892
1788940687744643300,5.608643310546875,-0.28422844409942627,0.10672739148139954,0.19532367587089539
1788940687754613500,5.618613525390625,-0.2634052038192749,0.10613324493169785,0.17015786468982697
1788940687764582400,5.62858251953125,-0.2316090166568756,0.12097936868667603,0.11718941479921341
1788940687774552600,5.638552490234375,-0.19496044516563416,0.1517396867275238,0.057760708034038544
1788940687784521500,5.648521484375,-0.15820738673210144,0.17535419762134552,0.0043514263816177845
1788940687794491600,5.65849169921875,-0.13283945620059967,0.15235941112041473,-0.06349952518939972
1788940687804461600,5.668461669921875,-0.1277593970298767,0.06783004105091095,-0.15134643018245697
1788940687814430500,5.678430419921875,-0.1566285938024521,-0.060625672340393066,-0.23852047324180603
1788940687824400400,5.688400390625,-0.20724940299987793,-0.17395493388175964,-0.28735801577568054
1788940687834370300,5.698370361328125,-0.2436598688364029,-0.25224417448043823,-0.29321616888046265
1788940687844339500,5.70833935546875,-0.26109734177589417,-0.2743458151817322,-0.26595497131347656
1788940687854309600,5.7183095703125,-0.2619412839412689,-0.20614038407802582,-0.20280741155147552
1788940687864278500,5.728278564453125,-0.24537470936775208,-0.08796408027410507,-0.12523946166038513
1788940687874248400,5.73824853515625,-0.21643254160881042,0.05922163650393486,-0.03745395690202713
1788940687884218400,5.74821826171875,-0.16519436240196228,0.20668642222881317,0.05845079943537712
1788940687894187500,5.7581875,-0.10366734862327576,0.3119150996208191,0.14150173962116241
1788940687904157400,5.768157470703125,-0.048102039843797684,0.3566697835922241,0.19730134308338165
1788940687914127600,5.778127685546875,-0.01417469885200262,0.36442703008651733,0.22499661147594452
1788940687924096500,5.788096435546875,0.002247151918709278,0.3272034823894501,0.22658438980579376
1788940687934066400,5.79806640625,0.011478690430521965,0.2507067322731018,0.20107395946979523
1788940687944035600,5.80803564453125,0.019870620220899582,0.15725360810756683,0.16466909646987915
1788940687954005500,5.818005615234375,0.0401868112385273,0.058082811534404755,0.1241416409611702
1788940687963975400,5.827975341796875,0.06764212250709534,-0.01791798509657383,0.08715733885765076
1788940687973944300,5.8379443359375,0.08988617360591888,-0.07370534539222717,0.03747154027223587
1788940687983914500,5.84791455078125,0.10427463799715042,-0.1162528321146965,-0.02359517104923725
1788940687993884700,5.857884765625,0.10352309793233871,-0.15358050167560577,-0.10971567779779434
1788940688003853600,5.867853515625,0.08733543753623962,-0.21455956995487213,-0.2266375869512558
1788940688013823500,5.877823486328125,0.06826214492321014,-0.311799019575119,-0.374284565448761
1788940688023792400,5.88779248046875,0.05591844767332077,-0.43861693143844604,-0.5399281978607178
1788940688033762600,5.897762451171875,0.048428840935230255,-0.6235449314117432,-0.6776665449142456
1788940688043732500,5.907732421875,0.04689076170325279,-0.7676638960838318,-0.7179036736488342
1788940688053701400,5.917701416015625,0.06563781946897507,-0.7577816843986511,-0.6080043315887451
1788940688063671600,5.927671630859375,0.12366142868995667,-0.5521656274795532,-0.390896201133728
1788940688073640700,5.937640625,0.2971365451812744,-0.21896472573280334,-0.026038601994514465
1788940688083610600,5.947610595703125,0.5316588282585144,0.20230954885482788,0.40848425030708313
1788940688093580500,5.95758056640625,0.7561124563217163,0.5143126845359802,0.7558243870735168
1788940688103549400,5.967549560546875,0.8958816528320312,0.6743574142456055,0.9002661108970642
1788940688113519400,5.977519287109375,0.9655669927597046,0.609992265701294,0.8971110582351685
1788940688123489300,5.9874892578125,0.9484537243843079,0.4083946943283081,0.7746384739875793
1788940688133458400,5.99745849609375,0.8765028715133667,0.07488514482975006,0.5642492771148682
1788940688143428600,6.0074287109375,0.7809571027755737,-0.3457842469215393,0.3132087290287018
1788940688153397500,6.0173974609375,0.6610658764839172,-0.721786379814148,0.09803864359855652
1788940688163367400,6.027367431640625,0.5606500506401062,-0.9133359789848328,0.0008077402599155903
1788940688173337300,6.03733740234375,0.5070491433143616,-0.9351406097412109,0.017190175130963326
1788940688183306500,6.047306396484375,0.48063355684280396,-0.7677169442176819,0.11206990480422974
1788940688193276400,6.0572763671875,0.4839257597923279,-0.4767090678215027,0.24556323885917664
1788940688203246600,6.06724658203125,0.5036760568618774,-0.15141993761062622,0.35978513956069946
1788940688213215500,6.077215576171875,0.52208411693573,0.08853087574243546,0.4060881733894348
1788940688223185700,6.087185546875,0.5059117674827576,0.23402807116508484,0.37326085567474365
1788940688233154600,6.097154541015625,0.466523677110672,0.2785385549068451,0.2900240421295166
1788940688243124500,6.10712451171875,0.4227665662765503,0.2435149848461151,0.1845153570175171
1788940688253094400,6.117094482421875,0.3735494911670685,0.1611253023147583,0.07443945854902267
1788940688263063600,6.1270634765625,0.33764058351516724,0.08551573008298874,0.005094428546726704
1788940688273033500,6.137033447265625,0.32331597805023193,0.03389541432261467,-0.018944595009088516
1788940688283003600,6.147003662109375,0.3323074281215668,0.01287273969501257,-0.01882839947938919
1788940688292972500,6.15697265625,0.3539104461669922,0.010782690718770027,-0.0012179804034531116
1788940688302942500,6.1669423828125,0.37287354469299316,0.03306606411933899,0.022026212885975838
1788940688312911600,6.17691162109375,0.37084609270095825,0.08353269845247269,0.04594113305211067
1788940688322881500,6.186881591796875,0.35457751154899597,0.14877623319625854,0.06858889758586884
1788940688332851500,6.1968515625,0.3176511824131012,0.21611905097961426,0.095128633081913
1788940688342820400,6.2068203125,0.28019818663597107,0.25084835290908813,0.12596537172794342
1788940688352790500,6.21679052734375,0.24603672325611115,0.271928608417511,0.15204916894435883
1788940688362760400,6.226760498046875,0.20873460173606873,0.2624841630458832,0.17342066764831543
1788940688372729600,6.2367294921875,0.17009666562080383,0.2474450320005417,0.1899527758359909
1788940688382699500,6.246699462890625,0.1413535624742508,0.2464292198419571,0.21216996014118195
1788940688392668400,6.25666845703125,0.1148039773106575,0.22324854135513306,0.22185294330120087
1788940688402638300,6.266638427734375,0.08449298143386841,0.16215451061725616,0.21057452261447906
1788940688412608500,6.2766083984375,0.046379946172237396,0.06704264879226685,0.17023402452468872
1788940688422577400,6.286577392578125,-0.016211800277233124,-0.053516142070293427,0.10656826198101044
1788940688432547600,6.296547607421875,-0.10360608994960785,-0.1698046624660492,0.03228311240673065
1788940688442517500,6.306517578125,-0.20932114124298096,-0.2493790239095688,-0.04235183447599411
1788940688452486400,6.316486328125,-0.3235374391078949,-0.26363012194633484,-0.1287303864955902
1788940688462456600,6.32645654296875,-0.4324415326118469,-0.21215859055519104,-0.20745794475078583
1788940688472425500,6.336425537109375,-0.5315161943435669,-0.10795415937900543,-0.2542978823184967
1788940688482395400,6.3463955078125,-0.5967460870742798,0.03593340516090393,-0.24082577228546143
1788940688492365300,6.356365234375,-0.6120381951332092,0.20996086299419403,-0.15933704376220703
1788940688502334700,6.366334716796875,-0.5716726779937744,0.376039057970047,-0.027761440724134445
1788940688512304600,6.3763046875,-0.5056276321411133,0.4717669188976288,0.11536934971809387
1788940688522274600,6.386274658203125,-0.4646199345588684,0.4886597692966461,0.2113513946533203
1788940688532243500,6.396243408203125,-0.45970189571380615,0.40083828568458557,0.24453997611999512
1788940688542213400,6.40621337890625,-0.49176275730133057,0.20425255596637726,0.20367097854614258
1788940688552182500,6.4161826171875,-0.5610238909721375,-0.03517840802669525,0.09719967097043991
1788940688562152400,6.42615234375,-0.6520243883132935,-0.2424037605524063,-0.03993261605501175
1788940688572122600,6.43612255859375,-0.7422850131988525,-0.34967124462127686,-0.16988232731819153
1788940688582091500,6.446091552734375,-0.8091738820075989,-0.3348035216331482,-0.2642764747142792
1788940688592061400,6.4560615234375,-0.8472051620483398,-0.18435119092464447,-0.3149532377719879
1788940688602030600,6.466030517578125,-0.8556339740753174,0.04180079698562622,-0.31863296031951904
1788940688612000500,6.47600048828125,-0.8477153182029724,0.26159653067588806,-0.29419952630996704
1788940688621970400,6.485970458984375,-0.8215177059173584,0.38905084133148193,-0.2730627655982971
1788940688631939300,6.495939208984375,-0.7744300961494446,0.39958709478378296,-0.29035839438438416
1788940688641909200,6.5059091796875,-0.7274638414382935,0.3441726267337799,-0.3443533778190613
1788940688651879400,6.51587939453125,-0.7156609892845154,0.23512764275074005,-0.44297105073928833
1788940688661848600,6.5258486328125,-0.7371537089347839,0.12321049720048904,-0.5336470603942871
1788940688671818500,6.535818603515625,-0.7587580680847168,0.04748670756816864,-0.5593811869621277
1788940688681787400,6.545787353515625,-0.7496002912521362,-0.0013521085493266582,-0.5092222690582275
1788940688691757600,6.555757568359375,-0.7072331309318542,-0.019954554736614227,-0.3867056369781494
1788940688701727500,6.5657275390625,-0.6251317858695984,0.0209026001393795,-0.20144963264465332
1788940688711696400,6.5756962890625,-0.5126582384109497,0.09027315676212311,0.0013583414256572723
1788940688721666600,6.58566650390625,-0.39674949645996094,0.12080854177474976,0.15500865876674652
1788940688731636500,6.595636474609375,-0.30232951045036316,0.12404029071331024,0.2222558706998825
1788940688741605600,6.605605712890625,-0.23646840453147888,0.07624080777168274,0.20341745018959045
1788940688751575600,6.615575439453125,-0.20073065161705017,0.003924798686057329,0.10616865754127502
1788940688761544400,6.62554443359375,-0.17407703399658203,-0.04938098043203354,-0.024920688942074776
1788940688771514400,6.635514404296875,-0.15053389966487885,-0.08867646008729935,-0.15458840131759644
1788940688781484300,6.645484375,-0.12097547203302383,-0.0771670788526535,-0.2440895140171051
1788940688791453400,6.655453369140625,-0.0772109404206276,-0.02465512976050377,-0.27909570932388306
1788940688801423600,6.665423583984375,-0.020425256341695786,0.0190122127532959,-0.2748263478279114
1788940688811392500,6.675392578125,0.03672857955098152,0.03376319631934166,-0.24207106232643127
1788940688821362400,6.685362548828125,0.08238077908754349,0.037530574947595596,-0.19758126139640808
1788940688831332400,6.695332275390625,0.11376427114009857,0.012123219668865204,-0.1714085191488266
1788940688841301500,6.705301513671875,0.1355380415916443,-0.014682875946164131,-0.18571974337100983
1788940688851271400,6.715271484375,0.16337980329990387,-0.055860936641693115,-0.2268781065940857
1788940688861240300,6.725240234375,0.19155703485012054,-0.0980096310377121,-0.26044684648513794
1788940688871210500,6.73521044921875,0.2167191058397293,-0.12879231572151184,-0.2712653875350952
1788940688881180400,6.745180419921875,0.24475201964378357,-0.1327761709690094,-0.2436426430940628
1788940688891149600,6.755149658203125,0.279807984828949,-0.10678106546401978,-0.1715061366558075
1788940688901119500,6.765119384765625,0.33489933609962463,-0.010755344294011593,-0.027231598272919655
1788940688911089400,6.77508935546875,0.41009047627449036,0.14835548400878906,0.15029418468475342
1788940688921058300,6.785058349609375,0.49182063341140747,0.2573463022708893,0.2990214228630066
1788940688931028500,6.795028564453125,0.5353348851203918,0.2842612564563751,0.3674984872341156
1788940688940997400,6.804997314453125,0.5398892760276794,0.22441163659095764,0.36141330003738403
1788940688950967600,6.814967529296875,0.5138656497001648,0.08389712870121002,0.2794625163078308
1788940688960937500,6.8249375,0.4635835886001587,-0.08209578692913055,0.13466045260429382
1788940688970906600,6.83490673828125,0.3951941430568695,-0.23789018392562866,-0.015073651447892189
1788940688980876500,6.84487646484375,0.32066845893859863,-0.2989431917667389,-0.09992923587560654
1788940688990845400,6.854845458984375,0.27932634949684143,-0.29133400321006775,-0.11639130115509033
1788940689000815400,6.8648154296875,0.2714651823043823,-0.23067928850650787,-0.09100926667451859
1788940689010785500,6.87478564453125,0.29254359006881714,-0.1550806611776352,-0.062066301703453064
1788940689020754700,6.884754638671875,0.3332943022251129,-0.06881193816661835,-0.050557609647512436
1788940689030724600,6.894724609375,0.38270339369773865,0.009975817054510117,-0.062414538115262985
1788940689040693500,6.904693603515625,0.40972408652305603,0.07201413065195084,-0.09409409016370773
1788940689050663400,6.914663330078125,0.4168541729450226,0.11643937975168228,-0.12498915940523148
1788940689060633300,6.92463330078125,0.4087793231010437,0.1287093162536621,-0.1238413006067276
1788940689070602500,6.9346025390625,0.4026862680912018,0.11574531346559525,-0.07862962037324905
1788940689080572400,6.944572509765625,0.4028127193450928,0.07082478702068329,0.010686811991035938
1788940689090541300,6.954541259765625,0.4170997738838196,-0.007925953716039658,0.13249553740024567
1788940689100511500,6.964511474609375,0.45397987961769104,-0.060726094990968704,0.28487446904182434
1788940689110481400,6.9744814453125,0.5156554579734802,-0.07203654199838638,0.4372189939022064
1788940689120450600,6.984450439453125,0.5770412683486938,-0.06369678676128387,0.5391286611557007
1788940689130420500,6.99442041015625,0.5958967208862305,-0.0585494264960289,0.5647456049919128
1788940689140389400,7.004389404296875,0.5737507343292236,-0.057435065507888794,0.5255618095397949
1788940689150359300,7.014359375,0.5215842127799988,-0.07306515425443649,0.43558183312416077
1788940689160329500,7.02432958984375,0.45013904571533203,-0.08143062889575958,0.3290292024612427
1788940689170298600,7.034298583984375,0.36492055654525757,-0.06679229438304901,0.23420152068138123
1788940689180268500,7.0442685546875,0.2786487936973572,-0.03490231931209564,0.16748300194740295
1788940689190237400,7.054237548828125,0.21180583536624908,-0.0008434220217168331,0.13560976088047028
1788940689200207400,7.064207275390625,0.1711648404598236,0.05236387625336647,0.1494428664445877
1788940689210177500,7.074177490234375,0.14895115792751312,0.1172853484749794,0.20288825035095215
1788940689220146400,7.084146484375,0.13362932205200195,0.15747705101966858,0.2700643241405487
1788940689230116400,7.094116455078125,0.11684846878051758,0.15367405116558075,0.30729854106903076
1788940689240085200,7.104085205078125,0.08964154869318008,0.12323915958404541,0.29560786485671997
1788940689250055400,7.114055419921875,0.05074341967701912,0.06848030537366867,0.23760077357292175
1788940689260025600,7.124025634765625,0.0016081338981166482,0.0004704373423010111,0.13845165073871613
1788940689269994500,7.133994384765625,-0.07408502697944641,-0.05348147824406624,0.0148926991969347
1788940689279964400,7.14396435546875,-0.16344016790390015,-0.09531515091657639,-0.12017866969108582
1788940689289933600,7.15393359375,-0.24326547980308533,-0.11863299459218979,-0.248571515083313
1788940689299903500,7.163903564453125,-0.2846395671367645,-0.12277910113334656,-0.3606449067592621
1788940689309873700,7.173873779296875,-0.3021887242794037,-0.12057960033416748,-0.46025484800338745
1788940689319842600,7.183842529296875,-0.3095281720161438,-0.12452144175767899,-0.5110245943069458
1788940689329812500,7.1938125,-0.2961663007736206,-0.13672246038913727,-0.5091305375099182
1788940689339781600,7.20378173828125,-0.2644617557525635,-0.1266203224658966,-0.45413127541542053
1788940689349751600,7.21375146484375,-0.23696622252464294,-0.12159894406795502,-0.362304151058197
1788940689359721500,7.223721435546875,-0.2194485068321228,-0.11527044326066971,-0.2522500455379486
1788940689369690400,7.2336904296875,-0.22518256306648254,-0.0983753427863121,-0.13786755502223969
1788940689379660300,7.243660400390625,-0.24422591924667358,-0.06261404603719711,-0.035732947289943695
1788940689389629400,7.25362939453125,-0.2586280405521393,0.004207325167953968,0.04493739828467369
1788940689399599600,7.263599609375,-0.26415470242500305,0.09338205307722092,0.10760778188705444
1788940689409569500,7.273569580078125,-0.2677244246006012,0.19945895671844482,0.16274133324623108
1788940689419538400,7.283538330078125,-0.26975080370903015,0.2832357883453369,0.20052756369113922
1788940689429508400,7.29350830078125,-0.27011725306510925,0.332881897687912,0.21946796774864197
1788940689439477500,7.3034775390625,-0.27256178855895996,0.3449937701225281,0.21128277480602264
1788940689449447400,7.313447509765625,-0.29490169882774353,0.32009828090667725,0.1766347885131836
1788940689459417600,7.32341748046875,-0.32962659001350403,0.2658630609512329,0.1341032087802887
1788940689469386500,7.333386474609375,-0.37041449546813965,0.1764461100101471,0.09185747057199478
1788940689479356400,7.3433564453125,-0.4076932370662689,0.07806918025016785,0.06589815765619278
1788940689489325600,7.35332568359375,-0.41370025277137756,0.007222170475870371,0.07272490113973618
1788940689499295500,7.36329541015625,-0.38118982315063477,-0.02957834303379059,0.11313045769929886
1788940689509265400,7.373265380859375,-0.33825352787971497,-0.019370445981621742,0.18440009653568268
1788940689519234300,7.383234375,-0.30503273010253906,0.013637606985867023,0.2490728497505188
1788940689529204500,7.39320458984375,-0.2929252088069916,0.01966540515422821,0.2651205062866211
1788940689539173400,7.40317333984375,-0.29032617807388306,0.005566546693444252,0.22811728715896606
1788940689549143600,7.4131435546875,-0.2923573851585388,-0.01683596335351467,0.15752513706684113
1788940689559113500,7.423113525390625,-0.3120773136615753,-0.032480619847774506,0.06637387722730637
1788940689569082600,7.43308251953125,-0.34691599011421204,-0.06104835122823715,-0.039483051747083664
1788940689579052500,7.443052490234375,-0.38722464442253113,-0.08633183687925339,-0.142156720161438
1788940689589021400,7.453021484375,-0.42050591111183167,-0.08010482788085938,-0.2166791558265686
1788940689598991400,7.462991455078125,-0.44089275598526,-0.05917198583483696,-0.25979265570640564
1788940689608960500,7.47296044921875,-0.4264563024044037,0.006454164162278175,-0.24014465510845184
1788940689618930700,7.4829306640625,-0.3743736147880554,0.09929178655147552,-0.16051797568798065
1788940689628900600,7.492900634765625,-0.29710814356803894,0.18036852777004242,-0.06672889739274979
1788940689638869500,7.502869384765625,-0.2215120792388916,0.20357275009155273,-0.004723862279206514
1788940689648839700,7.512839599609375,-0.1780698001384735,0.17309340834617615,0.02063901722431183
1788940689658808800,7.522808837890625,-0.15008047223091125,0.09990344196557999,0.021470218896865845
1788940689668778800,7.53277880859375,-0.1346099078655243,0.010340003296732903,0.0003883698955178261
1788940689678748700,7.542748779296875,-0.13414329290390015,-0.0551920160651207,-0.02964533120393753
1788940689688717600,7.552717529296875,-0.12455804646015167,-0.09958264976739883,-0.07365380227565765
1788940689698687500,7.5626875,-0.11564719676971436,-0.14077258110046387,-0.13018544018268585
1788940689708656600,7.57265673828125,-0.10572744905948639,-0.1806371808052063,-0.17688582837581635
1788940689718626600,7.58262646484375,-0.09060804545879364,-0.20608636736869812,-0.19150424003601074
1788940689728596700,7.5925966796875,-0.059103384613990784,-0.18161457777023315,-0.16260361671447754
1788940689738565600,7.602565673828125,-0.003635542932897806,-0.12395284324884415,-0.10419587790966034
1788940689748535600,7.61253564453125,0.06322045624256134,-0.0657140389084816,-0.03980756178498268
1788940689758504700,7.622504638671875,0.11717101186513901,-0.02876036986708641,0.011462518014013767
1788940689768474600,7.632474609375,0.14804236590862274,-0.036684341728687286,0.040536779910326004
1788940689778443500,7.642443603515625,0.16873209178447723,-0.08307964354753494,0.0333276130259037
1788940689788413400,7.652413330078125,0.18360424041748047,-0.1504530906677246,-0.004853060003370047
1788940689798383600,7.662383544921875,0.2027137577533722,-0.23253144323825836,-0.07117722183465958
1788940689808352800,7.672352783203125,0.2228403240442276,-0.2787889540195465,-0.1390252560377121
1788940689818322700,7.68232275390625,0.23937276005744934,-0.2577102482318878,-0.18341100215911865
1788940689828291600,7.69229150390625,0.26377877593040466,-0.20748649537563324,-0.1977742314338684
1788940689838261500,7.702261474609375,0.2943500578403473,-0.16105115413665771,-0.193281352519989
1788940689848230700,7.712230712890625,0.3306303024291992,-0.1689157485961914,-0.17836152017116547
1788940689858200600,7.72220068359375,0.36390796303749084,-0.19333672523498535,-0.14189589023590088
1788940689868170500,7.73217041015625,0.39171138405799866,-0.22353138029575348,-0.08687365800142288
1788940689878139400,7.742139404296875,0.41208383440971375,-0.2638767659664154,-0.03145814314484596
1788940689888109600,7.752109619140625,0.41850897669792175,-0.30334481596946716,0.01374608650803566
1788940689898078700,7.76207861328125,0.41285401582717896,-0.32252416014671326,0.05008118599653244
1788940689908048600,7.772048583984375,0.4136740267276764,-0.2997182011604309,0.08373715728521347
1788940689918018600,7.7820185546875,0.4170575737953186,-0.25413778424263,0.10335002839565277
1788940689927987500,7.791987548828125,0.42112499475479126,-0.19132180511951447,0.10593223571777344
1788940689937957600,7.80195751953125,0.4188029170036316,-0.11415348947048187,0.11293026804924011
1788940689947926500,7.811926513671875,0.40763920545578003,-0.06751994788646698,0.11041251569986343
1788940689957896700,7.821896728515625,0.38256070017814636,-0.060081955045461655,0.0954902321100235
1788940689967865600,7.831865478515625,0.34402021765708923,-0.0773879811167717,0.07335163652896881
1788940689977835800,7.841835693359375,0.3086453676223755,-0.10102147608995438,0.05953497439622879
1788940689987805700,7.8518056640625,0.28759679198265076,-0.09780464321374893,0.07857470959424973
1788940689997774600,7.861774658203125,0.2766783833503723,-0.043814510107040405,0.13283312320709229
1788940690007744500,7.87174462890625,0.28276583552360535,0.059986189007759094,0.22026336193084717
1788940690017713700,7.881713623046875,0.2879478633403778,0.17946907877922058,0.3034425377845764
1788940690027683600,7.89168359375,0.29641804099082947,0.2754102349281311,0.34784889221191406
1788940690037653800,7.90165380859375,0.2986186742782593,0.30441439151763916,0.33257073163986206
1788940690047622700,7.91162255859375,0.27941596508026123,0.27493318915367126,0.26882022619247437
1788940690057592600,7.921592529296875,0.23686708509922028,0.21306033432483673,0.18367938697338104
1788940690067561700,7.931561767578125,0.16797244548797607,0.1424543410539627,0.0950523167848587
1788940690077531600,7.94153173828125,0.08051116019487381,0.081702820956707,0.016067171469330788
1788940690087500500,7.95150048828125,-0.0033653685823082924,0.06447083503007889,-0.04288988932967186
1788940690097470500,7.961470458984375,-0.0714704841375351,0.09418227523565292,-0.07655083388090134
1788940690107440600,7.971440673828125,-0.10314984619617462,0.15630502998828888,-0.0978340208530426
1788940690117409800,7.981409912109375,-0.10881451517343521,0.23591159284114838,-0.11755470931529999
1788940690127379700,7.991379638671875,-0.09116867929697037,0.31385621428489685,-0.12859271466732025
1788940690137348600,8.0013486328125,-0.07940039038658142,0.33395275473594666,-0.15186358988285065
1788940690147318500,8.011318603515624,-0.0984414592385292,0.302659809589386,-0.20631004869937897
1788940690157287700,8.02128759765625,-0.1447732150554657,0.20172138512134552,-0.2956203520298004
1788940690167257600,8.031257568359376,-0.216404527425766,0.05639401823282242,-0.3919130861759186
1788940690177227500,8.0412275390625,-0.2944393455982208,-0.07656208425760269,-0.44171011447906494
1788940690187196400,8.051196533203125,-0.3639476001262665,-0.13879509270191193,-0.4049057364463806
1788940690197166600,8.06116650390625,-0.4106762409210205,-0.10354118794202805,-0.2835594117641449
1788940690207135700,8.0711357421875,-0.4183051288127899,0.041355811059474945,-0.07522670924663544
1788940690217105700,8.081105712890626,-0.3884023129940033,0.25838807225227356,0.18694348633289337
1788940690227074600,8.091074462890624,-0.3315177261829376,0.4437424838542938,0.4232596158981323
1788940690237044500,8.10104443359375,-0.288165420293808,0.5403305292129517,0.5649443864822388
1788940690247014400,8.111014404296874,-0.28584474325180054,0.532837450504303,0.5974211096763611
1788940690256983600,8.120983642578125,-0.31341487169265747,0.4381560683250427,0.5232546925544739
1788940690266953700,8.13095361328125,-0.3624042570590973,0.2561820149421692,0.3468141257762909
1788940690276922600,8.140922607421874,-0.43082189559936523,-0.014121398329734802,0.07370702922344208
1788940690286892500,8.150892578125,-0.5220261216163635,-0.3283781409263611,-0.25789007544517517
1788940690296861700,8.16086181640625,-0.6163721084594727,-0.5458106994628906,-0.5415206551551819
1788940690306831600,8.17083154296875,-0.6888670921325684,-0.6771091222763062,-0.7436697483062744
1788940690316801500,8.180801513671875,-0.7353743314743042,-0.6917157769203186,-0.8111915588378906
1788940690326770400,8.1907705078125,-0.7349423766136169,-0.5804276466369629,-0.7297965884208679
1788940690336740600,8.20074072265625,-0.6887578368186951,-0.34520867466926575,-0.5264660716056824
1788940690346709500,8.21070947265625,-0.5995730757713318,-0.009319901466369629,-0.22483648359775543
1788940690356679700,8.2206796875,-0.46067020297050476,0.3173653781414032,0.09386743605136871
1788940690366648600,8.230648681640625,-0.3067813217639923,0.5064913630485535,0.32550227642059326
1788940690376618500,8.240618408203124,-0.1955142766237259,0.57002854347229,0.4331800639629364
1788940690386588700,8.250588623046875,-0.14499357342720032,0.5203371644020081,0.434517502784729
1788940690396557600,8.2605576171875,-0.1621132791042328,0.4266887903213501,0.3664630949497223
1788940690406527500,8.270527587890625,-0.1934022307395935,0.3103800117969513,0.26668405532836914
1788940690416496600,8.28049658203125,-0.22718894481658936,0.1916908472776413,0.15216173231601715
1788940690426466800,8.290466796875,-0.26491981744766235,0.0726693868637085,0.048213765025138855
1788940690436435700,8.300435791015625,-0.2990184426307678,0.0052484553307294846,-0.013200891204178333
1788940690446405600,8.310405517578126,-0.3088127374649048,-0.007166935596615076,-0.01161364745348692
1788940690456375600,8.32037548828125,-0.294820636510849,0.024006545543670654,0.026632197201251984
1788940690466344700,8.3303447265625,-0.2646150588989258,0.0770319476723671,0.07039885222911835
1788940690476314600,8.340314697265624,-0.238351508975029,0.10333338379859924,0.07184708118438721
1788940690486283500,8.350283447265625,-0.2257222682237625,0.08733870089054108,0.03573434427380562
1788940690496253400,8.36025341796875,-0.22072702646255493,0.06384732574224472,-0.004199614282697439
1788940690506222600,8.37022265625,-0.2171245813369751,0.04805158078670502,-0.04003431275486946
1788940690516192800,8.38019287109375,-0.20475304126739502,0.04601965472102165,-0.06991131603717804
1788940690526161700,8.39016162109375,-0.1785355657339096,0.05942121520638466,-0.07175422459840775
1788940690536131600,8.400131591796875,-0.13259544968605042,0.07895579934120178,-0.05922875553369522
1788940690546101500,8.4101015625,-0.08091947436332703,0.09163776785135269,-0.05340948700904846
1788940690556070700,8.420070556640624,-0.030223125591874123,0.05662810802459717,-0.07537762075662613
1788940690566040600,8.43004052734375,-0.00274835666641593,0.024530092254281044,-0.11682546138763428
1788940690576009500,8.440009521484376,0.01767357438802719,-0.023696476593613625,-0.1738453060388565
1788940690585979600,8.449979736328125,0.03529784083366394,-0.09684978425502777,-0.24577860534191132
1788940690595948800,8.45994873046875,0.04530125483870506,-0.1937762349843979,-0.3281732499599457
1788940690605918700,8.469918701171874,0.04584107920527458,-0.31097346544265747,-0.43292683362960815
1788940690615888600,8.479888671875,0.03855425864458084,-0.41667798161506653,-0.5428515076637268
1788940690625857500,8.489857421875,0.029496850445866585,-0.4754350483417511,-0.6025654077529907
1788940690635827500,8.499827392578124,0.04654746130108833,-0.44716566801071167,-0.5759220719337463
1788940690645796400,8.50979638671875,0.10835809260606766,-0.3245460093021393,-0.4497849643230438
1788940690655766300,8.519766357421876,0.19610849022865295,-0.1249610185623169,-0.25483831763267517
1788940690665735200,8.529735107421875,0.3110140264034271,0.07145828008651733,-0.03386785089969635
1788940690675705000,8.539705078125,0.40651318430900574,0.1553291231393814,0.12632088363170624
1788940690685675300,8.54967529296875,0.4581436216831207,0.14028199017047882,0.20154719054698944
1788940690695644400,8.55964453125,0.49067240953445435,0.039534490555524826,0.23008963465690613
1788940690705614300,8.5696142578125,0.5085451602935791,-0.06988094747066498,0.22090919315814972
1788940690715583200,8.579583251953125,0.5268774628639221,-0.16412369906902313,0.19936585426330566
1788940690725553200,8.58955322265625,0.5432311296463013,-0.21860797703266144,0.17449751496315002
1788940690735522300,8.599522216796874,0.5479471683502197,-0.24989959597587585,0.1606741100549698
1788940690745492200,8.6094921875,0.544253408908844,-0.2687438428401947,0.17790183424949646
1788940690755461000,8.619461181640625,0.5435563325881958,-0.28311413526535034,0.23871678113937378
1788940690765431000,8.62943115234375,0.5396092534065247,-0.24961714446544647,0.3413749933242798
1788940690775401500,8.6394013671875,0.5243425965309143,-0.15352489054203033,0.4786740243434906
1788940690785370400,8.649370361328126,0.5148822069168091,-0.0253424234688282,0.600914716720581
1788940690795340300,8.65934033203125,0.510928750038147,0.06918563693761826,0.6551482081413269
1788940690805309200,8.66930908203125,0.50233393907547,0.14037086069583893,0.648429811000824
1788940690815279400,8.679279296875,0.4867033362388611,0.16479529440402985,0.5896985530853271
1788940690825248300,8.689248291015625,0.44030892848968506,0.13123121857643127,0.4842032790184021
1788940690835218200,8.69921826171875,0.38072168827056885,0.061491504311561584,0.3723170757293701
1788940690845187000,8.70918701171875,0.3307107090950012,0.01176629401743412,0.30123117566108704
1788940690855157200,8.7191572265625,0.31040671467781067,0.002925846492871642,0.29388025403022766
1788940690865127400,8.72912744140625,0.30337730050086975,0.010474310256540775,0.3054484724998474
1788940690875096300,8.739096435546875,0.29010137915611267,0.011719545349478722,0.299002081155777
1788940690885066200,8.749066162109376,0.2695992887020111,-0.013702457770705223,0.2778421938419342
1788940690895035400,8.759035400390625,0.22937902808189392,-0.047124721109867096,0.22916685044765472
1788940690905005300,8.76900537109375,0.16545596718788147,-0.08983489125967026,0.16227249801158905
1788940690914974200,8.77897412109375,0.09268634021282196,-0.12365848571062088,0.09831330925226212
1788940690924944100,8.788944091796875,0.02450222335755825,-0.11220263689756393,0.04327748343348503
1788940690934913300,8.798913330078125,-0.02239655703306198,-0.04664194583892822,0.0025891675613820553
1788940690944883500,8.808883544921875,-0.05423491448163986,0.04218965768814087,-0.03589111194014549
1788940690954852400,8.818852294921875,-0.05842868238687515,0.11916057020425797,-0.06918637454509735
1788940690964822300,8.828822265625,-0.04416266083717346,0.151652991771698,-0.09999275952577591
1788940690974792200,8.838792236328125,-0.02111773192882538,0.1693357527256012,-0.11132651567459106
1788940690984761300,8.84876123046875,-0.0015632057329639792,0.1630467027425766,-0.09641920030117035
1788940690994731300,8.858731201171874,-0.01123068667948246,0.12972033023834229,-0.08067606389522552
1788940691004700200,8.8687001953125,-0.052901700139045715,0.05899902433156967,-0.09033508598804474
1788940691014670300,8.87867041015625,-0.10540831834077835,0.0008457065559923649,-0.1012207567691803
1788940691024639500,8.888639404296875,-0.13649699091911316,-0.025155533105134964,-0.11421458423137665
1788940691034609400,8.898609375,-0.1571245938539505,-0.011852094903588295,-0.13906259834766388
1788940691044578300,8.908578369140624,-0.1535988301038742,0.07917342334985733,-0.13365638256072998
1788940691054548200,8.91854833984375,-0.12368996441364288,0.21646694839000702,-0.08624494820833206
1788940691064518100,8.92851806640625,-0.08343549072742462,0.3293759524822235,-0.024295294657349586
1788940691074487300,8.9384873046875,-0.07092185318470001,0.3575165271759033,0.0005300962366163731
1788940691084457200,8.948457275390625,-0.08144134283065796,0.30938228964805603,-0.008319588378071785
1788940691094426000,8.958426025390626,-0.1007707267999649,0.15480488538742065,-0.05000027269124985
1788940691104396300,8.968396240234375,-0.14220206439495087,-0.044372133910655975,-0.12683646380901337
1788940691114365400,8.978365478515625,-0.19006305932998657,-0.2572314143180847,-0.22224847972393036
1788940691124335400,8.98833544921875,-0.2575731575489044,-0.45425400137901306,-0.35362231731414795
1788940691134304300,8.99830419921875,-0.36108192801475525,-0.6181586980819702,-0.5235201716423035
1788940691144274200,9.008274169921876,-0.47370514273643494,-0.7228577136993408,-0.7167282700538635
1788940691154244000,9.018244140625,-0.5890616178512573,-0.7486251592636108,-0.8919802308082581
1788940691164213200,9.028213134765625,-0.680542528629303,-0.6602263450622559,-0.9871863722801208
1788940691174183400,9.038183349609374,-0.7195554375648499,-0.4485204815864563,-0.9551315307617188
1788940691184152300,9.04815234375,-0.7019031643867493,-0.1261672079563141,-0.8013185262680054
1788940691194122200,9.058122314453126,-0.633062481880188,0.20344699919223785,-0.5672467947006226
1788940691204091400,9.06809130859375,-0.5243261456489563,0.4509910047054291,-0.2979498505592346
1788940691214061300,9.078061279296875,-0.4238956570625305,0.5718721151351929,-0.06738357245922089
1788940691224030200,9.0880302734375,-0.37050965428352356,0.5545996427536011,0.08469703793525696
1788940691234000100,9.098000244140625,-0.3727937638759613,0.43424826860427856,0.160207137465477
1788940691243969300,9.10796923828125,-0.41047003865242004,0.28047600388526917,0.20768596231937408
1788940691253939200,9.117939208984374,-0.46157974004745483,0.14719325304031372,0.25829556584358215
1788940691263908400,9.127908447265625,-0.48554179072380066,0.0651540458202362,0.32907307147979736
1788940691273878300,9.137878173828126,-0.4603410065174103,0.04667174443602562,0.4463827908039093
1788940691283848200,9.14784814453125,-0.38285768032073975,0.09086903184652328,0.6047316789627075
1788940691293817300,9.1578173828125,-0.3007647693157196,0.14594155550003052,0.73527592420578
1788940691303787300,9.167787353515624,-0.2555570602416992,0.16601912677288055,0.797206699848175
1788940691313756200,9.177756103515625,-0.2526589035987854,0.14349164068698883,0.7848221659660339
1788940691323726000,9.18772607421875,-0.2767682373523712,0.0796322301030159,0.7192873358726501
1788940691333695200,9.1976953125,-0.3307954668998718,0.004007485695183277,0.6132731437683105
1788940691343665400,9.20766552734375,-0.38418278098106384,-0.048396866768598557,0.4914756417274475
1788940691353634300,9.21763427734375,-0.4246997833251953,-0.07549922913312912,0.37783440947532654
1788940691363604200,9.227604248046875,-0.4448543190956116,-0.07675144821405411,0.26954761147499084
1788940691373573400,9.237573486328126,-0.44695529341697693,-0.0821106806397438,0.17097193002700806
1788940691383543300,9.247543212890625,-0.4178200364112854,-0.09200645983219147,0.1089775487780571
1788940691393513200,9.25751318359375,-0.3504609167575836,-0.0780838206410408,0.11497830599546432
1788940691403482000,9.267482177734376,-0.2490120679140091,-0.03738352656364441,0.17883877456188202
1788940691413452000,9.2774521484375,-0.14118166267871857,0.0012410199269652367,0.26728764176368713
1788940691423421400,9.28742138671875,-0.06371722370386124,0.01844317652285099,0.3332187235355377
1788940691433391400,9.297391357421875,-0.04180440306663513,-0.04498836398124695,0.32362931966781616
1788940691443360300,9.3073603515625,-0.06600508093833923,-0.20823507010936737,0.20281212031841278
1788940691453330200,9.317330078125,-0.1288602650165558,-0.4493970572948456,0.002202148549258709
1788940691463299300,9.32729931640625,-0.22478227317333221,-0.700374186038971,-0.2418784201145172
1788940691473269200,9.337269287109375,-0.30661001801490784,-0.8823529481887817,-0.4540923833847046
1788940691483238100,9.347238037109374,-0.33502140641212463,-0.9293700456619263,-0.580643355846405
1788940691493208000,9.3572080078125,-0.3068116307258606,-0.8202813267707825,-0.5730078220367432
1788940691503177200,9.36717724609375,-0.20105084776878357,-0.5584598779678345,-0.42691242694854736
1788940691513147400,9.3771474609375,-0.02472987398505211,-0.20045241713523865,-0.18573789298534393
1788940691523117300,9.387117431640625,0.1942349523305893,0.15462099015712738,0.07266329973936081
1788940691533086200,9.397086181640624,0.3950117528438568,0.3541320860385895,0.25228917598724365
1788940691543056100,9.40705615234375,0.5051193237304688,0.41433602571487427,0.31153014302253723
1788940691553025300,9.417025390625,0.5393915176391602,0.33869779109954834,0.24357061088085175
1788940691562995200,9.4269951171875,0.5168614387512207,0.19180604815483093,0.10028430074453354
1788940691572964000,9.436964111328125,0.489025741815567,-0.0018963203765451908,-0.07254531979560852
1788940691582934300,9.446934326171874,0.4752098023891449,-0.20537807047367096,-0.23765170574188232
1788940691592903400,9.4569033203125,0.48469310998916626,-0.3595600724220276,-0.33371850848197937
1788940691602873300,9.466873291015625,0.502128005027771,-0.43651825189590454,-0.32870936393737793
1788940691612842200,9.47684228515625,0.5221083164215088,-0.43913373351097107,-0.2183811515569687
1788940691622812200,9.486812255859375,0.554671049118042,-0.3118780255317688,-0.011904150247573853
1788940691632781300,9.49678125,0.6213104724884033,-0.11436419188976288,0.2394312620162964
1788940691642751500,9.50675146484375,0.6987549066543579,0.03004038892686367,0.4258594512939453
1788940691652721400,9.516721435546875,0.7308605313301086,0.06796972453594208,0.47305890917778015
1788940691662690300,9.526690185546874,0.7099506855010986,0.04436852037906647,0.4007948338985443
1788940691672660500,9.536660400390625,0.6433988809585571,-0.01532239094376564,0.23505212366580963
1788940691682629600,9.546629638671876,0.5517928004264832,-0.060718901455402374,0.04335913062095642
1788940691692599600,9.556599609375,0.45460861921310425,-0.07591091096401215,-0.12530237436294556
1788940691702568400,9.566568359375,0.3810632824897766,-0.06743460893630981,-0.23922307789325714
1788940691712538400,9.576538330078124,0.34380510449409485,-0.06863556802272797,-0.30004093050956726
1788940691722507500,9.586507568359375,0.31968966126441956,-0.08617168664932251,-0.30894386768341064
1788940691732477400,9.5964775390625,0.3143552839756012,-0.09894543141126633,-0.24658527970314026
1788940691742446300,9.6064462890625,0.3239450454711914,-0.08625573664903641,-0.12319649010896683
1788940691752416300,9.616416259765625,0.33548587560653687,-0.021686330437660217,0.03916391730308533
1788940691762385400,9.626385498046876,0.3398144841194153,0.09643588960170746,0.22400321066379547
1788940691772355600,9.63635546875,0.33134838938713074,0.2542165517807007,0.40528035163879395
1788940691782324500,9.646324462890625,0.3070771098136902,0.37511980533599854,0.5414027571678162
1788940691792294400,9.65629443359375,0.2792131006717682,0.47114893794059753,0.6110729575157166
1788940691802263600,9.666263671875,0.2749011814594269,0.527857780456543,0.6177026629447937
1788940691812233500,9.6762333984375,0.2774525582790375,0.5401536822319031,0.5598641633987427
1788940691822203400,9.686203369140625,0.28023290634155273,0.5141170620918274,0.4584938585758209
1788940691832172300,9.69617236328125,0.27266159653663635,0.4166114330291748,0.3114292025566101
1788940691842142500,9.706142578125,0.23354747891426086,0.26965582370758057,0.13912853598594666
1788940691852111600,9.716111572265625,0.177987203001976,0.1080317273736,-0.02790214866399765
1788940691862081500,9.72608154296875,0.11806100606918335,-0.0291367806494236,-0.15490670502185822
1788940691872050400,9.736050537109374,0.06116585433483124,-0.13770335912704468,-0.23612520098686218
1788940691882020400,9.746020263671875,0.007926872000098228,-0.21593184769153595,-0.29062172770500183
1788940691891989500,9.755989501953126,-0.036164507269859314,-0.24990199506282806,-0.3234723210334778
1788940691901959400,9.76595947265625,-0.07644481956958771,-0.2344982624053955,-0.34239062666893005
1788940691911928300,9.77592822265625,-0.12129884213209152,-0.20227853953838348,-0.3688669800758362
1788940691921897500,9.7858974609375,-0.18555359542369843,-0.1896848976612091,-0.41353103518486023
1788940691931867400,9.795867431640625,-0.25179818272590637,-0.21448741853237152,-0.47868379950523376
1788940691941836300,9.805836181640625,-0.300022691488266,-0.25231122970581055,-0.5500621795654297
1788940691951806500,9.815806396484374,-0.33260494470596313,-0.29148727655410767,-0.6121352314949036
1788940691961776400,9.8257763671875,-0.3589175045490265,-0.3645995855331421,-0.6500085592269897
1788940691971745500,9.83574560546875,-0.38400188088417053,-0.4311628043651581,-0.6241430044174194
1788940691981715500,9.845715576171875,-0.38483142852783203,-0.4467391073703766,-0.5147387385368347
1788940691991684400,9.855684326171875,-0.37323370575904846,-0.3733018934726715,-0.32495927810668945
1788940692001654300,9.865654296875,-0.3456721007823944,-0.245287224650383,-0.09682144969701767
1788940692011623400,9.87562353515625,-0.3250662684440613,-0.09812313318252563,0.09943137317895889
1788940692021593600,9.885593505859376,-0.3303390443325043,0.011643040925264359,0.20471490919589996
1788940692031562500,9.8955625,-0.3620961904525757,0.09891071170568466,0.21761801838874817
1788940692041532400,9.905532470703125,-0.38491520285606384,0.15395131707191467,0.1695341020822525
1788940692051501600,9.91550146484375,-0.4023011326789856,0.1561172753572464,0.07404673844575882
1788940692061471500,9.925471435546875,-0.43195754289627075,0.12737536430358887,-0.03300408273935318
1788940692071440400,9.9354404296875,-0.47272196412086487,0.09684672951698303,-0.11542901396751404
1788940692081410300,9.945410400390625,-0.5167655944824219,0.08196552097797394,-0.14587081968784332
1788940692091379500,9.95537939453125,-0.5505316853523254,0.08199762552976608,-0.1268371343612671
1788940692101349600,9.965349609375,-0.567158043384552,0.07507341355085373,-0.07861845940351486
1788940692111318500,9.975318603515625,-0.5748764872550964,0.05964575335383415,-0.03147902712225914
1788940692121288400,9.985288330078125,-0.5779936909675598,0.03277125954627991,-0.0013136682100594044
1788940692131258400,9.99525830078125,-0.581798255443573,0.02291867509484291,0.007813667878508568
1788940692141227500,10.0052275390625,-0.5836920738220215,0.028674565255641937,0.006074890028685331
1788940692151197400,10.015197509765626,-0.5881543755531311,0.03743941709399223,-0.02021452784538269
1788940692161166300,10.025166259765625,-0.6017687320709229,0.019709687680006027,-0.0780317559838295
1788940692171136300,10.03513623046875,-0.6155230402946472,0.009250689297914505,-0.14385968446731567
1788940692181105400,10.04510546875,-0.6161624789237976,0.0177064910531044,-0.19560888409614563
1788940692191075600,10.05507568359375,-0.5981981158256531,0.05024230107665062,-0.19445237517356873
1788940692201044500,10.06504443359375,-0.5378729701042175,0.1350053995847702,-0.12150465697050095
1788940692211014400,10.075014404296875,-0.4325074255466461,0.2220333367586136,-0.00710923969745636
1788940692220983600,10.084983642578125,-0.30510154366493225,0.2905718982219696,0.11448749899864197
1788940692230953500,10.094953369140624,-0.18310947716236115,0.3025982677936554,0.22001896798610687
1788940692240922400,10.10492236328125,-0.10476647317409515,0.2748393416404724,0.2972879111766815
1788940692250892300,10.114892333984375,-0.052195701748132706,0.2004658430814743,0.32972756028175354
1788940692260862500,10.124862548828125,-0.003946416545659304,0.11212212592363358,0.3062129020690918
1788940692270831600,10.13483154296875,0.04158908128738403,0.04550034925341606,0.24639670550823212
1788940692280801500,10.144801513671876,0.09093479067087173,-0.007911210879683495,0.1711442917585373
1788940692290770400,10.1547705078125,0.13521161675453186,-0.05123763531446457,0.07612508535385132
1788940692300740600,10.16474072265625,0.17022687196731567,-0.09741312265396118,-0.02789478376507759
1788940692310709500,10.17470947265625,0.20285692811012268,-0.16541942954063416,-0.1406475156545639
1788940692320679400,10.184679443359375,0.22196483612060547,-0.2219863086938858,-0.2574734687805176
1788940692330648300,10.1946484375,0.22820760309696198,-0.25891414284706116,-0.3551117777824402
1788940692340618500,10.204618408203125,0.2340492606163025,-0.265648752450943,-0.4207965135574341
1788940692350587400,10.21458740234375,0.2411399781703949,-0.24939070641994476,-0.45736902952194214
1788940692360557600,10.2245576171875,0.2628479301929474,-0.22093749046325684,-0.48706671595573425
1788940692370526500,10.2345263671875,0.3010561764240265,-0.23227298259735107,-0.5255241990089417
1788940692380496400,10.244496337890626,0.34411442279815674,-0.2752577066421509,-0.5565185546875
1788940692390465500,10.254465576171874,0.3747067153453827,-0.34587621688842773,-0.5842302441596985
1788940692400435500,10.264435546875,0.4136655628681183,-0.4126110374927521,-0.589493453502655
1788940692410404400,10.274404296875,0.463164746761322,-0.45058220624923706,-0.5463044047355652
1788940692420374300,10.284374267578125,0.5315486192703247,-0.44192907214164734,-0.4459282159805298
1788940692430343400,10.294343505859375,0.61487877368927,-0.3853808343410492,-0.2878860831260681
1788940692440313600,10.304313720703124,0.6918222904205322,-0.26259446144104004,-0.0904262587428093
1788940692450283500,10.314283447265625,0.76726233959198,-0.09364400058984756,0.11452527344226837
1788940692460252400,10.32425244140625,0.828242301940918,0.043244875967502594,0.27344250679016113
1788940692470222600,10.33422265625,0.8527970314025879,0.14424215257167816,0.36446595191955566
1788940692480191500,10.34419140625,0.8607441782951355,0.23004494607448578,0.42259106040000916
1788940692490161400,10.354161376953124,0.8513281941413879,0.2609979510307312,0.44713571667671204
1788940692500130300,10.36413037109375,0.8205729722976685,0.2474355548620224,0.44108182191848755
1788940692510100500,10.3741005859375,0.7723599076271057,0.17499202489852905,0.4082055687904358
1788940692520069400,10.3840693359375,0.6987743377685547,0.06492306292057037,0.36120450496673584
1788940692530039600,10.39403955078125,0.6033044457435608,-0.07311488687992096,0.2988724410533905
1788940692540008400,10.404008544921876,0.49476945400238037,-0.18984124064445496,0.23708978295326233
1788940692549978400,10.413978271484375,0.3872067630290985,-0.2691500782966614,0.1667352169752121
1788940692559947500,10.423947509765625,0.3034042716026306,-0.2854587435722351,0.11083947122097015
1788940692569917400,10.43391748046875,0.2428256720304489,-0.27053630352020264,0.059093087911605835
1788940692579886300,10.44388623046875,0.18889746069908142,-0.25655046105384827,0.0017270008102059364
1788940692589856500,10.4538564453125,0.12838253378868103,-0.23766709864139557,-0.058829545974731445
1788940692599825400,10.463825439453124,0.07002760469913483,-0.19042740762233734,-0.07739657163619995
1788940692609795600,10.473795654296875,0.022498609498143196,-0.08690052479505539,-0.03390251100063324
1788940692619764500,10.483764404296876,0.0014601711882278323,0.07648707181215286,0.07165294140577316
1788940692629734400,10.493734375,0.024992501363158226,0.26582926511764526,0.2217906266450882
1788940692639704600,10.50370458984375,0.08107467740774155,0.37530410289764404,0.36810922622680664
1788940692649673500,10.513673583984374,0.12494377791881561,0.406742662191391,0.4623301029205322
1788940692659643400,10.523643310546875,0.13491864502429962,0.3577421009540558,0.5003038644790649
1788940692669612300,10.5336123046875,0.10997535288333893,0.2502425014972687,0.45868849754333496
1788940692679582700,10.543582763671875,0.08356958627700806,0.13090412318706512,0.36560648679733276
1788940692689551600,10.553551513671875,0.03668532520532608,0.060890164226293564,0.2684902250766754
1788940692699521500,10.563521484375,-0.012410047464072704,0.05531163886189461,0.18430212140083313
1788940692709490400,10.573490478515625,-0.05488232895731926,0.08769623935222626,0.12123584747314453
1788940692719460600,10.583460693359376,-0.0919700413942337,0.1228044256567955,0.0771339014172554
1788940692729429500,10.593429443359375,-0.13263623416423798,0.1502768099308014,0.04334301874041557
1788940692739399400,10.6033994140625,-0.17491817474365234,0.17182603478431702,0.011093204841017723
1788940692749368300,10.613368408203126,-0.22193428874015808,0.18000513315200806,-0.02787129022181034
1788940692759338500,10.62333837890625,-0.2685356140136719,0.18803749978542328,-0.06707142293453217
1788940692769307600,10.6333076171875,-0.3083727955818176,0.20178911089897156,-0.09345032274723053
1788940692779277600,10.643277587890625,-0.3423941433429718,0.20613378286361694,-0.11228020489215851
1788940692789246500,10.65324658203125,-0.3775264620780945,0.19338390231132507,-0.126703679561615
1788940692799216400,10.66321630859375,-0.4041000008583069,0.16370350122451782,-0.11972273141145706
1788940692809185500,10.673185546875,-0.409105509519577,0.13103920221328735,-0.08028938621282578
1788940692819155500,10.683155517578125,-0.3980216979980469,0.11934926360845566,-0.01857675239443779
1788940692829124400,10.693124267578124,-0.37842634320259094,0.12915244698524475,0.04919518902897835
1788940692839094500,10.703094482421875,-0.3694533407688141,0.14007113873958588,0.08559554070234299
1788940692849063700,10.713063720703126,-0.3799286484718323,0.11684976518154144,0.0609697587788105
1788940692859033600,10.72303369140625,-0.4016089141368866,0.0990702360868454,0.001842522993683815
1788940692869002500,10.73300244140625,-0.4299061596393585,0.11277209222316742,-0.06054515019059181
1788940692878972400,10.742972412109374,-0.4582235515117645,0.12376055866479874,-0.12338269501924515
1788940692888941600,10.752941650390625,-0.48533907532691956,0.11672905087471008,-0.1767512857913971
1788940692898911500,10.762911376953125,-0.5075812935829163,0.10609904676675797,-0.2057909220457077
1788940692908880400,10.77288037109375,-0.5115452408790588,0.10141929239034653,-0.19853262603282928
1788940692918850300,10.782850341796875,-0.5017455816268921,0.08465762436389923,-0.17366430163383484
1788940692928819500,10.7928193359375,-0.4796102046966553,0.06112407147884369,-0.13942137360572815
1788940692938789600,10.80278955078125,-0.4545442759990692,0.026440657675266266,-0.10693506896495819
1788940692948759600,10.812759521484375,-0.4347929358482361,-0.02070528268814087,-0.09125703573226929
1788940692958728400,10.822728515625,-0.4245895743370056,-0.07940135151147842,-0.10544343292713165
1788940692968698600,10.83269873046875,-0.4213302433490753,-0.14485099911689758,-0.14554060995578766
1788940692978667500,10.84266748046875,-0.42441606521606445,-0.2034706324338913,-0.2012544721364975
1788940692988637400,10.852637451171875,-0.4237448573112488,-0.20970922708511353,-0.25434374809265137
1788940692998606300,10.8626064453125,-0.4077160954475403,-0.1795034110546112,-0.2646014392375946
1788940693008576500,10.872576416015624,-0.39361608028411865,-0.11741407215595245,-0.2379051297903061
1788940693018545700,10.882545654296875,-0.3544154167175293,-0.05274026840925217,-0.16334247589111328
1788940693028515600,10.892515625,-0.2939567267894745,0.021747633814811707,-0.04038587212562561
1788940693038484500,10.902484375,-0.21637724339962006,0.07563936710357666,0.10560409724712372
1788940693048454400,10.912454345703125,-0.15053175389766693,0.0797697901725769,0.22620519995689392
1788940693058423600,10.922423583984376,-0.12058237940073013,0.053661491721868515,0.302897572517395
1788940693068393500,10.9323935546875,-0.11256279796361923,0.005545639432966709,0.33140310645103455
1788940693078362400,10.9423623046875,-0.12565089762210846,-0.0386015810072422,0.3118080794811249
1788940693088332300,10.952332275390624,-0.1407354474067688,-0.07518035918474197,0.26245471835136414
1788940693098301400,10.962301513671875,-0.15650908648967743,-0.08492832630872726,0.20662499964237213
1788940693108271600,10.972271728515626,-0.16703659296035767,-0.07511214166879654,0.1499311923980713
1788940693118240500,10.982240478515624,-0.16768667101860046,-0.054870251566171646,0.09619765728712082
1788940693128210400,10.99221044921875,-0.16200891137123108,-0.044756945222616196,0.032133571803569794
1788940693138179600,11.0021796875,-0.15326015651226044,-0.056550752371549606,-0.036628447473049164
1788940693148149500,11.0121494140625,-0.15411856770515442,-0.0541316382586956,-0.10358785837888718
1788940693158118400,11.022118408203125,-0.1327722668647766,-0.028760768473148346,-0.16865740716457367
1788940693168088300,11.03208837890625,-0.12163528054952621,0.014865152537822723,-0.21408431231975555
1788940693178057500,11.042057373046875,-0.11286123096942902,0.07469812035560608,-0.23071548342704773
1788940693188027600,11.052027587890626,-0.08354635536670685,0.11298160254955292,-0.232057124376297
1788940693197996500,11.06199658203125,-0.037418268620967865,0.11351769417524338,-0.23071995377540588
1788940693207966500,11.071966552734375,0.018941693007946014,0.0727401077747345,-0.24247892200946808
1788940693217935600,11.081935546875,0.06690096110105515,-0.008997094817459583,-0.2784835398197174
1788940693227905500,11.091905517578125,0.106612429022789,-0.08946236222982407,-0.32892581820487976
1788940693237874400,11.10187451171875,0.14379867911338806,-0.1394837200641632,-0.37416574358940125
1788940693247844400,11.11184423828125,0.17494837939739227,-0.14444604516029358,-0.41151943802833557
1788940693257813500,11.1218134765625,0.20459948480129242,-0.13249696791172028,-0.4473285675048828
1788940693267783400,11.131783447265626,0.23220857977867126,-0.0919136106967926,-0.4623618721961975
1788940693277752300,11.14175244140625,0.27410808205604553,-0.03289317339658737,-0.4315946400165558
1788940693287722500,11.151722412109375,0.33913809061050415,0.044394515454769135,-0.34591057896614075
1788940693297691600,11.161691650390624,0.4104767143726349,0.11878485232591629,-0.229878231883049
1788940693307661600,11.17166162109375,0.4733380973339081,0.13388435542583466,-0.12826457619667053
1788940693317630500,11.18163037109375,0.5123757719993591,0.09311243146657944,-0.07099195569753647
1788940693327600400,11.191600341796875,0.5243762731552124,0.03584297373890877,-0.054716940969228745
1788940693337569500,11.201569580078125,0.5295146107673645,-0.04003554582595825,-0.07507414370775223
1788940693347539500,11.21153955078125,0.5377864241600037,-0.10163670033216476,-0.12282875925302505
1788940693357508400,11.22150830078125,0.5681920051574707,-0.148530974984169,-0.17306795716285706
1788940693367478500,11.231478515625,0.6065796613693237,-0.16549989581108093,-0.19560685753822327
1788940693377447700,11.24144775390625,0.6511442065238953,-0.15139232575893402,-0.17898288369178772
1788940693387417600,11.25141748046875,0.6929798126220703,-0.1309073269367218,-0.13083168864250183
1788940693397386500,11.261386474609376,0.7143160104751587,-0.14087767899036407,-0.06158151105046272
1788940693407356400,11.2713564453125,0.7062557935714722,-0.1516939103603363,0.01591450534760952
1788940693417325600,11.28132568359375,0.6836063861846924,-0.1503460854291916,0.0869482010602951
1788940693427295500,11.29129541015625,0.6569010615348816,-0.14421586692333221,0.14113272726535797
1788940693437264400,11.301264404296875,0.6351334452629089,-0.13163109123706818,0.17615675926208496
1788940693447234600,11.311234619140626,0.6189537644386292,-0.12380710989236832,0.19356107711791992
1788940693457203700,11.32120361328125,0.6044602990150452,-0.09301137179136276,0.19187849760055542
1788940693467173600,11.331173583984375,0.5991592407226562,-0.061213649809360504,0.18599821627140045
1788940693477142500,11.341142578125,0.5965170860290527,-0.012164348736405373,0.19439862668514252
1788940693487112400,11.351112548828125,0.5836544632911682,0.03913532942533493,0.20740023255348206
1788940693497081600,11.36108154296875,0.573658287525177,0.07170552015304565,0.24269936978816986
1788940693507051500,11.371051513671874,0.5694412589073181,0.0967504158616066,0.30363112688064575
1788940693517020400,11.3810205078125,0.550464928150177,0.10292629152536392,0.37067192792892456
1788940693526990300,11.390990234375,0.5109220147132874,0.10480758547782898,0.43713438510894775
1788940693536959500,11.40095947265625,0.4589509665966034,0.10258758068084717,0.4861123263835907
1788940693546929700,11.4109296875,0.4010487496852875,0.11466319859027863,0.5169774293899536
1788940693556898600,11.420898681640624,0.3570759892463684,0.14436836540699005,0.5237692594528198
1788940693566868500,11.430868408203125,0.3191242218017578,0.16611675918102264,0.49249494075775146
1788940693576837600,11.440837646484376,0.2741418182849884,0.17274349927902222,0.4196859896183014
1788940693586807600,11.4508076171875,0.22735974192619324,0.12771333754062653,0.32314276695251465
1788940693596776400,11.4607763671875,0.16046299040317535,0.06546753644943237,0.21687917411327362
1788940693606746400,11.470746337890626,0.07893572002649307,0.014067301526665688,0.11825254559516907
1788940693616715500,11.480715576171875,-0.00138255232013762,-0.022312011569738388,0.040319133549928665
1788940693626685700,11.490685791015625,-0.07206026464700699,-0.02422213740646839,-0.0009022662416100502
1788940693636655000,11.500655029296874,-0.1333358734846115,-0.007280172314494848,-0.017083100974559784
1788940693646624000,11.5106240234375,-0.18280252814292908,0.01033376157283783,-0.023067288100719452
1788940693656594000,11.520593994140626,-0.21814745664596558,0.05077625811100006,-0.0009188419207930565
1788940693666563000,11.53056298828125,-0.2412320077419281,0.10638625919818878,0.05675963684916496
1788940693676533000,11.540532958984375,-0.2703588008880615,0.1797594279050827,0.1338229477405548
1788940693686502000,11.550501953125,-0.31199732422828674,0.23339198529720306,0.19841837882995605
1788940693696471800,11.560471923828125,-0.37105000019073486,0.2442433089017868,0.22521190345287323
1788940693706441000,11.57044091796875,-0.42571642994880676,0.21313704550266266,0.209502711892128
1788940693716411000,11.580410888671874,-0.4627086818218231,0.17720440030097961,0.1675945520401001
1788940693726379800,11.5903798828125,-0.4810721278190613,0.14009542763233185,0.11381668597459793
1788940693736350000,11.600349853515626,-0.49045976996421814,0.11246060580015182,0.05257517099380493
1788940693746319000,11.610319091796875,-0.5006110668182373,0.08075594156980515,-0.002983259968459606
1788940693756289000,11.6202890625,-0.5123848915100098,0.04987206310033798,-0.05129459872841835
1788940693766258000,11.6302578125,-0.5286232233047485,0.01785963773727417,-0.10316167771816254
1788940693776227800,11.640227783203125,-0.5469755530357361,-0.042040981352329254,-0.16647806763648987
1788940693786197000,11.650197021484376,-0.561833918094635,-0.104448102414608,-0.2191801518201828
1788940693796167000,11.6601669921875,-0.5589843392372131,-0.13012178242206573,-0.23730508983135223
1788940693806135800,11.6701357421875,-0.5459163188934326,-0.13993440568447113,-0.24849463999271393
1788940693816106000,11.68010595703125,-0.5380280613899231,-0.12779277563095093,-0.2642480432987213
1788940693826075100,11.6900751953125,-0.5269646048545837,-0.11517606675624847,-0.27939411997795105
1788940693836045000,11.700045166015625,-0.5215924978256226,-0.09488650411367416,-0.28171372413635254
1788940693846014000,11.710013916015624,-0.5098480582237244,-0.06965843588113785,-0.2637002468109131
1788940693855983900,11.71998388671875,-0.48613104224205017,-0.03414811193943024,-0.2123960554599762
1788940693865953000,11.729953125,-0.45014968514442444,0.007760131731629372,-0.11418171972036362
1788940693875923000,11.7399228515625,-0.40001407265663147,0.027204934507608414,0.005595812574028969
1788940693885891800,11.749891845703125,-0.34956884384155273,-0.0021999292075634003,0.11707539111375809
1788940693895861800,11.75986181640625,-0.3169512450695038,-0.06115245819091797,0.19191287457942963
1788940693905831000,11.769830810546875,-0.30266082286834717,-0.1312469244003296,0.2235623151063919
1788940693915801000,11.779801025390626,-0.3045535087585449,-0.2058039754629135,0.2079431414604187
1788940693925770000,11.78977001953125,-0.30363893508911133,-0.2528432607650757,0.16672170162200928
1788940693935740000,11.799739990234375,-0.28713399171829224,-0.24523143470287323,0.13350330293178558
1788940693945709000,11.809708984375,-0.26468366384506226,-0.21473956108093262,0.10838978737592697
1788940693955679000,11.819678955078125,-0.2430630624294281,-0.1808931827545166,0.09819839894771576
1788940693965648000,11.82964794921875,-0.21544615924358368,-0.15211144089698792,0.10219573229551315
1788940693975617000,11.839616943359376,-0.19893722236156464,-0.1407240331172943,0.10337364673614502
1788940693985587000,11.8495869140625,-0.19137123227119446,-0.13653850555419922,0.09337376058101654
1788940693995555800,11.859555908203125,-0.1831284761428833,-0.1434590071439743,0.07675962895154953
1788940694005526000,11.869526123046874,-0.17112210392951965,-0.16006630659103394,0.03902661055326462
1788940694015495200,11.8794951171875,-0.17436955869197845,-0.20341138541698456,-0.03294478356838226
1788940694025465000,11.889465087890626,-0.17982105910778046,-0.26687294244766235,-0.12683026492595673
1788940694035434000,11.89943408203125,-0.20858612656593323,-0.32665637135505676,-0.22568628191947937
1788940694045404000,11.90940380859375,-0.23898817598819733,-0.36189886927604675,-0.3144723176956177
1788940694055373000,11.919373046875,-0.2607637941837311,-0.3113078773021698,-0.34944361448287964
1788940694065343000,11.929343017578125,-0.26443153619766235,-0.22017332911491394,-0.3323601186275482
1788940694075311900,11.939311767578126,-0.24833592772483826,-0.07101526856422424,-0.25992506742477417
1788940694085282000,11.949281982421875,-0.1999262422323227,0.0961112454533577,-0.12963491678237915
1788940694095251200,11.959251220703125,-0.148049995303154,0.2605278789997101,0.027464691549539566
1788940694105221000,11.96922119140625,-0.08102264255285263,0.3296681046485901,0.16188006103038788
1788940694115190000,11.97918994140625,-0.024139119312167168,0.3069705367088318,0.22844363749027252
1788940694125160000,11.989159912109375,0.02910870686173439,0.19524602591991425,0.216756209731102
1788940694135129000,11.999129150390624,0.06472981721162796,0.058783795684576035,0.15500788390636444
1788940694145099000,12.00909912109375,0.13081683218479156,-0.056993402540683746,0.059877973049879074
1788940694155068000,12.01906787109375,0.19213131070137024,-0.11070989817380905,-0.002841067500412464
1788940694165037800,12.029037841796875,0.2849831283092499,-0.08583442121744156,0.005296377465128899
1788940694175007000,12.039007080078125,0.3813844919204712,-0.023409662768244743,0.050231896340847015
1788940694184976000,12.048975830078126,0.4570450782775879,0.019382433965802193,0.09356730431318283
1788940694194946000,12.058946044921875,0.5113863348960876,0.027632907032966614,0.11733894795179367
1788940694204915000,12.0689150390625,0.545563817024231,0.02360364980995655,0.1033540815114975
1788940694214885000,12.078885009765624,0.5744436979293823,-0.010900797322392464,0.07111439108848572
1788940694224854000,12.08885400390625,0.5949972867965698,-0.09303902089595795,0.017704954370856285
1788940694234824000,12.098823974609376,0.5984047651290894,-0.19585993885993958,-0.044504355639219284
1788940694244792800,12.108792724609375,0.5811784267425537,-0.2854263186454773,-0.09167305380105972
1788940694254763000,12.118762939453125,0.5587612986564636,-0.3351999819278717,-0.11400685459375381
1788940694264732000,12.12873193359375,0.5461369156837463,-0.33304843306541443,-0.1068001314997673
1788940694274702000,12.1387021484375,0.5441272854804993,-0.27591830492019653,-0.06491579860448837
1788940694284671000,12.1486708984375,0.5410253405570984,-0.2044125199317932,-0.008188889361917973
1788940694294641000,12.158640869140624,0.540152907371521,-0.11891680210828781,0.06237422674894333
1788940694304610000,12.168610107421875,0.5448517799377441,-0.07507051527500153,0.13407717645168304
1788940694314580000,12.178580078125,0.5433880686759949,-0.10736880451440811,0.17183227837085724
1788940694324548900,12.188548828125,0.5164386034011841,-0.19124265015125275,0.1696712225675583
1788940694334518800,12.198518798828125,0.47331511974334717,-0.28285112977027893,0.1389564424753189
1788940694344488000,12.208488037109374,0.4250607490539551,-0.3301504850387573,0.09919290244579315
1788940694354456800,12.218456787109375,0.37859606742858887,-0.306637704372406,0.05489574372768402
1788940694364427000,12.228427001953126,0.3451404273509979,-0.2085181623697281,0.03125020116567612
1788940694374396200,12.238396240234374,0.32606634497642517,-0.0520784854888916,0.04389116168022156
1788940694384366000,12.248365966796875,0.3167837858200073,0.10220205783843994,0.09096713364124298
1788940694394335000,12.2583349609375,0.31489667296409607,0.1969328224658966,0.15968814492225647
1788940694404305000,12.268304931640625,0.3094419538974762,0.21317902207374573,0.21456685662269592
1788940694414274000,12.278274169921875,0.2888413369655609,0.16588740050792694,0.24043014645576477
1788940694424244000,12.288243896484374,0.2537495195865631,0.08710817247629166,0.21975767612457275
1788940694434212900,12.298212890625,0.2124904990196228,0.016375141218304634,0.15332219004631042
1788940694444182800,12.308182861328126,0.17738856375217438,-0.032640278339385986,0.061633046716451645
1788940694454152000,12.31815185546875,0.15600231289863586,-0.07150884717702866,-0.025788944214582443
