time,seconds_elapsed,z,y,x
1789058981176599300,0.040599365234375,-0.9415740966796875,-0.3470001220703125,-0.0215911865234375
1789058981186610200,0.050610107421875,-0.9415435791015625,-0.3462371826171875,-0.0137481689453125
1789058981196620300,0.060620361328125,-0.9442901611328125,-0.3470611572265625,-0.00030517578125
1789058981206630100,0.070630126953125,-0.9407501220703125,-0.3535919189453125,0.0087890625
1789058981216641300,0.080641357421875,-0.938323974609375,-0.3567657470703125,0.00689697265625
1789058981226651100,0.090651123046875,-0.9342193603515625,-0.364044189453125,0.0072784423828125
1789058981236661200,0.1006611328125,-0.93341064453125,-0.3657073974609375,0.0073699951171875
1789058981246672100,0.110672119140625,-0.9272613525390625,-0.3686676025390625,0.0191497802734375
1789058981256682200,0.12068212890625,-0.930023193359375,-0.36566162109375,0.0201568603515625
1789058981266692000,0.130692138671875,-0.9326019287109375,-0.3699188232421875,0.0347137451171875
1789058981276703200,0.140703125,-0.936187744140625,-0.3637847900390625,0.0449066162109375
1789058981286713300,0.15071337890625,-0.93548583984375,-0.3696441650390625,0.0408935546875
1789058981296723500,0.160723388671875,-0.9315643310546875,-0.36810302734375,0.03826904296875
1789058981306734300,0.170734375,-0.931915283203125,-0.3667755126953125,0.0395965576171875
1789058981316744400,0.180744384765625,-0.93499755859375,-0.3631134033203125,0.0433807373046875
1789058981326754300,0.19075439453125,-0.936248779296875,-0.365692138671875,0.0402984619140625
1789058981336765200,0.20076513671875,-0.9351959228515625,-0.3644256591796875,0.0438995361328125
1789058981346775300,0.210775390625,-0.9341583251953125,-0.3654327392578125,0.04779052734375
1789058981356785400,0.220785400390625,-0.9351043701171875,-0.361083984375,0.0449676513671875
1789058981366796300,0.23079638671875,-0.93408203125,-0.360992431640625,0.0491485595703125
1789058981376806100,0.24080615234375,-0.93609619140625,-0.360565185546875,0.0424346923828125
1789058981386816300,0.250816162109375,-0.9376373291015625,-0.3543701171875,0.0380401611328125
1789058981396827100,0.2608271484375,-0.93780517578125,-0.3490753173828125,0.0340118408203125
1789058981406837200,0.270837158203125,-0.936431884765625,-0.3444671630859375,0.0281219482421875
1789058981416847000,0.28084716796875,-0.934844970703125,-0.342315673828125,0.0190887451171875
1789058981426858200,0.290858154296875,-0.9359283447265625,-0.3372344970703125,0.01409912109375
1789058981436868000,0.3008681640625,-0.9367828369140625,-0.331878662109375,0.00048828125
1789058981446878200,0.310878173828125,-0.9271697998046875,-0.3365325927734375,-0.0277557373046875
1789058981456889000,0.32088916015625,-0.9556884765625,-0.289825439453125,-0.1233062744140625
1789058981466899200,0.330899169921875,-0.870361328125,-0.344940185546875,-0.1635589599609375
1789058981476909000,0.340908935546875,-0.9845428466796875,-0.307952880859375,0.0191650390625
1789058981486920400,0.35092041015625,-0.930938720703125,-0.3829193115234375,-0.0322113037109375
1789058981496930300,0.360930419921875,-0.9255523681640625,-0.3770904541015625,0.0251617431640625
1789058981506940400,0.3709404296875,-0.9204254150390625,-0.338043212890625,-0.1076812744140625
1789058981516951300,0.380951416015625,-0.921783447265625,-0.3476409912109375,-0.146697998046875
1789058981526961400,0.39096142578125,-0.91845703125,-0.3072662353515625,-0.033905029296875
1789058981536971300,0.40097119140625,-0.930389404296875,-0.359344482421875,-0.1130218505859375
1789058981546982400,0.410982421875,-0.93267822265625,-0.396759033203125,-0.034820556640625
1789058981556992300,0.4209921875,-0.9276123046875,-0.3443450927734375,-0.0207061767578125
1789058981567002400,0.43100244140625,-0.9075469970703125,-0.39300537109375,-0.08416748046875
1789058981577013200,0.44101318359375,-0.902374267578125,-0.3399658203125,-0.094696044921875
1789058981587023400,0.4510234375,-0.9098358154296875,-0.3459014892578125,-0.1617584228515625
1789058981597033200,0.461033203125,-0.936004638671875,-0.3325958251953125,-0.210693359375
1789058981607044000,0.471044189453125,-0.9380950927734375,-0.3184967041015625,-0.14337158203125
1789058981617054200,0.48105419921875,-0.9199371337890625,-0.349090576171875,-0.176116943359375
1789058981627064300,0.491064208984375,-0.8903656005859375,-0.3711395263671875,-0.1840972900390625
1789058981637075200,0.5010751953125,-0.898529052734375,-0.3672637939453125,-0.1769561767578125
1789058981647085300,0.511085205078125,-0.93548583984375,-0.35406494140625,-0.2059173583984375
1789058981657095200,0.52109521484375,-0.9417572021484375,-0.3370361328125,-0.17291259765625
1789058981667106000,0.53110595703125,-0.9304656982421875,-0.3308258056640625,-0.1954803466796875
1789058981677116200,0.5411162109375,-0.9156341552734375,-0.3482666015625,-0.2220916748046875
1789058981687126300,0.551126220703125,-0.9160614013671875,-0.3470611572265625,-0.2606048583984375
1789058981697137400,0.561137451171875,-0.91290283203125,-0.3355560302734375,-0.2452850341796875
1789058981707147300,0.571147216796875,-0.9248199462890625,-0.3379974365234375,-0.2527923583984375
1789058981717157400,0.581157470703125,-0.9287872314453125,-0.34686279296875,-0.2139892578125
1789058981727168300,0.591168212890625,-0.9322357177734375,-0.3618316650390625,-0.2207794189453125
1789058981737177600,0.601177490234375,-0.908233642578125,-0.382904052734375,-0.224334716796875
1789058981747187700,0.611187744140625,-0.8994293212890625,-0.3736114501953125,-0.2328948974609375
1789058981757198600,0.621198486328125,-0.9026947021484375,-0.36566162109375,-0.2602386474609375
1789058981767208700,0.631208740234375,-0.9138946533203125,-0.36358642578125,-0.268798828125
1789058981777218600,0.641218505859375,-0.9148712158203125,-0.37164306640625,-0.253509521484375
1789058981787229700,0.651229736328125,-0.9175262451171875,-0.3829498291015625,-0.2490081787109375
1789058981797239800,0.66123974609375,-0.9141387939453125,-0.388275146484375,-0.2235260009765625
1789058981807249700,0.671249755859375,-0.9130706787109375,-0.3899078369140625,-0.2180023193359375
1789058981817260800,0.6812607421875,-0.9163055419921875,-0.3895721435546875,-0.2189178466796875
1789058981827270700,0.691270751953125,-0.9098663330078125,-0.3887481689453125,-0.2234649658203125
1789058981837280800,0.70128076171875,-0.904571533203125,-0.3875274658203125,-0.2149505615234375
1789058981847291600,0.711291748046875,-0.9080657958984375,-0.37908935546875,-0.1840972900390625
1789058981857301800,0.7213017578125,-0.9145965576171875,-0.369598388671875,-0.1674041748046875
1789058981867311600,0.7313115234375,-0.9166107177734375,-0.3597869873046875,-0.17034912109375
1789058981877322800,0.74132275390625,-0.9085235595703125,-0.3656768798828125,-0.191986083984375
1789058981887332600,0.75133251953125,-0.910980224609375,-0.362884521484375,-0.20501708984375
1789058981897342700,0.7613427734375,-0.9244384765625,-0.3609161376953125,-0.2095184326171875
1789058981907353600,0.771353515625,-0.944183349609375,-0.3544921875,-0.2077178955078125
1789058981917363700,0.78136376953125,-0.9456329345703125,-0.3529052734375,-0.195770263671875
1789058981927373600,0.79137353515625,-0.930572509765625,-0.35626220703125,-0.174468994140625
1789058981937384700,0.801384765625,-0.914520263671875,-0.3582916259765625,-0.177032470703125
1789058981947394600,0.81139453125,-0.89715576171875,-0.366851806640625,-0.176788330078125
1789058981957404700,0.82140478515625,-0.89996337890625,-0.358367919921875,-0.1699676513671875
1789058981967415600,0.83141552734375,-0.8989410400390625,-0.3704986572265625,-0.1607666015625
1789058981977425700,0.84142578125,-0.90625,-0.372314453125,-0.1437835693359375
1789058981987435500,0.851435546875,-0.9055633544921875,-0.3892974853515625,-0.1368408203125
1789058981997446700,0.86144677734375,-0.91180419921875,-0.390838623046875,-0.1249237060546875
1789058982007456800,0.871456787109375,-0.8970794677734375,-0.3631591796875,-0.12054443359375
1789058982017467000,0.881466796875,-0.8430633544921875,-0.350677490234375,-0.1371917724609375
1789058982027477800,0.891477783203125,-0.959228515625,-0.41326904296875,-0.152313232421875
1789058982037487900,0.90148779296875,-0.9321136474609375,-0.4306640625,-0.1711273193359375
1789058982047497700,0.911497802734375,-0.8926239013671875,-0.3112945556640625,-0.3584136962890625
1789058982057508600,0.921508544921875,-0.8165283203125,-0.4052581787109375,-0.1643829345703125
1789058982067518700,0.931518798828125,-1.0648193359375,-0.2867889404296875,-0.0305938720703125
1789058982077528800,0.94152880859375,-0.9519500732421875,-0.4354705810546875,-0.1268157958984375
1789058982087539700,0.951539794921875,-0.951934814453125,-0.3034515380859375,-0.1210479736328125
1789058982097549600,0.961549560546875,-0.7928009033203125,-0.3517913818359375,-0.28955078125
1789058982107559700,0.9715595703125,-0.7471466064453125,-0.354400634765625,-0.480621337890625
1789058982117570600,0.981570556640625,-0.8595733642578125,-0.23040771484375,-0.5461273193359375
1789058982127580700,0.99158056640625,-0.8628692626953125,-0.4083251953125,-0.2962493896484375
1789058982137590500,1.001590576171875,-1.064422607421875,-0.28887939453125,-0.158843994140625
1789058982147601700,1.0116015625,-1.0863189697265625,-0.436370849609375,-0.14398193359375
1789058982157611500,1.021611572265625,-0.99432373046875,-0.469207763671875,-0.20465087890625
1789058982167621600,1.03162158203125,-0.9081573486328125,-0.30548095703125,-0.2350311279296875
1789058982177632500,1.041632568359375,-0.8628692626953125,-0.1731109619140625,-0.3318023681640625
1789058982187642600,1.051642578125,-0.7994232177734375,-0.30352783203125,-0.3258819580078125
1789058982197652500,1.061652587890625,-0.883331298828125,-0.2677459716796875,-0.4627532958984375
1789058982207663900,1.071663818359375,-0.91497802734375,-0.3342742919921875,-0.4764862060546875
1789058982217673700,1.081673828125,-0.9370574951171875,-0.324066162109375,-0.32916259765625
1789058982227683800,1.091683837890625,-0.9257049560546875,-0.3756256103515625,-0.332061767578125
1789058982237694700,1.10169482421875,-0.92669677734375,-0.3509674072265625,-0.213653564453125
1789058982247704800,1.111704833984375,-0.903411865234375,-0.3685150146484375,-0.25518798828125
1789058982257714700,1.121714599609375,-0.9007720947265625,-0.3356475830078125,-0.318145751953125
1789058982267725800,1.131725830078125,-0.85601806640625,-0.34588623046875,-0.301483154296875
1789058982277735700,1.141735595703125,-0.8355712890625,-0.349853515625,-0.329254150390625
1789058982287745800,1.151745849609375,-0.8615875244140625,-0.3686065673828125,-0.350250244140625
1789058982297756700,1.161756591796875,-0.9365234375,-0.3453826904296875,-0.3682708740234375
1789058982307766800,1.171766845703125,-0.9539031982421875,-0.368621826171875,-0.3300628662109375
1789058982317776600,1.181776611328125,-0.94012451171875,-0.3749237060546875,-0.3563232421875
1789058982327787500,1.19178759765625,-0.8996124267578125,-0.40765380859375,-0.315887451171875
1789058982337797600,1.201797607421875,-0.889556884765625,-0.3974761962890625,-0.29071044921875
1789058982347807700,1.211807861328125,-0.9031524658203125,-0.3639984130859375,-0.3367156982421875
1789058982357818600,1.221818603515625,-0.8913421630859375,-0.37030029296875,-0.309661865234375
1789058982367828500,1.231828369140625,-0.88031005859375,-0.3825225830078125,-0.2921295166015625
1789058982377838600,1.241838623046875,-0.8874664306640625,-0.384918212890625,-0.3230133056640625
1789058982387849500,1.251849365234375,-0.88018798828125,-0.4135894775390625,-0.3414459228515625
1789058982397859600,1.261859619140625,-0.8607940673828125,-0.438629150390625,-0.331146240234375
1789058982407869700,1.27186962890625,-0.8567352294921875,-0.4282379150390625,-0.2863922119140625
1789058982417880800,1.281880859375,-0.881744384765625,-0.399200439453125,-0.254669189453125
1789058982427890700,1.291890625,-0.904876708984375,-0.36114501953125,-0.2459716796875
1789058982437900800,1.30190087890625,-0.916259765625,-0.3608551025390625,-0.2873687744140625
1789058982447911700,1.31191162109375,-0.923126220703125,-0.4219207763671875,-0.3083343505859375
1789058982457921800,1.321921875,-0.9122161865234375,-0.4040069580078125,-0.3204345703125
1789058982467931600,1.331931640625,-0.8778533935546875,-0.3533172607421875,-0.3392333984375
1789058982477942800,1.34194287109375,-0.8765106201171875,-0.310760498046875,-0.351318359375
1789058982487952600,1.35195263671875,-0.8211822509765625,-0.3238677978515625,-0.3914947509765625
1789058982497962800,1.361962646484375,-0.76934814453125,-0.3751983642578125,-0.405364990234375
1789058982507973600,1.3719736328125,-0.8462371826171875,-0.395538330078125,-0.340667724609375
1789058982517983700,1.381983642578125,-0.9216766357421875,-0.35626220703125,-0.2613677978515625
1789058982527993600,1.39199365234375,-0.8944244384765625,-0.348602294921875,-0.282196044921875
1789058982538004700,1.402004638671875,-0.8702392578125,-0.35357666015625,-0.3256378173828125
1789058982548014600,1.4120146484375,-0.868743896484375,-0.475830078125,-0.4344482421875
1789058982558024700,1.422024658203125,-0.9160003662109375,-0.4768218994140625,-0.44903564453125
1789058982568035600,1.43203564453125,-0.9779052734375,-0.394805908203125,-0.3690948486328125
1789058982578045700,1.442045654296875,-0.9602203369140625,-0.3438720703125,-0.28668212890625
1789058982588055600,1.4520556640625,-0.886962890625,-0.3826141357421875,-0.2002410888671875
1789058982598066700,1.462066650390625,-0.869171142578125,-0.4086761474609375,-0.2501220703125
1789058982608076500,1.47207666015625,-0.902862548828125,-0.45257568359375,-0.331817626953125
1789058982618086700,1.482086669921875,-0.91265869140625,-0.4316864013671875,-0.2300872802734375
1789058982628097800,1.492097900390625,-0.9292755126953125,-0.39923095703125,-0.2046051025390625
1789058982638108000,1.50210791015625,-0.997802734375,-0.3319854736328125,-0.193756103515625
1789058982648117800,1.51211767578125,-0.9293060302734375,-0.4051971435546875,-0.1531524658203125
1789058982658128600,1.522128662109375,-0.8874359130859375,-0.4538421630859375,-0.1521759033203125
1789058982668138800,1.532138671875,-0.8706207275390625,-0.5105133056640625,-0.16351318359375
1789058982678148900,1.54214892578125,-0.93341064453125,-0.4457244873046875,-0.11651611328125
1789058982688159700,1.55215966796875,-1.004364013671875,-0.315521240234375,-0.040191650390625
1789058982698169600,1.562169677734375,-0.948760986328125,-0.3026885986328125,-0.0840911865234375
1789058982708179700,1.5721796875,-0.820892333984375,-0.380889892578125,-0.1287841796875
1789058982718190600,1.582190673828125,-0.770782470703125,-0.4378509521484375,-0.0517120361328125
1789058982728200700,1.59220068359375,-0.8242034912109375,-0.5143890380859375,0.0237579345703125
1789058982738210600,1.60221044921875,-0.9461822509765625,-0.5163116455078125,0.043426513671875
1789058982748221700,1.6122216796875,-0.9771575927734375,-0.4232025146484375,0.059295654296875
1789058982758231600,1.6222314453125,-0.86102294921875,-0.4235076904296875,0.0219268798828125
1789058982768241700,1.63224169921875,-0.74554443359375,-0.4278717041015625,-0.0191650390625
1789058982778252500,1.64225244140625,-0.7767181396484375,-0.4176788330078125,0.0638275146484375
1789058982788262700,1.6522626953125,-0.9021453857421875,-0.4289703369140625,0.109405517578125
1789058982798272500,1.6622724609375,-0.9319000244140625,-0.493408203125,0.0341949462890625
1789058982808283600,1.67228369140625,-0.8907470703125,-0.425994873046875,0.004241943359375
1789058982818293500,1.68229345703125,-0.8352203369140625,-0.416534423828125,0.0543365478515625
1789058982828303600,1.6923037109375,-0.8829193115234375,-0.3962554931640625,0.04058837890625
1789058982838314500,1.702314453125,-0.8644866943359375,-0.50653076171875,-0.04071044921875
1789058982848324600,1.71232470703125,-0.892730712890625,-0.4314422607421875,-0.0050201416015625
1789058982858334500,1.72233447265625,-0.920806884765625,-0.3488311767578125,0.10882568359375
1789058982868345900,1.732345947265625,-0.9726104736328125,-0.3189239501953125,0.0724639892578125
1789058982878355700,1.742355712890625,-0.9297943115234375,-0.5237579345703125,-0.116119384765625
1789058982888365800,1.75236572265625,-0.944061279296875,-0.5436248779296875,-0.1165924072265625
1789058982898376700,1.762376708984375,-0.894073486328125,-0.5739898681640625,-0.0969085693359375
1789058982908386800,1.77238671875,-0.8956146240234375,-0.44268798828125,-0.1554718017578125
1789058982918396700,1.782396728515625,-0.821990966796875,-0.520721435546875,-0.2819671630859375
1789058982928407600,1.792407470703125,-0.838409423828125,-0.459136962890625,-0.361846923828125
1789058982938417700,1.802417724609375,-0.807373046875,-0.388916015625,-0.2195281982421875
1789058982948427800,1.812427734375,-0.8289642333984375,-0.32769775390625,-0.1378326416015625
1789058982958438700,1.822438720703125,-0.8895416259765625,-0.3735198974609375,-0.2081298828125
1789058982968448500,1.832448486328125,-0.801513671875,-0.5468292236328125,-0.19952392578125
1789058982978458600,1.842458740234375,-0.8467559814453125,-0.5608062744140625,-0.07635498046875
1789058982988469500,1.852469482421875,-0.9174041748046875,-0.5138397216796875,-0.118255615234375
1789058982998479600,1.862479736328125,-0.9150543212890625,-0.6711273193359375,-0.15478515625
1789058983008489700,1.87248974609375,-0.91229248046875,-0.6529083251953125,-0.3885955810546875
1789058983018500600,1.88250048828125,-0.87432861328125,-0.405670166015625,-0.30242919921875
1789058983028510500,1.892510498046875,-1.0048675537109375,-0.2596893310546875,-0.2032623291015625
1789058983038520600,1.9025205078125,-0.8383941650390625,-0.2601776123046875,-0.1114501953125
1789058983048531500,1.912531494140625,-0.7596893310546875,-0.32177734375,0.1956787109375
1789058983058541600,1.92254150390625,-0.7784576416015625,-0.4225311279296875,-0.0140838623046875
1789058983068551400,1.932551513671875,-1.0865936279296875,-0.4670867919921875,-0.1300811767578125
1789058983078562800,1.942562744140625,-1.2127838134765625,-0.410675048828125,-0.2323150634765625
1789058983088572700,1.95257275390625,-0.9728851318359375,-0.5102691650390625,-0.3549957275390625
1789058983098582800,1.962582763671875,-0.8672637939453125,-0.4741058349609375,-0.3677520751953125
1789058983108593700,1.97259375,-0.901031494140625,-0.391082763671875,-0.122344970703125
1789058983118603800,1.982603759765625,-0.8762664794921875,-0.4332275390625,-0.0088958740234375
1789058983128613600,1.992613525390625,-0.6959228515625,-0.670257568359375,0.0639801025390625
1789058983138624800,2.002624755859375,-0.7333221435546875,-0.5525360107421875,0.1013031005859375
1789058983148634600,2.012634521484375,-0.8910064697265625,-0.3894805908203125,-0.0019073486328125
1789058983158644700,2.022644775390625,-1.107208251953125,-0.26507568359375,0.023040771484375
1789058983168655600,2.032655517578125,-1.0012969970703125,-0.48046875,0.04095458984375
1789058983178665700,2.042665771484375,-0.89337158203125,-0.5936126708984375,0.034393310546875
1789058983188675600,2.052675537109375,-0.8486328125,-0.5299072265625,0.16741943359375
1789058983198686700,2.062686767578125,-0.794952392578125,-0.4404754638671875,0.264312744140625
1789058983208696600,2.072696533203125,-0.9351348876953125,-0.3458404541015625,0.1721343994140625
1789058983218706700,2.082706787109375,-1.007049560546875,-0.2632904052734375,0.093353271484375
1789058983228717600,2.092717529296875,-0.8705902099609375,-0.463897705078125,0.12030029296875
1789058983238727700,2.102727783203125,-0.7353515625,-0.61529541015625,0.2171783447265625
1789058983248737500,2.112737548828125,-0.733428955078125,-0.6339263916015625,0.1846466064453125
1789058983258748400,2.12274853515625,-0.8541412353515625,-0.5144195556640625,0.096160888671875
1789058983268758500,2.132758544921875,-1.02972412109375,-0.308349609375,0.08184814453125
1789058983278769700,2.142769775390625,-1.1081695556640625,-0.2519989013671875,0.11907958984375
1789058983288779800,2.15277978515625,-0.92901611328125,-0.5051116943359375,0.16851806640625
1789058983298789600,2.16278955078125,-0.80206298828125,-0.526092529296875,0.176177978515625
1789058983308800800,2.17280078125,-0.7868194580078125,-0.4502410888671875,0.1623687744140625
1789058983318810600,2.182810546875,-0.751556396484375,-0.4899749755859375,0.1454925537109375
1789058983328820700,2.19282080078125,-0.961029052734375,-0.20623779296875,0.090606689453125
1789058983338831600,2.20283154296875,-1.163848876953125,-0.15582275390625,0.0235137939453125
1789058983348841700,2.212841796875,-1.146026611328125,-0.28643798828125,0.1096954345703125
1789058983358851600,2.2228515625,-0.8679962158203125,-0.4617462158203125,0.028900146484375
1789058983368862700,2.23286279296875,-0.7700653076171875,-0.4947052001953125,-0.050048828125
1789058983378872600,2.24287255859375,-0.8307037353515625,-0.3587493896484375,-0.043975830078125
1789058983388882700,2.252882568359375,-1.0057830810546875,-0.232940673828125,-0.032470703125
1789058983398893600,2.2628935546875,-1.1002197265625,-0.199462890625,-0.0535888671875
1789058983408903700,2.272903564453125,-1.0311431884765625,-0.2082977294921875,-0.14593505859375
1789058983418913500,2.28291357421875,-0.8096923828125,-0.435882568359375,0.1119232177734375
1789058983428924700,2.292924560546875,-0.8922271728515625,-0.2796783447265625,0.1355438232421875
1789058983438934500,2.3029345703125,-1.0462799072265625,-0.2141571044921875,0.132415771484375
1789058983448944600,2.312944580078125,-1.142303466796875,-0.2062835693359375,0.18817138671875
1789058983458955500,2.32295556640625,-1.0053253173828125,-0.3112945556640625,0.1151885986328125
1789058983468965600,2.332965576171875,-0.756500244140625,-0.379730224609375,0.1211395263671875
1789058983478975500,2.3429755859375,-0.6891326904296875,-0.4273529052734375,0.109649658203125
1789058983488986600,2.352986572265625,-1.012664794921875,-0.18359375,0.121429443359375
1789058983498996700,2.362996826171875,-1.10723876953125,-0.2502899169921875,0.0788421630859375
1789058983509006800,2.3730068359375,-0.9961090087890625,-0.337066650390625,0.0398712158203125
1789058983519017700,2.383017822265625,-0.882904052734375,-0.35894775390625,0.0185699462890625
1789058983529027600,2.393027587890625,-0.9017791748046875,-0.3149871826171875,-0.0343475341796875
1789058983539037700,2.40303759765625,-0.9740447998046875,-0.3228302001953125,-0.0034942626953125
1789058983549048600,2.413048583984375,-1.0625457763671875,-0.3717498779296875,-0.1582489013671875
1789058983559058700,2.42305859375,-0.950225830078125,-0.403228759765625,-0.233306884765625
1789058983569068500,2.433068603515625,-0.9456329345703125,-0.3307037353515625,-0.3127288818359375
1789058983579079700,2.44307958984375,-0.97674560546875,-0.3679351806640625,-0.2223663330078125
1789058983589089500,2.453089599609375,-1.00213623046875,-0.4696502685546875,-0.287841796875
1789058983599099600,2.463099609375,-0.9788818359375,-0.37188720703125,-0.245635986328125
1789058983609110500,2.473110595703125,-0.9246826171875,-0.3139495849609375,-0.2159576416015625
1789058983619120600,2.48312060546875,-0.8178558349609375,-0.4297027587890625,-0.1894989013671875
1789058983629130500,2.493130615234375,-0.91943359375,-0.43731689453125,-0.238189697265625
1789058983639141600,2.5031416015625,-0.9196319580078125,-0.5120391845703125,-0.3094482421875
1789058983649151500,2.5131513671875,-0.932647705078125,-0.523040771484375,-0.2991180419921875
1789058983659161600,2.52316162109375,-1.00128173828125,-0.526519775390625,-0.2831878662109375
1789058983669172500,2.53317236328125,-1.04833984375,-0.2119903564453125,-0.2314300537109375
1789058983679182600,2.5431826171875,-0.8704833984375,-0.388580322265625,-0.21612548828125
1789058983689192400,2.5531923828125,-0.72857666015625,-0.4943084716796875,-0.241455078125
1789058983699203800,2.563203857421875,-0.6492462158203125,-0.6483917236328125,-0.219879150390625
1789058983709213700,2.573213623046875,-0.6808013916015625,-0.6499786376953125,-0.2025146484375
1789058983719223800,2.583223876953125,-0.8002166748046875,-0.5563507080078125,-0.17498779296875
1789058983729234700,2.593234619140625,-0.9890289306640625,-0.3690185546875,-0.1028900146484375
1789058983739245000,2.6032451171875,-0.99127197265625,-0.2775726318359375,-0.164825439453125
1789058983749255200,2.613255126953125,-0.8885650634765625,-0.5017852783203125,-0.149200439453125
1789058983759266300,2.623266357421875,-0.930419921875,-0.6987457275390625,-0.1577606201171875
1789058983769276200,2.633276123046875,-1.0284881591796875,-0.5344696044921875,-0.190887451171875
1789058983779286300,2.643286376953125,-1.041961669921875,-0.38134765625,-0.0966949462890625
1789058983789297400,2.65329736328125,-0.814788818359375,-0.371307373046875,-0.062713623046875
1789058983799307300,2.663307373046875,-0.754547119140625,-0.379180908203125,-0.0774383544921875
1789058983809317400,2.6733173828125,-0.8525238037109375,-0.462677001953125,-0.0123291015625
1789058983819328300,2.683328369140625,-0.837249755859375,-0.6479339599609375,-0.08978271484375
1789058983829338400,2.69333837890625,-0.7426300048828125,-0.5687408447265625,-0.124542236328125
1789058983839348200,2.70334814453125,-0.8190765380859375,-0.325775146484375,-0.0818328857421875
1789058983849359400,2.713359375,-0.95086669921875,-0.2736358642578125,-0.06964111328125
1789058983859369200,2.723369140625,-0.905029296875,-0.780792236328125,-0.0191497802734375
1789058983869379300,2.73337939453125,-1.015411376953125,-0.5313568115234375,-0.0369110107421875
1789058983879390200,2.74339013671875,-0.861175537109375,-0.4929351806640625,-0.0745697021484375
1789058983889400300,2.753400390625,-0.8093719482421875,-0.3126678466796875,-0.046478271484375
1789058983899410200,2.76341015625,-0.819732666015625,-0.3518829345703125,0.0366363525390625
1789058983909421300,2.77342138671875,-0.745208740234375,-0.6887054443359375,0.0441131591796875
1789058983919431200,2.78343115234375,-0.9083404541015625,-0.5500640869140625,0.04046630859375
1789058983929441300,2.793441162109375,-0.9756317138671875,-0.4083404541015625,0.1455841064453125
1789058983939452200,2.8034521484375,-1.001007080078125,-0.3831024169921875,0.1311492919921875
1789058983949462300,2.813462158203125,-0.9037322998046875,-0.57342529296875,0.0808868408203125
1789058983959472000,2.82347216796875,-0.9334564208984375,-0.5779876708984375,0.071563720703125
1789058983969483300,2.833483154296875,-1.0865478515625,-0.290802001953125,0.0416717529296875
1789058983979493000,2.8434931640625,-0.8332672119140625,-0.5550689697265625,0.00067138671875
1789058983989503200,2.853503173828125,-0.7597808837890625,-0.5924072265625,0.011322021484375
1789058983999514400,2.863514404296875,-0.87847900390625,-0.34759521484375,-0.016571044921875
1789058984009524200,2.873524169921875,-0.867523193359375,-0.490478515625,0.0430450439453125
1789058984019534300,2.883534423828125,-0.76153564453125,-0.64495849609375,0.045166015625
1789058984029545200,2.893545166015625,-0.8768463134765625,-0.4291229248046875,0.068634033203125
1789058984039555300,2.903555419921875,-0.958343505859375,-0.409454345703125,0.0244293212890625
1789058984049565400,2.9135654296875,-0.888092041015625,-0.342010498046875,-0.003509521484375
1789058984059576300,2.923576416015625,-0.81280517578125,-0.4968109130859375,-0.038177490234375
1789058984069586200,2.933586181640625,-0.7751617431640625,-0.6261749267578125,-0.086517333984375
1789058984079596300,2.94359619140625,-0.8901519775390625,-0.58062744140625,-0.071075439453125
1789058984089607200,2.953607177734375,-1.109375,-0.4504547119140625,-0.043792724609375
1789058984099617300,2.9636171875,-1.0239715576171875,-0.540313720703125,-0.0172882080078125
1789058984109627100,2.973627197265625,-0.9805450439453125,-0.42767333984375,-0.0164337158203125
1789058984119638300,2.98363818359375,-0.8809967041015625,-0.443115234375,-0.0289764404296875
1789058984129648000,2.993648193359375,-0.67559814453125,-0.661407470703125,-0.10772705078125
1789058984139658200,3.003658203125,-0.60589599609375,-0.712066650390625,-0.0763092041015625
1789058984149669000,3.013669189453125,-0.8472442626953125,-0.53314208984375,-0.097930908203125
1789058984159679200,3.02367919921875,-1.04400634765625,-0.4093475341796875,-0.110565185546875
1789058984169689000,3.033689208984375,-1.107940673828125,-0.3360748291015625,-0.1198883056640625
1789058984179700500,3.043700439453125,-1.0422210693359375,-0.4752960205078125,-0.2488861083984375
1789058984189710000,3.0537099609375,-0.965911865234375,-0.516021728515625,-0.2679290771484375
1789058984199720200,3.06372021484375,-0.9273834228515625,-0.529205322265625,-0.2369842529296875
1789058984209731300,3.0737314453125,-0.896392822265625,-0.5330352783203125,-0.224517822265625
1789058984219741400,3.083741455078125,-0.743499755859375,-0.516326904296875,-0.1981048583984375
1789058984229751300,3.093751220703125,-0.65692138671875,-0.5292816162109375,-0.220794677734375
1789058984239762400,3.103762451171875,-0.7837371826171875,-0.682952880859375,-0.2843475341796875
1789058984249772300,3.113772216796875,-0.80999755859375,-0.61993408203125,-0.2109832763671875
1789058984259782400,3.123782470703125,-0.8220977783203125,-0.5067901611328125,-0.245574951171875
1789058984269793300,3.133793212890625,-1.05560302734375,-0.3527984619140625,-0.2552490234375
1789058984279803400,3.143803466796875,-0.899871826171875,-0.6199188232421875,-0.18756103515625
1789058984289813200,3.153813232421875,-0.7709503173828125,-0.6412811279296875,-0.2094879150390625
1789058984299824000,3.16382421875,-0.818939208984375,-0.5076904296875,-0.089019775390625
1789058984309834200,3.173834228515625,-0.6675872802734375,-0.5578460693359375,0.028045654296875
1789058984319844400,3.18384423828125,-0.6884918212890625,-0.5631256103515625,0.041107177734375
1789058984329855200,3.193855224609375,-0.8690032958984375,-0.41448974609375,0.0477142333984375
1789058984339865000,3.203864990234375,-1.0330963134765625,-0.4539337158203125,0.0045623779296875
1789058984349875200,3.213875244140625,-1.1318206787109375,-0.461517333984375,-0.021453857421875
1789058984359886000,3.223885986328125,-0.942779541015625,-0.351531982421875,-0.0017547607421875
1789058984369896200,3.233896240234375,-0.8558502197265625,-0.462554931640625,0.12310791015625
1789058984379906300,3.24390625,-0.9535064697265625,-0.3220367431640625,0.229095458984375
1789058984389917400,3.25391748046875,-0.8596649169921875,-0.4902191162109375,0.1206817626953125
1789058984399927000,3.263927001953125,-0.9058685302734375,-0.44921875,0.013824462890625
1789058984409937200,3.273937255859375,-0.8477783203125,-0.51544189453125,0.0026092529296875
1789058984419948300,3.2839482421875,-0.7646484375,-0.573974609375,0.0419921875
1789058984429958400,3.29395849609375,-0.9505157470703125,-0.4393768310546875,0.0209808349609375
1789058984439968300,3.30396826171875,-0.9503173828125,-0.3285369873046875,-0.147369384765625
1789058984449979400,3.3139794921875,-0.8249969482421875,-0.4355621337890625,-0.1132354736328125
1789058984459989200,3.3239892578125,-0.8505401611328125,-0.5712890625,-0.1210784912109375
1789058984469999400,3.333999267578125,-0.94696044921875,-0.4898223876953125,-0.0243988037109375
1789058984480010200,3.34401025390625,-1.0841522216796875,-0.3513336181640625,-0.0736541748046875
1789058984490020400,3.354020263671875,-0.8694610595703125,-0.5220794677734375,0.0902099609375
1789058984500030200,3.3640302734375,-0.9166717529296875,-0.3795166015625,0.0294647216796875
1789058984510041300,3.374041259765625,-0.6912841796875,-0.5989532470703125,-0.119903564453125
1789058984520051200,3.38405126953125,-0.5794830322265625,-0.6192779541015625,-0.109344482421875
1789058984530061300,3.394061279296875,-0.916839599609375,-0.630859375,-0.0706024169921875
1789058984540072200,3.404072265625,-1.1436614990234375,-0.4335479736328125,0.1005706787109375
1789058984550082300,3.414082275390625,-0.8715667724609375,-0.60540771484375,0.289398193359375
1789058984560092200,3.424092041015625,-0.714569091796875,-0.6874542236328125,0.1658935546875
1789058984570103300,3.434103271484375,-0.8228912353515625,-0.4940185546875,0.1385040283203125
1789058984580113200,3.444113037109375,-0.9341888427734375,-0.3123779296875,0.0751190185546875
1789058984590123300,3.454123291015625,-0.755462646484375,-0.5902862548828125,0.2012481689453125
1789058984600134400,3.464134521484375,-1.0470428466796875,-0.271759033203125,0.2880401611328125
1789058984610144300,3.474144287109375,-0.7637481689453125,-0.5552520751953125,0.257415771484375
1789058984620154000,3.484154052734375,-0.752593994140625,-0.54180908203125,0.30718994140625
1789058984630165200,3.494165283203125,-0.901458740234375,-0.5774688720703125,0.2237548828125
1789058984640175400,3.50417529296875,-1.007843017578125,-0.42919921875,0.0989532470703125
1789058984650185500,3.514185546875,-1.044952392578125,-0.406707763671875,-0.0040130615234375
1789058984660196400,3.5241962890625,-0.8699951171875,-0.4373779296875,0.0781707763671875
1789058984670206200,3.534206298828125,-0.801239013671875,-0.2868499755859375,0.08837890625
1789058984680216300,3.54421630859375,-0.990478515625,-0.2304840087890625,-0.11907958984375
1789058984690227200,3.554227294921875,-0.7616119384765625,-0.427276611328125,-0.1390228271484375
1789058984700237300,3.5642373046875,-0.873779296875,-0.4163665771484375,-0.279144287109375
1789058984710247200,3.5742470703125,-1.122406005859375,-0.36279296875,-0.1252593994140625
1789058984720258300,3.58425830078125,-0.980499267578125,-0.488433837890625,-0.0488128662109375
1789058984730268200,3.59426806640625,-0.910247802734375,-0.43463134765625,-0.080169677734375
1789058984740278000,3.604278076171875,-0.9654388427734375,-0.3463287353515625,-0.150604248046875
1789058984750289000,3.614288818359375,-0.6923370361328125,-0.4613800048828125,-0.138916015625
1789058984760299000,3.624299072265625,-0.75726318359375,-0.4041748046875,0.0027008056640625
1789058984770310100,3.63431005859375,-0.9733123779296875,-0.51947021484375,0.0054473876953125
1789058984780320300,3.6443203125,-0.880706787109375,-0.4878387451171875,0.0056915283203125
1789058984790329900,3.654329833984375,-1.1492156982421875,-0.351043701171875,-0.0168609619140625
1789058984800341200,3.66434130859375,-1.1425323486328125,-0.5515594482421875,0.0494537353515625
1789058984810351000,3.67435107421875,-1.0743560791015625,-0.5085601806640625,-0.0125579833984375
1789058984820361200,3.684361328125,-1.0368194580078125,-0.417022705078125,-0.06103515625
1789058984830372000,3.6943720703125,-0.6368560791015625,-0.6851654052734375,-0.0362548828125
1789058984840382200,3.70438232421875,-0.6388092041015625,-0.4974212646484375,0.0959930419921875
1789058984850392000,3.71439208984375,-0.8084259033203125,-0.4362945556640625,0.09033203125
1789058984860403000,3.72440283203125,-0.9399261474609375,-0.4926300048828125,-0.0455780029296875
1789058984870413000,3.7344130859375,-0.9145660400390625,-0.574066162109375,-0.1058197021484375
1789058984880423200,3.744423095703125,-0.9019927978515625,-0.4595947265625,-0.103912353515625
1789058984890434000,3.75443408203125,-0.7718353271484375,-0.5577239990234375,-0.0737457275390625
1789058984900444000,3.76444384765625,-0.696075439453125,-0.4063262939453125,0.0279998779296875
1789058984910454000,3.7744541015625,-0.7949676513671875,-0.425994873046875,-0.0863189697265625
1789058984920465000,3.78446484375,-1.1654052734375,-0.3292236328125,-0.2233428955078125
1789058984930475000,3.79447509765625,-1.4347991943359375,-0.2323150634765625,-0.266387939453125
1789058984940485000,3.804485107421875,-1.0383758544921875,-0.5369720458984375,-0.170745849609375
1789058984950496000,3.81449609375,-0.603668212890625,-0.719451904296875,0.043304443359375
1789058984960505900,3.824505859375,-0.38031005859375,-0.710906982421875,0.1556243896484375
1789058984970516000,3.834515869140625,-0.58697509765625,-0.45989990234375,0.068115234375
1789058984980527000,3.844527099609375,-0.90283203125,-0.378143310546875,-0.145172119140625
1789058984990537200,3.854537109375,-1.2222900390625,-0.2485809326171875,-0.259490966796875
1789058985000546800,3.864546875,-1.2317962646484375,-0.372650146484375,-0.05181884765625
1789058985010558200,3.87455810546875,-1.016357421875,-0.5479583740234375,0.063690185546875
1789058985020568000,3.884568115234375,-0.8499298095703125,-0.560638427734375,0.16015625
1789058985030578200,3.894578125,-0.7188873291015625,-0.3418731689453125,0.242889404296875
1789058985040589000,3.904589111328125,-0.6425933837890625,-0.6341094970703125,0.0638427734375
1789058985050599200,3.91459912109375,-0.8567657470703125,-0.42822265625,-0.042724609375
1789058985060609000,3.924609130859375,-1.0491790771484375,-0.4087982177734375,0.04547119140625
1789058985070620200,3.9346201171875,-1.35760498046875,-0.2116546630859375,0.095672607421875
1789058985080630000,3.944630126953125,-1.1611480712890625,-0.428955078125,0.1479644775390625
1789058985090640100,3.95464013671875,-0.9977264404296875,-0.370758056640625,0.2262725830078125
1789058985100651000,3.964651123046875,-0.8051910400390625,-0.4310455322265625,0.1159820556640625
1789058985110661000,3.9746611328125,-0.233917236328125,-0.68377685546875,0.17138671875
1789058985120671000,3.9846708984375,-0.0942840576171875,-0.722808837890625,0.1940460205078125
1789058985130682000,3.99468212890625,-1.0047607421875,0.002410888671875,-0.0110931396484375
1789058985140692000,4.00469189453125,-1.435089111328125,-0.0738525390625,0.12237548828125
1789058985150702000,4.0147021484375,-1.405548095703125,-0.70159912109375,0.020263671875
1789058985160713000,4.024712890625,-1.292266845703125,-0.2804107666015625,0.001373291015625
1789058985170723000,4.03472314453125,-0.8660430908203125,-0.3977203369140625,0.1537322998046875
1789058985180733000,4.04473291015625,-0.5984649658203125,-0.5447540283203125,0.1380615234375
1789058985190744000,4.054744140625,-0.467620849609375,-0.4694976806640625,0.0721588134765625
1789058985200754200,4.064754150390625,-0.6026763916015625,-0.3879852294921875,-0.0507354736328125
1789058985210764000,4.074763916015625,-0.449005126953125,-0.710113525390625,-0.098388671875
1789058985220775200,4.084775146484375,-0.8885345458984375,-0.377716064453125,-0.0359344482421875
1789058985230785000,4.094784912109375,-1.31768798828125,-0.14703369140625,-0.1660614013671875
1789058985240795100,4.104795166015625,-0.8931427001953125,-0.809783935546875,0.0341644287109375
1789058985250806000,4.114805908203125,-1.1441802978515625,-0.4498138427734375,-0.0079498291015625
1789058985260816100,4.124816162109375,-1.1464385986328125,-0.215484619140625,-0.083648681640625
1789058985270826000,4.134825927734375,-0.6556243896484375,-0.5512237548828125,-0.0398406982421875
1789058985280837000,4.144837158203125,-0.5752105712890625,-0.461761474609375,-0.1686553955078125
1789058985290847000,4.154846923828125,-0.642242431640625,-0.4777374267578125,-0.1958770751953125
1789058985300857000,4.164857177734375,-0.9991302490234375,-0.269622802734375,-0.13970947265625
1789058985310868000,4.174867919921875,-1.089691162109375,-0.4563446044921875,-0.088043212890625
1789058985320878000,4.184878173828125,-1.1631622314453125,-0.44305419921875,0.0391845703125
1789058985330888000,4.194887939453125,-1.2158203125,-0.2628631591796875,-0.0565185546875
1789058985340899000,4.204899169921875,-1.0790252685546875,-0.41461181640625,-0.0480194091796875
1789058985350909000,4.214908935546875,-0.733673095703125,-0.6055450439453125,-0.0732879638671875
1789058985360919000,4.2249189453125,-0.601287841796875,-0.3865814208984375,-0.135528564453125
1789058985370930000,4.234929931640625,-0.4136962890625,-0.6892547607421875,0.0131988525390625
1789058985380940000,4.24493994140625,-0.808563232421875,-0.4090118408203125,0.0228118896484375
1789058985390950000,4.254949951171875,-1.2756805419921875,-0.1688232421875,-0.0045318603515625
1789058985400961300,4.264961181640625,-1.649017333984375,-0.190277099609375,-0.0518951416015625
1789058985410971100,4.27497119140625,-1.7461700439453125,-0.1989898681640625,-0.0233001708984375
1789058985420981000,4.28498095703125,-1.4691009521484375,-0.2779083251953125,-0.0134735107421875
1789058985430992100,4.2949921875,-0.6359405517578125,-0.6248321533203125,-0.0641326904296875
1789058985441002200,4.305002197265625,0.1031951904296875,-0.757293701171875,-0.1309661865234375
1789058985451012000,4.31501220703125,0.1129913330078125,-0.5090179443359375,-0.04620361328125
1789058985461023000,4.32502294921875,-0.3946990966796875,-0.309051513671875,0.0445709228515625
1789058985471033000,4.335033203125,-1.1750335693359375,-0.079925537109375,0.073974609375
1789058985481043200,4.345043212890625,-1.61846923828125,-0.1663055419921875,-0.0523681640625
1789058985491054000,4.35505419921875,-1.2899322509765625,-0.5724029541015625,-0.151458740234375
1789058985501064000,4.36506396484375,-0.8975830078125,-0.54541015625,-0.044403076171875
1789058985511074000,4.375073974609375,-0.6790771484375,-0.3421630859375,-0.0103912353515625
1789058985521085000,4.3850849609375,-0.8380126953125,-0.216705322265625,-0.0294036865234375
1789058985531095000,4.395094970703125,-1.0453033447265625,-0.141082763671875,-0.065338134765625
1789058985541105200,4.405105224609375,-0.94146728515625,-0.5465850830078125,0.0201416015625
1789058985551116000,4.415115966796875,-0.952789306640625,-0.653533935546875,0.077117919921875
1789058985561126000,4.4251259765625,-0.5383758544921875,-0.589599609375,0.048828125
1789058985571136000,4.435135986328125,-0.705291748046875,-0.38214111328125,-0.0740966796875
1789058985581147000,4.44514697265625,-1.5096435546875,0.0082855224609375,-0.144561767578125
1789058985591157000,4.455156982421875,-1.612640380859375,-0.1407318115234375,0.0970611572265625
1789058985601168100,4.465168212890625,-1.2798004150390625,-0.5274200439453125,0.1632843017578125
1789058985611178200,4.47517822265625,-0.6675262451171875,-0.82476806640625,0.0114593505859375
1789058985621188000,4.48518798828125,-0.2151947021484375,-0.70745849609375,0.0480804443359375
1789058985631199200,4.49519921875,-0.4951934814453125,-0.148162841796875,0.1649932861328125
1789058985641209000,4.505208984375,-1.0763702392578125,0.0609588623046875,0.2171630859375
1789058985651219200,4.51521923828125,-1.4498443603515625,-0.2047882080078125,0.2111663818359375
1789058985661230000,4.52522998046875,-1.1588134765625,-0.58984375,0.0709686279296875
1789058985671240200,4.535240234375,-0.7640838623046875,-0.6434326171875,0.0140380859375
1789058985681250000,4.54525,-0.2298583984375,-0.8752288818359375,0.0699920654296875
1789058985691261000,4.555260986328125,-0.496185302734375,-0.2466278076171875,0.1634674072265625
1789058985701271000,4.56527099609375,-0.9598388671875,-0.2772064208984375,0.113616943359375
1789058985711281200,4.57528125,-1.2861328125,-0.2600555419921875,0.1092987060546875
1789058985721292000,4.5852919921875,-1.190460205078125,-0.387969970703125,0.1019439697265625
1789058985731302100,4.59530224609375,-1.0171966552734375,-0.3714141845703125,0.1346588134765625
1789058985741311500,4.6053115234375,-1.2061767578125,0.1494293212890625,0.1213531494140625
1789058985751322600,4.615322509765625,-0.943145751953125,-0.429412841796875,-0.0886383056640625
1789058985761332500,4.62533251953125,-0.7989959716796875,-0.43780517578125,-0.1433868408203125
1789058985771342600,4.635342529296875,-0.6425628662109375,-0.5626220703125,-0.1309967041015625
1789058985781353500,4.645353515625,-0.6954345703125,-0.521942138671875,0.046295166015625
1789058985791363600,4.655363525390625,-1.1920166015625,-0.0417938232421875,0.050140380859375
1789058985801373400,4.66537353515625,-1.3681640625,-0.4272308349609375,-0.07965087890625
1789058985811384300,4.67538427734375,-1.1329498291015625,-0.60931396484375,-0.1313018798828125
1789058985821394400,4.68539453125,-0.9797515869140625,-0.2334442138671875,-0.0541534423828125
1789058985831404500,4.695404541015625,-0.7262420654296875,-0.2051544189453125,0.062774658203125
1789058985841415700,4.705415771484375,-0.6552276611328125,-0.3035888671875,-0.03533935546875
1789058985851425500,4.715425537109375,-1.1337738037109375,-0.10797119140625,-0.104095458984375
1789058985861435600,4.725435546875,-1.0203857421875,-0.572601318359375,-0.0766754150390625
1789058985871446500,4.735446533203125,-1.05621337890625,-0.6559295654296875,-0.0477142333984375
1789058985881456600,4.74545654296875,-0.9560546875,-0.44970703125,0.0321197509765625
1789058985891466500,4.755466552734375,-0.833160400390625,-0.26092529296875,-0.1011199951171875
1789058985901477600,4.7654775390625,-0.7678375244140625,-0.316192626953125,-0.2523345947265625
1789058985911487500,4.775487548828125,-0.689056396484375,-0.6018218994140625,-0.2735137939453125
1789058985921497600,4.78549755859375,-0.88189697265625,-0.468505859375,-0.26495361328125
1789058985931508500,4.795508544921875,-1.1458282470703125,-0.46112060546875,-0.1938018798828125
1789058985941518600,4.8055185546875,-1.3329925537109375,0.0912322998046875,-0.2942962646484375
1789058985951528400,4.815528564453125,-1.0355224609375,-0.180633544921875,-0.4302825927734375
1789058985961539600,4.82553955078125,-0.67584228515625,-0.509735107421875,-0.3724365234375
1789058985971549400,4.835549560546875,-0.7430572509765625,-0.345428466796875,-0.2382354736328125
1789058985981559600,4.8455595703125,-0.649566650390625,-0.862518310546875,-0.0214691162109375
1789058985991570400,4.8555703125,-1.1055755615234375,-0.278656005859375,0.04498291015625
1789058986001580500,4.86558056640625,-1.070068359375,-0.266021728515625,-0.082183837890625
1789058986011590400,4.87559033203125,-1.20965576171875,-0.05780029296875,-0.19891357421875
1789058986021601500,4.8856015625,-1.0089263916015625,-0.09185791015625,-0.0827484130859375
1789058986031611400,4.895611328125,-0.623382568359375,-0.4421234130859375,0.0813751220703125
1789058986041621500,4.90562158203125,-0.8618621826171875,-0.443511962890625,0.1629180908203125
1789058986051632600,4.915632568359375,-1.202606201171875,-0.1593475341796875,0.2088623046875
1789058986061642800,4.925642822265625,-1.0279541015625,-0.50372314453125,0.03515625
1789058986071652600,4.935652587890625,-0.829376220703125,-0.4310150146484375,0.0626220703125
1789058986081663500,4.94566357421875,-0.5519256591796875,-0.38934326171875,0.1371002197265625
1789058986091673600,4.955673583984375,-0.7639312744140625,-0.3473968505859375,0.1488037109375
1789058986101683700,4.96568359375,-0.944549560546875,-0.3292236328125,0.155181884765625
1789058986111694600,4.975694580078125,-1.166839599609375,-0.0889739990234375,-0.0375213623046875
1789058986121704700,4.98570458984375,-0.871368408203125,-0.444976806640625,0.0019378662109375
1789058986131714600,4.995714599609375,-0.902679443359375,-0.2947998046875,-0.03070068359375
1789058986141725400,5.005725341796875,-0.817169189453125,-0.4227294921875,0.0696868896484375
1789058986151735600,5.015735595703125,-0.9137725830078125,-0.335601806640625,0.085845947265625
1789058986161745700,5.02574560546875,-1.0502166748046875,-0.2158355712890625,-0.054931640625
1789058986171756500,5.035756591796875,-0.872161865234375,-0.3189239501953125,-0.0655975341796875
1789058986181766400,5.045766357421875,-0.937042236328125,-0.377044677734375,-0.1077728271484375
1789058986191776500,5.055776611328125,-1.0602264404296875,-0.347198486328125,-0.04986572265625
1789058986201787400,5.065787353515625,-0.94580078125,-0.617340087890625,0.0100860595703125
1789058986211797500,5.075797607421875,-1.2154998779296875,-0.237030029296875,-0.131256103515625
1789058986221807400,5.085807373046875,-0.917633056640625,-0.4026336669921875,-0.045745849609375
1789058986231818500,5.095818603515625,-0.7735748291015625,-0.362579345703125,-0.010833740234375
1789058986241828400,5.105828369140625,-0.6136474609375,-0.4652252197265625,-0.03533935546875
1789058986251838500,5.11583837890625,-0.6614227294921875,-0.509033203125,0.0213775634765625
1789058986261849600,5.125849609375,-0.91650390625,-0.358978271484375,-0.091766357421875
1789058986271859700,5.135859619140625,-1.178466796875,-0.33111572265625,0.04730224609375
1789058986281870600,5.14587060546875,-1.299102783203125,-0.120269775390625,0.101165771484375
1789058986291880700,5.155880615234375,-1.0466766357421875,-0.4036102294921875,-0.0352630615234375
1789058986301890600,5.165890625,-0.6950531005859375,-0.5695037841796875,0.029205322265625
1789058986311901700,5.175901611328125,-0.6410064697265625,-0.42889404296875,-0.05706787109375
1789058986321911600,5.18591162109375,-0.6654052734375,-0.46881103515625,0.09014892578125
1789058986331921700,5.195921630859375,-1.028533935546875,-0.285491943359375,0.24090576171875
1789058986341932500,5.2059326171875,-1.37890625,-0.1826171875,0.0950775146484375
1789058986351942700,5.215942626953125,-1.290374755859375,-0.3995819091796875,0.06854248046875
1789058986361952500,5.225952392578125,-1.005615234375,-0.6147003173828125,-0.0018463134765625
1789058986371963400,5.23596337890625,-0.7393951416015625,-0.4263458251953125,-0.02777099609375
1789058986381973500,5.245973388671875,-0.5277862548828125,-0.3788604736328125,0.0778961181640625
1789058986391983600,5.255983642578125,-0.5826568603515625,-0.4003143310546875,0.00262451171875
1789058986401994500,5.265994384765625,-0.9934844970703125,-0.252227783203125,0.0454254150390625
1789058986412004400,5.27600439453125,-1.0430908203125,-0.34637451171875,-0.01824951171875
1789058986422014500,5.286014404296875,-1.23736572265625,-0.3841094970703125,-0.0155792236328125
1789058986432025300,5.296025390625,-1.2064361572265625,-0.29083251953125,-0.051910400390625
1789058986442035500,5.306035400390625,-0.6933746337890625,-0.645843505859375,0.0163726806640625
1789058986452045600,5.316045654296875,-0.6753692626953125,-0.3851776123046875,0.05712890625
1789058986462056700,5.326056640625,-0.9361572265625,-0.1890106201171875,-0.0808258056640625
1789058986474570500,5.338570556640625,-1.11956787109375,-0.4125213623046875,0.032440185546875
1789058986484580600,5.34858056640625,-1.117828369140625,-0.3555145263671875,0.006591796875
1789058986494590500,5.358590576171875,-0.8099365234375,-0.55963134765625,-0.1206817626953125
1789058986504601600,5.3686015625,-0.842926025390625,-0.24951171875,-0.084747314453125
1789058986514611500,5.378611572265625,-0.76324462890625,-0.2488861083984375,-0.0710296630859375
1789058986524621600,5.38862158203125,-0.6719970703125,-0.4942626953125,-0.0501251220703125
1789058986534632400,5.398632568359375,-0.9025726318359375,-0.4733123779296875,0.019866943359375
1789058986544642600,5.408642578125,-1.1175384521484375,-0.46014404296875,0.013916015625
1789058986554652400,5.41865234375,-1.4187164306640625,-0.2576141357421875,0.0414886474609375
1789058986564663600,5.42866357421875,-1.1197509765625,-0.256683349609375,0.0220184326171875
1789058986574673700,5.438673583984375,-0.82061767578125,-0.37969970703125,-0.1600341796875
1789058986584683800,5.448683837890625,-0.61566162109375,-0.53045654296875,-0.108612060546875
1789058986594694700,5.458694580078125,-0.6577301025390625,-0.4303131103515625,0.0435791015625
1789058986604704500,5.46870458984375,-0.868408203125,-0.2787017822265625,0.10980224609375
1789058986614714600,5.478714599609375,-1.0409393310546875,-0.27581787109375,0.1691741943359375
1789058986624725500,5.4887255859375,-1.0500640869140625,-0.5146484375,0.13494873046875
1789058986634735600,5.498735595703125,-1.1610107421875,-0.413848876953125,0.04486083984375
1789058986644745500,5.508745361328125,-1.0868988037109375,-0.3505096435546875,-0.0482940673828125
1789058986654756600,5.518756591796875,-0.825439453125,-0.4666595458984375,-0.1109771728515625
1789058986664766500,5.528766357421875,-0.6188507080078125,-0.362762451171875,-0.058807373046875
1789058986674776600,5.538776611328125,-0.741790771484375,-0.296173095703125,-0.0158843994140625
1789058986684787500,5.548787353515625,-0.7702178955078125,-0.3992462158203125,-0.0709228515625
1789058986694797600,5.558797607421875,-0.858062744140625,-0.454681396484375,0.023284912109375
1789058986704807400,5.568807373046875,-0.9388580322265625,-0.2993316650390625,-0.0597991943359375
1789058986714818600,5.578818603515625,-0.909759521484375,-0.511993408203125,-0.121795654296875
1789058986724828400,5.588828369140625,-1.0527496337890625,-0.35821533203125,-0.0602264404296875
1789058986734838500,5.598838623046875,-1.4224853515625,0.032012939453125,-0.1569366455078125
1789058986744849200,5.60884912109375,-1.07232666015625,-0.5042266845703125,-0.1550140380859375
1789058986754859300,5.618859375,-0.938812255859375,-0.50732421875,-0.26446533203125
1789058986764869000,5.628869140625,-0.7146453857421875,-0.5280609130859375,-0.18145751953125
1789058986774880300,5.63888037109375,-0.840484619140625,-0.412841796875,-0.0164031982421875
1789058986784890000,5.64889013671875,-0.9633026123046875,-0.1835479736328125,0.008514404296875
1789058986794901200,5.6589013671875,-0.9038238525390625,-0.3503875732421875,0.01287841796875
1789058986804911400,5.668911376953125,-0.9637451171875,-0.34234619140625,-0.0524444580078125
1789058986814921200,5.678921142578125,-0.8808135986328125,-0.443939208984375,-0.1457672119140625
1789058986824930300,5.688930419921875,-0.72283935546875,-0.637939453125,-0.0605010986328125
1789058986834940200,5.698940185546875,-1.1873931884765625,0.0536651611328125,-0.0850067138671875
1789058986844951000,5.708950927734375,-1.0212249755859375,-0.2737274169921875,-0.0002899169921875
1789058986854961200,5.718961181640625,-0.8137664794921875,-0.553436279296875,0.0054779052734375
1789058986864971300,5.72897119140625,-0.7326202392578125,-0.6855621337890625,-0.03228759765625
1789058986874982400,5.738982421875,-0.8898162841796875,-0.4133148193359375,0.038482666015625
1789058986884992300,5.7489921875,-1.089569091796875,-0.3068695068359375,0.111358642578125
1789058986895002400,5.75900244140625,-1.1850738525390625,-0.0662841796875,0.027191162109375
1789058986905013200,5.76901318359375,-0.8997955322265625,-0.407806396484375,0.0149383544921875
1789058986915023400,5.7790234375,-0.7823486328125,-0.4547882080078125,-0.00653076171875
1789058986925033200,5.789033203125,-0.8428497314453125,-0.343231201171875,0.0384368896484375
1789058986935044400,5.79904443359375,-0.8111114501953125,-0.3783721923828125,0.034515380859375
1789058986945054200,5.80905419921875,-1.013275146484375,-0.3640289306640625,-0.1385345458984375
1789058986955064300,5.819064208984375,-0.80279541015625,-0.5532379150390625,-0.029876708984375
1789058986965075200,5.8290751953125,-1.0023345947265625,-0.4132843017578125,0.0429840087890625
1789058986975085300,5.839085205078125,-0.8687744140625,-0.3965911865234375,0.043548583984375
1789058986985096200,5.84909619140625,-1.0938720703125,-0.2117462158203125,0.0506591796875
1789058986995106300,5.859106201171875,-1.1993255615234375,-0.124053955078125,-0.030303955078125
1789058987005116200,5.8691162109375,-1.058441162109375,-0.3337249755859375,-0.013916015625
1789058987015127300,5.879127197265625,-0.7880706787109375,-0.687469482421875,-0.0166778564453125
1789058987025137200,5.88913720703125,-0.7326507568359375,-0.3908843994140625,-0.0430145263671875
1789058987035147300,5.899147216796875,-0.9031524658203125,-0.1748199462890625,0.05291748046875
1789058987045158100,5.909158203125,-1.0506591796875,-0.1372222900390625,0.037109375
1789058987055168300,5.919168212890625,-0.836517333984375,-0.47491455078125,0.031036376953125
1789058987065178000,5.92917822265625,-0.8771514892578125,-0.3779144287109375,0.048583984375
1789058987075189200,5.939189208984375,-0.658935546875,-0.6461181640625,0.0410308837890625
1789058987085199400,5.949199462890625,-0.96826171875,-0.282501220703125,0.012939453125
1789058987095209500,5.95920947265625,-1.180755615234375,-0.2240447998046875,0.073455810546875
1789058987105220400,5.969220458984375,-1.0455780029296875,-0.4381866455078125,0.0185699462890625
1789058987115230200,5.979230224609375,-1.082733154296875,-0.4486541748046875,-0.0092620849609375
1789058987125240300,5.989240234375,-0.870849609375,-0.45904541015625,0.0843353271484375
1789058987135251200,5.999251220703125,-0.7043304443359375,-0.53924560546875,0.0959014892578125
1789058987145261300,6.00926123046875,-0.8116607666015625,-0.3968048095703125,0.0924224853515625
1789058987155271200,6.019271240234375,-0.7635345458984375,-0.5010986328125,0.07220458984375
1789058987165282300,6.0292822265625,-0.789398193359375,-0.5325775146484375,0.1024627685546875
1789058987175292200,6.039292236328125,-0.8861083984375,-0.4431915283203125,0.0712432861328125
1789058987185302300,6.04930224609375,-1.1171875,-0.2997283935546875,0.052520751953125
1789058987195313200,6.059313232421875,-1.2458038330078125,-0.25909423828125,0.0078277587890625
1789058987205323300,6.0693232421875,-1.07373046875,-0.345001220703125,-0.0714569091796875
1789058987215333000,6.0793330078125,-0.6428070068359375,-0.724365234375,-0.088653564453125
1789058987225344300,6.08934423828125,-0.47796630859375,-0.4806976318359375,-0.048492431640625
1789058987235354000,6.09935400390625,-0.5741424560546875,-0.5344085693359375,0.0605621337890625
1789058987245364200,6.1093642578125,-1.1635894775390625,-0.1145477294921875,0.0488739013671875
1789058987255375000,6.119375,-1.0651092529296875,-0.3536376953125,-0.0201263427734375
1789058987265385200,6.12938525390625,-1.2748565673828125,-0.265472412109375,0.05157470703125
1789058987275395000,6.13939501953125,-1.209014892578125,-0.3785858154296875,-0.0701751708984375
1789058987285406500,6.149406494140625,-0.871978759765625,-0.681365966796875,-0.0296630859375
1789058987295416300,6.159416259765625,-0.6204376220703125,-0.5875396728515625,0.001556396484375
1789058987305426400,6.169426513671875,-0.5193939208984375,-0.494293212890625,-0.07061767578125
1789058987315437300,6.179437255859375,-0.65374755859375,-0.245269775390625,0.0475006103515625
1789058987325447400,6.189447509765625,-0.98040771484375,-0.155242919921875,0.0155029296875
1789058987335457300,6.199457275390625,-1.377166748046875,-0.2356414794921875,-0.0525360107421875
1789058987345468200,6.20946826171875,-1.1901397705078125,-0.6563873291015625,-0.0811920166015625
1789058987355478300,6.219478271484375,-0.9322052001953125,-0.465362548828125,-0.311920166015625
1789058987365488400,6.22948828125,-0.681549072265625,-0.5096282958984375,-0.2409210205078125
1789058987375499300,6.239499267578125,-0.793548583984375,-0.0640716552734375,-0.1068267822265625
1789058987385509400,6.24950927734375,-0.7159423828125,-0.5199127197265625,-0.0890655517578125
1789058987395519200,6.259519287109375,-0.8775482177734375,-0.476837158203125,-0.0467071533203125
1789058987405530000,6.269530029296875,-1.0638885498046875,-0.4159698486328125,0.001617431640625
1789058987415540200,6.279540283203125,-0.9813995361328125,-0.572296142578125,-0.0880889892578125
1789058987425550300,6.28955029296875,-1.067596435546875,-0.2787933349609375,-0.08917236328125
1789058987435561200,6.299561279296875,-1.0320892333984375,-0.3304595947265625,-0.177001953125
1789058987445571000,6.309571044921875,-0.947509765625,-0.3827056884765625,-0.0206451416015625
1789058987455582200,6.319582275390625,-0.7946624755859375,-0.376739501953125,-0.0549163818359375
1789058987465592000,6.329592041015625,-0.8438873291015625,-0.479400634765625,-0.075714111328125
1789058987475602200,6.339602294921875,-0.9172210693359375,-0.3548126220703125,0.00677490234375
1789058987485613300,6.34961328125,-0.9728851318359375,-0.4481353759765625,-0.0947113037109375
1789058987495623400,6.35962353515625,-1.03814697265625,-0.349639892578125,-0.017578125
1789058987505633300,6.36963330078125,-1.0643768310546875,-0.403045654296875,-0.0577239990234375
1789058987515644400,6.37964453125,-0.8921051025390625,-0.3261260986328125,-0.202789306640625
1789058987525654300,6.389654296875,-0.8725738525390625,-0.1753387451171875,-0.229217529296875
1789058987535664400,6.399664306640625,-0.755523681640625,-0.4338226318359375,-0.153167724609375
1789058987545675300,6.40967529296875,-0.6916046142578125,-0.415618896484375,-0.158294677734375
1789058987555685400,6.419685302734375,-0.7835693359375,-0.3296661376953125,-0.0901641845703125
1789058987565695200,6.4296953125,-1.004974365234375,-0.2396697998046875,-0.1195526123046875
1789058987575706400,6.439706298828125,-1.1290283203125,-0.429107666015625,-0.0675201416015625
1789058987585716200,6.44971630859375,-1.0520782470703125,-0.4962310791015625,-0.0478057861328125
1789058987595726300,6.459726318359375,-1.2722625732421875,-0.2010498046875,-0.0619354248046875
1789058987605737200,6.4697373046875,-0.991241455078125,-0.379058837890625,-0.022491455078125
1789058987615747300,6.479747314453125,-0.880218505859375,-0.297454833984375,-0.0230255126953125
1789058987625757200,6.489757080078125,-0.7585601806640625,-0.2718963623046875,-0.071441650390625
1789058987635768000,6.49976806640625,-0.6098785400390625,-0.57342529296875,-0.0377044677734375
1789058987645778200,6.509778076171875,-0.709564208984375,-0.439727783203125,-0.05029296875
1789058987655788300,6.519788330078125,-0.9691314697265625,-0.418060302734375,0.076568603515625
1789058987665799200,6.529799072265625,-0.9912261962890625,-0.40142822265625,0.077880859375
1789058987675809000,6.53980908203125,-0.9264373779296875,-0.374053955078125,-0.0265960693359375
1789058987685819100,6.549819091796875,-0.85223388671875,-0.382537841796875,-0.05462646484375
1789058987695830300,6.559830322265625,-1.0994110107421875,-0.262542724609375,-0.007354736328125
1789058987705840400,6.56984033203125,-1.36932373046875,-0.0748748779296875,0.0095062255859375
1789058987715850200,6.579850341796875,-1.2264556884765625,-0.2415313720703125,0.02545166015625
1789058987725861400,6.589861328125,-0.6702880859375,-0.7994384765625,0.067169189453125
1789058987735871200,6.599871337890625,-0.5550079345703125,-0.3970184326171875,0.0207061767578125
1789058987745881300,6.60988134765625,-0.7115478515625,-0.2128448486328125,-0.05548095703125
1789058987755892200,6.619892333984375,-1.0419464111328125,-0.084625244140625,0.0159454345703125
1789058987765902300,6.62990234375,-1.01519775390625,-0.48248291015625,0.0128326416015625
1789058987775912200,6.639912109375,-0.99420166015625,-0.5353546142578125,-0.0668487548828125
1789058987785923600,6.649923583984375,-0.8919219970703125,-0.5061187744140625,-0.017425537109375
1789058987795933400,6.659933349609375,-0.869171142578125,-0.19775390625,-0.006195068359375
1789058987805943600,6.669943603515625,-0.99761962890625,-0.1354827880859375,0.0220947265625
1789058987815954400,6.679954345703125,-1.0653839111328125,-0.3131561279296875,-0.08148193359375
1789058987825964500,6.689964599609375,-1.071441650390625,-0.398590087890625,-0.10491943359375
1789058987835974400,6.699974365234375,-0.952545166015625,-0.5150299072265625,0.06243896484375
1789058987845985500,6.709985595703125,-0.86395263671875,-0.3431396484375,0.1630706787109375
1789058987855995400,6.719995361328125,-0.8469390869140625,-0.3463897705078125,0.06256103515625
1789058987866005500,6.730005615234375,-1.03631591796875,-0.3533172607421875,-0.0151214599609375
1789058987876016400,6.740016357421875,-1.13446044921875,-0.3179931640625,-0.0586090087890625
1789058987886026500,6.750026611328125,-0.724151611328125,-0.524261474609375,-0.03680419921875
1789058987896036400,6.760036376953125,-0.634033203125,-0.43902587890625,-0.0069122314453125
1789058987906047200,6.770047119140625,-1.0418701171875,0.0038909912109375,-0.02398681640625
1789058987916057300,6.780057373046875,-0.91473388671875,-0.523895263671875,-0.038360595703125
1789058987926068200,6.790068115234375,-1.073944091796875,-0.5879974365234375,0.045196533203125
1789058987936078300,6.800078369140625,-1.227264404296875,-0.1712646484375,0.032867431640625
1789058987946088200,6.810088134765625,-0.9563140869140625,-0.32879638671875,0.088165283203125
1789058987956099300,6.820099365234375,-0.643646240234375,-0.4746856689453125,-0.1081695556640625
1789058987966109200,6.830109130859375,-0.7140045166015625,-0.2389678955078125,-0.153778076171875
1789058987976119300,6.840119384765625,-0.744384765625,-0.4949493408203125,0.0875091552734375
1789058987986130400,6.85013037109375,-0.8882293701171875,-0.476226806640625,-0.0553131103515625
1789058987996140500,6.860140625,-1.2496185302734375,-0.22845458984375,0.030548095703125
1789058988006150400,6.870150390625,-1.060302734375,-0.5831146240234375,-0.002471923828125
1789058988016161500,6.88016162109375,-1.1006011962890625,-0.3072967529296875,-0.136749267578125
1789058988026171400,6.89017138671875,-0.8826751708984375,-0.3409271240234375,-0.0205078125
1789058988036181500,6.900181396484375,-0.71478271484375,-0.4822845458984375,-0.0855255126953125
1789058988046192400,6.9101923828125,-0.8681640625,-0.156097412109375,-0.0185699462890625
1789058988056202500,6.920202392578125,-0.757537841796875,-0.4092559814453125,-0.0420074462890625
1789058988066212400,6.93021240234375,-0.9653167724609375,-0.2488861083984375,-0.05615234375
1789058988076223500,6.940223388671875,-0.87127685546875,-0.4315032958984375,-0.049896240234375
1789058988086233300,6.9502333984375,-0.8236083984375,-0.7341766357421875,-0.213470458984375
1789058988096243500,6.960243408203125,-1.1096954345703125,-0.3035430908203125,-0.089111328125
1789058988106254300,6.97025439453125,-1.0511474609375,-0.1947021484375,0.0036468505859375
1789058988116264400,6.980264404296875,-0.9401702880859375,-0.2851104736328125,0.100311279296875
1789058988126274300,6.9902744140625,-1.0306243896484375,-0.1126861572265625,-0.0440216064453125
1789058988136285200,7.00028515625,-0.7408294677734375,-0.590240478515625,-0.1028289794921875
1789058988146295300,7.01029541015625,-0.691162109375,-0.731231689453125,-0.128692626953125
1789058988156305400,7.020305419921875,-1.1581573486328125,-0.079559326171875,-0.175872802734375
1789058988166316300,7.03031640625,-1.1329803466796875,-0.2523040771484375,0.015899658203125
1789058988176326400,7.040326416015625,-1.077911376953125,-0.264556884765625,-0.0827178955078125
1789058988186336300,7.050336181640625,-1.0832977294921875,-0.2234954833984375,-0.121246337890625
1789058988196347400,7.060347412109375,-0.7476348876953125,-0.552398681640625,-0.091705322265625
1789058988206357500,7.070357421875,-0.735992431640625,-0.4780426025390625,-0.1136932373046875
1789058988216367400,7.080367431640625,-0.7726593017578125,-0.2497100830078125,-0.1442413330078125
1789058988226378500,7.09037841796875,-0.927001953125,-0.228546142578125,-0.0428619384765625
1789058988236388400,7.100388427734375,-1.0437469482421875,-0.36346435546875,0.0138702392578125
1789058988246398500,7.1103984375,-1.130462646484375,-0.274749755859375,0.0354461669921875
1789058988256409300,7.120409423828125,-0.972930908203125,-0.5411529541015625,0.0035858154296875
1789058988266419500,7.13041943359375,-0.9583740234375,-0.37860107421875,-0.075592041015625
1789058988276429300,7.14042919921875,-0.918121337890625,-0.1888427734375,-0.111083984375
1789058988286440400,7.1504404296875,-0.798126220703125,-0.1917266845703125,0.0206451416015625
1789058988296450300,7.1604501953125,-0.8022308349609375,-0.361968994140625,0.0018768310546875
1789058988306460400,7.17046044921875,-1.0343170166015625,-0.3360137939453125,-0.0199432373046875
1789058988316471300,7.18047119140625,-0.97882080078125,-0.4813079833984375,0.1064605712890625
1789058988326481400,7.1904814453125,-0.955169677734375,-0.3848114013671875,0.0255889892578125
1789058988336491300,7.2004912109375,-0.7973785400390625,-0.503387451171875,0.0443267822265625
1789058988346502400,7.21050244140625,-0.871978759765625,-0.20562744140625,0.068115234375
1789058988356512300,7.22051220703125,-1.045684814453125,-0.1991119384765625,0.0414581298828125
1789058988366522400,7.2305224609375,-1.010162353515625,-0.42376708984375,0.02984619140625
1789058988376533200,7.240533203125,-1.0244903564453125,-0.4376678466796875,0.0747528076171875
1789058988386543400,7.25054345703125,-0.900299072265625,-0.35565185546875,0.0757293701171875
1789058988396554500,7.260554443359375,-0.8782501220703125,-0.40087890625,0.0887603759765625
1789058988406564400,7.270564453125,-0.975006103515625,-0.1567535400390625,-0.030029296875
1789058988416574500,7.280574462890625,-0.91357421875,-0.2846832275390625,-0.0022125244140625
1789058988426585300,7.29058544921875,-0.965240478515625,-0.414947509765625,0.02117919921875
1789058988436595500,7.300595458984375,-0.8751373291015625,-0.47308349609375,-0.0120086669921875
1789058988446605600,7.31060546875,-0.919830322265625,-0.365692138671875,-0.0066375732421875
1789058988456616400,7.320616455078125,-0.9291229248046875,-0.3008880615234375,0.0454559326171875
1789058988466626300,7.330626220703125,-0.7894287109375,-0.4354705810546875,0.1265106201171875
1789058988476636400,7.340636474609375,-0.99713134765625,-0.25,-0.0238494873046875
1789058988486647300,7.350647216796875,-1.1455535888671875,-0.2371978759765625,-0.0006103515625
1789058988496657400,7.360657470703125,-1.01434326171875,-0.3965301513671875,-0.0541229248046875
1789058988506667300,7.370667236328125,-1.250091552734375,-0.1724395751953125,-0.10791015625
1789058988516678400,7.380678466796875,-1.0093231201171875,-0.35504150390625,-0.021820068359375
1789058988526688300,7.390688232421875,-0.827545166015625,-0.4642333984375,-0.067352294921875
1789058988536698400,7.400698486328125,-0.8185577392578125,-0.381561279296875,0.0274200439453125
1789058988546709200,7.410709228515625,-0.6681976318359375,-0.520172119140625,0.0482025146484375
1789058988556719400,7.42071923828125,-0.9054412841796875,-0.304931640625,-0.044403076171875
1789058988566729200,7.430729248046875,-0.9706573486328125,-0.332061767578125,0.023834228515625
1789058988576740400,7.440740234375,-1.0200958251953125,-0.3179931640625,-0.03363037109375
1789058988586750200,7.450750244140625,-0.9906158447265625,-0.4605255126953125,-0.120452880859375
1789058988596760300,7.46076025390625,-1.0711517333984375,-0.3106842041015625,-0.1162261962890625
1789058988606771500,7.470771484375,-1.0014190673828125,-0.33160400390625,-0.0242919921875
1789058988616781600,7.480781494140625,-0.831024169921875,-0.41876220703125,0.0774993896484375
1789058988626791400,7.49079150390625,-0.690277099609375,-0.361846923828125,0.030242919921875
1789058988636802600,7.500802490234375,-0.9503173828125,-0.1378173828125,-0.046600341796875
1789058988646812400,7.5108125,-0.9454345703125,-0.3446044921875,-0.0157470703125
1789058988656822500,7.520822509765625,-1.1469268798828125,-0.3182830810546875,-0.05450439453125
1789058988666833400,7.53083349609375,-1.1113433837890625,-0.311614990234375,-0.0113067626953125
1789058988676843500,7.540843505859375,-0.8928680419921875,-0.357879638671875,0.0008087158203125
1789058988686853400,7.550853271484375,-0.824493408203125,-0.3679351806640625,-0.0381927490234375
1789058988696864300,7.5608642578125,-0.8086395263671875,-0.264312744140625,-0.014312744140625
1789058988706874400,7.570874267578125,-0.89788818359375,-0.3612213134765625,-0.0750274658203125
1789058988716884500,7.580884521484375,-1.1779937744140625,-0.2752685546875,-0.1391754150390625
1789058988726895400,7.590895263671875,-1.2859649658203125,-0.276580810546875,-0.112548828125
1789058988736905200,7.6009052734375,-1.0099639892578125,-0.3256072998046875,-0.1975860595703125
1789058988746915600,7.61091552734375,-0.8449859619140625,-0.2910003662109375,-0.1085662841796875
1789058988756926500,7.620926513671875,-0.568267822265625,-0.4669036865234375,-0.1867828369140625
1789058988766936600,7.6309365234375,-0.57965087890625,-0.4885101318359375,-0.1167449951171875
1789058988776946400,7.640946533203125,-0.7470703125,-0.397613525390625,-0.0728607177734375
1789058988786957600,7.65095751953125,-1.0470733642578125,-0.2950592041015625,-0.02435302734375
1789058988796967400,7.660967529296875,-1.312591552734375,-0.0408477783203125,0.043548583984375
1789058988806977500,7.6709775390625,-1.14764404296875,-0.35113525390625,-0.0530242919921875
1789058988816988400,7.680988525390625,-1.025665283203125,-0.4053802490234375,-0.0878753662109375
1789058988826998500,7.69099853515625,-0.7716064453125,-0.5037841796875,-0.089080810546875
1789058988837009400,7.701009521484375,-0.6941680908203125,-0.3957672119140625,-0.0201568603515625
1789058988847019500,7.71101953125,-0.8994598388671875,-0.201934814453125,0.039337158203125
1789058988857029400,7.721029296875,-1.3569183349609375,-0.2908477783203125,0.15576171875
1789058988867040500,7.73104052734375,-1.79119873046875,-0.0445709228515625,0.09161376953125
1789058988877050400,7.74105029296875,-1.8835601806640625,-0.136627197265625,0.009979248046875
1789058988887060500,7.751060546875,-1.20306396484375,-0.496490478515625,-0.1110382080078125
1789058988897071600,7.761071533203125,-0.6576080322265625,-0.518402099609375,-0.1619720458984375
1789058988907081700,7.771081787109375,-0.45721435546875,-0.348388671875,-0.17022705078125
1789058988917091600,7.781091552734375,-0.4108428955078125,-0.5260467529296875,-0.07958984375
1789058988927102500,7.7911025390625,-0.6284332275390625,-0.3846893310546875,-0.0296630859375
1789058988937112600,7.801112548828125,-0.8406524658203125,-0.2408447265625,-0.0190277099609375
1789058988947122700,7.811122802734375,-1.06829833984375,-0.383941650390625,-0.0220184326171875
1789058988957133600,7.821133544921875,-1.1884002685546875,-0.1948699951171875,-0.11553955078125
1789058988967143400,7.831143310546875,-0.9680328369140625,-0.4227447509765625,-0.0960235595703125
1789058988977153500,7.841153564453125,-0.8624267578125,-0.5018463134765625,-0.1697998046875
1789058988987164400,7.851164306640625,-0.9054107666015625,-0.2303314208984375,-0.0552215576171875
1789058988997174500,7.861174560546875,-0.74700927734375,-0.349456787109375,0.129547119140625
1789058989007184400,7.871184326171875,-0.9366455078125,-0.2325439453125,0.11834716796875
1789058989017195500,7.881195556640625,-0.8116302490234375,-0.4735870361328125,0.069000244140625
1789058989027205400,7.891205322265625,-0.915557861328125,-0.3031768798828125,0.148681640625
1789058989037215500,7.901215576171875,-0.9595489501953125,-0.367156982421875,0.1378021240234375
1789058989047226400,7.911226318359375,-1.00384521484375,-0.512054443359375,0.1995697021484375
1789058989057236500,7.921236572265625,-1.08221435546875,-0.368133544921875,0.1591644287109375
1789058989067246300,7.931246337890625,-0.8604278564453125,-0.6144561767578125,0.0284271240234375
1789058989077257500,7.941257568359375,-0.8103790283203125,-0.6219635009765625,0.0644073486328125
1789058989087267300,7.951267333984375,-0.850372314453125,-0.289215087890625,0.0871734619140625
1789058989097277400,7.96127734375,-0.8329925537109375,-0.4695587158203125,0.1175689697265625
1789058989107288600,7.97128857421875,-1.1190338134765625,-0.167022705078125,0.075592041015625
1789058989117298700,7.981298583984375,-1.172882080078125,-0.2917327880859375,0.02764892578125
1789058989127308500,7.99130859375,-1.138702392578125,-0.4104156494140625,-0.138153076171875
1789058989137319700,8.001319580078125,-0.94854736328125,-0.4405670166015625,-0.27337646484375
1789058989147329500,8.01132958984375,-0.85137939453125,-0.4757080078125,-0.2506256103515625
1789058989157339600,8.021339599609375,-0.744964599609375,-0.457977294921875,-0.2641754150390625
1789058989167350500,8.0313505859375,-0.622100830078125,-0.517608642578125,-0.182220458984375
1789058989177360600,8.041360595703125,-0.8447723388671875,-0.2641754150390625,-0.11346435546875
1789058989187370500,8.05137060546875,-0.9496917724609375,-0.3453216552734375,-0.1508026123046875
1789058989197381400,8.06138134765625,-0.876739501953125,-0.253936767578125,-0.119049072265625
1789058989207391500,8.0713916015625,-1.1402130126953125,-0.217041015625,-0.1759033203125
1789058989217401600,8.081401611328126,-1.1612396240234375,-0.2832183837890625,-0.152191162109375
1789058989227412500,8.09141259765625,-1.05902099609375,-0.34014892578125,-0.0966033935546875
1789058989237422600,8.101422607421876,-1.1826934814453125,-0.2122344970703125,-0.127288818359375
1789058989247432400,8.111432373046876,-0.97216796875,-0.272918701171875,-0.087982177734375
1789058989257443300,8.121443359375,-0.7594757080078125,-0.33306884765625,-0.1233367919921875
1789058989267453400,8.131453369140624,-0.593414306640625,-0.5527801513671875,-0.1200408935546875
1789058989277464300,8.14146435546875,-0.5356597900390625,-0.657562255859375,-0.1246185302734375
1789058989287474400,8.151474365234375,-0.8405609130859375,-0.4132080078125,-0.1863250732421875
1789058989297484300,8.161484375,-1.1487579345703125,-0.3272552490234375,-0.174468994140625
1789058989307495700,8.17149560546875,-1.18505859375,-0.287750244140625,-0.1714324951171875
1789058989317505500,8.181505615234375,-1.2322235107421875,-0.245941162109375,-0.1423187255859375
1789058989327515600,8.191515625,-1.1833038330078125,-0.1815643310546875,-0.1458740234375
1789058989337526500,8.201526611328125,-0.934844970703125,-0.3695220947265625,-0.2057647705078125
1789058989347536600,8.21153662109375,-0.8718719482421875,-0.2335357666015625,-0.186279296875
1789058989357546500,8.22154638671875,-0.874603271484375,-0.22454833984375,-0.1377716064453125
1789058989367557600,8.2315576171875,-0.84326171875,-0.2783966064453125,-0.118499755859375
1789058989377567500,8.2415673828125,-0.7840576171875,-0.4316864013671875,-0.0297088623046875
1789058989387577600,8.25157763671875,-0.87969970703125,-0.314178466796875,0.021270751953125
1789058989397588500,8.26158837890625,-0.9114532470703125,-0.2207794189453125,0.0407867431640625
1789058989407598600,8.2715986328125,-0.8010406494140625,-0.2830352783203125,0.0897369384765625
1789058989417608400,8.2816083984375,-0.869354248046875,-0.23760986328125,-0.006134033203125
1789058989427619600,8.29161962890625,-0.9640960693359375,-0.2685394287109375,0.0476837158203125
1789058989437629400,8.30162939453125,-1.0753326416015625,-0.32098388671875,0.1296234130859375
1789058989447639600,8.3116396484375,-1.0362091064453125,-0.3122100830078125,0.20086669921875
1789058989457650400,8.321650390625,-1.0367584228515625,-0.3024139404296875,0.20703125
1789058989467660500,8.33166064453125,-0.97320556640625,-0.3903045654296875,0.211578369140625
1789058989477670400,8.34167041015625,-1.0874481201171875,-0.33984375,0.2162322998046875
1789058989487681300,8.351681396484375,-1.152008056640625,-0.238800048828125,0.2011871337890625
1789058989497691400,8.36169140625,-0.9448394775390625,-0.3179779052734375,0.203277587890625
1789058989507701500,8.371701416015625,-0.7622222900390625,-0.4538116455078125,0.150115966796875
1789058989517712600,8.381712646484376,-0.5553436279296875,-0.473907470703125,0.080596923828125
1789058989527722500,8.391722412109376,-0.7000885009765625,-0.3697357177734375,0.1698150634765625
1789058989537732600,8.401732666015626,-0.9236602783203125,-0.323883056640625,0.1544342041015625
1789058989547743500,8.411743408203124,-1.0727996826171875,-0.6007080078125,0.0706939697265625
1789058989557753600,8.421753662109374,-1.2760162353515625,-0.3234405517578125,0.079345703125
1789058989567763500,8.431763427734374,-0.9511260986328125,-0.5305023193359375,0.0591888427734375
1789058989577774600,8.441774658203125,-0.782257080078125,-0.56341552734375,0.005279541015625
1789058989587784400,8.451784423828125,-0.8523101806640625,-0.2522430419921875,-0.0579986572265625
1789058989597794600,8.461794677734375,-0.80157470703125,-0.38043212890625,-0.134002685546875
1789058989607805400,8.471805419921875,-0.7139739990234375,-0.5856475830078125,-0.016387939453125
1789058989617815600,8.481815673828125,-0.9192657470703125,-0.2254180908203125,-0.0684356689453125
1789058989627825400,8.491825439453125,-1.165069580078125,-0.2194366455078125,0.027252197265625
1789058989637836500,8.50183642578125,-1.078765869140625,-0.308135986328125,-0.14215087890625
1789058989647846400,8.511846435546875,-1.188720703125,-0.2299957275390625,-0.217498779296875
1789058989657857500,8.521857421875,-1.05718994140625,-0.357666015625,-0.27838134765625
1789058989667867400,8.531867431640626,-0.73394775390625,-0.487518310546875,-0.2533111572265625
1789058989677877500,8.54187744140625,-0.7109375,-0.34002685546875,-0.0746002197265625
1789058989687888600,8.551888671875,-0.7594757080078125,-0.3459625244140625,-0.0461578369140625
1789058989697898800,8.561898681640624,-0.804595947265625,-0.228790283203125,-0.0189361572265625
1789058989707908400,8.571908447265624,-0.9308624267578125,-0.2631988525390625,0.058258056640625
1789058989717919500,8.58191943359375,-1.021026611328125,-0.3317108154296875,0.038177490234375
1789058989727929600,8.5919296875,-1.1403350830078125,-0.2681427001953125,-0.0438079833984375
1789058989737939700,8.601939697265625,-1.2332611083984375,-0.2384033203125,-0.0106353759765625
1789058989747950300,8.611950439453125,-1.118896484375,-0.2280731201171875,-0.085845947265625
1789058989757960200,8.621960205078125,-0.918365478515625,-0.3918609619140625,-0.0579376220703125
1789058989767970300,8.63197021484375,-0.79901123046875,-0.3827667236328125,-0.0485382080078125
1789058989777981400,8.6419814453125,-0.861907958984375,-0.318359375,-0.0457611083984375
1789058989787991600,8.651991455078125,-0.84295654296875,-0.304290771484375,0.0596771240234375
1789058989798001400,8.66200146484375,-0.919189453125,-0.2478179931640625,0.0774688720703125
1789058989808012500,8.672012451171875,-0.871917724609375,-0.41900634765625,-0.0238494873046875
1789058989818022400,8.6820224609375,-0.847076416015625,-0.4857177734375,0.0238494873046875
1789058989828032500,8.692032470703126,-0.9769439697265625,-0.589263916015625,0.00421142578125
1789058989838043400,8.70204345703125,-1.1543426513671875,-0.256134033203125,-0.002777099609375
1789058989848053500,8.712053466796876,-0.9862060546875,-0.42413330078125,-0.0007781982421875
1789058989858063400,8.7220634765625,-0.832733154296875,-0.4240264892578125,-0.035675048828125
1789058989868074500,8.732074462890624,-0.7966766357421875,-0.3561859130859375,-0.078125
1789058989878084400,8.74208447265625,-0.80755615234375,-0.365875244140625,-0.1183929443359375
1789058989888094500,8.752094482421874,-0.7464447021484375,-0.4677734375,-0.0914764404296875
1789058989898105300,8.762105224609375,-0.9773406982421875,-0.3220367431640625,-0.0566253662109375
1789058989908115500,8.772115478515625,-1.1142120361328125,-0.312835693359375,0.04754638671875
1789058989918125300,8.782125244140625,-0.909942626953125,-0.4059295654296875,0.0045623779296875
1789058989928136400,8.792136474609375,-0.85699462890625,-0.323822021484375,-0.1783599853515625
1789058989938146300,8.802146240234375,-0.9697113037109375,-0.3689117431640625,-0.2346954345703125
1789058989948156400,8.812156494140625,-1.03125,-0.4197998046875,-0.3360137939453125
1789058989958167300,8.822167236328125,-1.0723876953125,-0.3870697021484375,-0.3134613037109375
1789058989968177400,8.832177490234375,-0.9151153564453125,-0.4811859130859375,-0.2138824462890625
1789058989978187300,8.842187255859375,-0.8672332763671875,-0.3104248046875,-0.14520263671875
1789058989988198400,8.852198486328126,-0.804046630859375,-0.27642822265625,-0.0816802978515625
1789058989998208500,8.86220849609375,-0.854248046875,-0.2532196044921875,-0.1219329833984375
1789058990008218600,8.872218505859376,-0.9541473388671875,-0.2713165283203125,-0.1006927490234375
1789058990018229500,8.8822294921875,-1.058685302734375,-0.3033599853515625,-0.1819305419921875
1789058990028239600,8.892239501953124,-1.1501007080078125,-0.2783050537109375,-0.166595458984375
1789058990038249500,8.90224951171875,-1.0922698974609375,-0.2291412353515625,-0.1183319091796875
1789058990048260400,8.91226025390625,-1.0076904296875,-0.2667083740234375,-0.08477783203125
1789058990058270500,8.9222705078125,-0.8578033447265625,-0.3403167724609375,0.1038055419921875
1789058990068281300,8.93228125,-0.67974853515625,-0.445159912109375,0.111053466796875
1789058990078291500,8.94229150390625,-0.9036712646484375,-0.2223968505859375,0.058868408203125
1789058990088301300,8.95230126953125,-0.9953460693359375,-0.289703369140625,0.0552520751953125
1789058990098312400,8.9623125,-1.0694122314453125,-0.2204742431640625,-0.05682373046875
1789058990108322300,8.972322265625,-0.9090423583984375,-0.5735321044921875,-0.0377349853515625
1789058990118332400,8.98233251953125,-1.023712158203125,-0.4076690673828125,-0.01715087890625
1789058990128343300,8.99234326171875,-0.981170654296875,-0.2855987548828125,-0.114501953125
1789058990138353400,9.002353515625,-0.6660614013671875,-0.5787506103515625,-0.0058441162109375
1789058990148363300,9.01236328125,-0.8042144775390625,-0.359161376953125,-0.0325469970703125
1789058990158374400,9.02237451171875,-0.973175048828125,-0.1878662109375,-0.099395751953125
1789058990168384300,9.03238427734375,-0.96240234375,-0.336395263671875,-0.0350341796875
1789058990178394400,9.042394287109374,-1.0501861572265625,-0.404510498046875,-0.0531768798828125
1789058990188405500,9.052405517578125,-1.1436004638671875,-0.14862060546875,-0.0959930419921875
1789058990198415600,9.06241552734375,-0.9950408935546875,-0.3099517822265625,-0.0205078125
1789058990208425500,9.072425537109375,-0.9577178955078125,-0.3099365234375,-0.0123443603515625
1789058990218436400,9.082436279296875,-0.872222900390625,-0.4096832275390625,0.0040740966796875
1789058990228446500,9.092446533203125,-0.7911834716796875,-0.409027099609375,0.0150909423828125
1789058990238456600,9.10245654296875,-0.7317047119140625,-0.428680419921875,-0.0015106201171875
1789058990248467500,9.112467529296875,-0.923980712890625,-0.193145751953125,-0.0175628662109375
1789058990258477600,9.1224775390625,-0.9614410400390625,-0.32183837890625,-0.046173095703125
1789058990268487400,9.1324873046875,-1.012939453125,-0.2841033935546875,0.0155181884765625
1789058990278498300,9.142498291015626,-1.0040740966796875,-0.341094970703125,-0.036712646484375
1789058990288508400,9.15250830078125,-1.2035369873046875,-0.0811920166015625,-0.032257080078125
1789058990298518500,9.1625185546875,-0.9445037841796875,-0.417327880859375,0.107177734375
1789058990308529400,9.172529296875,-0.965423583984375,-0.300445556640625,0.0892486572265625
1789058990318539300,9.182539306640624,-0.9473419189453125,-0.332763671875,0.0626373291015625
1789058990328549400,9.19254931640625,-0.72821044921875,-0.41015625,0.0813751220703125
1789058990338560300,9.202560302734375,-0.7444610595703125,-0.4429168701171875,0.020477294921875
1789058990348570400,9.2125703125,-0.9467010498046875,-0.20550537109375,0.02935791015625
1789058990358580200,9.222580322265625,-0.91583251953125,-0.384735107421875,0.0853729248046875
1789058990368591400,9.23259130859375,-0.8429412841796875,-0.39697265625,0.0586090087890625
1789058990378601200,9.242601318359375,-0.8330841064453125,-0.32781982421875,0.07977294921875
1789058990388611300,9.252611328125,-0.970367431640625,-0.2933807373046875,0.0977630615234375
1789058990398622500,9.26262255859375,-1.221160888671875,-0.2739410400390625,0.0374908447265625
1789058990408632600,9.272632568359375,-1.140960693359375,-0.2733917236328125,0.076507568359375
1789058990418642400,9.282642333984375,-1.026763916015625,-0.33233642578125,0.053253173828125
1789058990428653600,9.292653564453126,-0.787109375,-0.5425567626953125,0.03790283203125
1789058990438663400,9.302663330078126,-0.7522735595703125,-0.32391357421875,0.0067291259765625
1789058990448674600,9.312674560546874,-0.68414306640625,-0.5027313232421875,-0.0311279296875
1789058990458684400,9.322684326171874,-0.9475555419921875,-0.366058349609375,0.0667724609375
1789058990468694500,9.332694580078124,-1.0735931396484375,-0.304168701171875,0.1031951904296875
1789058990478706400,9.34270654296875,-1.03118896484375,-0.4759979248046875,0.0699615478515625
1789058990488716300,9.35271630859375,-1.0894775390625,-0.4911041259765625,0.066253662109375
1789058990498727400,9.3627275390625,-1.0986328125,-0.1927032470703125,-0.055511474609375
1789058990508737300,9.3727373046875,-0.790252685546875,-0.4551239013671875,-0.0695343017578125
1789058990518747400,9.382747314453125,-0.658355712890625,-0.41351318359375,-0.0820770263671875
1789058990528758500,9.392758544921875,-0.9564971923828125,-0.2803192138671875,-0.0465087890625
1789058990538768600,9.4027685546875,-1.2110443115234375,-0.262054443359375,-0.0157623291015625
1789058990548778500,9.412778564453125,-1.092437744140625,-0.4118804931640625,-0.0648956298828125
1789058990558789400,9.422789306640626,-0.9876251220703125,-0.524505615234375,-0.117279052734375
1789058990568799500,9.432799560546876,-0.982269287109375,-0.36865234375,-0.30145263671875
1789058990578809600,9.4428095703125,-0.8109130859375,-0.3257904052734375,-0.276336669921875
1789058990588820500,9.452820556640624,-0.636962890625,-0.402496337890625,-0.188018798828125
1789058990598830300,9.462830322265624,-0.58404541015625,-0.4642181396484375,-0.08880615234375
1789058990608840400,9.47284033203125,-0.9342498779296875,-0.224090576171875,0.0114898681640625
1789058990618851300,9.482851318359375,-1.1797027587890625,-0.15911865234375,-0.0014801025390625
1789058990628861400,9.492861328125,-1.285888671875,-0.2304534912109375,-0.07073974609375
1789058990638871600,9.50287158203125,-1.1811676025390625,-0.4388885498046875,-0.1601409912109375
1789058990648882400,9.51288232421875,-1.0051116943359375,-0.36199951171875,-0.186859130859375
1789058990658892300,9.522892333984375,-0.7409820556640625,-0.3746795654296875,-0.1702423095703125
1789058990668902400,9.53290234375,-0.7890472412109375,-0.3083648681640625,-0.0368804931640625
1789058990678913300,9.542913330078125,-0.7485198974609375,-0.5269775390625,0.042877197265625
1789058990688923400,9.55292333984375,-0.82867431640625,-0.3495330810546875,0.0165557861328125
1789058990698933200,9.562933349609375,-0.8950042724609375,-0.3954925537109375,0.0052032470703125
1789058990708944400,9.5729443359375,-0.943634033203125,-0.404144287109375,0.000152587890625
1789058990718954200,9.582954345703126,-0.96832275390625,-0.4135284423828125,0.0811767578125
1789058990728964400,9.59296435546875,-0.9213104248046875,-0.3802642822265625,0.159393310546875
1789058990738975500,9.6029755859375,-0.959075927734375,-0.4063873291015625,0.1842803955078125
1789058990748985600,9.612985595703124,-0.9495391845703125,-0.2960052490234375,0.2745361328125
1789058990758996500,9.62299658203125,-1.0992889404296875,-0.170654296875,0.2646331787109375
1789058990769006600,9.633006591796875,-1.150604248046875,-0.2041168212890625,0.1978759765625
1789058990779016400,9.643016357421875,-1.017059326171875,-0.40570068359375,0.211090087890625
1789058990789027300,9.65302734375,-0.8896942138671875,-0.3620147705078125,0.1563262939453125
1789058990799037400,9.663037353515625,-0.820648193359375,-0.4425048828125,0.0643157958984375
1789058990809047600,9.673047607421875,-0.967315673828125,-0.2479095458984375,0.0402374267578125
1789058990819058400,9.683058349609375,-0.899505615234375,-0.366668701171875,0.032562255859375
1789058990829067500,9.693067626953125,-0.7520904541015625,-0.349578857421875,0.1078033447265625
1789058990839077400,9.703077392578125,-0.8900299072265625,-0.25335693359375,0.1041412353515625
1789058990849088500,9.713088623046875,-1.1523590087890625,-0.1783905029296875,0.0679931640625
1789058990859098400,9.723098388671875,-0.9768218994140625,-0.369140625,-0.0285186767578125
1789058990869108500,9.7331083984375,-0.8556671142578125,-0.4143218994140625,0.0154266357421875
1789058990879119400,9.743119384765626,-0.874298095703125,-0.3479461669921875,-0.026031494140625
1789058990889129500,9.75312939453125,-0.8881072998046875,-0.3061370849609375,-0.005401611328125
1789058990899139300,9.763139404296876,-0.9051666259765625,-0.3273773193359375,0.02984619140625
1789058990909150700,9.773150634765624,-0.984954833984375,-0.4104156494140625,0.0807647705078125
1789058990919160600,9.78316064453125,-0.9542694091796875,-0.442626953125,0.0371856689453125
1789058990929170700,9.793170654296874,-1.11077880859375,-0.256317138671875,-0.029327392578125
1789058990939181600,9.803181640625,-1.057281494140625,-0.3176422119140625,-0.0360107421875
1789058990949191700,9.813191650390625,-0.8170318603515625,-0.5240478515625,0.024749755859375
1789058990959201500,9.823201416015625,-0.907928466796875,-0.35687255859375,0.0363006591796875
1789058990969212400,9.83321240234375,-0.9932403564453125,-0.3129425048828125,0.08819580078125
1789058990979222500,9.843222412109375,-1.0664825439453125,-0.3310394287109375,0.0687255859375
1789058990989232600,9.853232666015625,-1.02130126953125,-0.511566162109375,-0.08367919921875
1789058990999243500,9.863243408203125,-1.0641021728515625,-0.342315673828125,-0.101715087890625
1789058991009253400,9.87325341796875,-0.9686737060546875,-0.5108795166015625,-0.053375244140625
1789058991019263500,9.883263427734375,-0.8953857421875,-0.5003662109375,-0.04400634765625
1789058991029274400,9.8932744140625,-0.6693267822265625,-0.4610137939453125,0.04193115234375
1789058991039284500,9.903284423828126,-0.8095550537109375,-0.293304443359375,-0.0128936767578125
1789058991049294600,9.913294677734376,-1.0367431640625,-0.23388671875,-0.2186279296875
1789058991059305500,9.923305419921874,-1.0014495849609375,-0.35498046875,-0.3087615966796875
1789058991069315300,9.9333154296875,-1.00244140625,-0.305877685546875,-0.3846893310546875
1789058991079325400,9.943325439453124,-0.902099609375,-0.4992218017578125,-0.27691650390625
1789058991089336300,9.95333642578125,-0.8521575927734375,-0.429046630859375,-0.2445831298828125
1789058991099346400,9.963346435546875,-0.9461517333984375,-0.4380645751953125,-0.201202392578125
1789058991109356300,9.973356201171875,-1.0270538330078125,-0.2887420654296875,-0.1249847412109375
1789058991119367700,9.98336767578125,-0.882598876953125,-0.378814697265625,-0.18035888671875
1789058991129377500,9.99337744140625,-0.9009552001953125,-0.4191741943359375,-0.1801300048828125
1789058991139387600,10.0033876953125,-0.8588409423828125,-0.3877410888671875,-0.17138671875
1789058991149398500,10.0133984375,-0.728607177734375,-0.5139007568359375,-0.1909332275390625
1789058991159408600,10.02340869140625,-0.76214599609375,-0.485870361328125,-0.137420654296875
1789058991169418500,10.03341845703125,-0.96435546875,-0.142578125,-0.111907958984375
1789058991179429600,10.0434296875,-0.8486785888671875,-0.4086456298828125,-0.07720947265625
1789058991189439500,10.053439453125,-0.9258575439453125,-0.453582763671875,0.0077972412109375
1789058991199449600,10.06344970703125,-1.012054443359375,-0.34820556640625,-0.05242919921875
1789058991209460500,10.07346044921875,-1.1844482421875,-0.145538330078125,-0.0836334228515625
1789058991219470600,10.083470703125,-0.905487060546875,-0.3997039794921875,-0.0046234130859375
1789058991229481500,10.0934814453125,-0.7643585205078125,-0.4713897705078125,-0.0142822265625
1789058991239491600,10.10349169921875,-0.7504730224609375,-0.4788970947265625,0.0462646484375
1789058991249501400,10.11350146484375,-0.868896484375,-0.4289703369140625,0.060516357421875
1789058991259512300,10.12351220703125,-0.922332763671875,-0.252716064453125,-0.033843994140625
1789058991269522400,10.1335224609375,-0.874237060546875,-0.35614013671875,-0.0420684814453125
1789058991279532500,10.143532470703125,-1.142608642578125,-0.2635650634765625,-0.0941925048828125
1789058991289543400,10.15354345703125,-1.2340545654296875,-0.3000640869140625,-0.0486907958984375
1789058991299553300,10.16355322265625,-0.977081298828125,-0.4103240966796875,0.0829925537109375
1789058991309563400,10.1735634765625,-0.73516845703125,-0.4425201416015625,0.057220458984375
1789058991319574500,10.183574462890626,-0.711273193359375,-0.4095306396484375,0.116180419921875
1789058991329584600,10.193584716796876,-0.9138641357421875,-0.220245361328125,0.1262054443359375
1789058991339594500,10.203594482421876,-0.980804443359375,-0.3029632568359375,0.044281005859375
1789058991349605600,10.213605712890624,-0.8393707275390625,-0.5976104736328125,0.0784759521484375
1789058991359615500,10.223615478515624,-0.90411376953125,-0.3874969482421875,0.02166748046875
1789058991369625600,10.23362548828125,-0.983856201171875,-0.4327392578125,0.069000244140625
1789058991379636500,10.243636474609374,-1.148284912109375,-0.128082275390625,0.14727783203125
1789058991389646600,10.253646484375,-0.8321380615234375,-0.6810302734375,0.117340087890625
1789058991399656400,10.263656494140625,-0.9706268310546875,-0.4420318603515625,0.1440277099609375
1789058991409667600,10.27366748046875,-1.089752197265625,-0.1985015869140625,0.1178436279296875
1789058991419677400,10.283677490234375,-1.0374908447265625,-0.2628173828125,0.0878753662109375
1789058991429687600,10.2936875,-0.8157196044921875,-0.6378936767578125,0.0537567138671875
1789058991439698400,10.303698486328125,-0.7594757080078125,-0.56085205078125,0.0051727294921875
1789058991449708500,10.31370849609375,-0.7227630615234375,-0.395233154296875,-0.039825439453125
1789058991459718400,10.323718505859375,-0.8740386962890625,-0.3292694091796875,-0.00213623046875
1789058991469729500,10.3337294921875,-0.9232330322265625,-0.5337066650390625,-0.003509521484375
1789058991479739400,10.343739501953126,-1.20440673828125,-0.369232177734375,-0.076080322265625
1789058991489749500,10.35374951171875,-1.20361328125,-0.40985107421875,-0.2014007568359375
1789058991499760400,10.363760498046876,-0.7893524169921875,-0.551910400390625,-0.0357208251953125
1789058991509770500,10.3737705078125,-0.612884521484375,-0.3852996826171875,0.12872314453125
1789058991519780400,10.3837802734375,-0.7868804931640625,-0.22503662109375,0.1023712158203125
1789058991529791500,10.39379150390625,-0.5652313232421875,-0.58343505859375,-0.0518646240234375
1789058991539801600,10.403801513671874,-0.6288604736328125,-0.78814697265625,-0.3222503662109375
1789058991549811700,10.413811767578125,-1.0065155029296875,-0.5060882568359375,-0.348541259765625
1789058991559822600,10.423822509765625,-1.06439208984375,-0.4461669921875,-0.35528564453125
1789058991569832400,10.43383251953125,-1.090179443359375,-0.6117706298828125,-0.247283935546875
1789058991579842600,10.443842529296875,-1.301971435546875,-0.3972320556640625,-0.2133941650390625
1789058991589853400,10.453853515625,-1.02752685546875,-0.391815185546875,-0.0265350341796875
1789058991599863600,10.463863525390625,-0.62548828125,-0.524139404296875,-0.130706787109375
1789058991609873400,10.473873291015625,-0.62994384765625,-0.4418182373046875,-0.0820770263671875
1789058991619884500,10.483884521484375,-0.7056884765625,-0.3655548095703125,-0.124847412109375
1789058991629894400,10.493894287109375,-0.838165283203125,-0.35467529296875,-0.29266357421875
1789058991639904500,10.503904541015626,-0.9706268310546875,-0.44610595703125,-0.16851806640625
1789058991649915400,10.513915283203126,-1.008697509765625,-0.5865631103515625,-0.0689239501953125
1789058991659925500,10.523925537109376,-1.0567779541015625,-0.4754791259765625,-0.087371826171875
1789058991669935400,10.533935302734376,-0.8548736572265625,-0.463653564453125,-0.024078369140625
1789058991679946500,10.543946533203124,-0.8101806640625,-0.430511474609375,0.0418701171875
1789058991689956400,10.553956298828124,-0.84002685546875,-0.3303375244140625,0.018341064453125
1789058991699967700,10.5639677734375,-0.824432373046875,-0.46783447265625,-0.01202392578125
1789058991709977300,10.573977294921875,-1.0143585205078125,-0.3574981689453125,-0.0525665283203125
1789058991719987500,10.583987548828125,-0.997955322265625,-0.4431915283203125,-0.1745147705078125
1789058991729998600,10.59399853515625,-1.06219482421875,-0.4430999755859375,-0.084442138671875
1789058991740008700,10.6040087890625,-0.8985443115234375,-0.5896759033203125,0.0477142333984375
1789058991750019300,10.614019287109375,-1.0489654541015625,-0.3033599853515625,0.0422515869140625
1789058991760030200,10.6240302734375,-0.992645263671875,-0.3094635009765625,-0.0151519775390625
1789058991770040300,10.634040283203126,-0.8284912109375,-0.469573974609375,-0.0634765625
1789058991780050200,10.64405029296875,-0.6386566162109375,-0.590667724609375,0.0138702392578125
1789058991790061300,10.654061279296876,-0.7471923828125,-0.398468017578125,0.0731201171875
1789058991800071200,10.6640712890625,-0.9183807373046875,-0.4047698974609375,0.05712890625
1789058991810081300,10.674081298828124,-0.86126708984375,-0.61322021484375,0.04742431640625
1789058991820092200,10.684092041015624,-0.933563232421875,-0.5587615966796875,0.090301513671875
1789058991830102300,10.694102294921874,-0.9740142822265625,-0.2904205322265625,0.0149688720703125
1789058991840112000,10.704112060546874,-0.902374267578125,-0.3928070068359375,0.1192779541015625
1789058991850123300,10.714123291015625,-0.7110443115234375,-0.4725799560546875,0.232666015625
1789058991860133000,10.724133056640625,-0.817901611328125,-0.3094635009765625,0.1886444091796875
1789058991870143200,10.734143310546875,-1.062469482421875,-0.2146759033203125,0.057647705078125
1789058991880154400,10.744154296875,-1.102325439453125,-0.3600616455078125,0.1082763671875
1789058991890164500,10.75416455078125,-1.0979766845703125,-0.3511962890625,0.18792724609375
1789058991900174000,10.764174072265625,-1.0861358642578125,-0.384063720703125,0.087799072265625
1789058991910185200,10.774185302734375,-0.873687744140625,-0.490753173828125,0.0658416748046875
1789058991920195300,10.7841953125,-0.6031036376953125,-0.5321197509765625,0.054473876953125
1789058991930205400,10.794205322265626,-0.699462890625,-0.4527740478515625,0.0693359375
1789058991940216300,10.80421630859375,-0.8888397216796875,-0.343170166015625,0.10113525390625
1789058991950226400,10.814226318359376,-1.069732666015625,-0.311248779296875,-0.013275146484375
1789058991960236300,10.824236328125,-0.9839630126953125,-0.3222503662109375,-0.0443115234375
1789058991970247200,10.8342470703125,-0.8224334716796875,-0.526397705078125,-0.080322265625
1789058991980257300,10.84425732421875,-0.750946044921875,-0.5408782958984375,-0.0043182373046875
1789058991990267400,10.854267333984374,-0.8673248291015625,-0.4309844970703125,-0.05029296875
1789058992000278300,10.8642783203125,-1.001617431640625,-0.345550537109375,-0.079132080078125
1789058992010288000,10.8742880859375,-1.083160400390625,-0.3444366455078125,-0.127410888671875
1789058992020298200,10.88429833984375,-1.0769805908203125,-0.488128662109375,-0.1393890380859375
1789058992030309000,10.89430908203125,-1.0953521728515625,-0.3143768310546875,-0.081024169921875
1789058992040319200,10.9043193359375,-0.9075927734375,-0.50396728515625,-0.1014556884765625
1789058992050329000,10.9143291015625,-0.703277587890625,-0.5203399658203125,-0.0629119873046875
1789058992060340200,10.92434033203125,-0.656585693359375,-0.5347442626953125,-0.09027099609375
1789058992070350000,10.93435009765625,-0.639129638671875,-0.639739990234375,-0.1011505126953125
1789058992080360200,10.944360107421875,-0.7713775634765625,-0.44879150390625,-0.037322998046875
1789058992090371300,10.954371337890626,-1.0223388671875,-0.324615478515625,-0.0904693603515625
1789058992100381400,10.96438134765625,-1.13671875,-0.34796142578125,-0.1378021240234375
1789058992110391000,10.97439111328125,-1.08673095703125,-0.3079986572265625,-0.15301513671875
1789058992120402400,10.98440234375,-0.8613128662109375,-0.4713287353515625,0.0120391845703125
1789058992130412300,10.994412353515624,-0.902374267578125,-0.400604248046875,0.0533447265625
1789058992140422400,11.00442236328125,-0.8875579833984375,-0.33673095703125,-0.0182037353515625
1789058992150433300,11.014433349609375,-0.78314208984375,-0.467803955078125,0.011016845703125
1789058992160443400,11.024443359375,-0.88507080078125,-0.4737548828125,-0.004486083984375
1789058992170453200,11.034453369140625,-0.927337646484375,-0.3382720947265625,-0.0560150146484375
1789058992180464400,11.04446435546875,-0.88800048828125,-0.470367431640625,-0.113800048828125
1789058992190474200,11.05447412109375,-0.890228271484375,-0.33721923828125,-0.099609375
1789058992200484400,11.064484375,-1.0117034912109375,-0.4776763916015625,-0.0313720703125
1789058992210495200,11.0744951171875,-1.1840057373046875,-0.4022064208984375,-0.0171966552734375
1789058992220505300,11.08450537109375,-1.149078369140625,-0.30780029296875,-0.0363311767578125
1789058992230516200,11.09451611328125,-0.850433349609375,-0.5539093017578125,0.0150299072265625
1789058992240526000,11.104526123046876,-0.8488922119140625,-0.357330322265625,-0.0025177001953125
1789058992250536200,11.1145361328125,-0.5370635986328125,-0.621551513671875,0.1025543212890625
1789058992260547000,11.124547119140624,-1.019622802734375,-0.1798248291015625,0.056121826171875
1789058992270557200,11.13455712890625,-1.1923065185546875,-0.267822265625,0.162506103515625
1789058992280567300,11.1445673828125,-0.9918365478515625,-0.517913818359375,0.1283111572265625
1789058992290578400,11.154578369140625,-1.0092010498046875,-0.5205230712890625,0.1209564208984375
1789058992300588300,11.16458837890625,-0.9759674072265625,-0.341888427734375,0.0550384521484375
1789058992310598400,11.174598388671875,-0.7019195556640625,-0.4145660400390625,0.022216796875
1789058992320609300,11.184609375,-0.7222747802734375,-0.5050506591796875,0.06640625
1789058992330619400,11.194619384765625,-0.8954315185546875,-0.35687255859375,0.072265625
1789058992340629200,11.204629150390625,-0.908050537109375,-0.3644561767578125,0.1432037353515625
1789058992350640400,11.214640380859375,-0.80340576171875,-0.51171875,0.194305419921875
1789058992360650200,11.224650146484375,-0.7206573486328125,-0.5166778564453125,0.1163787841796875
1789058992370660400,11.234660400390625,-0.89215087890625,-0.371307373046875,-0.0083770751953125
1789058992380671200,11.244671142578126,-1.0664825439453125,-0.40582275390625,0.0223541259765625
1789058992390681300,11.254681396484376,-1.2572174072265625,-0.34173583984375,0.1049041748046875
1789058992400691200,11.264691162109376,-1.1092987060546875,-0.48406982421875,0.1170806884765625
1789058992410702300,11.274702392578124,-0.808074951171875,-0.5416107177734375,0.1823883056640625
1789058992420712200,11.284712158203124,-0.9040374755859375,-0.4347381591796875,0.0335235595703125
1789058992430722300,11.294722412109374,-0.9406585693359375,-0.3931427001953125,0.0302276611328125
1789058992440733200,11.304733154296875,-0.984771728515625,-0.3214569091796875,0.223175048828125
1789058992450743300,11.314743408203125,-0.806549072265625,-0.5060577392578125,0.230804443359375
1789058992460753200,11.324753173828125,-0.54278564453125,-0.628936767578125,0.2425537109375
1789058992470764300,11.334764404296875,-0.8502197265625,-0.2898406982421875,0.0735015869140625
1789058992480774100,11.344774169921875,-0.7845916748046875,-0.5885162353515625,0.0533447265625
1789058992490784300,11.3547841796875,-0.935333251953125,-0.353179931640625,0.037750244140625
1789058992500795400,11.36479541015625,-1.0381622314453125,-0.34942626953125,0.158477783203125
1789058992510805200,11.37480517578125,-0.918975830078125,-0.602264404296875,0.198638916015625
1789058992520815400,11.3848154296875,-1.1700897216796875,-0.276885986328125,0.1708831787109375
1789058992530826200,11.394826171875,-0.890899658203125,-0.585296630859375,0.07421875
1789058992540836400,11.40483642578125,-0.7916412353515625,-0.4907684326171875,-0.05865478515625
1789058992550846500,11.414846435546876,-0.798492431640625,-0.3236846923828125,-0.055450439453125
1789058992560857300,11.424857421875,-0.5771484375,-0.4840850830078125,0.0087890625
1789058992570867200,11.4348671875,-0.7035675048828125,-0.42315673828125,0.1439666748046875
1789058992580877300,11.444877197265624,-1.034515380859375,-0.292999267578125,0.0297393798828125
1789058992590888200,11.45488818359375,-1.1274261474609375,-0.3143310546875,-0.0149993896484375
1789058992600898300,11.464898193359375,-0.970001220703125,-0.5551910400390625,0.08990478515625
1789058992610908200,11.474908203125,-0.8265228271484375,-0.5508880615234375,0.0991363525390625
1789058992620919300,11.484919189453125,-0.7139129638671875,-0.6056365966796875,0.035675048828125
1789058992630929200,11.49492919921875,-0.920745849609375,-0.30657958984375,-0.110107421875
1789058992640939300,11.504939208984375,-0.9059295654296875,-0.4593658447265625,-0.067901611328125
1789058992650950100,11.5149501953125,-1.265380859375,-0.30426025390625,-0.067230224609375
1789058992660960300,11.524960205078125,-1.346771240234375,-0.2191162109375,0.0175628662109375
1789058992670970000,11.53497021484375,-0.9514312744140625,-0.39447021484375,0.098663330078125
1789058992680981200,11.544981201171876,-0.72320556640625,-0.521514892578125,0.170684814453125
1789058992690991000,11.5549912109375,-0.7523193359375,-0.2455596923828125,0.0486907958984375
1789058992701001200,11.565001220703126,-0.832000732421875,-0.4330291748046875,-0.0418548583984375
1789058992711012400,11.575012451171874,-0.8837890625,-0.5682220458984375,0.0193634033203125
1789058992721022500,11.5850224609375,-0.92657470703125,-0.46087646484375,-0.00616455078125
1789058992731032300,11.5950322265625,-0.8798675537109375,-0.56134033203125,0.08892822265625
1789058992741043500,11.60504345703125,-0.8932647705078125,-0.48779296875,0.1102142333984375
1789058992751052500,11.615052490234374,-1.0374908447265625,-0.3284912109375,0.096282958984375
1789058992761062700,11.625062744140624,-1.0581512451171875,-0.296234130859375,0.0612335205078125
1789058992771073500,11.635073486328125,-0.927978515625,-0.49407958984375,0.018768310546875
1789058992781083600,11.645083740234375,-0.8791046142578125,-0.318084716796875,0.0216522216796875
1789058992791094500,11.655094482421875,-0.747833251953125,-0.3917388916015625,-0.1252593994140625
1789058992801104600,11.665104736328125,-0.8353729248046875,-0.5015411376953125,-0.1624298095703125
1789058992811114500,11.675114501953125,-0.96795654296875,-0.3849639892578125,-0.0362701416015625
1789058992821125600,11.685125732421875,-0.817352294921875,-0.6456451416015625,0.08319091796875
1789058992831135500,11.695135498046875,-0.9111480712890625,-0.3852386474609375,-0.000030517578125
1789058992841145600,11.7051455078125,-1.0338592529296875,-0.3675537109375,-0.1948699951171875
1789058992851156500,11.715156494140626,-1.072998046875,-0.4579315185546875,-0.2062530517578125
1789058992861166600,11.72516650390625,-1.05474853515625,-0.320343017578125,-0.123077392578125
1789058992871176400,11.735176513671876,-0.78033447265625,-0.5017547607421875,0.0350799560546875
1789058992881187300,11.745187255859374,-0.732635498046875,-0.2795257568359375,0.15667724609375
1789058992891197400,11.755197509765624,-0.84661865234375,-0.2314300537109375,0.1533355712890625
1789058992901207600,11.76520751953125,-0.9129180908203125,-0.4803009033203125,0.16363525390625
1789058992911218700,11.77521875,-0.9544830322265625,-0.339141845703125,0.202911376953125
1789058992921228500,11.785228515625,-0.9481048583984375,-0.422210693359375,0.0631866455078125
1789058992931238700,11.79523876953125,-0.902374267578125,-0.455078125,0.13525390625
1789058992941249500,11.80524951171875,-0.983795166015625,-0.344879150390625,0.1342926025390625
1789058992951259600,11.815259765625,-0.9088134765625,-0.3276214599609375,0.172393798828125
1789058992961269500,11.82526953125,-1.0057830810546875,-0.3692169189453125,0.1742706298828125
1789058992971280600,11.83528076171875,-0.8750152587890625,-0.5785064697265625,0.1215667724609375
1789058992981290500,11.84529052734375,-1.0268096923828125,-0.0928497314453125,0.0291595458984375
1789058992991300600,11.855300537109375,-0.9575042724609375,-0.2511444091796875,0.016998291015625
1789058993001311500,11.8653115234375,-0.9959716796875,-0.4363861083984375,0.038543701171875
1789058993011321600,11.875321533203126,-0.7408294677734375,-0.654693603515625,0.0646820068359375
1789058993021331500,11.88533154296875,-0.6745452880859375,-0.4893341064453125,0.0053863525390625
1789058993031342600,11.895342529296874,-0.87835693359375,-0.1058502197265625,-0.0990142822265625
1789058993041352400,11.9053525390625,-0.89727783203125,-0.2622833251953125,-0.1384735107421875
1789058993051362600,11.915362548828124,-1.209075927734375,-0.1219024658203125,-0.150115966796875
1789058993061373400,11.92537353515625,-0.975372314453125,-0.63623046875,-0.0628509521484375
1789058993071383600,11.935383544921875,-1.0109405517578125,-0.5981292724609375,-0.083770751953125
1789058993081393400,11.945393310546875,-1.0696868896484375,-0.3077392578125,-0.1854095458984375
1789058993091404500,11.955404541015625,-0.907501220703125,-0.35321044921875,-0.0468902587890625
1789058993101414400,11.965414306640625,-0.919036865234375,-0.2060394287109375,0.033111572265625
1789058993111424500,11.975424560546875,-0.7740631103515625,-0.409881591796875,0.0648956298828125
1789058993121435600,11.985435546875,-0.6813201904296875,-0.588531494140625,0.0733795166015625
1789058993131445800,11.99544580078125,-0.8798370361328125,-0.22882080078125,-0.055084228515625
1789058993141455600,12.00545556640625,-0.7238006591796875,-0.548309326171875,-0.035797119140625
1789058993151466500,12.015466552734376,-1.0272216796875,-0.3209991455078125,0.0453948974609375
1789058993161476600,12.0254765625,-1.1250152587890625,-0.26287841796875,0.1449127197265625
1789058993171486700,12.03548681640625,-1.007354736328125,-0.5129547119140625,0.1833343505859375
1789058993181497600,12.04549755859375,-0.896270751953125,-0.437713623046875,0.15521240234375
1789058993191507500,12.055507568359374,-0.8395843505859375,-0.4166412353515625,0.1021270751953125
1789058993201517600,12.065517578125,-0.956329345703125,-0.3525390625,0.14691162109375
1789058993211528400,12.075528564453125,-0.940460205078125,-0.3882598876953125,0.2155609130859375
1789058993221538600,12.08553857421875,-1.10516357421875,-0.397491455078125,0.0918731689453125
1789058993231548700,12.095548583984375,-1.08001708984375,-0.391571044921875,0.1157684326171875
1789058993241559600,12.1055595703125,-1.0393829345703125,-0.2743377685546875,0.055694580078125
1789058993251569400,12.1155693359375,-0.663726806640625,-0.480010986328125,0.02203369140625
1789058993261579500,12.12557958984375,-0.606414794921875,-0.4727783203125,0.12158203125
1789058993271590400,12.13559033203125,-0.6938934326171875,-0.4015045166015625,0.0540771484375
1789058993281600500,12.1456005859375,-0.912322998046875,-0.37872314453125,-0.1085052490234375
1789058993291610400,12.1556103515625,-1.1397857666015625,-0.316619873046875,-0.092864990234375
1789058993301621500,12.16562158203125,-1.170562744140625,-0.274200439453125,0.017120361328125
1789058993311631400,12.17563134765625,-1.1161346435546875,-0.3131866455078125,-0.0156097412109375
1789058993321641500,12.185641357421876,-0.972564697265625,-0.469329833984375,-0.0989227294921875
1789058993331652600,12.195652587890624,-0.8944854736328125,-0.19232177734375,-0.0752105712890625
1789058993341662700,12.205662841796874,-0.7354736328125,-0.5257110595703125,-0.0506744384765625
1789058993351672600,12.215672607421874,-1.0134124755859375,-0.15216064453125,-0.007415771484375
1789058993361683700,12.22568359375,-1.0585479736328125,-0.32666015625,-0.13153076171875
1789058993371693600,12.235693603515625,-0.9772796630859375,-0.561553955078125,-0.039794921875
1789058993381704400,12.245704345703125,-0.9821624755859375,-0.316741943359375,0.09881591796875
1789058993391714600,12.255714599609375,-0.617919921875,-0.529449462890625,0.1197357177734375
1789058993401724700,12.265724609375,-0.7055816650390625,-0.454071044921875,-0.0045623779296875
1789058993411735600,12.275735595703125,-1.025634765625,-0.059478759765625,0.0319061279296875
1789058993421745700,12.28574560546875,-0.929931640625,-0.3933563232421875,0.04400634765625
1789058993431755500,12.295755615234375,-0.916748046875,-0.70989990234375,-0.0134429931640625
1789058993441766400,12.305766357421875,-1.04656982421875,-0.447967529296875,0.0764007568359375
1789058993451776500,12.315776611328126,-1.0077056884765625,-0.499420166015625,0.105499267578125
1789058993461786600,12.32578662109375,-0.866668701171875,-0.3608856201171875,0.032745361328125
1789058993471797500,12.335797607421876,-0.933990478515625,-0.1477508544921875,0.021697998046875
1789058993481807400,12.345807373046876,-0.7693634033203125,-0.4450225830078125,-0.1293792724609375
1789058993491817500,12.3558173828125,-0.945770263671875,-0.265167236328125,-0.157867431640625
1789058993501828400,12.365828369140624,-0.79681396484375,-0.5467987060546875,0.04205322265625
1789058993511838500,12.37583837890625,-1.0196990966796875,-0.385162353515625,0.03411865234375
1789058993521848300,12.385848388671874,-1.2634124755859375,-0.173065185546875,-0.1035003662109375
1789058993531859700,12.395859619140625,-1.106414794921875,-0.491973876953125,-0.08270263671875
1789058993541869600,12.40586962890625,-0.947784423828125,-0.3535003662109375,-0.076751708984375
1789058993551879700,12.415879638671875,-0.642486572265625,-0.4758758544921875,-0.0991058349609375
1789058993561890600,12.425890625,-0.6283111572265625,-0.369720458984375,-0.076904296875
1789058993571900700,12.435900634765625,-0.5648193359375,-0.446807861328125,-0.1402587890625
1789058993581910500,12.44591064453125,-0.9739227294921875,-0.189422607421875,-0.144378662109375
1789058993591921700,12.455921630859375,-1.1071624755859375,-0.222015380859375,-0.098602294921875
1789058993601931500,12.465931640625,-1.07415771484375,-0.486358642578125,-0.05712890625
1789058993611941600,12.475941650390626,-0.9945068359375,-0.5426483154296875,-0.1062774658203125
1789058993621952500,12.485952392578126,-0.8143157958984375,-0.47119140625,-0.162750244140625
1789058993631962600,12.495962646484376,-1.0198211669921875,-0.2160186767578125,-0.1764984130859375
1789058993641972500,12.505972412109376,-1.113494873046875,-0.160980224609375,-0.07757568359375
1789058993651983600,12.515983642578124,-1.123138427734375,-0.106292724609375,-0.0331268310546875
1789058993661993500,12.525993408203124,-1.1735382080078125,-0.097625732421875,0.08123779296875
1789058993672003600,12.536003662109374,-0.7525787353515625,-0.65545654296875,0.165863037109375
1789058993682014500,12.546014404296875,-0.904541015625,-0.5499420166015625,-0.0271148681640625
1789058993692024600,12.556024658203125,-0.9190673828125,-0.3910064697265625,-0.082244873046875
1789058993702034400,12.566034423828125,-0.582427978515625,-0.4276275634765625,0.0564422607421875
1789058993712045300,12.57604541015625,-0.795928955078125,-0.0664520263671875,0.0703887939453125
1789058993722055400,12.586055419921875,-0.9892120361328125,-0.1277008056640625,0.0725860595703125
1789058993732065500,12.5960654296875,-0.9829559326171875,-0.485198974609375,0.0091094970703125
1789058993742076700,12.60607666015625,-1.2616119384765625,-0.34503173828125,-0.0227203369140625
1789058993752087000,12.616087158203126,-1.267333984375,-0.3253936767578125,-0.057403564453125
1789058993762097200,12.62609716796875,-1.0457305908203125,-0.479217529296875,0.0204620361328125
1789058993772108000,12.63610791015625,-0.830474853515625,-0.3844146728515625,0.04058837890625
1789058993782118100,12.6461181640625,-0.69842529296875,-0.2059173583984375,-0.0185394287109375
1789058993792128000,12.6561279296875,-0.719635009765625,-0.355072021484375,-0.0446319580078125
1789058993802139400,12.666139404296874,-0.85955810546875,-0.3701629638671875,0.067718505859375
1789058993812149200,12.676149169921874,-1.093292236328125,-0.312469482421875,0.0281829833984375
1789058993822159400,12.686159423828125,-1.098724365234375,-0.2467041015625,0.014617919921875
1789058993832170200,12.696170166015625,-0.9015655517578125,-0.32391357421875,-0.01361083984375
1789058993842180400,12.706180419921875,-0.871826171875,-0.39794921875,-0.07818603515625
1789058993852190200,12.716190185546875,-0.8414306640625,-0.59747314453125,-0.069000244140625
1789058993862201000,12.726201171875,-0.871673583984375,-0.5922393798828125,-0.0455780029296875
1789058993872211200,12.736211181640625,-0.8339385986328125,-0.4563446044921875,-0.024566650390625
1789058993882221300,12.74622119140625,-1.1190643310546875,-0.2034454345703125,-0.0224151611328125
1789058993892232200,12.756232177734375,-1.0914154052734375,-0.104705810546875,-0.0285186767578125
1789058993902242300,12.7662421875,-0.913787841796875,-0.5248260498046875,-0.111236572265625
1789058993912252200,12.776252197265626,-0.8354949951171875,-0.537109375,-0.0517120361328125
1789058993922263000,12.786262939453126,-0.6484832763671875,-0.5906982421875,-0.029296875
1789058993932273200,12.796273193359376,-0.6936492919921875,-0.490875244140625,0.0426177978515625
1789058993942283300,12.806283203125,-0.906341552734375,-0.200927734375,0.1043243408203125
1789058993952294100,12.816294189453124,-1.00469970703125,-0.331756591796875,-0.01788330078125
1789058993962304000,12.826303955078124,-1.176513671875,-0.28363037109375,-0.0367889404296875
