time,seconds_elapsed,z,y,x
1789058981171594200,0.03559423828125,-0.19932882487773895,-0.00424214918166399,0.0018631474813446403
1789058981181605400,0.04560546875,-0.21547263860702515,-0.014169348403811455,0.0007193197961896658
1789058981191615200,0.055615234375,-0.2305450588464737,-0.02455860562622547,-0.0011379687348380685
1789058981201625300,0.065625244140625,-0.2432134449481964,-0.03133555129170418,-0.004163586068898439
1789058981211636200,0.07563623046875,-0.25402429699897766,-0.041426002979278564,-0.003603257006034255
1789058981221646300,0.085646240234375,-0.2635839581489563,-0.04898485168814659,-0.007232080213725567
1789058981231656200,0.09565625,-0.26787644624710083,-0.058212172240018845,-0.008977515622973442
1789058981241667300,0.105667236328125,-0.2725819945335388,-0.06362424790859222,-0.01011095754802227
1789058981251677200,0.11567724609375,-0.27358385920524597,-0.07038841396570206,-0.012006595730781555
1789058981261687300,0.125687255859375,-0.2751876413822174,-0.08093319833278656,-0.01810896210372448
1789058981271698200,0.1356982421875,-0.26886022090911865,-0.09106652438640594,-0.017605625092983246
1789058981281708300,0.145708251953125,-0.26360073685646057,-0.10198735445737839,-0.019837087020277977
1789058981291718100,0.15571826171875,-0.26342418789863586,-0.11073850095272064,-0.021581724286079407
1789058981301729300,0.165729248046875,-0.25520458817481995,-0.11889709532260895,-0.02394075319170952
1789058981311739100,0.1757392578125,-0.24224406480789185,-0.1286490559577942,-0.02515595406293869
1789058981321749200,0.185749267578125,-0.22933971881866455,-0.135911226272583,-0.025714950636029243
1789058981331760000,0.195760009765625,-0.2128046751022339,-0.14313958585262299,-0.026698455214500427
1789058981341770200,0.205770263671875,-0.18971507251262665,-0.15223027765750885,-0.028129372745752335
1789058981351780000,0.215780029296875,-0.1688670516014099,-0.16076384484767914,-0.030288929119706154
1789058981361791500,0.22579150390625,-0.14317873120307922,-0.16806970536708832,-0.03134913370013237
1789058981371801300,0.23580126953125,-0.11647015064954758,-0.17641444504261017,-0.03316833823919296
1789058981381811200,0.245811279296875,-0.08978687971830368,-0.18144595623016357,-0.03452575206756592
1789058981391822300,0.255822265625,-0.060511812567710876,-0.18738214671611786,-0.03454066812992096
1789058981401832400,0.26583251953125,-0.031076425686478615,-0.19144266843795776,-0.03415477275848389
1789058981411842300,0.27584228515625,-0.0032178976107388735,-0.1976398378610611,-0.036380112171173096
1789058981421853200,0.285853271484375,0.02496899850666523,-0.20268626511096954,-0.03578462824225426
1789058981431863300,0.29586328125,0.055575110018253326,-0.20637421309947968,-0.03562643751502037
1789058981441873400,0.305873291015625,0.05470985174179077,-0.20976068079471588,-0.04094130918383598
1789058981451884300,0.31588427734375,0.07872384041547775,-0.19905957579612732,-0.024273116141557693
1789058981461894400,0.325894287109375,0.006199839059263468,-0.18527159094810486,-0.04520849138498306
1789058981471904300,0.335904296875,0.08871176093816757,-0.18025659024715424,-0.021214473992586136
1789058981481915100,0.3459150390625,0.059854280203580856,-0.2372535616159439,-0.03139280900359154
1789058981491925200,0.35592529296875,0.11395026743412018,-0.1990254819393158,-0.03879186883568764
1789058981501935400,0.365935302734375,0.1240319311618805,-0.24952355027198792,-0.04277196526527405
1789058981511946200,0.3759462890625,0.0927019715309143,-0.20961341261863708,-0.04517120495438576
1789058981521956000,0.3859560546875,0.1358952522277832,-0.2139197438955307,-0.03863447904586792
1789058981531966200,0.39596630859375,0.13979332149028778,-0.22026047110557556,-0.03585467115044594
1789058981541977000,0.40597705078125,0.09540428221225739,-0.22338515520095825,-0.041253428906202316
1789058981551987200,0.4159873046875,0.15849004685878754,-0.23890605568885803,-0.04102226719260216
1789058981561997000,0.4259970703125,0.11671116948127747,-0.2358708530664444,-0.045395977795124054
1789058981572008400,0.436008544921875,0.14997164905071259,-0.2471376210451126,-0.050324421375989914
1789058981582018300,0.446018310546875,0.18074394762516022,-0.24929557740688324,-0.05837249755859375
1789058981592028200,0.456028076171875,0.13452079892158508,-0.2332170158624649,-0.036372654139995575
1789058981602039300,0.466039306640625,0.14492656290531158,-0.2366330474615097,-0.0533180832862854
1789058981612049400,0.47604931640625,0.1262492835521698,-0.22654153406620026,-0.03976791724562645
1789058981622059300,0.486059326171875,0.11142425984144211,-0.2283247858285904,-0.05420784279704094
1789058981632070400,0.4960703125,0.14603842794895172,-0.2114105075597763,-0.050823234021663666
1789058981642080300,0.506080322265625,0.15662503242492676,-0.18081025779247284,-0.038785744458436966
1789058981652090400,0.51609033203125,0.2195078581571579,-0.18901360034942627,-0.04735632985830307
1789058981662101200,0.526101318359375,0.3072350323200226,-0.1642797589302063,-0.031245537102222443
1789058981672111400,0.536111328125,0.3707256019115448,-0.19644062221050262,-0.047264982014894485
1789058981682121200,0.546121337890625,0.40835633873939514,-0.15934811532497406,-0.030653249472379684
1789058981692132400,0.55613232421875,0.47048041224479675,-0.1439742147922516,-0.02665424719452858
1789058981702142200,0.56614208984375,0.4721480906009674,-0.09741656482219696,-0.0044054011814296246
1789058981712152300,0.57615234375,0.48741334676742554,-0.11040320992469788,-0.017103619873523712
1789058981722163200,0.5861630859375,0.4760589599609375,-0.10846975445747375,-0.012824452482163906
1789058981732172800,0.5961728515625,0.4494020342826843,-0.10786867886781693,-0.01401888020336628
1789058981742182700,0.6061826171875,0.4138911962509155,-0.1097446084022522,-0.01841735653579235
1789058981752193800,0.61619384765625,0.36161333322525024,-0.11177446693181992,-0.01938275247812271
1789058981762203600,0.62620361328125,0.2931962013244629,-0.10592083632946014,-0.01822933740913868
1789058981772213800,0.6362138671875,0.22722569108009338,-0.10765482485294342,-0.020447485148906708
1789058981782224600,0.646224609375,0.15912547707557678,-0.10562656074762344,-0.019470904022455215
1789058981792234800,0.65623486328125,0.09307827800512314,-0.11004713922739029,-0.019240539520978928
1789058981802244600,0.66624462890625,0.04145289957523346,-0.1154421716928482,-0.01974520832300186
1789058981812255700,0.676255859375,-0.010422280989587307,-0.120163694024086,-0.020989704877138138
1789058981822265600,0.686265625,-0.04892865940928459,-0.12121830135583878,-0.02383529208600521
1789058981832275700,0.696275634765625,-0.07129602134227753,-0.11600968986749649,-0.024022778496146202
1789058981842286600,0.70628662109375,-0.07760770618915558,-0.12288091331720352,-0.026387132704257965
1789058981852296700,0.716296630859375,-0.06801047921180725,-0.12037914246320724,-0.024755148217082024
1789058981862306600,0.726306640625,-0.048227984458208084,-0.11780066788196564,-0.021283451467752457
1789058981872317700,0.736317626953125,-0.02075108513236046,-0.10867082327604294,-0.019665846601128578
1789058981882327600,0.74632763671875,0.022597987204790115,-0.09632014483213425,-0.016265789046883583
1789058981892337700,0.756337646484375,0.08169379830360413,-0.08408238738775253,-0.017010143026709557
1789058981902348800,0.766348876953125,0.14807574450969696,-0.07108455896377563,-0.010190319269895554
1789058981912358700,0.776358642578125,0.21690647304058075,-0.05926492065191269,-0.003947337158024311
1789058981922368800,0.78636865234375,0.28733351826667786,-0.057614292949438095,-0.0020695424173027277
1789058981932379600,0.796379638671875,0.34705275297164917,-0.054538607597351074,0.0029406624380499125
1789058981942389800,0.8063896484375,0.39319363236427307,-0.05068022012710571,0.0003038666909560561
1789058981952399600,0.816399658203125,0.4374217987060547,-0.045643117278814316,0.0032344090286642313
1789058981962410800,0.82641064453125,0.45745331048965454,-0.04393816366791725,0.0021941782906651497
1789058981972420600,0.836420654296875,0.4761843979358673,-0.0410022959113121,0.006409962195903063
1789058981982430700,0.8464306640625,0.48225027322769165,-0.04386093094944954,0.0034133736044168472
1789058981992441600,0.856441650390625,0.47905233502388,-0.049499377608299255,0.0018200043123215437
1789058982002451700,0.86645166015625,0.4725624918937683,-0.05414818972349167,0.001487375469878316
1789058982012461600,0.876461669921875,0.4546852111816406,-0.0788029357790947,-0.007054180838167667
1789058982022472700,0.88647265625,0.426370769739151,-0.05931685119867325,0.008167382329702377
1789058982032482600,0.896482666015625,0.4011274576187134,-0.07354665547609329,-0.01210007257759571
1789058982042492700,0.90649267578125,0.36525094509124756,-0.06413237750530243,-0.024343157187104225
1789058982052503600,0.916503662109375,0.3268742561340332,-0.04459809511899948,-0.006139651406556368
1789058982062513700,0.926513671875,0.30357587337493896,-0.06458485126495361,0.012802613899111748
1789058982072523500,0.9365234375,0.3366187512874603,-0.13351091742515564,-0.037952177226543427
1789058982082535000,0.946534912109375,0.32819998264312744,-0.15070243179798126,-0.0007504787645302713
1789058982092544500,0.95654443359375,0.3233895003795624,-0.14927150309085846,-0.047809865325689316
1789058982102554600,0.9665546875,0.2253955751657486,-0.1482163667678833,-0.05306508392095566
1789058982112565800,0.976565673828125,0.12180206924676895,-0.01865464448928833,0.02508857473731041
1789058982122576000,0.986575927734375,0.08549865335226059,-0.0046690539456903934,-0.03320509195327759
1789058982132585700,0.996585693359375,0.08973760902881622,-0.03237631544470787,-0.0025507756508886814
1789058982142596600,1.0065966796875,0.13086587190628052,-0.05216839537024498,0.02112472616136074
1789058982152606700,1.016606689453125,0.15341565012931824,-0.06685839593410492,-0.02117213048040867
1789058982162616800,1.026616943359375,0.211788147687912,-0.11733807623386383,-0.013877999037504196
1789058982172627700,1.036627685546875,0.2684740722179413,-0.07926419377326965,0.0007518103811889887
1789058982182637600,1.046637451171875,0.3225040137767792,-0.0920761302113533,-0.011869442649185658
1789058982192647700,1.056647705078125,0.33724913001060486,-0.04959258809685707,0.0060171461664140224
1789058982202658600,1.066658447265625,0.3390640914440155,0.018968896940350533,0.010173541493713856
1789058982212668700,1.076668701171875,0.3479883372783661,0.035898879170417786,0.03141890838742256
1789058982222678800,1.0866787109375,0.3968147337436676,0.06907680630683899,0.026971429586410522
1789058982232689700,1.096689697265625,0.43713390827178955,0.059173841029405594,0.032474320381879807
1789058982242699500,1.106699462890625,0.4905444085597992,0.05108661949634552,0.030793864279985428
1789058982252709600,1.116709716796875,0.5102968215942383,0.05999862030148506,0.043543484061956406
1789058982262720500,1.126720458984375,0.5218735933303833,0.06929438561201096,0.04927646741271019
1789058982272730600,1.136730712890625,0.5361151099205017,0.08243522047996521,0.05204242840409279
1789058982282740500,1.146740478515625,0.5323435068130493,0.10205606371164322,0.04880988225340843
1789058982292752000,1.156751953125,0.5317562818527222,0.12777820229530334,0.061284661293029785
1789058982302761500,1.166761474609375,0.5279679298400879,0.1379874348640442,0.07110453397035599
1789058982312771600,1.176771484375,0.5365095138549805,0.15576349198818207,0.0841529592871666
1789058982322782700,1.18678271484375,0.5464723706245422,0.15990310907363892,0.08227569609880447
1789058982332792800,1.196792724609375,0.5633581876754761,0.15019376575946808,0.07973211258649826
1789058982342802700,1.206802734375,0.5608830451965332,0.15701279044151306,0.08733224123716354
1789058982352813800,1.216813720703125,0.5422472953796387,0.16097158193588257,0.09773561358451843
1789058982362823700,1.22682373046875,0.534525990486145,0.1549549549818039,0.09973431378602982
1789058982372833800,1.236833740234375,0.52414470911026,0.16431783139705658,0.10249654948711395
1789058982382844700,1.2468447265625,0.4894637167453766,0.1776677370071411,0.1061975434422493
1789058982392854800,1.256854736328125,0.4465053081512451,0.19390076398849487,0.10976617783308029
1789058982402864600,1.26686474609375,0.41725048422813416,0.2024303376674652,0.1069410964846611
1789058982412875800,1.276875732421875,0.39669114351272583,0.20635557174682617,0.10854645073413849
1789058982422885600,1.2868857421875,0.3770037293434143,0.19825530052185059,0.11467278748750687
1789058982432895700,1.296895751953125,0.3480474650859833,0.20220449566841125,0.13103312253952026
1789058982442906600,1.30690673828125,0.31482505798339844,0.20456938445568085,0.13804468512535095
1789058982452916700,1.316916748046875,0.27403128147125244,0.21068879961967468,0.14438994228839874
1789058982462926600,1.326926513671875,0.23303857445716858,0.22260244190692902,0.1517474502325058
1789058982472937500,1.3369375,0.1832989901304245,0.23766262829303741,0.1710745394229889
1789058982482947600,1.346947509765625,0.11961241811513901,0.26510196924209595,0.1803242266178131
1789058982492957700,1.356957763671875,0.04669906198978424,0.29716962575912476,0.1792946606874466
1789058982502968800,1.36696875,-0.017402958124876022,0.31125909090042114,0.16814027726650238
1789058982512978700,1.376978759765625,-0.05437935143709183,0.28626585006713867,0.16953817009925842
1789058982522988500,1.386988525390625,-0.09164256602525711,0.2539587616920471,0.17561469972133636
1789058982532999700,1.396999755859375,-0.14103834331035614,0.22532819211483002,0.17594386637210846
1789058982543009800,1.407009765625,-0.22594071924686432,0.22818203270435333,0.15791933238506317
1789058982553019600,1.41701953125,-0.3473193347454071,0.24287550151348114,0.138846293091774
1789058982563030800,1.42703076171875,-0.464625746011734,0.2541651725769043,0.1479780077934265
1789058982573040600,1.43704052734375,-0.5491355657577515,0.2547350823879242,0.1579108089208603
1789058982583050800,1.44705078125,-0.6062741875648499,0.23555606603622437,0.14978177845478058
1789058982593061600,1.4570615234375,-0.6480810642242432,0.22436518967151642,0.13800473511219025
1789058982603071700,1.46707177734375,-0.738811194896698,0.24817891418933868,0.12750841677188873
1789058982613081600,1.47708154296875,-0.8198461532592773,0.24667076766490936,0.12187237292528152
1789058982623092700,1.4870927734375,-0.8615837097167969,0.23533715307712555,0.10647104680538177
1789058982633102600,1.4971025390625,-0.9072761535644531,0.23820936679840088,0.11570129543542862
1789058982643112700,1.50711279296875,-0.9375685453414917,0.22673194110393524,0.1097363531589508
1789058982653123600,1.51712353515625,-0.9634363055229187,0.21581697463989258,0.10448858886957169
1789058982663133700,1.5271337890625,-1.0192502737045288,0.2159208506345749,0.07922425121068954
1789058982673143600,1.5371435546875,-1.0632305145263672,0.21590645611286163,0.058389272540807724
1789058982683154700,1.54715478515625,-1.0625487565994263,0.19837753474712372,0.05854054167866707
1789058982693164500,1.55716455078125,-1.0698472261428833,0.17923952639102936,0.07892091572284698
1789058982703174700,1.567174560546875,-1.1303781270980835,0.17340773344039917,0.07923223823308945
1789058982713185800,1.577185791015625,-1.1808770895004272,0.15927407145500183,0.06174272671341896
1789058982723196000,1.58719580078125,-1.1942229270935059,0.12569667398929596,0.029169602319598198
1789058982733205500,1.59720556640625,-1.2341586351394653,0.082290880382061,0.007647267077118158
1789058982743216600,1.607216552734375,-1.2719459533691406,0.0380331352353096,0.012197810225188732
1789058982753226500,1.6172265625,-1.3237322568893433,-0.0025569009594619274,0.010359430685639381
1789058982763236600,1.627236572265625,-1.4138500690460205,-0.02660178393125534,-0.00350418733432889
1789058982773247700,1.637247802734375,-1.4726159572601318,-0.056595902889966965,-0.025592178106307983
1789058982783257600,1.647257568359375,-1.4941465854644775,-0.1027868315577507,-0.02203020080924034
1789058982793267700,1.657267822265625,-1.535282850265503,-0.1262335628271103,-0.029258020222187042
1789058982803278600,1.667278564453125,-1.5983848571777344,-0.1354968398809433,-0.026794329285621643
1789058982813288700,1.677288818359375,-1.6220827102661133,-0.14607810974121094,-0.0380065031349659
1789058982823298800,1.687298828125,-1.5788733959197998,-0.15683995187282562,-0.037277329713106155
1789058982833309700,1.697309814453125,-1.5766342878341675,-0.14749625325202942,-0.0496373288333416
1789058982843319600,1.707319580078125,-1.5736209154129028,-0.14127057790756226,-0.04184278845787048
1789058982853329700,1.71732958984375,-1.4797947406768799,-0.1661069542169571,-0.045638326555490494
1789058982863340500,1.727340576171875,-1.3456335067749023,-0.19927635788917542,-0.0029891319572925568
1789058982873350700,1.7373505859375,-1.3015880584716797,-0.19197343289852142,0.0018647453980520368
1789058982883360500,1.747360595703125,-1.2776552438735962,-0.18677334487438202,0.015966182574629784
1789058982893371600,1.75737158203125,-1.1629785299301147,-0.1892106682062149,-0.011778095737099648
1789058982903381500,1.767381591796875,-1.011461615562439,-0.17796148359775543,-0.00004234426160110161
1789058982913391600,1.7773916015625,-0.8729836940765381,-0.15685085952281952,-0.013601030223071575
1789058982923402500,1.787402587890625,-0.8002500534057617,-0.1089499220252037,-0.01312325894832611
1789058982933412600,1.79741259765625,-0.6852862238883972,-0.08541902899742126,-0.01673264056444168
1789058982943422500,1.80742236328125,-0.504275381565094,-0.09090673923492432,-0.0002490055630914867
1789058982953433600,1.81743359375,-0.42217493057250977,-0.07907377928495407,0.018875420093536377
1789058982963443500,1.827443359375,-0.3811148703098297,-0.0662195011973381,0.031323302537202835
1789058982973453600,1.83745361328125,-0.33051401376724243,-0.06180744245648384,0.024102140218019485
1789058982983464700,1.847464599609375,-0.3025497496128082,-0.05849846452474594,0.00717642018571496
1789058982993474800,1.857474853515625,-0.300661563873291,-0.0519404299557209,0.006184925325214863
1789058983003484700,1.867484619140625,-0.31711751222610474,-0.0060211410745978355,-0.021808093413710594
1789058983013495800,1.877495849609375,-0.39042526483535767,0.06362637877464294,-0.07336289435625076
1789058983023505700,1.887505615234375,-0.39071741700172424,0.058950137346982956,-0.00993039458990097
1789058983033515800,1.897515869140625,-0.3895703852176666,0.10012473911046982,0.032832782715559006
1789058983043526700,1.907526611328125,-0.32943540811538696,0.024150609970092773,0.021936457604169846
1789058983053536800,1.917536865234375,-0.29024195671081543,-0.033256758004426956,-0.017716147005558014
1789058983063546600,1.927546630859375,-0.3214901387691498,-0.05233777314424515,-0.038055773824453354
1789058983073557500,1.9375576171875,-0.3845961391925812,-0.0357646569609642,-0.01398532371968031
1789058983083567600,1.947567626953125,-0.5173158645629883,0.013289174064993858,-0.010239854454994202
1789058983093577700,1.95757763671875,-0.6736356616020203,0.06725466996431351,-0.03320642188191414
1789058983103588600,1.967588623046875,-0.7558570504188538,0.0766385868191719,-0.027344806119799614
1789058983113598500,1.977598388671875,-0.7664771676063538,0.054968710988759995,0.011196994222700596
1789058983123608600,1.987608642578125,-0.7897045016288757,0.028595158830285072,-0.02611495740711689
1789058983133619500,1.997619384765625,-0.7728184461593628,-0.030855383723974228,-0.04882426559925079
1789058983143629600,2.007629638671875,-0.8003142476081848,-0.05549921095371246,-0.0632210448384285
1789058983153639700,2.0176396484375,-0.7889276742935181,-0.04970790073275566,-0.00002370213405811228
1789058983163650800,2.02765087890625,-0.7977456450462341,-0.04475095868110657,0.022296516224741936
1789058983173660400,2.037660400390625,-0.83189857006073,-0.038723159581422806,0.00953704584389925
1789058983183670500,2.04767041015625,-0.8375833034515381,-0.05254683271050453,-0.009155148640275002
1789058983193681700,2.057681640625,-0.7747668027877808,-0.09979157149791718,-0.012738964520394802
1789058983203691800,2.06769189453125,-0.7051129341125488,-0.12429585307836533,0.0009755159262567759
1789058983213701600,2.07770166015625,-0.6774767637252808,-0.1275571584701538,0.05639722943305969
1789058983223712800,2.087712646484375,-0.671252429485321,-0.13435141742229462,0.0637078732252121
1789058983233722600,2.09772265625,-0.611491858959198,-0.1456967443227768,0.041600439697504044
1789058983243732700,2.107732666015625,-0.5314686894416809,-0.17645040154457092,-0.004324440844357014
1789058983253743600,2.11774365234375,-0.46812325716018677,-0.19418492913246155,-0.01902296021580696
1789058983263753700,2.127753662109375,-0.40941813588142395,-0.1942214071750641,0.008104798384010792
1789058983273763600,2.137763671875,-0.3564300239086151,-0.20304925739765167,0.07870173454284668
1789058983283774700,2.147774658203125,-0.3356352746486664,-0.2295684814453125,0.07799120247364044
1789058983293784600,2.15778466796875,-0.28983980417251587,-0.24117347598075867,0.058333348482847214
1789058983303794700,2.167794677734375,-0.2549247145652771,-0.24488964676856995,0.058582887053489685
1789058983313805600,2.1778056640625,-0.2492561638355255,-0.2601863145828247,0.021644841879606247
1789058983323815700,2.187815673828125,-0.23269610106945038,-0.27544063329696655,0.04735579714179039
1789058983333825500,2.197825439453125,-0.2025240808725357,-0.2637605369091034,0.09577952325344086
1789058983343836700,2.207836669921875,-0.10675068199634552,-0.26251524686813354,0.13890914618968964
1789058983353846500,2.217846435546875,-0.00657561095431447,-0.27015531063079834,0.1291974037885666
1789058983363856600,2.227856689453125,0.08240272849798203,-0.23878808319568634,0.08035236597061157
1789058983373867800,2.23786767578125,0.20448416471481323,-0.22210736572742462,0.04410620778799057
1789058983383877600,2.247877685546875,0.3648679852485657,-0.18599490821361542,0.033429596573114395
1789058983393887500,2.257887451171875,0.5505380034446716,-0.19444164633750916,0.04312802851200104
1789058983403898600,2.267898681640625,0.7270386815071106,-0.12185985594987869,0.07689797878265381
1789058983413908700,2.27790869140625,0.9137425422668457,-0.10750462114810944,0.020186761394143105
1789058983423918800,2.2879189453125,1.1305878162384033,-0.10751820355653763,0.013993846252560616
1789058983433929700,2.2979296875,1.3060234785079956,-0.08822227269411087,0.004516188520938158
1789058983443939600,2.307939697265625,1.4748204946517944,-0.08960019052028656,0.03320669010281563
1789058983453949700,2.31794970703125,1.5829589366912842,-0.05782681331038475,0.05423474311828613
1789058983463960600,2.327960693359375,1.6565983295440674,-0.02233166992664337,0.047023169696331024
1789058983473970700,2.337970703125,1.7525546550750732,-0.0014229270163923502,-0.03139147907495499
1789058983483980500,2.34798046875,1.8281431198120117,0.02955389767885208,-0.009462477639317513
1789058983493991700,2.35799169921875,1.8737961053848267,0.04776778817176819,0.013937121257185936
1789058983504001500,2.36800146484375,1.8531051874160767,0.0724257305264473,0.0262403916567564
1789058983514011600,2.37801171875,1.847091794013977,0.06381839513778687,0.024695493280887604
1789058983524022500,2.3880224609375,1.8383768796920776,0.08739455789327621,0.015079350210726261
1789058983534032600,2.39803271484375,1.8471781015396118,0.07274877279996872,0.02190716378390789
1789058983544042500,2.40804248046875,1.790736436843872,0.08641478419303894,0.03539154678583145
1789058983554053600,2.4180537109375,1.6833231449127197,0.09168757498264313,0.03716707602143288
1789058983564063500,2.4280634765625,1.5454566478729248,0.1370800882577896,0.053653642535209656
1789058983574073600,2.438073486328125,1.4372049570083618,0.14903289079666138,0.06120210513472557
1789058983584084700,2.448084716796875,1.2761931419372559,0.16843988001346588,0.04026752710342407
1789058983594094600,2.458094482421875,1.1132588386535645,0.1710606962442398,0.04669187217950821
1789058983604104400,2.4681044921875,0.9812059998512268,0.16838209331035614,0.08116063475608826
1789058983614115800,2.47811572265625,0.8474277257919312,0.16002748906612396,0.07548730075359344
1789058983624125700,2.488125732421875,0.7542319893836975,0.15017086267471313,0.052024051547050476
1789058983634135800,2.4981357421875,0.6105278134346008,0.16439293324947357,0.05373832955956459
1789058983644146700,2.508146728515625,0.46442651748657227,0.1752341389656067,0.07190082222223282
1789058983654156800,2.51815673828125,0.33487173914909363,0.17350734770298004,0.018004033714532852
1789058983664166700,2.528166748046875,0.2365395724773407,0.18338607251644135,0.0729125589132309
1789058983674177500,2.538177490234375,0.12566019594669342,0.17580218613147736,0.0982954129576683
1789058983684187600,2.548187744140625,0.022599851712584496,0.1825362592935562,0.1010802760720253
1789058983694197800,2.55819775390625,-0.06926775723695755,0.1836254894733429,0.06043431535363197
1789058983704208600,2.568208740234375,-0.13149064779281616,0.1886546015739441,0.036192093044519424
1789058983714218500,2.578218505859375,-0.18844075500965118,0.19243815541267395,-0.01194081548601389
1789058983724228600,2.588228515625,-0.21412347257137299,0.16743746399879456,0.01944054290652275
1789058983734240300,2.598240234375,-0.25191134214401245,0.15755073726177216,0.06343809515237808
1789058983744250400,2.60825048828125,-0.3017931282520294,0.16669923067092896,0.11147406697273254
1789058983754260200,2.61826025390625,-0.3583983778953552,0.1564122438430786,0.04069629684090614
1789058983764271400,2.628271240234375,-0.40116527676582336,0.168824702501297,0.03564747795462608
1789058983774281200,2.63828125,-0.44847846031188965,0.1666470319032669,0.07876724749803543
1789058983784291300,2.648291259765625,-0.4487506151199341,0.14701926708221436,0.09186574071645737
1789058983794302200,2.65830224609375,-0.46464651823043823,0.14829039573669434,0.08198514580726624
1789058983804312300,2.668312255859375,-0.42795827984809875,0.11903717368841171,0.09843602776527405
1789058983814322200,2.678322265625,-0.41501715779304504,0.11065460741519928,0.08558520674705505
1789058983824333300,2.688333251953125,-0.39604002237319946,0.12201858311891556,0.04374455288052559
1789058983834343200,2.69834326171875,-0.3511063754558563,0.1187165305018425,0.054012101143598557
1789058983844353300,2.708353271484375,-0.2937261462211609,0.1327306181192398,0.10447314381599426
1789058983854364200,2.7183642578125,-0.24312183260917664,0.11076512932777405,0.02888704091310501
1789058983864374300,2.728374267578125,-0.14120106399059296,0.10506037622690201,0.04754568263888359
1789058983874384100,2.738384033203125,-0.11428049951791763,0.11104316264390945,0.03521151840686798
1789058983884395300,2.748395263671875,-0.06632363051176071,0.12556883692741394,0.053535398095846176
1789058983894405400,2.7584052734375,0.003126284806057811,0.11857405304908752,0.057073671370744705
1789058983904415500,2.76841552734375,0.057127732783555984,0.11411192268133163,0.02376178838312626
1789058983914426400,2.77842626953125,0.09217120707035065,0.124283067882061,0.017844511196017265
1789058983924436200,2.788436279296875,0.13916321098804474,0.11059601604938507,0.04055728018283844
1789058983934446300,2.7984462890625,0.18002170324325562,0.08853652328252792,0.058290205895900726
1789058983944457200,2.808457275390625,0.20098157227039337,0.09220316261053085,0.06470229476690292
1789058983954467300,2.81846728515625,0.20675930380821228,0.07141133397817612,0.006204898934811354
1789058983964477200,2.828477294921875,0.23327134549617767,0.0780458003282547,0.07286462187767029
1789058983974488300,2.83848828125,0.22921454906463623,0.10059051960706711,0.0884595587849617
1789058983984498200,2.848498291015625,0.23922643065452576,0.09144895523786545,0.031018901616334915
1789058983994508300,2.85850830078125,0.2774294912815094,0.11329539865255356,0.05086531117558479
1789058984004519200,2.868519287109375,0.3147592842578888,0.11442724615335464,0.07455812394618988
1789058984014529300,2.878529296875,0.3718603849411011,0.11993785202503204,0.03335156664252281
1789058984024539100,2.8885390625,0.42938438057899475,0.10511177033185959,0.007601460441946983
1789058984034550300,2.89855029296875,0.47290149331092834,0.10234607756137848,0.03545945882797241
1789058984044560100,2.90856005859375,0.5124595761299133,0.10575944930315018,0.06928053498268127
1789058984054570200,2.9185703125,0.5344740748405457,0.1177159771323204,0.06369375437498093
1789058984064581000,2.9285810546875,0.5345704555511475,0.13548912107944489,0.011915248818695545
1789058984074591200,2.93859130859375,0.5193182826042175,0.15058152377605438,0.019207783043384552
1789058984084602400,2.948602294921875,0.4833589494228363,0.1527024656534195,0.033132653683423996
1789058984094612500,2.958612548828125,0.4355336129665375,0.15222175419330597,0.024143686518073082
1789058984104622300,2.968622314453125,0.3544720709323883,0.14130786061286926,0.04741545394062996
1789058984114633200,2.97863330078125,0.257402241230011,0.12079592794179916,0.05317587032914162
1789058984124643300,2.988643310546875,0.13154365122318268,0.13605104386806488,0.054076019674539566
1789058984134653400,2.9986533203125,-0.0016234630020335317,0.13028636574745178,-0.010638529434800148
1789058984144664300,3.008664306640625,-0.09167079627513885,0.11506746709346771,-0.029088908806443214
1789058984154674200,3.018674072265625,-0.17685812711715698,0.10822846740484238,-0.02412877231836319
1789058984164684300,3.028684326171875,-0.23365776240825653,0.08397293090820312,0.033425066620111465
1789058984174695200,3.038695068359375,-0.3171207010746002,0.08785608410835266,0.052029114216566086
1789058984184705300,3.048705322265625,-0.4111630320549011,0.09960595518350601,0.05380783602595329
1789058984194715100,3.058715087890625,-0.4892205595970154,0.10443692654371262,0.0657193586230278
1789058984204726300,3.068726318359375,-0.5480703115463257,0.10432880371809006,0.062371764332056046
1789058984214736100,3.078736083984375,-0.5879420638084412,0.1058606505393982,0.07572884857654572
1789058984224746200,3.088746337890625,-0.6069375872612,0.08478253334760666,0.03329404070973396
1789058984234757000,3.098757080078125,-0.6149912476539612,0.10200679302215576,0.028833778575062752
1789058984244767200,3.108767333984375,-0.595956563949585,0.09280503541231155,0.0012186624808236957
1789058984254777000,3.118777099609375,-0.5387710928916931,0.09930688142776489,-0.0015646071406081319
1789058984264788200,3.128788330078125,-0.5281668901443481,0.12352167069911957,0.033542245626449585
1789058984274798000,3.138798095703125,-0.4794664680957794,0.12159700691699982,0.027951739728450775
1789058984284808200,3.14880810546875,-0.4518555998802185,0.13091780245304108,-0.0019076223252341151
1789058984294819300,3.1588193359375,-0.4257795214653015,0.14585600793361664,0.025726934894919395
1789058984304829400,3.168829345703125,-0.3837263584136963,0.12829698622226715,0.005440571811050177
1789058984314839300,3.17883935546875,-0.33610159158706665,0.11308101564645767,-0.024212129414081573
1789058984324850400,3.188850341796875,-0.3337489366531372,0.1008155569434166,-0.008847021497786045
1789058984334860300,3.1988603515625,-0.31861206889152527,0.08830855786800385,-0.006472546607255936
1789058984344870400,3.208870361328125,-0.3376893699169159,0.10755681991577148,0.007137804292142391
1789058984354881300,3.21888134765625,-0.34949809312820435,0.11306370794773102,0.043779172003269196
1789058984364891400,3.228891357421875,-0.3724020719528198,0.110814668238163,0.02159077860414982
1789058984374901200,3.2389013671875,-0.35151728987693787,0.07409153878688812,0.05826010927557945
1789058984384912100,3.248912109375,-0.34354299306869507,0.030914239585399628,0.047382429242134094
1789058984394922200,3.258922119140625,-0.40023690462112427,0.025850770995020866,0.02942979335784912
1789058984404932400,3.268932373046875,-0.4665863513946533,0.01233256608247757,0.0400233156979084
1789058984414943200,3.278943115234375,-0.5187382102012634,-0.0003304982965346426,-0.026021214202046394
1789058984424953300,3.288953369140625,-0.5100682973861694,-0.022470954805612564,-0.0035246936604380608
1789058984434963200,3.298963134765625,-0.5349922776222229,-0.012460663914680481,-0.00872345082461834
1789058984444974000,3.30897412109375,-0.5324260592460632,-0.010757839307188988,0.003422162029892206
1789058984454984200,3.318984130859375,-0.5059457421302795,0.012285694479942322,-0.008652344346046448
1789058984464994300,3.328994384765625,-0.43234050273895264,-0.018135061487555504,-0.05254443362355232
1789058984475005200,3.339005126953125,-0.3581799864768982,0.012653211131691933,0.011414308100938797
1789058984485015000,3.34901513671875,-0.2656481862068176,-0.01449878141283989,0.011088870465755463
1789058984495025200,3.359025146484375,-0.14850690960884094,-0.04946848377585411,0.04177967086434364
1789058984505036300,3.369036376953125,-0.08416041731834412,-0.011803129687905312,0.03301414102315903
1789058984515046400,3.37904638671875,-0.04748709127306938,-0.0007904262165538967,-0.007888549007475376
1789058984525056300,3.38905615234375,-0.023978037759661674,0.038235269486904144,-0.03680648282170296
1789058984535067400,3.3990673828125,0.03639582544565201,0.06652390211820602,0.0054850466549396515
1789058984545077200,3.4090771484375,0.15288515388965607,0.013339241035282612,0.0348179005086422
1789058984555087400,3.41908740234375,0.2340947836637497,-0.015873771160840988,-0.024636371061205864
1789058984565098200,3.42909814453125,0.21849878132343292,-0.02214205451309681,-0.05693172663450241
1789058984575108400,3.4391083984375,0.221554234623909,0.0007486145477741957,0.045875344425439835
1789058984585118200,3.4491181640625,0.2340889275074005,0.010551177896559238,-0.002650644164532423
1789058984595129300,3.45912939453125,0.25729623436927795,-0.0049074068665504456,0.03967337682843208
1789058984605139200,3.46913916015625,0.2579604387283325,0.0002671150432433933,0.04224332794547081
1789058984615149300,3.4791494140625,0.24706384539604187,-0.026547987014055252,0.03730609267950058
1789058984625160200,3.48916015625,0.2899348735809326,-0.0400555394589901,0.008532768115401268
1789058984635170300,3.49917041015625,0.25773221254348755,-0.03970187157392502,-0.0006388923502527177
1789058984645180200,3.50918017578125,0.2665749788284302,-0.010418551973998547,0.01001881156116724
1789058984655191300,3.51919140625,0.26471689343452454,0.018567558377981186,-0.004025101661682129
1789058984665201200,3.529201171875,0.33897992968559265,-0.01549373846501112,-0.004859203472733498
1789058984675211300,3.539211181640625,0.3771161139011383,0.024085894227027893,0.03684163838624954
1789058984685222100,3.54922216796875,0.3634466528892517,0.016402941197156906,0.011263573542237282
1789058984695232300,3.559232177734375,0.33845609426498413,0.059528838843107224,-0.017951836809515953
1789058984705242000,3.5692421875,0.32036522030830383,0.08049271255731583,-0.010043046437203884
1789058984715253200,3.579253173828125,0.3340701162815094,0.08572635799646378,0.010997523553669453
1789058984725263400,3.589263427734375,0.32355836033821106,0.07990681380033493,-0.040398288518190384
1789058984735273200,3.599273193359375,0.2751535475254059,0.09546393901109695,0.010957576334476471
1789058984745284000,3.6092841796875,0.17725414037704468,0.10165365785360336,-0.027945082634687424
1789058984755294200,3.619294189453125,0.16009512543678284,0.0981617197394371,-0.06704800575971603
1789058984765304000,3.629303955078125,0.10439964383840561,0.09461039304733276,-0.024598021060228348
1789058984775315000,3.63931494140625,0.026739468798041344,0.08657031506299973,-0.045825812965631485
1789058984785325000,3.649324951171875,-0.06969226151704788,0.07442842423915863,-0.014274276793003082
1789058984795335200,3.659335205078125,-0.15773209929466248,0.047020237892866135,-0.012010323815047741
1789058984805346000,3.669345947265625,-0.2388908714056015,0.036913011223077774,-0.01660640724003315
1789058984815356000,3.67935595703125,-0.4003537893295288,0.05128156393766403,0.05387761443853378
1789058984825366000,3.689365966796875,-0.5297858119010925,0.06317470967769623,0.00851492490619421
1789058984835377000,3.699376953125,-0.6147052645683289,0.0411362498998642,0.012754145078361034
1789058984845387000,3.709386962890625,-0.6538843512535095,-0.014583203941583633,-0.015448198653757572
1789058984855396900,3.71939697265625,-0.690388023853302,-0.047696683555841446,0.002285258611664176
1789058984865408000,3.729407958984375,-0.7469759583473206,-0.04737177491188049,-0.01739257201552391
1789058984875417900,3.73941796875,-0.7876216173171997,-0.07108695805072784,-0.029691049829125404
1789058984885428000,3.749427978515625,-0.7895124554634094,-0.05269676819443703,-0.0052024852484464645
1789058984895439000,3.759439208984375,-0.7737327218055725,-0.10356500744819641,-0.031855933368206024
1789058984905449200,3.76944921875,-0.719304621219635,-0.11068923026323318,-0.055695753544569016
1789058984915459000,3.779458984375,-0.7181874513626099,-0.11324186623096466,-0.02911500819027424
1789058984925470200,3.78947021484375,-0.7344359159469604,-0.0817987248301506,0.0388917401432991
1789058984935480000,3.79947998046875,-0.7580392360687256,-0.06078079342842102,0.10789397358894348
1789058984945490200,3.809490234375,-0.6983676552772522,-0.07964662462472916,0.05391809344291687
1789058984955501000,3.8195009765625,-0.6067759394645691,-0.1305484175682068,-0.02087705209851265
1789058984965511200,3.82951123046875,-0.5207569003105164,-0.17323410511016846,-0.04928632453083992
1789058984975521000,3.83952099609375,-0.4757039546966553,-0.18821224570274353,-0.06841527670621872
1789058984985532200,3.8495322265625,-0.4630720317363739,-0.1171463280916214,-0.013677196577191353
1789058984995542000,3.8595419921875,-0.3843519389629364,-0.09727568924427032,0.04224519059062004
1789058985005552000,3.86955224609375,-0.2452254742383957,-0.09874974936246872,0.0465235598385334
1789058985015563000,3.87956298828125,-0.13461054861545563,-0.09309478849172592,0.03695269301533699
1789058985025573000,3.889572998046875,-0.0003557983145583421,-0.1475607007741928,0.0587296262383461
1789058985035583000,3.8995830078125,0.08064424246549606,-0.14556331932544708,-0.005045624915510416
1789058985045593900,3.90959375,0.08242909610271454,-0.11660037934780121,-0.015515043400228024
1789058985055604000,3.91960400390625,0.1636243462562561,-0.08546216785907745,0.0006125270738266408
1789058985065614000,3.929614013671875,0.22883158922195435,-0.07554508745670319,0.050206445157527924
1789058985075625000,3.939625,0.26494669914245605,-0.08260566741228104,0.06384236365556717
1789058985085635000,3.949635009765625,0.32194527983665466,-0.09909436106681824,0.09712308645248413
1789058985095645000,3.95964501953125,0.34137728810310364,-0.09525754302740097,0.10207416862249374
1789058985105656000,3.969656005859375,0.35963618755340576,-0.06931436061859131,0.08342165499925613
1789058985115666200,3.979666259765625,0.3862755298614502,-0.14046044647693634,-0.11810693144798279
1789058985125676000,3.989676025390625,0.3110809028148651,-0.09749513119459152,-0.08046820759773254
1789058985135687200,3.999687255859375,0.2973123788833618,-0.07779892534017563,0.0558566078543663
1789058985145697000,4.009697021484375,0.2864892780780792,-0.08023971319198608,0.016162192448973656
1789058985155707100,4.01970703125,0.24721725285053253,-0.04527267441153526,0.09934895485639572
1789058985165718000,4.029718017578125,0.2667110562324524,-0.05676288157701492,0.11205223202705383
1789058985175728000,4.03972802734375,0.2994183897972107,-0.07132371515035629,0.0670943483710289
1789058985185739000,4.049739013671875,0.2347283512353897,-0.08092760294675827,0.014942464418709278
1789058985195749000,4.0597490234375,0.1945100873708725,-0.09681282937526703,0.01381221879273653
1789058985205759000,4.069759033203125,0.11513032019138336,-0.04697230085730553,-0.04356425628066063
1789058985215770000,4.07977001953125,0.058225490152835846,-0.08029484003782272,-0.08386267721652985
1789058985225780000,4.089780029296875,0.013560815714299679,-0.014681740663945675,0.003760383464396
1789058985235790000,4.0997900390625,-0.020125508308410645,-0.038890939205884933,-0.04547587037086487
1789058985245801000,4.109801025390625,-0.011766111478209496,-0.07190082222223282,-0.06997215747833252
1789058985255811000,4.11981103515625,-0.05301554873585701,-0.05494687333703041,-0.000030892668291926384
1789058985265821000,4.129821044921875,-0.08010175824165344,-0.07671847939491272,-0.018396051600575447
1789058985275832000,4.13983203125,-0.10178468376398087,-0.06833431869745255,-0.03538941591978073
1789058985285842000,4.149842041015625,-0.16866518557071686,-0.03138801455497742,-0.10643722862005234
1789058985295852000,4.15985205078125,-0.1910993903875351,-0.035524170845746994,-0.061056431382894516
1789058985305863200,4.16986328125,-0.20392782986164093,-0.024111993610858917,-0.059839099645614624
1789058985315873000,4.179873046875,-0.21065416932106018,-0.054550059139728546,-0.07029786705970764
1789058985325883100,4.189883056640625,-0.17486342787742615,-0.06894684582948685,-0.03003539703786373
1789058985335894000,4.19989404296875,-0.21648968756198883,-0.05631067603826523,0.058395132422447205
1789058985345904000,4.209904052734375,-0.26870521903038025,-0.0844040960073471,-0.04770547151565552
1789058985355914200,4.219914306640625,-0.33849602937698364,-0.02744600549340248,0.011867311783134937
1789058985365925000,4.229925048828125,-0.35620418190956116,-0.06280719488859177,-0.09405592828989029
1789058985375935000,4.23993505859375,-0.375945121049881,-0.07132957130670547,-0.15605032444000244
1789058985385945000,4.249945068359375,-0.3540603518486023,-0.09265909343957901,-0.09946800023317337
1789058985395956000,4.2599560546875,-0.351580947637558,-0.10605479776859283,-0.04253361001610756
1789058985405966000,4.269966064453125,-0.29501646757125854,-0.11506613343954086,0.022535135969519615
1789058985415976000,4.279975830078125,-0.24413277208805084,-0.10425423085689545,0.13226883113384247
1789058985425987000,4.289987060546875,-0.2506875991821289,-0.10798106342554092,0.13030554354190826
1789058985435997000,4.299996826171875,-0.30148980021476746,-0.060135241597890854,0.02346298098564148
1789058985446007000,4.310007080078125,-0.34742772579193115,-0.08793997764587402,-0.08714661747217178
1789058985456018000,4.320017822265625,-0.31256163120269775,-0.14018480479717255,-0.1780022233724594
1789058985466028000,4.330028076171875,-0.24545502662658691,-0.16693651676177979,-0.15392830967903137
1789058985476038000,4.340037841796875,-0.20087264478206635,-0.1785164773464203,-0.037390246987342834
1789058985486049000,4.350049072265625,-0.22767417132854462,-0.15073518455028534,-0.004454935900866985
1789058985496059000,4.360058837890625,-0.23380397260189056,-0.12952284514904022,-0.01732572726905346
1789058985506069000,4.370069091796875,-0.20754200220108032,-0.11748934537172318,-0.03145752474665642
1789058985516080000,4.380080078125,-0.134678453207016,-0.11433403193950653,-0.0252212006598711
1789058985526090200,4.39009033203125,-0.0894172340631485,-0.10435862839221954,0.019630160182714462
1789058985536100000,4.40010009765625,-0.02015773206949234,-0.09824534505605698,0.017536915838718414
1789058985546111200,4.410111328125,0.06853245198726654,-0.11778468638658524,-0.018131598830223083
1789058985556121000,4.42012109375,0.15200577676296234,-0.12432807683944702,-0.055386558175086975
1789058985566131200,4.430131103515625,0.1847730427980423,-0.12907835841178894,-0.11518730968236923
1789058985576142000,4.44014208984375,0.17684081196784973,-0.06754308938980103,-0.019334016367793083
1789058985586152200,4.450152099609375,0.23976679146289825,-0.07578104734420776,0.054910119622945786
1789058985596162000,4.460162109375,0.38489335775375366,-0.10438685864210129,0.10392480343580246
1789058985606173000,4.4701728515625,0.3920127749443054,-0.08329036086797714,0.08398597687482834
1789058985616183000,4.48018310546875,0.3857234716415405,-0.04900189861655235,-0.024027038365602493
1789058985626193200,4.490193115234375,0.42235231399536133,-0.031802136451005936,-0.025424666702747345
1789058985636204000,4.5002041015625,0.4832071363925934,-0.05482516437768936,0.007714378647506237
1789058985646214000,4.5102138671875,0.5662136077880859,-0.09068036824464798,0.08668163418769836
1789058985656224000,4.52022412109375,0.5919157862663269,-0.07196207344532013,0.11721823364496231
1789058985666235000,4.53023486328125,0.5299461483955383,-0.03080584853887558,0.14734017848968506
1789058985676245000,4.540244873046875,0.5045813918113708,-0.022408636286854744,-0.03618543595075607
1789058985686255000,4.550255126953125,0.5194075107574463,-0.010938401333987713,-0.020745225250720978
1789058985696266000,4.560265869140625,0.5230725407600403,-0.015508119948208332,-0.03146445006132126
1789058985706275800,4.57027587890625,0.5107852220535278,-0.002826146548613906,0.018617359921336174
1789058985716286000,4.580285888671875,0.5352565050125122,-0.009724532254040241,0.042269691824913025
1789058985726297000,4.590297119140625,0.5553537607192993,0.0007640608819201589,-0.03352120891213417
1789058985736306700,4.600306640625,0.5791174173355103,-0.018555307760834694,0.07050319761037827
1789058985746316500,4.610316650390625,0.570543646812439,-0.008408398367464542,0.07449580729007721
1789058985756327700,4.62032763671875,0.475427508354187,0.018695656210184097,0.06531695276498795
1789058985766337500,4.630337646484375,0.42300185561180115,0.07233837991952896,0.06685040146112442
1789058985776347600,4.64034765625,0.36370736360549927,0.07639303803443909,-0.06521868705749512
1789058985786358500,4.650358642578125,0.3596031665802002,0.04969058930873871,-0.02460760809481144
1789058985796368600,4.66036865234375,0.3728971481323242,0.052908755838871,0.02918185293674469
1789058985806378500,4.67037841796875,0.27818581461906433,0.04825142025947571,-0.024145549163222313
1789058985816389600,4.6803896484375,0.22933119535446167,0.06989865750074387,0.0289970301091671
1789058985826399500,4.6903994140625,0.2007642686367035,0.06539338827133179,0.04340366646647453
1789058985836409600,4.70040966796875,0.14931730926036835,0.04427159205079079,0.02166881039738655
1789058985846420500,4.71042041015625,0.03467195853590965,0.07510700076818466,0.0855090394616127
1789058985856430600,4.7204306640625,-0.10193595290184021,0.059174105525016785,0.06171848997473717
1789058985866440400,4.7304404296875,-0.23526577651500702,0.06498485803604126,0.062371499836444855
1789058985876451600,4.74045166015625,-0.3009108304977417,0.02971608377993107,0.0624987967312336
1789058985886461400,4.75046142578125,-0.3578297793865204,-0.00615270109847188,-0.0002793656021822244
1789058985896471600,4.760471435546875,-0.44555535912513733,0.03189188614487648,0.08716366440057755
1789058985906482400,4.770482421875,-0.533856213092804,0.0319608636200428,-0.007168697193264961
1789058985916492500,4.780492431640625,-0.5912816524505615,0.054969508200883865,-0.021447502076625824
1789058985926502400,4.79050244140625,-0.5552773475646973,0.029165076091885567,-0.02906653843820095
1789058985936513500,4.800513427734375,-0.5289708971977234,0.01943734660744667,0.046246856451034546
1789058985946523600,4.810523681640625,-0.5356248021125793,0.05121445283293724,0.06865815818309784
1789058985956534500,4.820534423828125,-0.5639001131057739,0.07668785005807877,0.0657462552189827
1789058985966544600,4.830544677734375,-0.551865816116333,0.10459218919277191,0.08265972882509232
1789058985976554800,4.8405546875,-0.5195435881614685,0.06545863300561905,-0.08803185075521469
1789058985986565600,4.850565673828125,-0.42691537737846375,0.04062652215361595,-0.016110526397824287
1789058985996575500,4.860575439453125,-0.38348588347435,-0.004168645944446325,-0.0824780985713005
1789058986006585600,4.870585693359375,-0.3736604154109955,0.029277194291353226,-0.010823353193700314
1789058986016596500,4.880596435546875,-0.368131160736084,0.05444592982530594,0.049263954162597656
1789058986026606600,4.890606689453125,-0.35510537028312683,0.04205051437020302,0.024596422910690308
1789058986036616400,4.900616455078125,-0.31151872873306274,0.019754262641072273,-0.04327716678380966
1789058986046627600,4.910627685546875,-0.26191309094429016,-0.01853693276643753,0.028478512540459633
1789058986056637400,4.920637451171875,-0.24890223145484924,-0.0338788703083992,0.037568945437669754
1789058986066647600,4.9306474609375,-0.26560211181640625,-0.011294200085103512,0.05529468134045601
1789058986076658400,4.940658447265625,-0.2521129250526428,-0.047505732625722885,-0.020984111353754997
1789058986086668500,4.95066845703125,-0.2309083193540573,-0.04809402674436569,-0.0320785753428936
1789058986096678400,4.960678466796875,-0.22108231484889984,-0.10970279574394226,-0.05120433121919632
1789058986106689500,4.970689453125,-0.21313810348510742,-0.08939646184444427,0.02539989911019802
1789058986116699400,4.980699462890625,-0.25515374541282654,-0.09591507911682129,-0.005557750817388296
1789058986126709500,4.99070947265625,-0.29830971360206604,-0.08388131856918335,0.012828979641199112
1789058986136720600,5.000720703125,-0.30861324071884155,-0.08855996280908585,-0.022282935678958893
1789058986146730800,5.010730712890625,-0.27247706055641174,-0.1365884691476822,-0.027415379881858826
1789058986156740600,5.02074072265625,-0.24429816007614136,-0.13093511760234833,0.005400624126195908
1789058986166751700,5.030751708984375,-0.24101021885871887,-0.13208933174610138,0.027167972177267075
1789058986176761600,5.04076171875,-0.24476633965969086,-0.13627208769321442,-0.026882747188210487
1789058986186771700,5.050771728515625,-0.20256616175174713,-0.1094902753829956,0.03402188420295715
1789058986196782600,5.060782470703125,-0.18245981633663177,-0.13974697887897491,-0.005356415640562773
1789058986206792700,5.070792724609375,-0.1473071575164795,-0.11051665991544724,0.03779744729399681
1789058986216802600,5.080802490234375,-0.1203349307179451,-0.09621521830558777,0.027704864740371704
1789058986226813400,5.0908134765625,-0.04316291585564613,-0.10666918754577637,0.040847297757864
1789058986236823600,5.100823486328125,0.014786669053137302,-0.0871703252196312,0.01088700257241726
1789058986246833700,5.110833740234375,0.07252053916454315,-0.11876580119132996,-0.05994322896003723
1789058986256844500,5.120844482421875,0.11609970778226852,-0.08990192413330078,-0.059663064777851105
1789058986266854400,5.1308544921875,0.14843767881393433,-0.07119482010602951,-0.05594795569777489
1789058986276864500,5.140864501953125,0.24811552464962006,-0.11932000517845154,-0.011896073818206787
1789058986286875400,5.15087548828125,0.2757689952850342,-0.09198691695928574,0.0028730181511491537
1789058986296885500,5.160885498046875,0.25599342584609985,-0.07881145924329758,0.0002620550512801856
1789058986306895600,5.1708955078125,0.21483772993087769,-0.04848923906683922,-0.03176911547780037
1789058986316906500,5.180906494140625,0.18651928007602692,-0.03202291578054428,-0.08593887835741043
1789058986326916400,5.190916259765625,0.2325485497713089,-0.07793580740690231,-0.06337311118841171
1789058986336926500,5.200926513671875,0.28369590640068054,-0.09309106320142746,-0.013114736415445805
1789058986346937600,5.2109375,0.2746637761592865,-0.08927635103464127,0.03459472954273224
1789058986356947700,5.22094775390625,0.28594014048576355,-0.11194224655628204,0.022940203547477722
1789058986366957600,5.23095751953125,0.23096929490566254,-0.058696068823337555,-0.008972722105681896
1789058986376968700,5.24096875,0.2130265235900879,-0.074175164103508,-0.019404856488108635
1789058986386978600,5.250978515625,0.19122402369976044,-0.06697104126214981,-0.06035495176911354
1789058986396988700,5.26098876953125,0.16550880670547485,-0.08884571492671967,-0.07330697029829025
1789058986406999600,5.27099951171875,0.1591062992811203,-0.0776364728808403,-0.039501603692770004
1789058986417009700,5.281009765625,0.14140479266643524,-0.08257130533456802,-0.024119185283780098
1789058986427019500,5.29101953125,0.14481258392333984,-0.07017908990383148,0.036125246435403824
1789058986437030700,5.30103076171875,0.13710512220859528,-0.06421760469675064,0.0031350732315331697
1789058986447040500,5.31104052734375,0.15779894590377808,-0.10279002785682678,-0.03477662429213524
1789058986457050600,5.321050537109375,0.1684289574623108,-0.07154582440853119,0.008920257911086082
1789058986467061500,5.3310615234375,0.19510984420776367,-0.07545773684978485,0.001978462329134345
1789058986477072400,5.341072265625,0.26057538390159607,-0.09151526540517807,0.036252547055482864
1789058986487083500,5.35108349609375,0.3229421079158783,-0.06314514577388763,0.03489886224269867
1789058986497093400,5.36109326171875,0.34414005279541016,-0.03989148885011673,0.04039003327488899
1789058986507103500,5.371103515625,0.4008025527000427,-0.01443939283490181,0.029573071748018265
1789058986517114600,5.381114501953125,0.43248191475868225,-0.0013227921444922686,0.014991199597716331
1789058986527124700,5.391124755859375,0.466723769903183,0.018328674137592316,0.008429969660937786
1789058986537134600,5.401134521484375,0.49963831901550293,0.007772701792418957,-0.02581268921494484
1789058986547145700,5.411145751953125,0.5434033870697021,0.029455626383423805,0.014852182939648628
1789058986557155600,5.421155517578125,0.6177905201911926,0.020791564136743546,0.06011952832341194
1789058986567165700,5.431165771484375,0.6264564394950867,0.032047681510448456,0.07858216017484665
1789058986577176600,5.441176513671875,0.570094645023346,0.0947299674153328,0.045581866055727005
1789058986587186700,5.451186767578125,0.5333283543586731,0.12278290838003159,0.03232624754309654
1789058986597196500,5.461196533203125,0.5294507741928101,0.11611968278884888,-0.019475163891911507
1789058986607207400,5.47120751953125,0.5262001752853394,0.11369700729846954,0.024456074461340904
1789058986617217500,5.481217529296875,0.5033600926399231,0.07175887376070023,0.0109253516420722
1789058986627227600,5.4912275390625,0.4986249804496765,0.052264269441366196,0.02375885844230652
1789058986637238500,5.501238525390625,0.4527576267719269,0.07171919196844101,0.049738794565200806
1789058986647248400,5.511248291015625,0.3505247235298157,0.0914609432220459,0.040464866906404495
1789058986657258500,5.521258544921875,0.26314428448677063,0.12717047333717346,0.04000307619571686
1789058986667269400,5.531269287109375,0.15326544642448425,0.12342420220375061,0.000716922979336232
1789058986677279500,5.541279541015625,0.1007860004901886,0.1296709030866623,0.04243507608771324
1789058986687289600,5.55128955078125,0.03423839807510376,0.12938116490840912,0.00708640506491065
1789058986697300500,5.561300537109375,0.003166232258081436,0.08817912638187408,-0.04880482330918312
1789058986707310300,5.571310302734375,-0.04375253990292549,0.09728127717971802,0.009210010059177876
1789058986717320400,5.581320556640625,-0.10914619266986847,0.08024504035711288,-0.04358396306633949
1789058986727331600,5.59133154296875,-0.13027198612689972,0.06830529123544693,0.008386027999222279
1789058986737341700,5.601341796875,-0.16200222074985504,0.07388993352651596,0.06479258090257645
1789058986747351300,5.611351318359375,-0.2345443218946457,0.07454480975866318,0.053707435727119446
1789058986757362400,5.621362548828125,-0.3149890899658203,0.12682504951953888,0.04204705357551575
1789058986767372300,5.631372314453125,-0.33453962206840515,0.11615590006113052,-0.005042961798608303
1789058986777382400,5.64138232421875,-0.3207380771636963,0.077762171626091,0.012228436768054962
1789058986787393300,5.651393310546875,-0.2923056185245514,0.05228344351053238,0.01853453554213047
1789058986797403400,5.6614033203125,-0.26706552505493164,0.015110509470105171,0.02052817866206169
1789058986807413200,5.671413330078125,-0.27067649364471436,0.0203313697129488,0.016199743375182152
1789058986817424400,5.68142431640625,-0.3058403432369232,0.03027268499135971,-0.027952538803219795
1789058986827433500,5.69143359375,-0.29180973768234253,0.017247164621949196,-0.029652966186404228
1789058986837443300,5.701443359375,-0.32238444685935974,0.036379843950271606,0.02881487086415291
1789058986847454200,5.7114541015625,-0.3014914095401764,0.013141634874045849,0.05740044265985489
1789058986857464300,5.72146435546875,-0.31987467408180237,0.012204468250274658,-0.03750822693109512
1789058986867474400,5.731474365234375,-0.3187526762485504,0.02749980054795742,-0.050094857811927795
1789058986877485300,5.7414853515625,-0.2671446204185486,-0.003997138235718012,-0.045336320996284485
1789058986887495200,5.7514951171875,-0.21612563729286194,-0.04651637002825737,-0.032349418848752975
1789058986897505300,5.76150537109375,-0.2090994268655777,-0.04388649761676788,0.04301777482032776
1789058986907516200,5.77151611328125,-0.18463163077831268,-0.05837196484208107,0.01091816183179617
1789058986917526300,5.7815263671875,-0.16289225220680237,-0.04057512432336807,0.009647833183407784
1789058986927536000,5.7915361328125,-0.1345234513282776,-0.06436967104673386,0.0046911584213376045
1789058986937547300,5.80154736328125,-0.1254095882177353,-0.06682057678699493,0.01799817569553852
1789058986947557000,5.81155712890625,-0.1640099734067917,-0.036022450774908066,-0.02227015234529972
1789058986957567200,5.821567138671875,-0.13850967586040497,-0.04321937635540962,-0.038473088294267654
1789058986967578000,5.831578125,-0.08823372423648834,-0.04833664000034332,-0.028739236295223236
1789058986977588200,5.841588134765625,-0.049372609704732895,-0.06402771919965744,-0.025546105578541756
1789058986987599400,5.851599365234375,-0.023327426984906197,-0.08164266496896744,0.010278736241161823
1789058986997609200,5.861609130859375,0.008897088468074799,-0.06582748144865036,0.05809126794338226
1789058987007619000,5.871619140625,0.029513416811823845,-0.09385965019464493,0.006429936271160841
1789058987017630500,5.88163037109375,0.042395927011966705,-0.057012952864170074,-0.0005006743012927473
1789058987027640300,5.891640380859375,0.07558583468198776,-0.05801296979188919,-0.0012154667638242245
1789058987037650400,5.901650390625,0.12222311645746231,-0.06550391018390656,0.037399835884571075
1789058987047661300,5.911661376953125,0.1701059490442276,-0.061477743089199066,0.041857168078422546
1789058987057671400,5.92167138671875,0.20260584354400635,-0.06662110239267349,0.04165583476424217
1789058987067681300,5.931681396484375,0.24413277208805084,-0.06676091998815536,0.023082416504621506
1789058987077692200,5.941692138671875,0.26140469312667847,-0.052974801510572433,-0.006674680393189192
1789058987087702300,5.951702392578125,0.3065205216407776,-0.061478808522224426,0.0017571536591276526
1789058987097712400,5.96171240234375,0.3516126275062561,-0.06303942203521729,0.03175526484847069
1789058987107723300,5.97172314453125,0.3496330976486206,-0.03689250349998474,0.05457376316189766
1789058987117733000,5.981733154296875,0.36559662222862244,-0.02564331144094467,0.07281748205423355
1789058987127743200,5.9917431640625,0.4237139821052551,-0.020263725891709328,0.039454199373722076
1789058987137754000,6.001754150390625,0.45105186104774475,-0.028208734467625618,0.010957576334476471
1789058987147764200,6.01176416015625,0.444415807723999,-0.025681927800178528,0.03936871141195297
1789058987157774300,6.0217744140625,0.4638670086860657,-0.020955082029104233,0.015504390932619572
1789058987167785200,6.03178515625,0.48253363370895386,-0.029703300446271896,-0.042100049555301666
1789058987177795000,6.041795166015625,0.5019925236701965,-0.017893780022859573,0.0001525991247035563
1789058987187805200,6.05180517578125,0.5050114989280701,-0.029929136857390404,0.01822454296052456
1789058987197816300,6.06181640625,0.5106214284896851,-0.004350806120783091,0.08155132085084915
1789058987207826400,6.071826416015625,0.47387754917144775,0.01739923097193241,0.04468917474150658
1789058987217836000,6.0818359375,0.46167150139808655,0.04042305797338486,-0.009585781954228878
1789058987227847400,6.091847412109375,0.4757111370563507,0.06660619378089905,-0.07214423269033432
1789058987237857300,6.101857177734375,0.482901930809021,0.030901722609996796,-0.04925995692610741
1789058987247867400,6.111867431640625,0.468778133392334,0.05583769828081131,0.001871136948466301
1789058987257878300,6.121878173828125,0.41762492060661316,0.03009292110800743,0.006968427449464798
1789058987267888400,6.131888427734375,0.3585515022277832,0.02611389197409153,0.07044753432273865
1789058987277898200,6.141898193359375,0.2962934374809265,0.05266107991337776,0.05801083892583847
1789058987287909400,6.151909423828125,0.2363017499446869,0.043000731617212296,0.006718622520565987
1789058987297919200,6.161919189453125,0.19452926516532898,0.059060391038656235,-0.05134547874331474
1789058987307929300,6.171929443359375,0.14643044769763947,0.06949598342180252,-0.04066753387451172
1789058987317940200,6.181940185546875,0.16928116977214813,0.01955745555460453,-0.05817915126681328
1789058987327950300,6.191950439453125,0.1612813025712967,0.025019332766532898,0.02400892972946167
1789058987337960200,6.201960205078125,0.15898431837558746,0.0043678502552211285,-0.01997264288365841
1789058987347971300,6.211971435546875,0.05764785036444664,0.02189730852842331,0.037754833698272705
1789058987357981200,6.221981201171875,-0.013287309557199478,0.08649041503667831,-0.014170413836836815
1789058987367991300,6.2319912109375,-0.04090242460370064,0.09129875153303146,0.010457701049745083
1789058987378002200,6.242002197265625,0.009831325151026249,0.07013887166976929,-0.02172793261706829
1789058987388012300,6.25201220703125,-0.011121626943349838,0.06578327715396881,-0.046420760452747345
1789058987398022100,6.262022216796875,-0.028327511623501778,0.03198909014463425,-0.012923521921038628
1789058987408033300,6.272033203125,-0.05488588660955429,0.021690914407372475,-0.04805833846330643
1789058987418043400,6.28204345703125,-0.11060108244419098,0.015016233548521996,-0.01770203188061714
1789058987428053200,6.29205322265625,-0.17029955983161926,0.023150859400629997,-0.03717479854822159
1789058987438064400,6.302064453125,-0.2529425024986267,0.04556082561612129,0.0057220677845180035
1789058987448074200,6.31207421875,-0.28237125277519226,0.010388459078967571,0.022997461259365082
1789058987458085400,6.32208544921875,-0.31377071142196655,0.02365659363567829,-0.009097890928387642
1789058987468095200,6.33209521484375,-0.3431706726551056,0.00042876892257481813,-0.03470844402909279
1789058987478105300,6.342105224609375,-0.330477774143219,-0.003980360459536314,-0.03147456794977188
1789058987488116200,6.3521162109375,-0.32013219594955444,0.008142881095409393,-0.057546649128198624
1789058987498126300,6.362126220703125,-0.2718171179294586,-0.022723687812685966,-0.0054914383217692375
1789058987508136200,6.37213623046875,-0.20035599172115326,-0.032041024416685104,-0.05344991013407707
1789058987518147300,6.382147216796875,-0.2108973264694214,-0.007648864760994911,-0.026796726509928703
1789058987528157200,6.3921572265625,-0.18598824739456177,0.002130262553691864,-0.005595301277935505
1789058987538167300,6.402167236328125,-0.14470791816711426,0.012838566675782204,-0.01978915184736252
1789058987548178200,6.41217822265625,-0.12104439735412598,0.01793665625154972,-0.060374658554792404
1789058987558188300,6.422188232421875,-0.08118699491024017,0.009841712191700935,-0.0148074422031641
1789058987568198100,6.4321982421875,-0.08667497336864471,0.020429374650120735,-0.029217805713415146
1789058987578209300,6.442209228515625,-0.08179153501987457,-0.0003731088654603809,-0.04862905666232109
1789058987588219100,6.45221923828125,-0.07823408395051956,0.004217115696519613,0.011182080954313278
1789058987598229200,6.462229248046875,-0.07137192040681839,-0.0001155811914941296,0.015745140612125397
1789058987608240400,6.472240478515625,-0.07165421545505524,-0.009015865623950958,0.027064906433224678
1789058987618250500,6.48225048828125,-0.0780189037322998,0.009437443688511848,0.08439424633979797
1789058987628260400,6.49226025390625,-0.09419041126966476,-0.0013590110465884209,0.029214877635240555
1789058987638271200,6.502271240234375,-0.08382166177034378,0.014260428957641125,0.002998719457536936
1789058987648281300,6.51228125,-0.05648138374090195,0.020864535123109818,-0.01805117167532444
1789058987658291500,6.52229150390625,-0.003876230912283063,-0.01816621981561184,-0.027224430814385414
1789058987668302300,6.53230224609375,0.022820627316832542,-0.03971545398235321,-0.05242006480693817
1789058987678312200,6.542312255859375,0.021915152668952942,-0.021507423371076584,-0.0018671422731131315
1789058987688322300,6.552322265625,0.016925986856222153,-0.017291905358433723,-0.024402545765042305
1789058987698333200,6.562333251953125,0.02395673096179962,-0.02142060361802578,-0.040882717818021774
1789058987708343300,6.57234326171875,0.041722945868968964,-0.018489528447389603,0.10714642703533173
1789058987718353200,6.582353271484375,0.05284270644187927,-0.03358938544988632,0.07618264853954315
1789058987728364300,6.5923642578125,0.04320046678185463,-0.05663558095693588,-0.0055817193351686
1789058987738374100,6.6023740234375,0.07517784088850021,-0.028961610049009323,0.010853180661797523
1789058987748384500,6.612384521484375,0.10515784472227097,-0.018206167966127396,-0.011088870465755463
1789058987758395400,6.6223955078125,0.1799101084470749,-0.018193118274211884,0.02231915481388569
1789058987768405500,6.632405517578125,0.21105578541755676,-0.01164307352155447,0.042272623628377914
1789058987778415400,6.642415283203125,0.23718805611133575,-0.002654372714459896,0.00395612558349967
1789058987788426500,6.652426513671875,0.3143227696418762,-0.01085637602955103,-0.026872094720602036
1789058987798436400,6.662436279296875,0.36492496728897095,-0.0002537992550060153,0.003695402294397354
1789058987808446500,6.672446533203125,0.3865426480770111,-0.0023941819090396166,-0.007448328658938408
1789058987818457300,6.682457275390625,0.38888463377952576,0.043350402265787125,0.05553143471479416
1789058987828467500,6.692467529296875,0.38095641136169434,0.06371985375881195,0.05500546097755432
1789058987838477300,6.702477294921875,0.44940418004989624,0.03518674895167351,0.008953015320003033
1789058987848488400,6.712488525390625,0.48281165957450867,0.02665744349360466,0.00615270109847188
1789058987858498300,6.722498291015625,0.46687984466552734,0.03259709104895592,-0.004605404566973448
1789058987868508400,6.73250830078125,0.43132129311561584,0.05278731510043144,0.05995095148682594
1789058987878519300,6.742519287109375,0.422820508480072,0.06565704196691513,0.038788940757513046
1789058987888529400,6.752529296875,0.39890769124031067,0.08669015020132065,-0.012850550934672356
1789058987898539300,6.762539306640625,0.3694595396518707,0.09513930231332779,0.0029800771735608578
1789058987908550400,6.77255029296875,0.34188491106033325,0.10526064038276672,0.027106452733278275
1789058987918560300,6.782560302734375,0.3288668394088745,0.09026544541120529,-0.03472016379237175
1789058987928571400,6.7925712890625,0.326181560754776,0.08280939608812332,0.018309498205780983
1789058987938581500,6.80258154296875,0.3436548411846161,0.06386366486549377,0.06361040472984314
1789058987948591400,6.81259130859375,0.31356751918792725,0.03886404260993004,0.013537646271288395
1789058987958602500,6.8226025390625,0.21760955452919006,0.08657138049602509,0.037338051944971085
1789058987968612400,6.8326123046875,0.14438886940479279,0.10018732398748398,0.034807249903678894
1789058987978622500,6.84262255859375,0.1348899006843567,0.060320597141981125,-0.058689944446086884
1789058987988633300,6.85263330078125,0.08260805904865265,0.09406337887048721,0.016229037195444107
1789058987998643500,6.8626435546875,0.07064993679523468,0.043772246688604355,-0.008243015967309475
1789058988008653300,6.8726533203125,0.031020233407616615,0.06891168653964996,0.015173093415796757
1789058988018664400,6.88266455078125,-0.02028370089828968,0.05993231013417244,0.026791667565703392
1789058988028674300,6.89267431640625,-0.02160010114312172,0.047686830163002014,-0.013834855519235134
1789058988038684400,6.902684326171875,-0.06755294650793076,0.058152250945568085,0.00040666470886208117
1789058988048695300,6.9126953125,-0.09609377384185791,0.03888534754514694,0.0005824333056807518
1789058988058705400,6.922705322265625,-0.147494375705719,0.040110934525728226,0.004579837899655104
1789058988068715300,6.93271533203125,-0.15639999508857727,0.022394254803657532,0.05387228727340698
1789058988078726400,6.942726318359375,-0.18213757872581482,0.012485431507229805,-0.06885496526956558
1789058988088736300,6.952736328125,-0.2780694365501404,0.054915446788072586,-0.05320250242948532
1789058988098746400,6.962746337890625,-0.30977383255958557,0.042509377002716064,-0.028427911922335625
1789058988108757500,6.972757568359375,-0.2716938257217407,0.012001534923911095,-0.03549168258905411
1789058988118767600,6.982767578125,-0.2539832890033722,-0.021045364439487457,0.029516080394387245
1789058988128777200,6.992777099609375,-0.22889550030231476,-0.018446652218699455,0.04778243601322174
1789058988138788400,7.002788330078125,-0.25944435596466064,-0.026877420023083687,-0.0690981075167656
1789058988148798500,7.012798583984375,-0.3066139817237854,-0.007640875410288572,-0.05263817682862282
1789058988158808600,7.02280859375,-0.2661813497543335,-0.019817646592855453,-0.039557527750730515
1789058988168819500,7.0328193359375,-0.229811891913414,-0.04556721821427345,-0.002754773711785674
1789058988178829300,7.042829345703125,-0.2130078822374344,-0.04846127703785896,0.0182876605540514
1789058988188839400,7.05283935546875,-0.1957487314939499,-0.04640478268265724,0.028476648032665253
1789058988198850300,7.062850341796875,-0.16727900505065918,-0.04345133528113365,-0.022999325767159462
1789058988208860400,7.0728603515625,-0.14247086644172668,-0.020301276817917824,-0.014725948683917522
1789058988218870500,7.08287060546875,-0.10081396251916885,-0.012986904941499233,-0.03008945845067501
1789058988228881400,7.09288134765625,-0.058218833059072495,-0.025059014558792114,-0.021349497139453888
1789058988238891300,7.102891357421875,-0.004709800239652395,-0.038715969771146774,-0.0016466324450448155
1789058988248901400,7.1129013671875,0.06795427948236465,-0.04644845798611641,0.013689979910850525
1789058988258912300,7.122912353515625,0.09592998772859573,-0.04897979274392128,-0.032818399369716644
1789058988268922400,7.13292236328125,0.10657358169555664,-0.012496350333094597,-0.004086886998265982
1789058988278932200,7.14293212890625,0.14054858684539795,0.006143646314740181,0.019747072830796242
1789058988288943400,7.152943359375,0.17658674716949463,-0.007860852405428886,0.008823585696518421
1789058988298953200,7.162953125,0.22252947092056274,0.004040281753987074,-0.006087187211960554
1789058988308963300,7.17296337890625,0.2630055248737335,0.018326010555028915,0.035534024238586426
1789058988318974500,7.182974365234375,0.3158580958843231,-0.009512278251349926,-0.0007853662245906889
1789058988328984600,7.192984619140625,0.344368040561676,0.010300042107701302,-0.008797219954431057
1789058988338994200,7.202994140625,0.36162611842155457,-0.0015110776294022799,-0.003710316028445959
1789058988349005600,7.213005615234375,0.4031551778316498,-0.0007542071980424225,-0.014785603620111942
1789058988359015400,7.223015380859375,0.4041410982608795,0.010296313092112541,0.002240251051262021
1789058988369025500,7.233025634765625,0.39476755261421204,0.01770016737282276,0.014637532643973827
1789058988379036400,7.243036376953125,0.38511520624160767,0.006876281928271055,0.004991562571376562
1789058988389046500,7.253046630859375,0.38939541578292847,0.00026844663079828024,-0.004571848548948765
1789058988399057400,7.263057373046875,0.3722188472747803,0.002213353058323264,0.021409684792160988
1789058988409067500,7.273067626953125,0.3280481696128845,0.023312779143452644,0.004990231245756149
1789058988419077400,7.283077392578125,0.3068925738334656,0.01859365776181221,0.001047421246767044
1789058988429088300,7.293088134765625,0.28641337156295776,0.039085615426301956,0.02466646395623684
1789058988439098400,7.303098388671875,0.25311508774757385,0.032272983342409134,-0.02580949291586876
1789058988449108500,7.3131083984375,0.24407577514648438,0.036189962178468704,-0.0003656520275399089
1789058988459119400,7.323119384765625,0.26277491450309753,0.020246682688593864,0.007496265694499016
1789058988469129200,7.333129150390625,0.27256494760513306,-0.009378854185342789,-0.05566246435046196
1789058988479139300,7.343139404296875,0.26343217492103577,0.0037238982040435076,0.016872189939022064
1789058988489150200,7.353150146484375,0.2512146532535553,-0.019352659583091736,0.026371952146291733
1789058988499160300,7.363160400390625,0.23700322210788727,0.00035606464371085167,0.027874242514371872
1789058988509170200,7.373170166015625,0.22398889064788818,0.006679474376142025,0.0619717575609684
1789058988519181600,7.383181640625,0.20685064792633057,0.014674283564090729,0.09601894021034241
1789058988529191400,7.39319140625,0.2097630798816681,0.024713868275284767,0.07216527312994003
1789058988539201500,7.403201416015625,0.23757927119731903,0.0027289411518722773,0.015912653878331184
1789058988549212400,7.41321240234375,0.24485954642295837,0.015903066843748093,0.0224459208548069
1789058988559222500,7.423222412109375,0.2548791766166687,0.01375283021479845,0.007742075715214014
1789058988569232400,7.433232421875,0.2922545075416565,0.00019893812714144588,0.030242590233683586
1789058988579243500,7.443243408203125,0.30155664682388306,0.010964767076075077,0.009711217135190964
1789058988589253400,7.45325341796875,0.28053686022758484,0.03609595075249672,0.026268888264894485
1789058988599263500,7.463263427734375,0.28496915102005005,0.05426457151770592,-0.000278300343779847
1789058988609274400,7.4732744140625,0.29857897758483887,0.06023724004626274,0.03515878692269325
1789058988619284500,7.483284423828125,0.3383016288280487,0.02532959170639515,-0.01050324086099863
1789058988629294300,7.49329443359375,0.32750648260116577,0.025187112390995026,-0.0160071961581707
1789058988639305500,7.503305419921875,0.3047596216201782,0.029139775782823563,0.0057409764267504215
1789058988649315300,7.5133154296875,0.26289206743240356,0.030905185267329216,-0.011383947916328907
1789058988659325400,7.523325439453125,0.19579081237316132,0.040893904864788055,0.033067673444747925
1789058988669336300,7.53333642578125,0.14021728932857513,0.026453977450728416,0.017499631270766258
1789058988679346400,7.543346435546875,0.07058681547641754,0.0286492221057415,0.028927521780133247
1789058988689356300,7.553356201171875,0.01649135909974575,0.02610963024199009,0.02430294267833233
1789058988699367200,7.5633671875,0.0011353056179359555,0.0067575047723948956,-0.005780923645943403
1789058988709377300,7.573377197265625,-0.04268408194184303,0.019339876249432564,-0.004994492046535015
1789058988719387400,7.583387451171875,-0.056414272636175156,0.0013291836949065328,0.04003529995679855
1789058988729398500,7.5933984375,-0.07704658061265945,0.01155492290854454,0.05970434099435806
1789058988739408400,7.603408447265625,-0.09806931018829346,0.01528627797961235,0.06825335323810577
1789058988749418500,7.61341845703125,-0.09109395742416382,0.024636104702949524,0.059895824640989304
1789058988759429400,7.623429443359375,-0.09738487750291824,0.05548642948269844,-0.005357481073588133
1789058988769439500,7.633439453125,-0.07528650015592575,0.03994342312216759,-0.03918628394603729
1789058988779449300,7.643449462890625,-0.012348544783890247,0.02491653524339199,-0.05945799872279167
1789058988789460500,7.65346044921875,0.0252212006598711,-0.0014559502014890313,0.0008721852791495621
1789058988799470300,7.66347021484375,0.07578104734420776,-0.03720356151461601,0.017964087426662445
1789058988809480400,7.67348046875,0.0705772340297699,-0.01008086372166872,0.04796299710869789
1789058988819491600,7.68349169921875,0.05901271849870682,0.0032053806353360415,0.030897729098796844
1789058988829501400,7.69350146484375,0.07629530131816864,0.022942068055272102,-0.010630273260176182
1789058988839512600,7.7035126953125,0.13106773793697357,0.03231612965464592,-0.003856523660942912
1789058988849522700,7.713522705078125,0.22825580835342407,0.0031521173659712076,-0.0172042865306139
1789058988859532500,7.723532470703125,0.3295544683933258,-0.03203490003943443,0.08000615239143372
1789058988869543700,7.733543701171875,0.4174206554889679,-0.05023893713951111,0.18645110726356506
1789058988879553500,7.743553466796875,0.45199301838874817,-0.04556429013609886,0.23866930603981018
1789058988889563600,7.753563720703125,0.45493263006210327,0.029233785346150398,0.21176284551620483
1789058988899574500,7.763574462890625,0.5199859142303467,0.07488568872213364,0.16916106641292572
1789058988909584600,7.773584716796875,0.6022408604621887,0.13700231909751892,0.12524554133415222
1789058988919594500,7.783594482421875,0.7326212525367737,0.1461164653301239,0.06296325474977493
1789058988929605400,7.79360546875,0.88069087266922,0.1619148701429367,0.08131376653909683
1789058988939615500,7.803615478515625,1.0015273094177246,0.16087383031845093,0.08251538127660751
1789058988949625600,7.81362548828125,1.067999005317688,0.17033524811267853,0.07990255206823349
1789058988959636500,7.823636474609375,1.102898120880127,0.21073700487613678,0.15443697571754456
1789058988969646300,7.833646240234375,1.0876126289367676,0.2507874667644501,0.10755947977304459
1789058988979656400,7.843656494140625,1.0438315868377686,0.30533620715141296,0.11215796321630478
1789058988989667300,7.853667236328125,1.0548597574234009,0.31959477066993713,0.12080471217632294
1789058988999677400,7.863677490234375,1.062259316444397,0.3101924955844879,0.13161581754684448
1789058989009687300,7.873687255859375,1.037083387374878,0.30737167596817017,0.11501127481460571
1789058989019698700,7.88369873046875,0.9612751603126526,0.3218052089214325,0.13650964200496674
1789058989029708500,7.89370849609375,0.9022760391235352,0.30798712372779846,0.14571432769298553
1789058989039718400,7.903718505859375,0.775333821773529,0.31432676315307617,0.13408324122428894
1789058989049729500,7.9137294921875,0.664152979850769,0.26802852749824524,0.1300474852323532
1789058989059739600,7.92373974609375,0.48615366220474243,0.2655933201313019,0.13599617779254913
1789058989069749500,7.93374951171875,0.27392449975013733,0.2628862261772156,0.07659570872783661
1789058989079760600,7.9437607421875,0.08018139004707336,0.2654460668563843,0.07730916887521744
1789058989089770500,7.9537705078125,-0.05883162468671799,0.2580952048301697,0.06677423417568207
1789058989099780600,7.963780517578125,-0.17949572205543518,0.22975969314575195,0.07605535537004471
1789058989109791500,7.97379150390625,-0.2287474274635315,0.17177948355674744,0.08937036246061325
1789058989119801600,7.983801513671875,-0.2960055470466614,0.15365268290042877,0.14472389221191406
1789058989129811500,7.9938115234375,-0.358682781457901,0.1624229997396469,0.14086124300956726
1789058989139822600,8.003822509765625,-0.4147343337535858,0.1672385185956955,0.09632200747728348
1789058989149832400,8.01383251953125,-0.46937814354896545,0.1745406538248062,0.1023242399096489
1789058989159842600,8.023842529296875,-0.4810859262943268,0.1745435744524002,0.048535577952861786
1789058989169853400,8.033853515625,-0.49873071908950806,0.13861699402332306,0.012105931527912617
1789058989179863600,8.043863525390625,-0.5371627807617188,0.12498534470796585,0.056771136820316315
1789058989189873400,8.053873291015625,-0.5416267514228821,0.095516137778759,0.008298942819237709
1789058989199884300,8.06388427734375,-0.5977219939231873,0.08508959412574768,0.010859837755560875
1789058989209894400,8.073894287109376,-0.6763204336166382,0.09731483459472656,0.0814884677529335
1789058989219904500,8.083904541015626,-0.6926926970481873,0.09047583490610123,0.0362115353345871
1789058989229915600,8.09391552734375,-0.7452022433280945,0.06635238975286484,0.08565178513526917
1789058989239925500,8.103925537109374,-0.7749345898628235,0.048715341836214066,0.11109562963247299
1789058989249935400,8.113935302734374,-0.7848879098892212,0.023184947669506073,0.11106979846954346
1789058989259946500,8.123946533203124,-0.8057646751403809,0.037345774471759796,0.0901794284582138
1789058989269956600,8.13395654296875,-0.7976186275482178,0.010272078216075897,-0.04394135996699333
1789058989279967500,8.143967529296875,-0.7851169109344482,0.00404614070430398,-0.09684904664754868
1789058989289977600,8.1539775390625,-0.7990500330924988,0.013124058023095131,-0.08084478229284286
1789058989299987500,8.163987548828125,-0.7548679709434509,-0.00765845226123929,-0.1405685693025589
1789058989309998600,8.17399853515625,-0.74486243724823,-0.0057444386184215546,-0.10144699364900589
1789058989320008400,8.184008544921875,-0.6979700326919556,-0.025896046310663223,-0.08633435517549515
1789058989330018600,8.1940185546875,-0.6387666463851929,-0.02153991349041462,-0.07629822939634323
1789058989340029400,8.204029541015625,-0.6132144331932068,0.011592740193009377,-0.05265309289097786
1789058989350039600,8.21403955078125,-0.5204716920852661,0.008529838174581528,-0.07099108397960663
1789058989360049400,8.22404931640625,-0.4031780958175659,0.01942775957286358,-0.039935432374477386
1789058989370060500,8.234060546875,-0.3017483949661255,0.03177204355597496,-0.05307253822684288
1789058989380070400,8.2440703125,-0.1758703589439392,0.010970892384648323,-0.0685684084892273
1789058989390080500,8.25408056640625,-0.037334587424993515,0.0011867046123370528,-0.04302123561501503
1789058989400091400,8.26409130859375,0.08522594720125198,-0.01197037659585476,-0.04217062145471573
1789058989410101500,8.2741015625,0.15643355250358582,-0.012345083057880402,-0.046100914478302
1789058989420111400,8.284111328125,0.17206896841526031,0.0246113371104002,-0.0017800568602979183
1789058989430122500,8.29412255859375,0.21066643297672272,0.021351095288991928,-0.004485029727220535
1789058989440132600,8.304132568359375,0.26030775904655457,0.014024472795426846,-0.004577707499265671
1789058989450142700,8.314142822265625,0.3163076341152191,-0.004760933108627796,0.01037514302879572
1789058989460153600,8.324153564453125,0.34458908438682556,0.0024807346053421497,0.030660174787044525
1789058989470163500,8.33416357421875,0.36238378286361694,-0.01576405018568039,0.011116833426058292
1789058989480173600,8.344173583984375,0.37174347043037415,-0.024501614272594452,0.024473650380969048
1789058989490184400,8.354184326171875,0.37078607082366943,-0.03644828870892525,0.06642243266105652
1789058989500194600,8.364194580078125,0.34382209181785583,-0.03605067729949951,0.07917711138725281
1789058989510204700,8.37420458984375,0.28667837381362915,-0.032156337052583694,0.023540746420621872
1789058989520215600,8.384215576171876,0.21653470396995544,-0.018681276589632034,0.009023589082062244
1789058989530225400,8.394225341796876,0.17157602310180664,-0.05760737136006355,0.012722186744213104
1789058989540235500,8.404235595703126,0.1316288709640503,-0.06592602282762527,-0.019703131169080734
1789058989550246400,8.414246337890624,0.05741482228040695,-0.06164126098155975,0.00030892668291926384
1789058989560256500,8.424256591796874,0.0183531753718853,-0.0887242779135704,0.049375537782907486
1789058989570266400,8.434266357421874,0.0034053840208798647,-0.09042204171419144,-0.0016982977977022529
1789058989580277500,8.444277587890625,-0.004489823244512081,-0.1094503253698349,-0.028567729517817497
1789058989590287400,8.454287353515625,-0.019279688596725464,-0.07606760412454605,0.01679655723273754
1789058989600297500,8.46429736328125,-0.011154649779200554,-0.08802173286676407,-0.05541052669286728
1789058989610308400,8.474308349609375,0.025599636137485504,-0.08627763390541077,-0.05741695314645767
1789058989620318500,8.484318359375,0.10095883905887604,-0.09292355179786682,-0.026378611102700233
1789058989630328300,8.494328369140625,0.1642906665802002,-0.1186203882098198,-0.006009689066559076
1789058989640339700,8.504339599609375,0.18946819007396698,-0.10616984218358994,0.004233094397932291
1789058989650349600,8.514349609375,0.18431977927684784,-0.06950024515390396,0.042513638734817505
1789058989660360400,8.5243603515625,0.17286525666713715,-0.015725167468190193,0.033117473125457764
1789058989670370600,8.53437060546875,0.17426687479019165,0.011696869507431984,-0.005671733990311623
1789058989680380700,8.544380615234376,0.2292100191116333,0.01332858856767416,-0.017721472308039665
1789058989690391600,8.5543916015625,0.2414693534374237,0.025472071021795273,-0.04283374920487404
1789058989700401700,8.564401611328124,0.2925146818161011,0.027345869690179825,-0.014400511048734188
1789058989710411500,8.57441162109375,0.3732883632183075,-0.00112438655924052,-0.03250148519873619
1789058989720422400,8.58442236328125,0.41642650961875916,0.015900136902928352,-0.010512827895581722
1789058989730432500,8.5944326171875,0.4470411539077759,0.026068352162837982,-0.0034352114889770746
1789058989740442600,8.604442626953125,0.4809668958187103,0.03839213028550148,0.0360858328640461
1789058989750453500,8.61445361328125,0.49573543667793274,0.06838704645633698,0.049861032515764236
1789058989760463400,8.62446337890625,0.5158588290214539,0.08461502194404602,0.021455224603414536
1789058989770473500,8.634473388671875,0.5296289920806885,0.11379367858171463,0.00980282947421074
1789058989780484400,8.644484375,0.5412794947624207,0.1276666224002838,0.006706106010824442
1789058989790494500,8.654494384765625,0.5792404413223267,0.1095733642578125,0.03371455520391464
1789058989800504300,8.66450439453125,0.589003324508667,0.11220243573188782,0.022000640630722046
1789058989810515500,8.674515380859376,0.549399197101593,0.12957903742790222,0.015350992791354656
1789058989820525300,8.684525390625,0.5188277363777161,0.12746527791023254,-0.020611802116036415
1789058989830535400,8.694535400390626,0.47592979669570923,0.13287203013896942,0.0015446334145963192
1789058989840546300,8.70454638671875,0.41851016879081726,0.12833081185817719,0.027003388851881027
1789058989850556400,8.714556396484374,0.3481137752532959,0.121883824467659,0.009316536597907543
1789058989860566300,8.724566162109374,0.25595560669898987,0.12684422731399536,0.0034344124142080545
1789058989870577400,8.734577392578124,0.14525200426578522,0.1409858763217926,0.01059085875749588
1789058989880587300,8.744587158203124,0.032653551548719406,0.15627269446849823,-0.01859046146273613
1789058989890597400,8.754597412109375,-0.0797925665974617,0.15225131809711456,-0.013493438251316547
1789058989900608500,8.7646083984375,-0.1412396878004074,0.14155499637126923,-0.011980762705206871
1789058989910618400,8.774618408203125,-0.15616562962532043,0.09282874315977097,0.0013462279457598925
1789058989920628200,8.784628173828125,-0.1987924575805664,0.07947245240211487,0.004985703621059656
1789058989930639600,8.7946396484375,-0.2624686360359192,0.08194040507078171,-0.014786136336624622
1789058989940649500,8.8046494140625,-0.3307211995124817,0.09875533729791641,-0.026381805539131165
1789058989950659600,8.81465966796875,-0.4100983142852783,0.13487951457500458,-0.030041787773370743
1789058989960670500,8.82467041015625,-0.4653834104537964,0.1464858502149582,-0.04039296135306358
1789058989970680600,8.8346806640625,-0.4789934754371643,0.14017228782176971,-0.04704633727669716
1789058989980690400,8.8446904296875,-0.48980405926704407,0.11879349499940872,-0.05476018413901329
1789058989990701300,8.854701416015626,-0.4969293475151062,0.09116506576538086,-0.04867832362651825
1789058990000711400,8.86471142578125,-0.5089908242225647,0.07152318209409714,-0.051176633685827255
1789058990010721500,8.874721435546874,-0.5305480360984802,0.04139085114002228,-0.06860702484846115
1789058990020732400,8.884732421875,-0.5928627848625183,0.07645482569932938,-0.02538232132792473
1789058990030742500,8.894742431640625,-0.6519711017608643,0.07178977131843567,-0.043478768318891525
1789058990040752400,8.90475244140625,-0.6897501945495605,0.08659587800502777,0.007730890065431595
1789058990050763300,8.91476318359375,-0.7231936454772949,0.06676890701055527,0.01914067193865776
1789058990060773400,8.9247734375,-0.714523196220398,0.015674034133553505,-0.01768338866531849
1789058990070784300,8.9347841796875,-0.7089734077453613,-0.009438509121537209,-0.015370434150099754
1789058990080794400,8.94479443359375,-0.7235978841781616,-0.04000973328948021,-0.029693979769945145
1789058990090804200,8.95480419921875,-0.723116397857666,-0.053632866591215134,0.034262366592884064
1789058990100815600,8.964815673828125,-0.7501911520957947,-0.044317129999399185,0.02056705951690674
1789058990110825500,8.974825439453125,-0.7618299722671509,-0.06645705550909042,-0.007158576976507902
1789058990120835600,8.984835693359376,-0.7441489696502686,-0.06709781289100647,0.021861888468265533
1789058990130846500,8.994846435546876,-0.7561116218566895,-0.05620308592915535,0.004098871257156134
1789058990140856600,9.004856689453124,-0.7128163576126099,-0.08766353875398636,-0.07024753093719482
1789058990150866400,9.014866455078124,-0.6610005497932434,-0.08576603978872299,-0.049488190561532974
1789058990160877600,9.024877685546874,-0.6298112273216248,-0.0927877277135849,-0.018218951299786568
1789058990170887400,9.034887451171874,-0.5829358696937561,-0.1134549230337143,-0.04054742678999901
1789058990180897500,9.0448974609375,-0.554324209690094,-0.09912259131669998,-0.012212458066642284
1789058990190908400,9.054908447265625,-0.5243005156517029,-0.08397239446640015,0.016412261873483658
1789058990200918500,9.06491845703125,-0.47264158725738525,-0.10049225389957428,0.03253716975450516
1789058990210928400,9.074928466796875,-0.43611180782318115,-0.10730461776256561,0.02406432293355465
1789058990220939500,9.084939453125,-0.37844717502593994,-0.12213363498449326,0.008134359493851662
1789058990230949400,9.094949462890625,-0.3270798623561859,-0.12123055756092072,-0.019888753071427345
1789058990240959500,9.10495947265625,-0.2821581959724426,-0.14474360644817352,-0.048703890293836594
1789058990250970400,9.114970458984375,-0.22041839361190796,-0.12251605838537216,-0.026068618521094322
1789058990260980500,9.12498046875,-0.19129832088947296,-0.11058217287063599,-0.014290256425738335
1789058990270990300,9.134990234375,-0.13228853046894073,-0.11328448355197906,-0.01853267103433609
1789058990281001200,9.145001220703126,-0.08675726503133774,-0.08582888543605804,0.0011779161868616939
1789058990291011300,9.15501123046875,-0.007666974328458309,-0.0719466283917427,0.036549489945173264
1789058990301021400,9.165021484375,0.06806880235671997,-0.10788119584321976,0.021506890654563904
1789058990311032600,9.175032470703124,0.14361655712127686,-0.101596400141716,0.02756398357450962
1789058990321042400,9.18504248046875,0.19813838601112366,-0.10511922836303711,0.03657984733581543
1789058990331052500,9.195052490234374,0.2317216396331787,-0.11261176317930222,-0.03452468663454056
1789058990341063400,9.2050634765625,0.2590605914592743,-0.07183850556612015,-0.018972892314195633
1789058990351073500,9.215073486328125,0.3140157163143158,-0.06157814338803291,0.0114001939073205
1789058990361083400,9.22508349609375,0.36187830567359924,-0.059604208916425705,-0.022823290899395943
1789058990371094500,9.235094482421875,0.4369909167289734,-0.03700435534119606,-0.029389847069978714
1789058990381104400,9.2451044921875,0.5089386105537415,-0.030847927555441856,-0.027244403958320618
1789058990391114500,9.255114501953125,0.5823230743408203,-0.02202833630144596,-0.020779313519597054
1789058990401125400,9.26512548828125,0.6429080963134766,-0.01968049444258213,0.00768801337108016
1789058990411135500,9.275135498046875,0.6903049349784851,-0.016979781910777092,0.06317843496799469
1789058990421145300,9.285145263671875,0.6821562051773071,-0.013196229003369808,0.02292076125741005
1789058990431156500,9.295156494140626,0.6450738310813904,-0.0015651397407054901,0.037818484008312225
1789058990441166300,9.305166259765626,0.5564443469047546,0.014400511048734188,0.013716611079871655
1789058990451177500,9.315177490234374,0.4816036522388458,0.03537397086620331,0.004846420604735613
1789058990461187300,9.325187255859374,0.42384660243988037,0.025657160207629204,0.023811323568224907
1789058990471197400,9.335197509765624,0.3545879125595093,0.022838469594717026,0.02923831343650818
1789058990481209600,9.345209716796875,0.26896142959594727,0.00996261928230524,-0.01786954514682293
1789058990491219500,9.355219482421875,0.20885947346687317,-0.012324310839176178,0.007010505069047213
1789058990501229600,9.3652294921875,0.11123064905405045,0.00971361342817545,0.0405128039419651
1789058990511240400,9.375240478515625,0.011917912401258945,0.00475560687482357,-0.003825897118076682
1789058990521250600,9.38525048828125,-0.0783587172627449,0.009211075492203236,-0.015095063485205173
1789058990531260400,9.395260498046875,-0.1600208282470703,-0.03652925044298172,0.012030297890305519
1789058990541271600,9.405271484375,-0.22593432664871216,-0.05738579481840134,0.045988529920578
1789058990551281400,9.415281494140626,-0.3163238763809204,-0.07578583806753159,0.022846726700663567
1789058990561291500,9.42529150390625,-0.4495687484741211,-0.0746404156088829,-0.0004993426846340299
1789058990571302400,9.435302490234376,-0.5848381519317627,-0.03795483708381653,-0.005545766558498144
1789058990581312500,9.4453125,-0.6621590256690979,-0.024571122601628304,-0.003977430984377861
1789058990591322400,9.455322265625,-0.7024502754211426,-0.010381268337368965,-0.04278181865811348
1789058990601333500,9.46533349609375,-0.6907696723937988,-0.04436080530285835,-0.07815711945295334
1789058990611343400,9.47534326171875,-0.63092041015625,-0.09183138608932495,-0.06105935946106911
1789058990621353500,9.485353515625,-0.5705729126930237,-0.1201450526714325,-0.008780175819993019
1789058990631364400,9.4953642578125,-0.5700786709785461,-0.11981188505887985,0.013372530229389668
1789058990641374500,9.50537451171875,-0.566207766532898,-0.09699339419603348,0.03731248527765274
1789058990651384300,9.51538427734375,-0.5635019540786743,-0.07617439329624176,0.01612277701497078
1789058990661395200,9.525395263671875,-0.520328164100647,-0.05847662687301636,0.03942650184035301
1789058990671405300,9.5354052734375,-0.4067312777042389,-0.0794607400894165,0.01913268119096756
1789058990681415400,9.54541552734375,-0.277873158454895,-0.0940157100558281,0.03003273345530033
1789058990691426600,9.555426513671875,-0.15183240175247192,-0.10227763652801514,0.0052261874079704285
1789058990701436400,9.5654365234375,-0.038956720381975174,-0.08284082263708115,0.02383502572774887
1789058990711446500,9.575446533203126,0.054911985993385315,-0.07649264484643936,-0.01996971294283867
1789058990721457400,9.58545751953125,0.15187901258468628,-0.06734122335910797,0.00506985979154706
1789058990731467500,9.595467529296876,0.22649891674518585,-0.07109308242797852,0.0020591560751199722
1789058990741477400,9.605477294921876,0.2937168478965759,-0.08245013654232025,-0.038838475942611694
1789058990751488500,9.615488525390624,0.37183189392089844,-0.10359244048595428,-0.013878265395760536
1789058990761498400,9.625498291015624,0.4067368805408478,-0.10997310280799866,0.019642144441604614
1789058990771508500,9.635508544921874,0.4486275911331177,-0.1056944727897644,0.06006120517849922
1789058990781519400,9.645519287109375,0.4861328899860382,-0.11449834704399109,0.07467743009328842
1789058990791529500,9.655529541015625,0.5083476305007935,-0.09819767624139786,0.02467605099081993
1789058990801539300,9.665539306640625,0.5812013745307922,-0.07617652416229248,0.03850478306412697
1789058990811550700,9.67555078125,0.6539567708969116,-0.04397784546017647,0.05198517069220543
1789058990821559600,9.6855595703125,0.7373291850090027,-0.0376104936003685,0.03389405086636543
1789058990831569400,9.6955693359375,0.8458737730979919,-0.03244688734412193,0.0001680454588495195
1789058990841579500,9.70557958984375,0.9691557288169861,-0.025312546640634537,0.03648317605257034
1789058990851590400,9.71559033203125,1.024228811264038,-0.012908341363072395,0.04183746129274368
1789058990861600500,9.7256005859375,1.066221833229065,0.01447081845253706,0.05704278126358986
1789058990871610400,9.7356103515625,1.1036696434020996,0.03395823389291763,0.02652748115360737
1789058990881621500,9.74562158203125,1.1249605417251587,0.05997758358716965,0.028371986001729965
1789058990891631600,9.755631591796876,1.1174874305725098,0.0817534551024437,0.03604482114315033
1789058990901641700,9.765641845703126,1.127467393875122,0.0911267101764679,0.04345426708459854
1789058990911652600,9.775652587890624,1.1484647989273071,0.09580961614847183,0.013411146588623524
1789058990921662500,9.785662353515624,1.127271056175232,0.1159825325012207,0.01991884782910347
1789058990931672600,9.795672607421874,1.0658681392669678,0.1496451497077942,0.05709844082593918
1789058990941683500,9.805683349609374,0.9984648823738098,0.15967221558094025,0.061696652323007584
1789058990951693600,9.815693603515625,0.9128647446632385,0.1600690335035324,0.025647306814789772
1789058990961703400,9.825703369140625,0.8529159426689148,0.15055648982524872,0.05445791408419609
1789058990971714600,9.835714599609375,0.7641059160232544,0.12048540264368057,0.06523146480321884
1789058990981724400,9.845724365234375,0.6287086606025696,0.10415703058242798,0.07458662241697311
1789058990991735600,9.855735595703125,0.47030359506607056,0.12285854667425156,0.07696934789419174
1789058991001745400,9.865745361328125,0.31709274649620056,0.13559004664421082,0.08359236270189285
1789058991011755500,9.875755615234375,0.1597696840763092,0.146873340010643,0.06348656117916107
1789058991021766400,9.885766357421875,0.019819511100649834,0.130922332406044,0.04995371028780937
1789058991031776500,9.895776611328126,-0.03687173128128052,0.07774672657251358,0.01823466457426548
1789058991041786400,9.905786376953126,-0.11327435821294785,0.054915979504585266,0.034319356083869934
1789058991051797500,9.915797607421876,-0.21946097910404205,0.07349046319723129,0.04404708743095398
1789058991061807400,9.925807373046876,-0.33016857504844666,0.10064511746168137,0.06707783788442612
1789058991071817500,9.9358173828125,-0.41263577342033386,0.1281161606311798,0.06902167946100235
1789058991081828600,9.94582861328125,-0.4579044580459595,0.12232644110918045,0.04035621136426926
1789058991091838700,9.955838623046875,-0.4859941303730011,0.12068993598222733,0.011600197292864323
1789058991101848600,9.9658486328125,-0.5134209394454956,0.08351913094520569,0.020310863852500916
1789058991111859500,9.975859375,-0.5305157899856567,0.05180274322628975,0.05684890225529671
1789058991121869600,9.98586962890625,-0.5980677008628845,0.05347973480820656,0.00643765926361084
1789058991131879700,9.995879638671875,-0.6495380401611328,0.04698694869875908,0.04134424403309822
1789058991141890600,10.005890625,-0.6772887110710144,0.060322463512420654,0.03916710987687111
1789058991151900400,10.015900390625,-0.7329328060150146,0.05096997320652008,-0.0366046167910099
1789058991161910500,10.02591064453125,-0.725124716758728,0.04701012000441551,0.021157748997211456
1789058991171921400,10.03592138671875,-0.7212538123130798,0.05212711542844772,-0.0022682142443954945
1789058991181931500,10.045931640625,-0.6833658218383789,0.03912316635251045,-0.01034611463546753
1789058991191941400,10.05594140625,-0.647343635559082,0.004986236337572336,-0.024508539587259293
1789058991201952500,10.065952392578126,-0.6370853781700134,0.017162475734949112,0.01998382806777954
1789058991211962400,10.07596240234375,-0.6138945817947388,0.005064267199486494,0.035834964364767075
1789058991221972500,10.085972412109374,-0.5877071619033813,-0.010814830660820007,0.01937183365225792
1789058991231983400,10.0959833984375,-0.5658943057060242,-0.013669739477336407,-0.010882741771638393
1789058991241993500,10.105993408203124,-0.48475125432014465,-0.028385568410158157,-0.012543221935629845
1789058991252003300,10.11600341796875,-0.3792434632778168,-0.031317174434661865,0.019220832735300064
1789058991262014500,10.126014404296875,-0.2854354679584503,-0.02598579414188862,-0.007005711551755667
1789058991272024300,10.1360244140625,-0.1704588234424591,-0.019397133961319923,-0.022546853870153427
1789058991282034400,10.146034423828125,-0.05522597208619118,0.023724503815174103,0.02580603025853634
1789058991292045600,10.156045654296875,0.07031837105751038,0.025914421305060387,0.06917347759008408
1789058991302055700,10.1660556640625,0.20572945475578308,0.02185096964240074,0.03373825550079346
1789058991312065500,10.1760654296875,0.3101237714290619,0.0353982038795948,-0.010544786229729652
1789058991322076700,10.18607666015625,0.407316118478775,0.007282946724444628,-0.024765534326434135
1789058991332086500,10.19608642578125,0.4904448091983795,0.029464147984981537,0.035901542752981186
1789058991342096600,10.2060966796875,0.5328220725059509,0.03206339478492737,0.0010801780736073852
1789058991352107500,10.216107421875,0.5701574683189392,0.047196272760629654,0.0076363482512533665
1789058991362117600,10.22611767578125,0.5822157263755798,0.0884811282157898,-0.025734391063451767
1789058991372127500,10.23612744140625,0.6180334091186523,0.08335693925619125,0.027636421844363213
1789058991382138400,10.246138427734374,0.6305939555168152,0.104119211435318,0.06239280477166176
1789058991392148500,10.2561484375,0.6556111574172974,0.08538386970758438,-0.030659375712275505
1789058991402158600,10.26615869140625,0.6860646605491638,0.09288786351680756,0.010635600425302982
1789058991412169500,10.27616943359375,0.6930820941925049,0.09224763512611389,0.055386025458574295
1789058991422179600,10.2861796875,0.6680366396903992,0.10618235915899277,0.036611542105674744
1789058991432190500,10.2961904296875,0.6366004347801208,0.09833802282810211,0.01600399985909462
1789058991442200300,10.306200439453125,0.553433358669281,0.11655990034341812,-0.02135695330798626
1789058991452210400,10.31621044921875,0.5067854523658752,0.12786023318767548,0.020447485148906708
1789058991462221600,10.3262216796875,0.46860209107398987,0.1351272016763687,-0.03730396181344986
1789058991472231400,10.3362314453125,0.3879610598087311,0.12583649158477783,-0.0017779263434931636
1789058991482241300,10.3462412109375,0.3225242495536804,0.13541720807552338,0.028593827039003372
1789058991492252700,10.356252685546876,0.2593245208263397,0.2127293050289154,0.05588164180517197
1789058991502262500,10.366262451171876,0.19954480230808258,0.1562705636024475,0.0018823222490027547
1789058991512272600,10.376272705078126,0.2019088864326477,0.12340342998504639,0.03700914978981018
1789058991522283500,10.386283447265624,0.17416620254516602,0.055256862193346024,0.05032069608569145
1789058991532293600,10.396293701171874,0.08266212046146393,0.0990418940782547,0.003507383167743683
1789058991542303500,10.406303466796874,-0.0772673562169075,0.12056103348731995,-0.05224296450614929
1789058991552314600,10.416314697265625,-0.1918298900127411,0.18033728003501892,0.00022556974727194756
1789058991562324500,10.426324462890625,-0.31580910086631775,0.2040596604347229,-0.038066159933805466
1789058991572334600,10.43633447265625,-0.38721057772636414,0.2136760652065277,-0.017892980948090553
1789058991582345500,10.446345458984375,-0.4177069664001465,0.18754060566425323,0.022397983819246292
1789058991592355600,10.45635546875,-0.44146981835365295,0.15425534546375275,0.01197783276438713
1789058991602365400,10.466365478515625,-0.5090054273605347,0.14344903826713562,-0.019788086414337158
1789058991612376600,10.47637646484375,-0.5640849471092224,0.10029810667037964,-0.04116900637745857
1789058991622386400,10.486386474609375,-0.6695964336395264,0.1087067723274231,-0.03503388538956642
1789058991632396500,10.496396484375,-0.7982234358787537,0.14415983855724335,-0.00022983079543337226
1789058991642407400,10.506407470703126,-0.8556161522865295,0.10953102260828018,-0.040998831391334534
1789058991652417500,10.51641748046875,-0.9081043601036072,0.1136551946401596,-0.028483040630817413
1789058991662427400,10.526427490234376,-0.9596754312515259,0.08875250816345215,-0.031922511756420135
1789058991672438500,10.5364384765625,-0.9644299745559692,0.06378909945487976,-0.03623097389936447
1789058991682448600,10.54644873046875,-0.9668241143226624,0.017356086522340775,-0.025972211733460426
1789058991692458500,10.55645849609375,-0.9552788138389587,0.002597114769741893,-0.05006769299507141
1789058991702469600,10.5664697265625,-0.9318898320198059,-0.023083215579390526,-0.03020024672150612
1789058991712479500,10.5764794921875,-0.935540497303009,-0.012616192921996117,-0.01483220886439085
1789058991722489600,10.586489501953125,-0.9316800236701965,0.011318966746330261,0.02636822499334812
1789058991732500500,10.59650048828125,-0.8532922267913818,-0.01847274973988533,-0.053645383566617966
1789058991742511400,10.606511474609375,-0.762199878692627,-0.03026149980723858,0.0046605318784713745
1789058991752521200,10.616521240234375,-0.6412681341171265,-0.04356292262673378,0.0244267787784338
1789058991762532400,10.626532470703125,-0.564563512802124,-0.03049985133111477,0.048716939985752106
1789058991772542200,10.636542236328125,-0.4692133069038391,-0.014179468154907227,0.0418049693107605
1789058991782552300,10.64655224609375,-0.3473547697067261,-0.018013088032603264,-0.0021544971968978643
1789058991792563200,10.656563232421876,-0.2003416121006012,-0.010032127611339092,0.0456194169819355
1789058991802573300,10.6665732421875,-0.07234396785497665,-0.006701312027871609,0.01835530437529087
1789058991812583200,10.676583251953126,0.031012244522571564,-0.0028272117488086224,-0.030408771708607674
1789058991822594000,10.686593994140624,0.13853789865970612,0.005169461946934462,-0.033360354602336884
1789058991832604200,10.696604248046874,0.18922904133796692,0.053047772496938705,0.032587505877017975
1789058991842614300,10.7066142578125,0.2898954749107361,0.024084297940135002,-0.019269835203886032
1789058991852625400,10.71662548828125,0.36925208568573,0.012676646932959557,-0.03994208946824074
1789058991862635300,10.72663525390625,0.39025723934173584,0.019059712067246437,-0.01720721647143364
1789058991872645000,10.73664501953125,0.38515913486480713,0.06870689243078232,0.020185429602861404
1789058991882656300,10.74665625,0.4115084409713745,0.044613808393478394,0.025861958041787148
1789058991892666400,10.756666259765625,0.43290749192237854,0.051547080278396606,0.04933106526732445
1789058991902676200,10.76667626953125,0.4064260721206665,0.07259830087423325,0.04874703288078308
1789058991912687400,10.776687255859375,0.34500426054000854,0.0757104754447937,0.003923102747648954
1789058991922697200,10.786697265625,0.3055897355079651,0.09645596891641617,-0.005509813781827688
1789058991932708400,10.796708251953126,0.257367342710495,0.07588118314743042,-0.0547625795006752
1789058991942718200,10.80671826171875,0.20493078231811523,0.08234201371669769,-0.033235982060432434
1789058991952728300,10.816728271484376,0.11767789721488953,0.09242899715900421,0.02274339646100998
1789058991962739200,10.8267392578125,0.05036516860127449,0.0983409509062767,0.004944690968841314
1789058991972749300,10.836749267578124,-0.012839898467063904,0.11160908639431,-0.023028086870908737
1789058991982759200,10.84675927734375,-0.05789126455783844,0.1002456471323967,-0.048458345234394073
1789058991992770300,10.856770263671875,-0.11603472381830215,0.09814786911010742,-0.03500698506832123
1789058992002780200,10.8667802734375,-0.20375658571720123,0.07622126489877701,-0.02924656867980957
1789058992012790300,10.876790283203125,-0.2904195785522461,0.10243076831102371,0.012054531835019588
1789058992022801200,10.88680126953125,-0.36603179574012756,0.08850669860839844,0.021985460072755814
1789058992032811300,10.896811279296875,-0.44438809156417847,0.09265244007110596,0.040829189121723175
1789058992042821000,10.906821044921875,-0.49938130378723145,0.08901163190603256,0.04000866785645485
1789058992052832300,10.916832275390625,-0.5606247186660767,0.0746084600687027,0.01495098602026701
1789058992062842400,10.92684228515625,-0.6210947036743164,0.07721462845802307,-0.044742438942193985
1789058992072852500,10.9368525390625,-0.6636986136436462,0.08626671135425568,-0.0652138888835907
1789058992082863400,10.94686328125,-0.6848568916320801,0.06265325844287872,-0.04923359304666519
1789058992092873200,10.956873291015626,-0.7042500376701355,0.06747517734766006,-0.034083668142557144
1789058992102883300,10.96688330078125,-0.7672889232635498,0.07826737314462662,-0.03742673248052597
1789058992112894200,10.976894287109374,-0.8048235177993774,0.09195362776517868,0.01906929910182953
1789058992122904300,10.986904296875,-0.773619532585144,0.04772917181253433,-0.006761233322322369
1789058992132914400,10.99691455078125,-0.7813272476196289,0.029332855716347694,0.027038276195526123
1789058992142925300,11.00692529296875,-0.7827853560447693,0.017067667096853256,-0.00011211907985853031
1789058992152935200,11.01693505859375,-0.7967323064804077,-0.0015009575290605426,0.0003616572648752481
1789058992162945300,11.0269453125,-0.7961035370826721,-0.028239626437425613,-0.032409340143203735
1789058992172956200,11.0369560546875,-0.8075463175773621,-0.0031241541728377342,0.01866130158305168
1789058992182966300,11.04696630859375,-0.8369737267494202,0.017556089907884598,-0.01859978400170803
1789058992192976100,11.05697607421875,-0.8438518643379211,0.007427290081977844,-0.014876417815685272
1789058992202987300,11.0669873046875,-0.8027952313423157,-0.004455202259123325,-0.03618010878562927
1789058992212997000,11.0769970703125,-0.7935261130332947,-0.03104766458272934,0.03341974318027496
1789058992223007200,11.08700732421875,-0.7989709377288818,-0.03574175387620926,0.02918371744453907
1789058992233018000,11.09701806640625,-0.8040773272514343,-0.06035095825791359,0.012220713309943676
1789058992243028200,11.1070283203125,-0.8222030401229858,-0.051608067005872726,-0.02364487573504448
1789058992253038000,11.1170380859375,-0.8006154298782349,-0.078257255256176,-0.01576005481183529
1789058992263049500,11.127049560546874,-0.8025060296058655,-0.09368254989385605,0.019104985520243645
1789058992273059300,11.137059326171874,-0.778996467590332,-0.11996874958276749,0.053277336061000824
1789058992283069400,11.1470693359375,-0.7553516030311584,-0.1311391144990921,0.005120459944009781
1789058992293080300,11.157080322265625,-0.7334808707237244,-0.14044979214668274,0.052683185786008835
1789058992303090400,11.16709033203125,-0.6749366521835327,-0.1408253014087677,0.06310386955738068
1789058992313100300,11.177100341796875,-0.6053122878074646,-0.12421009689569473,0.03262132778763771
1789058992323111200,11.187111083984375,-0.5743362307548523,-0.14874553680419922,-0.006418484263122082
1789058992333121300,11.197121337890625,-0.4944760501384735,-0.1483418047428131,0.029770411550998688
1789058992343131400,11.20713134765625,-0.4087968170642853,-0.16987265646457672,0.04321750998497009
1789058992353142300,11.217142333984375,-0.36079734563827515,-0.18703193962574005,0.024321584030985832
1789058992363152400,11.22715234375,-0.3284388780593872,-0.17497581243515015,0.034809112548828125
1789058992373162200,11.237162353515625,-0.3141275644302368,-0.16365045309066772,0.01522662304341793
1789058992383173000,11.247173095703126,-0.2891092896461487,-0.1583949625492096,0.053950317203998566
1789058992393183200,11.257183349609376,-0.255382239818573,-0.16541878879070282,0.10098680108785629
1789058992403193300,11.267193359375,-0.2160249799489975,-0.18115566670894623,0.06373690068721771
1789058992413204200,11.277204345703124,-0.2042790949344635,-0.20784880220890045,0.057612694799900055
1789058992423214000,11.287214111328124,-0.21198496222496033,-0.15496614575386047,0.06957801431417465
1789058992433225200,11.29722509765625,-0.19331033527851105,-0.15616190433502197,0.0894467905163765
1789058992443235000,11.307235107421874,-0.14853647351264954,-0.17931009829044342,0.12863972783088684
1789058992453245200,11.3172451171875,-0.09300797432661057,-0.20467831194400787,0.049380067735910416
1789058992463256300,11.32725634765625,-0.055622514337301254,-0.220061257481575,0.061638861894607544
1789058992473266400,11.337266357421875,-0.07424093782901764,-0.19681452214717865,0.0676533430814743
1789058992483276300,11.3472763671875,-0.08402859419584274,-0.18435759842395782,0.015909457579255104
1789058992493287400,11.357287353515625,-0.08919832110404968,-0.15623807907104492,0.08369462937116623
1789058992503297300,11.36729736328125,-0.07915260642766953,-0.18912650644779205,0.02786385454237461
1789058992513307400,11.377307373046875,-0.052982792258262634,-0.1916394680738449,0.07097803801298141
1789058992523318300,11.387318359375,-0.04528944939374924,-0.23783892393112183,0.07911079376935959
1789058992533328400,11.397328369140626,-0.0818067118525505,-0.20963498950004578,0.016766462475061417
1789058992543338200,11.407338134765626,-0.14607225358486176,-0.19031721353530884,0.058281414210796356
1789058992553349400,11.417349365234376,-0.19200831651687622,-0.16899621486663818,0.01902136206626892
1789058992563359200,11.427359130859376,-0.19950218498706818,-0.17729036509990692,0.03295848146080971
1789058992573369300,11.437369384765624,-0.19125331938266754,-0.20237787067890167,-0.005246161017566919
1789058992583380200,11.447380126953124,-0.2504034638404846,-0.18968923389911652,0.049851447343826294
1789058992593390300,11.457390380859374,-0.2720317840576172,-0.1904791295528412,0.06521096080541611
1789058992603400200,11.467400146484374,-0.26651132106781006,-0.2105383276939392,0.031619977205991745
1789058992613411000,11.4774111328125,-0.2599221169948578,-0.23591212928295135,-0.006354302167892456
1789058992623421200,11.487421142578125,-0.2720794677734375,-0.22418835759162903,-0.016156598925590515
1789058992633431300,11.497431396484375,-0.28988295793533325,-0.19757433235645294,-0.021150292828679085
1789058992643442200,11.507442138671875,-0.25335797667503357,-0.1893925666809082,-0.015269766561686993
1789058992653452000,11.5174521484375,-0.21717892587184906,-0.16964708268642426,0.02033083699643612
1789058992663462100,11.527462158203125,-0.16579003632068634,-0.18543297052383423,0.10066189616918564
1789058992673473300,11.537473388671875,-0.12319410592317581,-0.19956611096858978,0.07226221263408661
1789058992683483400,11.5474833984375,-0.09247933328151703,-0.24735306203365326,0.07257939130067825
1789058992693493200,11.5574931640625,-0.11799348145723343,-0.22947366535663605,0.08369090408086777
1789058992703504400,11.56750439453125,-0.19592024385929108,-0.23313897848129272,0.04850655049085617
1789058992713514200,11.57751416015625,-0.2654481828212738,-0.21134819090366364,0.033064208924770355
1789058992723524400,11.5875244140625,-0.31327882409095764,-0.18929961323738098,0.05832615867257118
1789058992733535200,11.59753515625,-0.37609559297561646,-0.21823352575302124,0.000060986389144090936
1789058992743544600,11.607544677734374,-0.40702661871910095,-0.23978489637374878,-0.007488542702049017
1789058992753554700,11.6175546875,-0.39787787199020386,-0.26151788234710693,0.030845796689391136
1789058992763565600,11.627565673828125,-0.3751653730869293,-0.24847160279750824,0.05583610013127327
1789058992773575400,11.637575439453125,-0.3196917176246643,-0.24313782155513763,0.056752759963274
1789058992783585500,11.64758544921875,-0.25306394696235657,-0.2381094992160797,0.07686948031187057
1789058992793596400,11.657596435546875,-0.21646466851234436,-0.20009979605674744,0.06559205800294876
1789058992803606500,11.6676064453125,-0.1518675535917282,-0.1802147775888443,0.035703402012586594
1789058992813616600,11.67761669921875,0.004604072775691748,-0.17562775313854218,0.058274224400520325
1789058992823627500,11.68762744140625,0.14025457203388214,-0.20951886475086212,0.009706955403089523
1789058992833637400,11.697637451171875,0.22164930403232574,-0.1995498538017273,0.038001712411642075
1789058992843647500,11.7076474609375,0.25614869594573975,-0.1491902768611908,0.02317322976887226
1789058992853658400,11.717658447265626,0.27320197224617004,-0.10132022947072983,0.04267768934369087
1789058992863668500,11.72766845703125,0.3057551383972168,-0.07668466120958328,0.05357694253325462
1789058992873678300,11.73767822265625,0.3310684859752655,-0.07640955597162247,0.034752655774354935
1789058992883689700,11.747689697265624,0.3516333997249603,-0.09867730736732483,0.052025917917490005
1789058992893699600,11.757699462890624,0.33662301301956177,-0.09714093059301376,0.011573565192520618
1789058992903709700,11.767709716796874,0.31363487243652344,-0.11764540523290634,0.002645051572471857
1789058992913720600,11.777720458984374,0.2710983455181122,-0.1076207384467125,0.06604186445474625
1789058992923730700,11.787730712890625,0.16743479669094086,-0.0969393327832222,-0.0017393104499205947
1789058992933740500,11.797740478515625,0.10080517083406448,-0.08843745291233063,0.04336851090192795
1789058992943751700,11.807751708984375,0.03971146047115326,-0.10624867677688599,0.027664117515087128
1789058992953761500,11.817761474609375,-0.008413458243012428,-0.11956501007080078,0.04213999584317207
1789058992963771600,11.827771728515625,-0.057555437088012695,-0.14442242681980133,0.0267687626183033
1789058992973782500,11.837782470703125,-0.12379464507102966,-0.14362427592277527,0.036853354424238205
1789058992983792600,11.847792724609375,-0.1761891394853592,-0.15161669254302979,0.0804719403386116
1789058992993802500,11.857802490234375,-0.20790979266166687,-0.15891854465007782,0.07875686138868332
1789058993003813600,11.867813720703126,-0.24941648542881012,-0.1713336706161499,0.04032744839787483
1789058993013823500,11.877823486328126,-0.25894954800605774,-0.202353373169899,-0.06077360361814499
1789058993023833600,11.88783349609375,-0.27038994431495667,-0.1830316036939621,-0.009905361570417881
1789058993033844500,11.897844482421876,-0.2752142548561096,-0.1982411891222,-0.024434769526124
1789058993043854600,11.9078544921875,-0.2567012906074524,-0.18530328571796417,0.017529193311929703
1789058993053864400,11.917864501953124,-0.2608073651790619,-0.16841217875480652,0.048283111304044724
1789058993063875300,11.927875244140624,-0.213970348238945,-0.17858891189098358,0.021495439112186432
1789058993073885400,11.937885498046874,-0.19223442673683167,-0.16341502964496613,-0.01624954305589199
1789058993083896600,11.947896484375,-0.1699344366788864,-0.1287129670381546,0.014553909189999104
1789058993093906700,11.95790673828125,-0.12906211614608765,-0.15380048751831055,0.02448909729719162
1789058993103916500,11.96791650390625,-0.05583237111568451,-0.1599465310573578,0.054064832627773285
1789058993113927700,11.977927734375,0.017357951030135155,-0.1807527393102646,0.016695888713002205
1789058993123937500,11.9879375,0.04340366646647453,-0.17463332414627075,0.009314938448369503
1789058993133947600,11.99794775390625,0.025595640763640404,-0.1465843766927719,-0.014867362566292286
1789058993143958500,12.00795849609375,0.044308874756097794,-0.13609392940998077,-0.03063727170228958
1789058993153968600,12.01796875,0.0695873349905014,-0.12974467873573303,0.007860319688916206
1789058993163978500,12.027978515625,0.11659931391477585,-0.14590874314308167,0.021766548976302147
1789058993173989600,12.03798974609375,0.15030455589294434,-0.15740160644054413,0.004877313040196896
1789058993183999500,12.04799951171875,0.16515353322029114,-0.1648387461900711,0.004321511369198561
1789058993194009600,12.058009521484376,0.17920836806297302,-0.14900359511375427,0.014544321224093437
1789058993204020500,12.0680205078125,0.1878921389579773,-0.1844169795513153,-0.01775103434920311
1789058993214030600,12.078030517578124,0.21573229134082794,-0.186345636844635,0.03189854323863983
1789058993224040400,12.08804052734375,0.18756456673145294,-0.18046751618385315,-0.005587844643741846
1789058993234051600,12.098051513671875,0.166901633143425,-0.17194725573062897,0.06531082838773727
1789058993244061400,12.1080615234375,0.15075436234474182,-0.15468651056289673,0.059487562626600266
1789058993254071600,12.118071533203125,0.15088379383087158,-0.14098401367664337,0.025051556527614594
1789058993264082400,12.12808251953125,0.2071278840303421,-0.179286926984787,-0.025189509615302086
1789058993274092500,12.138092529296875,0.24313941597938538,-0.15525935590267181,-0.012687565758824348
1789058993284102400,12.148102294921875,0.23955532908439636,-0.13906201720237732,-0.055031295865774155
1789058993294113500,12.158113525390625,0.3139568567276001,-0.11811172962188721,0.0020836573094129562
1789058993304123600,12.16812353515625,0.38352662324905396,-0.14217498898506165,0.009396697394549847
1789058993314133800,12.1781337890625,0.4181722104549408,-0.11188365519046783,0.019656259566545486
1789058993324144600,12.18814453125,0.4086514115333557,-0.08013159036636353,0.04753369837999344
