time,seconds_elapsed,z,y,x
1789058981179102200,0.043102294921875,-0.21270304918289185,-0.004979996010661125,-0.002159307012334466
1789058981189113000,0.053113037109375,-0.22780877351760864,-0.011962272226810455,-0.004077049437910318
1789058981199123200,0.063123291015625,-0.23985710740089417,-0.02401907742023468,-0.00723390793427825
1789058981209133000,0.073133056640625,-0.2521046996116638,-0.034760404378175735,-0.00802752934396267
1789058981219144400,0.08314453125,-0.2612071931362152,-0.0416940338909626,-0.008425405248999596
1789058981229154300,0.093154296875,-0.26729997992515564,-0.050263021141290665,-0.011572727933526039
1789058981239164400,0.103164306640625,-0.27285605669021606,-0.05653117224574089,-0.011181672103703022
1789058981249175300,0.11317529296875,-0.27448245882987976,-0.06449349224567413,-0.017835047096014023
1789058981259185400,0.123185302734375,-0.27809223532676697,-0.07175146788358688,-0.019586076959967613
1789058981269195300,0.1331953125,-0.2720271646976471,-0.08198945224285126,-0.02016238495707512
1789058981279206400,0.143206298828125,-0.2661329209804535,-0.0936330035328865,-0.022011149674654007
1789058981289216300,0.15321630859375,-0.26361462473869324,-0.10199080407619476,-0.024291081354022026
1789058981299226400,0.163226318359375,-0.2596590220928192,-0.1100224032998085,-0.025804663076996803
1789058981309237200,0.1732373046875,-0.24680982530117035,-0.1214769259095192,-0.027925871312618256
1789058981319247400,0.183247314453125,-0.2344851791858673,-0.1281624138355255,-0.02867358736693859
1789058981329257200,0.19325732421875,-0.2184620052576065,-0.13602538406848907,-0.028221648186445236
1789058981339268000,0.20326806640625,-0.19675825536251068,-0.1449817717075348,-0.03122015669941902
1789058981349278200,0.2132783203125,-0.17585670948028564,-0.15233609080314636,-0.03351340442895889
1789058981359288300,0.223288330078125,-0.1514008641242981,-0.16132710874080658,-0.034676820039749146
1789058981369299200,0.23329931640625,-0.1235055923461914,-0.1689450889825821,-0.03561292216181755
1789058981379309000,0.24330908203125,-0.09780997782945633,-0.17187169194221497,-0.0356917567551136
1789058981389319200,0.253319091796875,-0.06743130087852478,-0.17890377342700958,-0.037581801414489746
1789058981399330000,0.263330078125,-0.040595751255750656,-0.1844501942396164,-0.03813951835036278
1789058981409340200,0.273340087890625,-0.011352380737662315,-0.19015654921531677,-0.04026392102241516
1789058981419350300,0.283350341796875,0.015814131125807762,-0.1939326673746109,-0.03928346186876297
1789058981429361400,0.293361328125,0.0480375811457634,-0.19884459674358368,-0.039365220814943314
1789058981439371300,0.303371337890625,0.03340788185596466,-0.1732487678527832,-0.017426103353500366
1789058981449381400,0.31338134765625,0.09397588670253754,-0.20476354658603668,-0.031326472759246826
1789058981459392300,0.323392333984375,-0.02263467386364937,-0.12693220376968384,-0.02013692446053028
1789058981469402400,0.33340234375,0.1096181720495224,-0.21321649849414825,-0.02765396423637867
1789058981479412200,0.343412109375,0.037181414663791656,-0.20651006698608398,-0.033944614231586456
1789058981489423400,0.35342333984375,0.11409244686365128,-0.19411064684391022,-0.04806762561202049
1789058981499433200,0.36343310546875,0.12310421466827393,-0.2610965371131897,-0.04792913794517517
1789058981509443300,0.373443359375,0.10628874599933624,-0.19585680961608887,-0.052770767360925674
1789058981519454200,0.3834541015625,0.1169985681772232,-0.22054423391819,-0.04381945729255676
1789058981529464300,0.39346435546875,0.1578594446182251,-0.2167268544435501,-0.0465201698243618
1789058981539474200,0.40347412109375,0.08886586129665375,-0.20377084612846375,-0.03752443939447403
1789058981549485300,0.4134853515625,0.15046851336956024,-0.23439693450927734,-0.04746095836162567
1789058981559495200,0.4234951171875,0.12442118674516678,-0.22671344876289368,-0.04534880816936493
1789058981569505300,0.43350537109375,0.13983558118343353,-0.24700434505939484,-0.05707310512661934
1789058981579516200,0.44351611328125,0.18092282116413116,-0.23550641536712646,-0.0474681481719017
1789058981589526300,0.4535263671875,0.14180631935596466,-0.2389858365058899,-0.053974252194166183
1789058981599536000,0.4635361328125,0.12555918097496033,-0.2314448356628418,-0.042862169444561005
1789058981609547300,0.47354736328125,0.13591621816158295,-0.2122546285390854,-0.04361504688858986
1789058981619557000,0.48355712890625,0.11761805415153503,-0.20188523828983307,-0.038686320185661316
1789058981629567200,0.493567138671875,0.1515086442232132,-0.21193866431713104,-0.05428951233625412
1789058981639578400,0.503578369140625,0.18019066751003265,-0.21238012611865997,-0.05653328076004982
1789058981649588200,0.513588134765625,0.22733579576015472,-0.194405660033226,-0.04947537183761597
1789058981659598300,0.523598388671875,0.27896589040756226,-0.18358783423900604,-0.02993464097380638
1789058981669609200,0.533609130859375,0.3336304724216461,-0.1670762449502945,-0.051786407828330994
1789058981679619300,0.543619384765625,0.4041047990322113,-0.1356508433818817,-0.02490164339542389
1789058981689629400,0.55362939453125,0.4667852222919464,-0.1254243105649948,-0.02327871322631836
1789058981699640300,0.563640380859375,0.4735853970050812,-0.1257142424583435,-0.03132440149784088
1789058981709650200,0.573650146484375,0.48532623052597046,-0.10698290169239044,-0.02115698531270027
1789058981719660300,0.583660400390625,0.48105162382125854,-0.10125280171632767,-0.014549044892191887
1789058981729671200,0.593671142578125,0.45536330342292786,-0.09936701506376266,-0.01859411969780922
1789058981739680800,0.6036806640625,0.42255890369415283,-0.10482794791460037,-0.019450154155492783
1789058981749691000,0.61369091796875,0.3735887110233307,-0.10553261637687683,-0.022043272852897644
1789058981759701800,0.62370166015625,0.30991044640541077,-0.09985868632793427,-0.023398566991090775
1789058981769711600,0.633711669921875,0.2414959967136383,-0.10014098137617111,-0.02354823797941208
1789058981779721700,0.6437216796875,0.17422430217266083,-0.09939657896757126,-0.021351024508476257
1789058981789732600,0.653732666015625,0.10760931670665741,-0.10175640881061554,-0.02239019051194191
1789058981799742700,0.66374267578125,0.05285248905420303,-0.10884004086256027,-0.02210836112499237
1789058981809752600,0.673752685546875,-0.0002589314244687557,-0.11280069500207901,-0.024708405137062073
1789058981819763700,0.683763671875,-0.041612520813941956,-0.11341486126184464,-0.02500039152801037
1789058981829773600,0.693773681640625,-0.06882177293300629,-0.10981106758117676,-0.027074461802840233
1789058981839783700,0.70378369140625,-0.07685607671737671,-0.115013986825943,-0.029286375269293785
1789058981849794600,0.713794677734375,-0.07250553369522095,-0.11509308218955994,-0.02642081305384636
1789058981859804700,0.7238046875,-0.054933100938797,-0.11373524367809296,-0.024996619671583176
1789058981869814500,0.733814453125,-0.03008873574435711,-0.10556838661432266,-0.021496428176760674
1789058981879825700,0.74382568359375,0.009150953032076359,-0.09240938723087311,-0.020033327862620354
1789058981889835500,0.75383544921875,0.06425388902425766,-0.08027788251638412,-0.020233863964676857
1789058981899845600,0.763845703125,0.12976224720478058,-0.0669017881155014,-0.0160064734518528
1789058981909856500,0.7738564453125,0.19826647639274597,-0.05743344873189926,-0.008063329383730888
1789058981919866600,0.78386669921875,0.268902450799942,-0.05251559615135193,-0.005035578738898039
1789058981929876500,0.79387646484375,0.3310087025165558,-0.04891606792807579,-0.0018421823624521494
1789058981939887900,0.803887939453125,0.38151660561561584,-0.045454490929841995,-0.003887756261974573
1789058981949897700,0.813897705078125,0.42728009819984436,-0.03969194367527962,0.0007474755402654409
1789058981959907800,0.823907958984375,0.45089274644851685,-0.039133742451667786,-0.0001811687834560871
1789058981969918700,0.833918701171875,0.4720499813556671,-0.03567802533507347,0.0022838532458990812
1789058981979928800,0.8439287109375,0.48067083954811096,-0.03569759055972099,-0.00001317518763244152
1789058981989938700,0.853938720703125,0.480030357837677,-0.04150807484984398,-0.0011878954246640205
1789058981999949600,0.863949462890625,0.4725796580314636,-0.04762451723217964,-0.0010053624864667654
1789058982009959700,0.873959716796875,0.4525364339351654,-0.03748692572116852,0.03680486977100372
1789058982019969800,0.8839697265625,0.43083176016807556,-0.0659695416688919,-0.008262542076408863
1789058982029980700,0.893980712890625,0.41095712780952454,-0.06983592361211777,-0.01407622266560793
1789058982039990800,0.90399072265625,0.37738534808158875,-0.09274354577064514,-0.034659672528505325
1789058982050000600,0.914000732421875,0.3257642090320587,0.017353663221001625,0.07609107345342636
1789058982060011500,0.924011474609375,0.30953606963157654,-0.035798076540231705,-0.0397823229432106
1789058982070021600,0.934021728515625,0.3305164575576782,-0.13886693120002747,-0.033672500401735306
1789058982080031700,0.94403173828125,0.32930225133895874,-0.13802039623260498,-0.01888950541615486
1789058982090042600,0.954042724609375,0.33492738008499146,-0.16269271075725555,-0.017875907942652702
1789058982100052500,0.964052490234375,0.24171584844589233,-0.11149343848228455,-0.0009100318420678377
1789058982110062600,0.9740625,0.14845621585845947,-0.07719964534044266,-0.02126270718872547
1789058982120073500,0.984073486328125,0.09172695130109787,-0.012150434777140617,-0.025887753814458847
1789058982130083600,0.99408349609375,0.08353719860315323,-0.02997363917529583,0.005179352127015591
1789058982140093400,1.004093505859375,0.11270346492528915,-0.018697034567594528,0.03116871416568756
1789058982150104800,1.014104736328125,0.14865854382514954,-0.055324289947748184,-0.02065347135066986
1789058982160114700,1.02411474609375,0.18750835955142975,-0.10172341763973236,-0.011937476694583893
1789058982170124800,1.034124755859375,0.2596808075904846,-0.07501830905675888,-0.025611743330955505
1789058982180135700,1.0441357421875,0.3036496639251709,-0.08679525554180145,0.0014975846279412508
1789058982190145800,1.054145751953125,0.33649787306785583,-0.050339505076408386,-0.006687374785542488
1789058982200155600,1.06415576171875,0.33910420536994934,0.012761451303958893,0.01187986135482788
1789058982210166800,1.074166748046875,0.3404485583305359,0.03965245559811592,0.02023473009467125
1789058982220176600,1.0841767578125,0.3846583962440491,0.0658673644065857,0.025009943172335625
1789058982230186800,1.094186767578125,0.4236193895339966,0.07057076692581177,0.028241420164704323
1789058982240197600,1.10419775390625,0.4797709882259369,0.05541398003697395,0.028263356536626816
1789058982250207700,1.114207763671875,0.5079789161682129,0.06014348939061165,0.03665763884782791
1789058982260217600,1.124217529296875,0.5173680782318115,0.0738571286201477,0.046590760350227356
1789058982270228700,1.134228759765625,0.5335603952407837,0.08268550783395767,0.04763844981789589
1789058982280238600,1.144238525390625,0.5336225032806396,0.1051165983080864,0.046632613986730576
1789058982290248700,1.154248779296875,0.5281582474708557,0.12842059135437012,0.05345030501484871
1789058982300259600,1.164259521484375,0.5270766615867615,0.1472863405942917,0.06683322787284851
1789058982310269700,1.174269775390625,0.53450608253479,0.15937548875808716,0.08078792691230774
1789058982320279600,1.184279541015625,0.5384482741355896,0.1592836230993271,0.07907860726118088
1789058982330290400,1.19429052734375,0.5594545006752014,0.16038937866687775,0.07623062282800674
1789058982340300500,1.204300537109375,0.559326171875,0.1609998196363449,0.08051899820566177
1789058982350310700,1.214310546875,0.5452401638031006,0.1640230417251587,0.09341908246278763
1789058982360321800,1.22432177734375,0.5329462885856628,0.16116741299629211,0.09511706233024597
1789058982370331600,1.23433154296875,0.5292894840240479,0.16811425983905792,0.09843030571937561
1789058982380341800,1.244341796875,0.4983128607273102,0.17816980183124542,0.10295943170785904
1789058982390352600,1.2543525390625,0.45693930983543396,0.19701725244522095,0.10740957409143448
1789058982400362800,1.26436279296875,0.4223972260951996,0.2062789797782898,0.10380285978317261
1789058982410372600,1.27437255859375,0.4006165564060211,0.21278242766857147,0.10644897073507309
1789058982420383700,1.2843837890625,0.3795470893383026,0.2061530351638794,0.10781640559434891
1789058982430393600,1.2943935546875,0.3553219139575958,0.2075972706079483,0.1253701001405716
1789058982440403700,1.30440380859375,0.32214099168777466,0.20925945043563843,0.13621437549591064
1789058982450414600,1.31441455078125,0.2838532626628876,0.21585796773433685,0.1378690004348755
1789058982460424700,1.3244248046875,0.24260419607162476,0.22560320794582367,0.14622972905635834
1789058982470434600,1.3344345703125,0.1954718381166458,0.2395579069852829,0.1648138016462326
1789058982480445700,1.34444580078125,0.13546490669250488,0.26145216822624207,0.1760709285736084
1789058982490455600,1.35445556640625,0.0656685084104538,0.29329824447631836,0.1795213222503662
1789058982500465700,1.364465576171875,-0.006170616485178471,0.3191011846065521,0.1668945848941803
1789058982510476500,1.3744765625,-0.046547599136829376,0.3002105951309204,0.16522318124771118
1789058982520486700,1.384486572265625,-0.08154798299074173,0.26792046427726746,0.17092502117156982
1789058982530496500,1.39449658203125,-0.12660600244998932,0.2381838709115982,0.17040996253490448
1789058982540507600,1.404507568359375,-0.20333850383758545,0.23170270025730133,0.16569077968597412
1789058982550517500,1.414517578125,-0.314702570438385,0.24661241471767426,0.139326810836792
1789058982560527600,1.424527587890625,-0.43769487738609314,0.2593541741371155,0.14259099960327148
1789058982570538800,1.434538818359375,-0.5315553545951843,0.25900742411613464,0.1481655389070511
1789058982580548900,1.444548828125,-0.5968322157859802,0.2488277554512024,0.1554376184940338
1789058982590558700,1.454558837890625,-0.6362307667732239,0.2290082573890686,0.1338050216436386
1789058982600569600,1.464569580078125,-0.7129945158958435,0.24917636811733246,0.12806537747383118
1789058982610579700,1.474579833984375,-0.8054468035697937,0.25777170062065125,0.12396213412284851
1789058982620589800,1.48458984375,-0.8545022010803223,0.24017898738384247,0.10651864856481552
1789058982630600700,1.4946005859375,-0.8943263292312622,0.24277955293655396,0.10924306511878967
1789058982640610800,1.50461083984375,-0.9332229495048523,0.2364814728498459,0.10941850394010544
1789058982650620700,1.51462060546875,-0.9553372859954834,0.22235792875289917,0.10172729939222336
1789058982660631600,1.524631591796875,-1.0056294202804565,0.22103530168533325,0.08510933071374893
1789058982670641700,1.5346416015625,-1.055713176727295,0.2205394208431244,0.060095060616731644
1789058982680651800,1.54465185546875,-1.0664266347885132,0.20920272171497345,0.05165635421872139
1789058982690662700,1.55466259765625,-1.0645195245742798,0.18670541048049927,0.07212700694799423
1789058982700672500,1.564672607421875,-1.1132259368896484,0.17962704598903656,0.07641101628541946
1789058982710682600,1.5746826171875,-1.1740387678146362,0.17013287544250488,0.06492826342582703
1789058982720693500,1.584693603515625,-1.1907120943069458,0.13724015653133392,0.03338850289583206
1789058982730703600,1.59470361328125,-1.2239627838134766,0.09852339327335358,0.00853135995566845
1789058982740713500,1.60471337890625,-1.2638108730316162,0.05939686298370361,0.005262704566121101
1789058982750724600,1.614724609375,-1.307608723640442,0.011338258162140846,0.007983656600117683
1789058982760734500,1.624734375,-1.3920444250106812,-0.01572093367576599,-0.0014502741396427155
1789058982770744600,1.63474462890625,-1.4654659032821655,-0.04063187912106514,-0.024609921500086784
1789058982780755500,1.64475537109375,-1.489417314529419,-0.08326070755720139,-0.02518196403980255
1789058982790765600,1.654765625,-1.5241925716400146,-0.11722373217344284,-0.03147101774811745
1789058982800775400,1.664775390625,-1.5862162113189697,-0.12692324817180634,-0.03081759810447693
1789058982810786800,1.674786865234375,-1.623044490814209,-0.13623206317424774,-0.034524716436862946
1789058982820796700,1.684796630859375,-1.5892494916915894,-0.1512216180562973,-0.04079240560531616
1789058982830806800,1.694806884765625,-1.5762546062469482,-0.14060360193252563,-0.04529660940170288
1789058982840817700,1.704817626953125,-1.5818865299224854,-0.1395409256219864,-0.050623517483472824
1789058982850827800,1.714827880859375,-1.5139631032943726,-0.14818048477172852,-0.045342203229665756
1789058982860837600,1.724837646484375,-1.3746742010116577,-0.188034787774086,-0.015421166084706783
1789058982870848800,1.734848876953125,-1.3067649602890015,-0.1916516274213791,-0.00447743758559227
1789058982880858600,1.744858642578125,-1.2942897081375122,-0.17863082885742188,0.012489831075072289
1789058982890868700,1.75486865234375,-1.1994801759719849,-0.180301696062088,-0.007274019997566938
1789058982900879600,1.764879638671875,-1.051755666732788,-0.17534004151821136,-0.007019916549324989
1789058982910889700,1.7748896484375,-0.9036086797714233,-0.15773893892765045,-0.011014923453330994
1789058982920899600,1.784899658203125,-0.8168030381202698,-0.11457458138465881,-0.015052475035190582
1789058982930910500,1.794910400390625,-0.7269375920295715,-0.07984723150730133,-0.02146962843835354
1789058982940920600,1.804920654296875,-0.5466139912605286,-0.08761675655841827,-0.010096807964146137
1789058982950930700,1.8149306640625,-0.43317559361457825,-0.07669593393802643,0.009990617632865906
1789058982960941600,1.824941650390625,-0.39274102449417114,-0.0642058476805687,0.03353647515177727
1789058982970951700,1.83495166015625,-0.344669908285141,-0.062040701508522034,0.008169866167008877
1789058982980961500,1.84496142578125,-0.3077309727668762,-0.06215877830982208,-0.005117286462336779
1789058982990972400,1.854972412109375,-0.3006160855293274,-0.053039051592350006,0.006108736153692007
1789058983000982500,1.864982421875,-0.3042999804019928,-0.029727483168244362,-0.031547512859106064
1789058983010992600,1.87499267578125,-0.376128613948822,0.06741691380739212,-0.05749601870775223
1789058983021003800,1.885003662109375,-0.3900758922100067,0.061697959899902344,-0.002643683459609747
1789058983031013600,1.895013671875,-0.3952493369579315,0.10727769136428833,0.026708612218499184
1789058983041023700,1.905023681640625,-0.35938987135887146,0.06775113940238953,0.017086558043956757
1789058983051034600,1.91503466796875,-0.29327207803726196,-0.015434562228620052,-0.02002059668302536
1789058983061044700,1.925044677734375,-0.31391066312789917,-0.04132024198770523,-0.038740117102861404
1789058983071054600,1.9350546875,-0.365176260471344,-0.03054136410355568,-0.019562695175409317
1789058983081065700,1.945065673828125,-0.4828328788280487,0.0163099505007267,0.0012249283026903868
1789058983091075600,1.95507568359375,-0.6400195956230164,0.060567691922187805,-0.038497984409332275
1789058983101085700,1.965085693359375,-0.7441712021827698,0.08405649662017822,-0.030941978096961975
1789058983111096600,1.9750966796875,-0.7610148787498474,0.05998338386416435,-0.0032030243892222643
1789058983121106700,1.985106689453125,-0.7872912883758545,0.050291962921619415,-0.010271947830915451
1789058983131116500,1.995116455078125,-0.7749685645103455,-0.010991633869707584,-0.04649679735302925
1789058983141127700,2.005127685546875,-0.7953559160232544,-0.04320690408349037,-0.07210841029882431
1789058983151137500,2.015137451171875,-0.7951934337615967,-0.04134322702884674,-0.018595116212964058
1789058983161147600,2.025147705078125,-0.7907309532165527,-0.04205945506691933,0.018201982602477074
1789058983171158500,2.035158447265625,-0.8243815898895264,-0.03409154340624809,0.0173452440649271
1789058983181168600,2.045168701171875,-0.8440211415290833,-0.039312221109867096,-0.007986249402165413
1789058983191178500,2.055178466796875,-0.7966358065605164,-0.08001277595758438,-0.01410992257297039
1789058983201189600,2.065189697265625,-0.7197105884552002,-0.11248511075973511,-0.009787559509277344
1789058983211199500,2.075199462890625,-0.68049556016922,-0.12168899178504944,0.039785586297512054
1789058983221209600,2.085209716796875,-0.6775599718093872,-0.11956609040498734,0.06516681611537933
1789058983231220700,2.095220703125,-0.6319501399993896,-0.1316174417734146,0.04987175017595291
1789058983241230800,2.10523095703125,-0.5506269335746765,-0.16659970581531525,-0.0008692352566868067
1789058983251240700,2.11524072265625,-0.4820716083049774,-0.18640536069869995,-0.017018111422657967
1789058983261251600,2.12525146484375,-0.4256642460823059,-0.19091032445430756,-0.008548930287361145
1789058983271261700,2.13526171875,-0.36550742387771606,-0.19255056977272034,0.06804624199867249
1789058983281272600,2.1452724609375,-0.3467503786087036,-0.20815983414649963,0.07650924474000931
1789058983291282700,2.15528271484375,-0.30074161291122437,-0.2343893051147461,0.05695364996790886
1789058983301292500,2.16529248046875,-0.26408320665359497,-0.23447851836681366,0.05411152541637421
1789058983311303700,2.1753037109375,-0.2533586323261261,-0.2536058723926544,0.029149450361728668
1789058983321313500,2.1853134765625,-0.23840968310832977,-0.2686788737773895,0.03133159503340721
1789058983331323600,2.19532373046875,-0.21956808865070343,-0.26362019777297974,0.07536642998456955
1789058983341334500,2.20533447265625,-0.1357232928276062,-0.24970586597919464,0.13289204239845276
1789058983351344600,2.2153447265625,-0.03170129656791687,-0.2670225501060486,0.13693125545978546
1789058983361354500,2.2253544921875,0.05692199617624283,-0.23942911624908447,0.08957624435424805
1789058983371365600,2.23536572265625,0.16908341646194458,-0.22512154281139374,0.04446149989962578
1789058983381375500,2.24537548828125,0.32461243867874146,-0.19302114844322205,0.02251102775335312
1789058983391385600,2.255385498046875,0.5028404593467712,-0.18773585557937622,0.04135928303003311
1789058983401396700,2.265396728515625,0.6834837198257446,-0.13971692323684692,0.06515538692474365
1789058983411406600,2.275406494140625,0.8587921261787415,-0.09299015998840332,0.031413931399583817
1789058983421416400,2.28541650390625,1.0807055234909058,-0.10493635386228561,0.015979845076799393
1789058983431427800,2.295427734375,1.2597815990447998,-0.08657039701938629,-0.006202954798936844
1789058983441437700,2.305437744140625,1.4364264011383057,-0.07948482036590576,0.029478933662176132
1789058983451447800,2.31544775390625,1.5574753284454346,-0.05249074473977089,0.05402049422264099
1789058983461458700,2.325458740234375,1.6320164203643799,-0.025855716317892075,0.04403087496757507
1789058983471468800,2.33546875,1.727332592010498,0.007126735523343086,-0.011343436315655708
1789058983481478700,2.345478759765625,1.8119982481002808,0.03489207103848457,-0.01390651986002922
1789058983491489500,2.355489501953125,1.865176796913147,0.04328235983848572,0.0009158351458609104
1789058983501499600,2.365499755859375,1.859065055847168,0.0704425498843193,0.023542270064353943
1789058983511509800,2.375509765625,1.8459279537200928,0.06990831345319748,0.022703109309077263
1789058983521520600,2.385520751953125,1.8421753644943237,0.09510651230812073,0.012671669945120811
1789058983531530500,2.395530517578125,1.840131163597107,0.08175235986709595,0.019776450470089912
1789058983541540600,2.40554052734375,1.8144819736480713,0.08083879202604294,0.018844502046704292
1789058983551551500,2.415551513671875,1.710491418838501,0.09707022458314896,0.040224358439445496
1789058983561561600,2.4255615234375,1.5790340900421143,0.1314581036567688,0.04339049011468887
1789058983571571700,2.43557177734375,1.4624680280685425,0.15788252651691437,0.06148746982216835
1789058983581582600,2.44558251953125,1.324185848236084,0.16602890193462372,0.03532925248146057
1789058983591592400,2.455592529296875,1.1439313888549805,0.17996762692928314,0.04026222601532936
1789058983601602600,2.4656025390625,1.0168139934539795,0.17233024537563324,0.0754021629691124
1789058983611613700,2.47561376953125,0.8732709288597107,0.17569541931152344,0.07555875927209854
1789058983621623600,2.48562353515625,0.7787115573883057,0.15434740483760834,0.04720056802034378
1789058983631633400,2.49563330078125,0.648664116859436,0.17069149017333984,0.05922367423772812
1789058983641644800,2.505644775390625,0.49480491876602173,0.17746956646442413,0.058965932577848434
1789058983651654700,2.515654541015625,0.3643912374973297,0.18200333416461945,0.022812986746430397
1789058983661664800,2.525664794921875,0.25907599925994873,0.18761301040649414,0.05989004671573639
1789058983671675600,2.535675537109375,0.1541232317686081,0.18292585015296936,0.09271164238452911
1789058983681685800,2.545685791015625,0.04712660238146782,0.1866241693496704,0.0948430746793747
1789058983691695600,2.555695556640625,-0.049832701683044434,0.1900644302368164,0.08007850497961044
1789058983701706800,2.565706787109375,-0.12046350538730621,0.19304336607456207,0.04264810308814049
1789058983711716600,2.575716552734375,-0.17648816108703613,0.19770894944667816,-0.01475180871784687
1789058983721726700,2.585726806640625,-0.2078706920146942,0.1819998174905777,0.011825744062662125
1789058983731737600,2.595737548828125,-0.24139030277729034,0.16199442744255066,0.04668865352869034
1789058983741748200,2.605748291015625,-0.292510449886322,0.17277947068214417,0.11377831548452377
1789058983751758300,2.61575830078125,-0.34754201769828796,0.15963223576545715,0.033572956919670105
1789058983761769200,2.625769287109375,-0.3849535882472992,0.1709998995065689,0.03967708349227905
1789058983771779300,2.635779296875,-0.44431573152542114,0.18158037960529327,0.06359333544969559
1789058983781789200,2.6457890625,-0.4486548900604248,0.15175919234752655,0.08911558240652084
1789058983791800300,2.65580029296875,-0.4624876379966736,0.15217144787311554,0.07159038633108139
1789058983801810200,2.66581005859375,-0.4379628896713257,0.1289926916360855,0.09667425602674484
1789058983811820300,2.6758203125,-0.41738200187683105,0.11981863528490067,0.08323994278907776
1789058983821831200,2.6858310546875,-0.4031141996383667,0.12705884873867035,0.047468531876802444
1789058983831841300,2.69584130859375,-0.3671013414859772,0.12951801717281342,0.05014288052916527
1789058983841851100,2.70585107421875,-0.30600491166114807,0.1324557363986969,0.08107340335845947
1789058983851862300,2.7158623046875,-0.26202601194381714,0.12726470828056335,0.0616120882332325
1789058983861872000,2.7258720703125,-0.16856472194194794,0.10741797834634781,0.03929337486624718
1789058983871882200,2.73588232421875,-0.11711137741804123,0.11517257243394852,0.03046260215342045
1789058983881893000,2.74589306640625,-0.08259414881467819,0.12446882575750351,0.04501858353614807
1789058983891903200,2.7559033203125,-0.014155708253383636,0.12813040614128113,0.0504373162984848
1789058983901913000,2.7659130859375,0.046485740691423416,0.12713083624839783,0.04608353599905968
1789058983911924500,2.775924560546875,0.08001840114593506,0.12709835171699524,0.00589084392413497
1789058983921934300,2.785934326171875,0.12678024172782898,0.11951985210180283,0.03173084184527397
1789058983931944400,2.7959443359375,0.17086301743984222,0.09664862602949142,0.04614200443029404
1789058983941955300,2.805955322265625,0.19700777530670166,0.09516093879938126,0.07465237379074097
1789058983951965400,2.81596533203125,0.2032821774482727,0.08267471194267273,-0.006849946454167366
1789058983961975300,2.825975341796875,0.22976699471473694,0.08353239297866821,0.06746737658977509
1789058983971986200,2.835986083984375,0.2282649725675583,0.09611662477254868,0.08482293039560318
1789058983981996300,2.845996337890625,0.23033538460731506,0.10459576547145844,0.03863770514726639
1789058983992006400,2.85600634765625,0.2666853964328766,0.10598646849393845,0.033391278237104416
1789058984002017300,2.866017333984375,0.3026176691055298,0.12357285618782043,0.07160945981740952
1789058984012027100,2.876027099609375,0.3542097508907318,0.12692950665950775,0.040660060942173004
1789058984022037200,2.886037353515625,0.41418352723121643,0.11365299671888351,0.0038833990693092346
1789058984032048000,2.896048095703125,0.4618397355079651,0.10179953277111053,0.03244047611951828
1789058984042058200,2.906058349609375,0.49969470500946045,0.11957866698503494,0.049668990075588226
1789058984052068400,2.916068359375,0.5322848558425903,0.12033206969499588,0.06337548047304153
1789058984062079200,2.926079345703125,0.5340681076049805,0.13250435888767242,0.024360809475183487
1789058984072089000,2.936089111328125,0.5230876207351685,0.1542445421218872,0.02841360867023468
1789058984082099200,2.94609912109375,0.4869379699230194,0.15586550533771515,0.0003187034744769335
1789058984092110000,2.956110107421875,0.45589563250541687,0.15764982998371124,0.028468580916523933
1789058984102120200,2.9661201171875,0.37118932604789734,0.15414948761463165,0.03995192050933838
1789058984112130000,2.976130126953125,0.28178808093070984,0.12943509221076965,0.04953131079673767
1789058984122141400,2.986141357421875,0.16573746502399445,0.13373017311096191,0.0654199942946434
1789058984132151300,2.9961513671875,0.023239176720380783,0.14090660214424133,-0.009720567613840103
1789058984142161400,3.006161376953125,-0.06563644111156464,0.11859823763370514,-0.042035724967718124
1789058984152172300,3.01617236328125,-0.15569522976875305,0.12665429711341858,-0.023987749591469765
1789058984162182400,3.026182373046875,-0.2220129370689392,0.09337817877531052,0.019200988113880157
1789058984172192300,3.036192138671875,-0.29453134536743164,0.08891339600086212,0.04637375473976135
1789058984182203400,3.046203369140625,-0.388068288564682,0.10490905493497849,0.048452671617269516
1789058984192213200,3.056213134765625,-0.4718710482120514,0.10885746031999588,0.05828346312046051
1789058984202223400,3.066223388671875,-0.5362547636032104,0.11677075177431107,0.06362338364124298
1789058984212234200,3.076234130859375,-0.5832813382148743,0.11219783872365952,0.06746233254671097
1789058984222244400,3.086244384765625,-0.6047666072845459,0.09089366346597672,0.03519104793667793
1789058984232254200,3.096254150390625,-0.6088862419128418,0.10790087282657623,0.05088052898645401
1789058984242265300,3.106265380859375,-0.6179342269897461,0.11153210699558258,-0.010244090110063553
1789058984252275200,3.116275146484375,-0.5418288111686707,0.09497842937707901,-0.010305076837539673
1789058984262285300,3.126285400390625,-0.5375442504882812,0.128061443567276,0.01280456967651844
1789058984272296200,3.136296142578125,-0.4914449155330658,0.12446192651987076,0.0425797738134861
1789058984282306300,3.146306396484375,-0.4625173509120941,0.14710339903831482,0.011925186030566692
1789058984292316200,3.156316162109375,-0.4375864267349243,0.15152610838413239,0.012617608532309532
1789058984302327000,3.1663271484375,-0.4001106917858124,0.1435672491788864,-0.000040443381294608116
1789058984312337200,3.176337158203125,-0.34226468205451965,0.12299833446741104,-0.003920669201761484
1789058984322347300,3.18634716796875,-0.3436862826347351,0.11026837676763535,-0.028986889868974686
1789058984332358400,3.1963583984375,-0.3182019591331482,0.10097368061542511,-0.002726790262386203
1789058984342368300,3.2063681640625,-0.3304227888584137,0.11029058694839478,-0.003627138677984476
1789058984352378400,3.21637841796875,-0.3497224748134613,0.11733677983283997,0.03723027929663658
1789058984362389200,3.22638916015625,-0.3701152205467224,0.13475406169891357,0.033399052917957306
1789058984372399400,3.2363994140625,-0.3621846139431,0.0820184051990509,0.028894849121570587
1789058984382409200,3.2464091796875,-0.3389940857887268,0.0500713512301445,0.055641401559114456
1789058984392420400,3.25642041015625,-0.3824837803840637,0.027167901396751404,0.018141962587833405
1789058984402430200,3.26643017578125,-0.4515873193740845,0.026192979887127876,0.04442736506462097
1789058984412440300,3.2764404296875,-0.510932445526123,0.012301666662096977,-0.03132092207670212
1789058984422451200,3.286451171875,-0.5100978016853333,-0.016487721353769302,-0.010248296894133091
1789058984432461300,3.29646142578125,-0.5296765565872192,-0.01184183731675148,-0.037202417850494385
1789058984442471200,3.30647119140625,-0.5347849726676941,0.004047688562422991,0.025779318064451218
1789058984452482300,3.316482421875,-0.5230615139007568,0.009168680757284164,-0.029586467891931534
1789058984462492200,3.3264921875,-0.4516817629337311,0.007688968908041716,-0.04575696587562561
1789058984472502300,3.336502197265625,-0.3705219328403473,0.0001141401007771492,-0.019531752914190292
1789058984482513200,3.34651318359375,-0.2965737581253052,0.001531884539872408,0.0038664641324430704
1789058984492523300,3.356523193359375,-0.1787720024585724,-0.031645774841308594,0.028270073235034943
1789058984502533000,3.366533203125,-0.09310143440961838,-0.030239341780543327,0.029957663267850876
1789058984512544300,3.376544189453125,-0.057873938232660294,0.015667695552110672,-0.002881777472794056
1789058984522554000,3.38655419921875,-0.034100472927093506,0.051108960062265396,-0.02066817693412304
1789058984532564200,3.396564208984375,0.014393824152648449,0.06086518615484238,-0.022069266065955162
1789058984542575400,3.406575439453125,0.11766210198402405,0.03434508293867111,0.030416321009397507
1789058984552585500,3.41658544921875,0.22281861305236816,0.007093485444784164,-0.03340074419975281
1789058984562595300,3.42659521484375,0.21930645406246185,0.0012501999735832214,-0.0325581356883049
1789058984572606200,3.436606201171875,0.21817487478256226,-0.022263647988438606,0.01968296617269516
1789058984582616300,3.4466162109375,0.22583438456058502,0.03326090797781944,0.003832160495221615
1789058984592626400,3.45662646484375,0.24800626933574677,0.015359938144683838,0.015142339281737804
1789058984602637300,3.46663720703125,0.2611503303050995,0.010432331822812557,0.06421465426683426
1789058984612647200,3.476647216796875,0.2389795035123825,-0.0102178193628788,0.041307203471660614
1789058984622657300,3.4866572265625,0.28438878059387207,-0.03709150850772858,0.017357662320137024
1789058984632668200,3.496668212890625,0.26100170612335205,-0.0317649245262146,-0.02287284843623638
1789058984642678300,3.50667822265625,0.26338985562324524,-0.009484534151852131,0.010351511649787426
1789058984652688400,3.5166884765625,0.26089048385620117,0.029875919222831726,0.002228337340056896
1789058984662699300,3.52669921875,0.31422844529151917,-0.014892999082803726,0.012376219034194946
1789058984672709000,3.536709228515625,0.38194170594215393,0.005086835008114576,0.007226464804261923
1789058984682719200,3.54671923828125,0.36655789613723755,0.022946935147047043,0.01654295064508915
1789058984692730000,3.556730224609375,0.34246161580085754,0.05718054249882698,-0.01823021098971367
1789058984702740200,3.566740234375,0.32178640365600586,0.09863756597042084,-0.0145435631275177
1789058984712750000,3.57675,0.3299809694290161,0.08418859541416168,0.011126646772027016
1789058984722761200,3.58676123046875,0.33454057574272156,0.08022536337375641,-0.04960737004876137
1789058984732771000,3.59677099609375,0.29249539971351624,0.07586976140737534,0.003343996126204729
1789058984742781200,3.60678125,0.19221404194831848,0.11609197407960892,-0.03640938177704811
1789058984752792000,3.6167919921875,0.16617392003536224,0.11535001546144485,-0.045755743980407715
1789058984762802200,3.62680224609375,0.11774173378944397,0.0997813493013382,-0.019118476659059525
1789058984772813000,3.63681298828125,0.05152569338679314,0.08218877017498016,-0.07584966719150543
1789058984782823200,3.6468232421875,-0.04401912912726402,0.07969430834054947,-0.021229464560747147
1789058984792833000,3.6568330078125,-0.14394307136535645,0.07255517691373825,-0.01306554488837719
1789058984802844200,3.66684423828125,-0.21349458396434784,0.048489760607481,-0.005692747887223959
1789058984812854000,3.67685400390625,-0.35984301567077637,0.05760150030255318,0.0434122160077095
1789058984822864100,3.686864013671875,-0.4996320307254791,0.052828624844551086,0.017823603004217148
1789058984832875000,3.696875,-0.5980851054191589,0.04557843506336212,0.0007340982556343079
1789058984842885000,3.706885009765625,-0.6470186114311218,-0.002589094452559948,-0.02795214205980301
1789058984852895000,3.71689501953125,-0.6850658655166626,-0.02452874928712845,0.012043477967381477
1789058984862905900,3.72690576171875,-0.7331122756004333,-0.034196145832538605,-0.027753787115216255
1789058984872916000,3.736916015625,-0.783868670463562,-0.051704563200473785,-0.021300680935382843
1789058984882926000,3.746926025390625,-0.793017566204071,-0.048991795629262924,0.013367269188165665
1789058984892937000,3.75693701171875,-0.7808544039726257,-0.08312126994132996,-0.046317897737026215
1789058984902947000,3.766947021484375,-0.7272793054580688,-0.10468346625566483,-0.02556801773607731
1789058984912957000,3.77695703125,-0.7169196009635925,-0.11305803805589676,-0.04833724722266197
1789058984922968000,3.786968017578125,-0.7266178131103516,-0.09214773774147034,0.00429873913526535
1789058984932978200,3.796978271484375,-0.7617949843406677,-0.057284027338027954,0.11401272565126419
1789058984942988000,3.806988037109375,-0.7203287482261658,-0.06005082651972771,0.04863680526614189
1789058984952999200,3.816999267578125,-0.632584273815155,-0.10754245519638062,-0.0016319598071277142
1789058984963009000,3.827009033203125,-0.544869065284729,-0.15901651978492737,-0.0657796785235405
1789058984973019100,3.83701904296875,-0.47991132736206055,-0.16814343631267548,-0.06383397430181503
1789058984983030000,3.847030029296875,-0.4743523895740509,-0.12566252052783966,-0.03646983206272125
1789058984993040100,3.8570400390625,-0.41405150294303894,-0.08394491672515869,0.03732689470052719
1789058985003050000,3.867050048828125,-0.27648353576660156,-0.08584987372159958,0.04918168857693672
1789058985013061000,3.87706103515625,-0.16007860004901886,-0.08576571941375732,0.034701019525527954
1789058985023071000,3.887071044921875,-0.038152098655700684,-0.1311170905828476,0.04092887043952942
1789058985033081000,3.8970810546875,0.08005975931882858,-0.15380695462226868,-0.0022393721155822277
1789058985043092000,3.907092041015625,0.07699748128652573,-0.11915614455938339,-0.015454620122909546
1789058985053102000,3.91710205078125,0.13512097299098969,-0.08549432456493378,-0.007143959403038025
1789058985063112000,3.92711181640625,0.21998322010040283,-0.08182374387979507,-0.0017037009820342064
1789058985073123000,3.937123046875,0.2518972158432007,-0.06543944776058197,0.0971435159444809
1789058985083133000,3.9471328125,0.3070087730884552,-0.09400276094675064,0.07586079835891724
1789058985093143000,3.95714306640625,0.34513723850250244,-0.08577865362167358,0.10505356639623642
1789058985103154000,3.96715380859375,0.349677175283432,-0.06727012991905212,0.09546365588903427
1789058985113164000,3.9771640625,0.38040444254875183,-0.10287792235612869,-0.07435707002878189
1789058985123174000,3.987173828125,0.3278767168521881,-0.0809277817606926,-0.08243140578269958
1789058985133185000,3.99718505859375,0.2780761122703552,-0.05585624650120735,0.03729499876499176
1789058985143195100,4.007195068359375,0.2946019470691681,-0.07971689850091934,0.023327026516199112
1789058985153205200,4.017205322265625,0.25406357645988464,-0.04121957719326019,0.07114221900701523
1789058985163216100,4.027216064453125,0.24328070878982544,-0.026249416172504425,0.11209364980459213
1789058985173226200,4.037226318359375,0.29927170276641846,-0.058236051350831985,0.07522538304328918
1789058985183236000,4.047236083984375,0.24700456857681274,-0.06889602541923523,0.02139974944293499
1789058985193247000,4.0572470703125,0.2004850059747696,-0.09224183112382889,0.013552213087677956
1789058985203257000,4.067257080078125,0.13282230496406555,-0.04468100890517235,-0.0005943377036601305
1789058985213267200,4.07726708984375,0.0650927945971489,-0.06307385861873627,-0.09393201023340225
1789058985223278000,4.087278076171875,0.02786274068057537,-0.0290618147701025,-0.012819414958357811
1789058985233288000,4.097287841796875,-0.02179855667054653,-0.029456762596964836,-0.03158590942621231
1789058985243298000,4.107298095703125,-0.00933125615119934,-0.06629950553178787,-0.08282443135976791
1789058985253309000,4.117308837890625,-0.03868382051587105,-0.05356400087475777,-0.012097537517547607
1789058985263319000,4.127319091796875,-0.0714995339512825,-0.06911175698041916,-0.0005121482536196709
1789058985273329000,4.137328857421875,-0.09374731779098511,-0.07304498553276062,-0.03454867750406265
1789058985283340000,4.147340087890625,-0.1470198631286621,-0.04137418791651726,-0.10243058949708939
1789058985293350000,4.157349853515625,-0.18565966188907623,-0.049231577664613724,-0.07392863929271698
1789058985303360000,4.167360107421875,-0.19557784497737885,-0.016588713973760605,-0.06886878609657288
1789058985313371000,4.177370849609375,-0.2172676920890808,-0.03889481723308563,-0.07730993628501892
1789058985323381000,4.187381103515625,-0.17614538967609406,-0.06299503147602081,-0.027705850079655647
1789058985333390800,4.197390869140625,-0.2004707008600235,-0.05186754837632179,0.04430922120809555
1789058985343402200,4.20740234375,-0.2531901001930237,-0.08564867824316025,-0.06302202492952347
1789058985353412000,4.217412109375,-0.31909745931625366,-0.03730059042572975,0.017261357977986336
1789058985363422200,4.227422119140625,-0.35796475410461426,-0.05092886835336685,-0.10325460880994797
1789058985373433000,4.23743310546875,-0.3807246685028076,-0.07080723345279694,-0.17149226367473602
1789058985383443200,4.247443115234375,-0.3601747453212738,-0.07390043139457703,-0.09922311455011368
1789058985393453000,4.257453125,-0.36244189739227295,-0.09585154056549072,-0.06494024395942688
1789058985403464200,4.267464111328125,-0.31331875920295715,-0.09564045071601868,0.016242915764451027
1789058985413474000,4.27747412109375,-0.25759798288345337,-0.10712320357561111,0.12302927672863007
1789058985423484200,4.287484130859375,-0.2563706934452057,-0.11542598158121109,0.1090310662984848
1789058985433495000,4.2974951171875,-0.27165165543556213,-0.0800062045454979,0.057472798973321915
1789058985443505200,4.307505126953125,-0.3427368104457855,-0.07465922832489014,-0.07022368907928467
1789058985453515000,4.317514892578125,-0.32635465264320374,-0.1117277666926384,-0.16392062604427338
1789058985463526000,4.32752587890625,-0.27038151025772095,-0.13694791495800018,-0.1611601561307907
1789058985473536000,4.337535888671875,-0.20463553071022034,-0.17523857951164246,-0.06198669970035553
1789058985483546000,4.347546142578125,-0.22511224448680878,-0.14809255301952362,-0.010359613224864006
1789058985493557000,4.357556884765625,-0.23910555243492126,-0.12139596045017242,-0.025205139070749283
1789058985503567000,4.367567138671875,-0.22505240142345428,-0.10074038803577423,-0.022954657673835754
1789058985513577000,4.377576904296875,-0.15374760329723358,-0.10945425182580948,-0.03964362293481827
1789058985523587800,4.387587890625,-0.10508086532354355,-0.09931588172912598,-0.004291655030101538
1789058985533598000,4.397597900390625,-0.04179350659251213,-0.09790094196796417,0.029364310204982758
1789058985543608000,4.407608154296875,0.043225422501564026,-0.10435985028743744,-0.014559691771864891
1789058985553619200,4.417619140625,0.13384027779102325,-0.11467347294092178,-0.033834319561719894
1789058985563629000,4.427629150390625,0.18533046543598175,-0.11433855444192886,-0.09699954837560654
1789058985573639200,4.43763916015625,0.17699690163135529,-0.06841101497411728,-0.035448841750621796
1789058985583650000,4.447650146484375,0.21126797795295715,-0.061825357377529144,0.04349787160754204
1789058985593660200,4.45766015625,0.35606005787849426,-0.08477035164833069,0.12199535220861435
1789058985603671000,4.467671142578125,0.4018673896789551,-0.08943188935518265,0.09339015930891037
1789058985613681200,4.47768115234375,0.3766176998615265,-0.024740776047110558,0.004499968606978655
1789058985623691000,4.48769091796875,0.40770694613456726,-0.028432724997401237,-0.046551190316677094
1789058985633702100,4.4977021484375,0.464402437210083,-0.06051395833492279,-0.04767770692706108
1789058985643712000,4.5077119140625,0.5464267134666443,-0.06753085553646088,0.09818118065595627
1789058985653722000,4.51772216796875,0.5947614908218384,-0.07788468897342682,0.11264774203300476
1789058985663733000,4.52773291015625,0.5450109243392944,-0.04381969943642616,0.14402735233306885
1789058985673743000,4.5377431640625,0.5079091191291809,-0.005159921944141388,0.01467522419989109
1789058985683753000,4.5477529296875,0.519245982170105,0.0065961480140686035,-0.008829846046864986
1789058985693764000,4.55776416015625,0.5187638998031616,-0.017185349017381668,-0.06139452010393143
1789058985703774000,4.56777392578125,0.5149670243263245,-0.002175277564674616,-0.012720874510705471
1789058985713784000,4.5777841796875,0.52403724193573,-0.00638067489489913,0.04109868407249451
1789058985723795000,4.587794921875,0.5542973279953003,0.0027897485997527838,-0.03294765576720238
1789058985733805000,4.59780517578125,0.5651385188102722,-0.009451204910874367,0.03315200284123421
1789058985743814400,4.607814453125,0.5881631970405579,-0.015115351416170597,0.05613132193684578
1789058985753825800,4.61782568359375,0.49643808603286743,0.02665046975016594,0.06684015691280365
1789058985763835400,4.62783544921875,0.435775488615036,0.06626459956169128,0.08786607533693314
1789058985773845500,4.637845458984375,0.36974239349365234,0.09119471907615662,-0.07378993183374405
1789058985783856600,4.647856689453125,0.35422876477241516,0.06670071929693222,-0.035224273800849915
1789058985793866800,4.65786669921875,0.37367862462997437,0.046221815049648285,0.014708664268255234
1789058985803876600,4.667876708984375,0.3029136657714844,0.05232205614447594,-0.03201600909233093
1789058985813887500,4.677887451171875,0.23102159798145294,0.08218647539615631,0.024774303659796715
1789058985823897600,4.687897705078125,0.20896963775157928,0.06895148754119873,0.021292803809046745
1789058985833907700,4.69790771484375,0.17149417102336884,0.045809682458639145,0.03667522221803665
1789058985843918600,4.707918701171875,0.06201653182506561,0.05922449007630348,0.029032254591584206
1789058985853928400,4.717928466796875,-0.06124920770525932,0.07108647376298904,0.07150088995695114
1789058985863938600,4.7279384765625,-0.20729653537273407,0.07676728069782257,0.07746098190546036
1789058985873949400,4.737949462890625,-0.2962881922721863,0.05106324702501297,0.048904165625572205
1789058985883959600,4.74795947265625,-0.34459730982780457,0.01816684938967228,0.00560471136122942
1789058985893969400,4.757969482421875,-0.4186326563358307,0.026379236951470375,0.11637437343597412
1789058985903980500,4.76798046875,-0.5152998566627502,0.03156166523694992,-0.0205218642950058
1789058985913990400,4.777990478515625,-0.5821717977523804,0.04504524916410446,-0.011760862544178963
1789058985924000500,4.78800048828125,-0.5640377998352051,0.049283530563116074,-0.013304159045219421
1789058985934011400,4.798011474609375,-0.5368743538856506,0.021686788648366928,-0.015670377761125565
1789058985944021500,4.808021484375,-0.5311158299446106,0.052319176495075226,0.08468670397996902
1789058985954031400,4.81803125,-0.5558427572250366,0.08888464421033859,0.10139111429452896
1789058985964042800,4.828042724609375,-0.5645740032196045,0.0922275111079216,0.029642924666404724
1789058985974052600,4.838052490234375,-0.5348837375640869,0.1050833910703659,-0.01542548555880785
1789058985984062500,4.8480625,-0.4498768448829651,0.037572503089904785,-0.047415051609277725
1789058985994073600,4.858073486328125,-0.4003862738609314,0.004048897884786129,-0.10728663951158524
1789058986004083700,4.868083740234375,-0.3670569658279419,0.01871810108423233,-0.029093291610479355
1789058986014093600,4.878093505859375,-0.3716397285461426,0.056845247745513916,0.030894409865140915
1789058986024104700,4.888104736328125,-0.35920414328575134,0.0541638508439064,0.05330228805541992
1789058986034114600,4.898114501953125,-0.3241955637931824,0.03311076760292053,-0.03811364620923996
1789058986044124700,4.908124755859375,-0.2752913236618042,-0.003545129671692848,-0.0034189957659691572
1789058986054135600,4.918135498046875,-0.25062114000320435,-0.022963035851716995,0.04535600170493126
1789058986064145700,4.928145751953125,-0.2663119435310364,-0.0020164744928479195,0.04266860708594322
1789058986074155500,4.938155517578125,-0.2655835449695587,-0.029215337708592415,-0.017728161066770554
1789058986084166400,4.94816650390625,-0.22706158459186554,-0.03488541021943092,-0.012387452647089958
1789058986094176500,4.958176513671875,-0.2306661754846573,-0.08267876505851746,-0.038487762212753296
1789058986104186600,4.9681865234375,-0.21291425824165344,-0.09882637113332748,-0.0022741472348570824
1789058986114197500,4.978197509765625,-0.24024148285388947,-0.07599269598722458,0.01919492706656456
1789058986124207600,4.98820751953125,-0.29365992546081543,-0.08166971802711487,0.00994032435119152
1789058986134217500,4.998217529296875,-0.31554046273231506,-0.06501989811658859,-0.0006236364133656025
1789058986144228400,5.008228271484375,-0.2815529704093933,-0.11816864460706711,-0.02654779516160488
1789058986154238500,5.018238525390625,-0.2525354325771332,-0.11708474159240723,0.0031698865350335836
1789058986164248600,5.02824853515625,-0.24142318964004517,-0.12594333291053772,0.017209220677614212
1789058986174259700,5.038259765625,-0.248703733086586,-0.12882593274116516,-0.027946006506681442
1789058986184269600,5.04826953125,-0.20400242507457733,-0.10882748663425446,0.04842481389641762
1789058986194279400,5.058279541015625,-0.19530081748962402,-0.12432068586349487,-0.0021747169084846973
1789058986204290600,5.06829052734375,-0.15728679299354553,-0.11581012606620789,0.0064827557653188705
1789058986214300700,5.07830078125,-0.13219235837459564,-0.08227906376123428,0.03606807813048363
1789058986224310500,5.088310546875,-0.06297093629837036,-0.1158444806933403,0.025225596502423286
1789058986234321700,5.09832177734375,-0.0016465962398797274,-0.09516050666570663,0.003994077444076538
1789058986244331500,5.10833154296875,0.05835365504026413,-0.10065053403377533,-0.053737230598926544
1789058986254341600,5.118341552734375,0.106247678399086,-0.09508080035448074,-0.0615413598716259
1789058986264352500,5.1283525390625,0.13344411551952362,-0.05946110561490059,-0.06693868339061737
1789058986274362600,5.138362548828125,0.21689052879810333,-0.10712768882513046,-0.04834289848804474
1789058986284373500,5.14837353515625,0.2770765721797943,-0.07774356007575989,0.02306811884045601
1789058986294383600,5.158383544921875,0.26424920558929443,-0.07929085940122604,0.004554355051368475
1789058986304393500,5.1683935546875,0.2246042937040329,-0.062354251742362976,-0.0361737385392189
1789058986314404600,5.178404541015625,0.1915736347436905,-0.020356206223368645,-0.07510169595479965
1789058986324414500,5.18841455078125,0.21206103265285492,-0.043600089848041534,-0.050678592175245285
1789058986334424600,5.198424560546875,0.2660489082336426,-0.08924879878759384,-0.05263947695493698
1789058986344435500,5.208435546875,0.2801634967327118,-0.07011813670396805,0.04122026637196541
1789058986354445600,5.218445556640625,0.28616225719451904,-0.11048925668001175,0.03215166926383972
1789058986364455400,5.228455322265625,0.24230246245861053,-0.060566496104002,-0.02109695039689541
1789058986374466600,5.238466552734375,0.2152082622051239,-0.06947450339794159,-0.019862309098243713
1789058986384476700,5.2484765625,0.20255105197429657,-0.08169654756784439,-0.07239902019500732
1789058986394486800,5.25848681640625,0.16658319532871246,-0.06654982268810272,-0.06893504410982132
1789058986404497700,5.26849755859375,0.16197845339775085,-0.07492490857839584,-0.031566519290208817
1789058986414507500,5.278507568359375,0.13731253147125244,-0.06693223118782043,-0.02870015799999237
1789058986424517600,5.288517578125,0.14811265468597412,-0.07608643919229507,0.006155822426080704
1789058986434528500,5.298528564453125,0.14123237133026123,-0.06056579574942589,0.020532898604869843
1789058986444538600,5.30853857421875,0.15098698437213898,-0.09444177895784378,-0.03821920230984688
1789058986454548500,5.318548583984375,0.16619549691677094,-0.06996013969182968,0.010380023159086704
1789058986464559600,5.3285595703125,0.1838379055261612,-0.05026203393936157,0.0012868097983300686
1789058986474570500,5.338570556640625,0.22106890380382538,-0.07831284403800964,0.016942467540502548
1789058986484580600,5.34858056640625,0.32104185223579407,-0.06578586995601654,0.03141701593995094
1789058986494590500,5.358590576171875,0.331061989068985,-0.045769549906253815,-0.0069697885774075985
1789058986504601600,5.3686015625,0.3900245428085327,-0.023932281881570816,0.0036580373998731375
1789058986514611500,5.378611572265625,0.4286728799343109,0.004609881900250912,0.03048352710902691
1789058986524621600,5.38862158203125,0.4511876404285431,0.0027855972293764353,-0.019032349810004234
1789058986534632400,5.398632568359375,0.49670398235321045,0.015541872940957546,-0.02334347553551197
1789058986544642600,5.408642578125,0.5278321504592896,0.024765048176050186,-0.00876359362155199
1789058986554652400,5.41865234375,0.6039745807647705,0.016327088698744774,0.038652390241622925
1789058986564663600,5.42866357421875,0.6327040195465088,0.015450811013579369,0.05891374126076698
1789058986574673700,5.438673583984375,0.5913403034210205,0.07909689843654633,0.047371599823236465
1789058986584683800,5.448683837890625,0.5405035018920898,0.11257439106702805,0.029419489204883575
1789058986594694700,5.458694580078125,0.5298263430595398,0.12073458731174469,-0.015558373183012009
1789058986604704500,5.46870458984375,0.5305710434913635,0.12186167389154434,0.02333693392574787
1789058986614714600,5.478714599609375,0.5084407329559326,0.09151735156774521,0.02152491919696331
1789058986624725500,5.4887255859375,0.4980919659137726,0.07415783405303955,0.025687051936984062
1789058986634735600,5.498735595703125,0.46410098671913147,0.07010157406330109,0.026787204667925835
1789058986644745500,5.508745361328125,0.37778714299201965,0.0933564305305481,0.05767158418893814
1789058986654756600,5.518756591796875,0.2816915214061737,0.11638664454221725,0.03204159066081047
1789058986664766500,5.528766357421875,0.17067527770996094,0.14160969853401184,0.0045290859416127205
1789058986674776600,5.538776611328125,0.11392411589622498,0.13128861784934998,0.04458808898925781
1789058986684787500,5.548787353515625,0.039535798132419586,0.12975186109542847,-0.02808571606874466
1789058986694797600,5.558797607421875,0.014616601169109344,0.09140074253082275,-0.051407553255558014
1789058986704807400,5.568807373046875,-0.024284930899739265,0.10684369504451752,0.029195139184594154
1789058986714818600,5.578818603515625,-0.11072129011154175,0.09202240407466888,-0.06491910666227341
1789058986724828400,5.588828369140625,-0.12080448865890503,0.07610113173723221,-0.023042164742946625
1789058986734838500,5.598838623046875,-0.15102684497833252,0.09210033714771271,0.09225832670927048
1789058986744849200,5.60884912109375,-0.21492061018943787,0.0787333995103836,0.05052606016397476
1789058986754859300,5.618859375,-0.3024072051048279,0.1276395469903946,0.046382855623960495
1789058986764869000,5.628869140625,-0.33331599831581116,0.13740107417106628,0.0006116984877735376
1789058986774880300,5.63888037109375,-0.3359149694442749,0.09535561501979828,0.001485215499997139
1789058986784890000,5.64889013671875,-0.3001689016819,0.06951083242893219,0.012242571450769901
1789058986794901200,5.6589013671875,-0.277718186378479,0.02550661936402321,-0.003152895951643586
1789058986804911400,5.668911376953125,-0.2663973867893219,0.022449534386396408,0.013048871420323849
1789058986814921200,5.678921142578125,-0.3023335635662079,0.0374457947909832,0.0013437462039291859
1789058986824930300,5.688930419921875,-0.29529300332069397,0.008883270435035229,-0.07532151788473129
1789058986834940200,5.698940185546875,-0.31084373593330383,0.03593273088335991,0.03457754850387573
1789058986844951000,5.708950927734375,-0.3057887554168701,0.015057891607284546,0.04872740060091019
1789058986854961200,5.718961181640625,-0.3191826045513153,0.017503205686807632,-0.012316244654357433
1789058986864971300,5.72897119140625,-0.31795254349708557,0.040503427386283875,-0.03001493215560913
1789058986874982400,5.738982421875,-0.29380592703819275,0.013404963538050652,-0.042666543275117874
1789058986884992300,5.7489921875,-0.21975280344486237,-0.03498532623052597,-0.04102635383605957
1789058986895002400,5.75900244140625,-0.21110285818576813,-0.04003468155860901,0.04952085763216019
1789058986905013200,5.76901318359375,-0.19343504309654236,-0.053907591849565506,-0.002440178766846657
1789058986915023400,5.7790234375,-0.17160671949386597,-0.03292534500360489,0.000057866331189870834
1789058986925033200,5.789033203125,-0.14244846999645233,-0.05101630464196205,0.012363158166408539
1789058986935044400,5.79904443359375,-0.12575365602970123,-0.0633145198225975,0.01056232862174511
1789058986945054200,5.80905419921875,-0.1557731330394745,-0.02010050229728222,-0.009314635768532753
1789058986955064300,5.819064208984375,-0.1542668491601944,-0.035371333360672,-0.05134677514433861
1789058986965075200,5.8290751953125,-0.10010046511888504,-0.040354255586862564,-0.02035706676542759
1789058986975085300,5.839085205078125,-0.0561324767768383,-0.06408540904521942,-0.0587523952126503
1789058986985096200,5.84909619140625,-0.03043377585709095,-0.06870219856500626,-0.013541016727685928
1789058986995106300,5.859106201171875,0.004083986859768629,-0.08095460385084152,0.014858933165669441
1789058987005116200,5.8691162109375,0.02195395901799202,-0.0766986608505249,0.039204470813274384
1789058987015127300,5.879127197265625,0.03929939121007919,-0.06194660812616348,0.0020680201705545187
1789058987025137200,5.88913720703125,0.06243174150586128,-0.04004395380616188,-0.0029031378217041492
1789058987035147300,5.899147216796875,0.10918034613132477,-0.05585886910557747,0.009314913302659988
1789058987045158100,5.909158203125,0.15801818668842316,-0.05712231993675232,0.04558470472693443
1789058987055168300,5.919168212890625,0.1909356564283371,-0.06974411010742188,0.015094174072146416
1789058987065178000,5.92917822265625,0.23222194612026215,-0.05240748077630997,0.05055422708392143
1789058987075189200,5.939189208984375,0.25481489300727844,-0.054914578795433044,-0.032363295555114746
1789058987085199400,5.949199462890625,0.28806886076927185,-0.04330770671367645,-0.007760275155305862
1789058987095209500,5.95920947265625,0.34197843074798584,-0.05125697702169418,0.03676964342594147
1789058987105220400,5.969220458984375,0.3469652235507965,-0.03767991065979004,0.051727551966905594
1789058987115230200,5.979230224609375,0.3588940501213074,-0.019080663099884987,0.07339076697826385
1789058987125240300,5.989240234375,0.4081907570362091,-0.02482376992702484,0.05022526532411575
1789058987135251200,5.999251220703125,0.4497762620449066,-0.025424310937523842,0.011357493698596954
1789058987145261300,6.00926123046875,0.443937212228775,-0.02124544233083725,0.03662354499101639
1789058987155271200,6.019271240234375,0.45413872599601746,-0.01859026774764061,-0.0022000169847160578
1789058987165282300,6.0292822265625,0.47274839878082275,-0.01907160133123398,-0.028145749121904373
1789058987175292200,6.039292236328125,0.49787694215774536,-0.01026372890919447,-0.01704702526330948
1789058987185302300,6.04930224609375,0.5008731484413147,-0.01768864504992962,-0.015457283705472946
1789058987195313200,6.059313232421875,0.5105268359184265,-0.007208839990198612,0.0645613893866539
1789058987205323300,6.0693232421875,0.47284042835235596,0.014026939868927002,0.08056725561618805
1789058987215333000,6.0793330078125,0.4658767879009247,0.04295898973941803,-0.012616755440831184
1789058987225344300,6.08934423828125,0.46229997277259827,0.0778672993183136,-0.04081078991293907
1789058987235354000,6.09935400390625,0.4888184070587158,0.029381781816482544,-0.09669137001037598
1789058987245364200,6.1093642578125,0.46195685863494873,0.05590670555830002,0.005989314056932926
1789058987255375000,6.119375,0.4404321312904358,0.04823387414216995,-0.005875068716704845
1789058987265385200,6.12938525390625,0.3685273230075836,0.031143303960561752,0.07539262622594833
1789058987275395000,6.13939501953125,0.3129886984825134,0.05997228994965553,0.0711589977145195
1789058987285406500,6.149406494140625,0.24798889458179474,0.056672103703022,0.025511838495731354
1789058987295416300,6.159416259765625,0.20785851776599884,0.06252945959568024,-0.02409113384783268
1789058987305426400,6.169426513671875,0.15537939965724945,0.06140589714050293,-0.0582028403878212
1789058987315437300,6.179437255859375,0.15969957411289215,0.028415989130735397,-0.07928016036748886
1789058987325447400,6.189447509765625,0.1639164239168167,0.04683637246489525,-0.006021535024046898
1789058987335457300,6.199457275390625,0.16168895363807678,0.014360187575221062,-0.00837683491408825
1789058987345468200,6.20946826171875,0.08319558948278427,0.019772954285144806,0.02906660921871662
1789058987355478300,6.219478271484375,0.0035542896948754787,0.07308437675237656,-0.019722767174243927
1789058987365488400,6.22948828125,-0.04084775224328041,0.09368401020765305,-0.022783860564231873
1789058987375499300,6.239499267578125,-0.0003043196047656238,0.08639626950025558,0.011786634102463722
1789058987385509400,6.24950927734375,-0.007355060428380966,0.07855726033449173,-0.04411741718649864
1789058987395519200,6.259519287109375,-0.026670701801776886,0.049529071897268295,-0.03344932943582535
1789058987405530000,6.269530029296875,-0.0506351999938488,0.04275044426321983,-0.018193623051047325
1789058987415540200,6.279540283203125,-0.10079716891050339,0.03128260746598244,-0.030655350536108017
1789058987425550300,6.28955029296875,-0.15218019485473633,0.029039647430181503,-0.039652906358242035
1789058987435561200,6.299561279296875,-0.23297224938869476,0.05904282256960869,-0.0005936531815677881
1789058987445571000,6.309571044921875,-0.283185750246048,0.017858123406767845,0.00023395661264657974
1789058987455582200,6.319582275390625,-0.30042198300361633,0.019667476415634155,-0.002600978361442685
1789058987465592000,6.329592041015625,-0.3408786952495575,0.013540930114686489,-0.04085377976298332
1789058987475602200,6.339602294921875,-0.3372245728969574,0.0016158274374902248,-0.03450693562626839
1789058987485613300,6.34961328125,-0.31823939085006714,0.01702362671494484,-0.058520980179309845
1789058987495623400,6.35962353515625,-0.29062241315841675,-0.013351324945688248,0.00025178934447467327
1789058987505633300,6.36963330078125,-0.21515227854251862,-0.025555720552802086,-0.05278962850570679
1789058987515644400,6.37964453125,-0.20981983840465546,0.0014141099527478218,-0.028778035193681717
1789058987525654300,6.389654296875,-0.20358912646770477,0.015950839966535568,-0.00719281705096364
1789058987535664400,6.399664306640625,-0.15166893601417542,0.013867182657122612,-0.022018633782863617
1789058987545675300,6.40967529296875,-0.1302923709154129,0.02531568519771099,-0.04809726029634476
1789058987555685400,6.419685302734375,-0.09090980887413025,0.023905275389552116,-0.017239481210708618
1789058987565695200,6.4296953125,-0.08553383499383926,0.029871851205825806,-0.027430741116404533
1789058987575706400,6.439706298828125,-0.083470419049263,0.01780240423977375,-0.02331775613129139
1789058987585716200,6.44971630859375,-0.08511657267808914,0.0019902922213077545,-0.02273506298661232
1789058987595726300,6.459726318359375,-0.07572147250175476,0.008936615660786629,0.027888964861631393
1789058987605737200,6.4697373046875,-0.07353010773658752,0.003643564647063613,0.031523171812295914
1789058987615747300,6.479747314453125,-0.0762941986322403,-0.0035704057663679123,0.04932640492916107
1789058987625757200,6.489757080078125,-0.0875757560133934,0.01116217765957117,0.049845825880765915
1789058987635768000,6.49976806640625,-0.08946660161018372,0.018009431660175323,0.027746379375457764
1789058987645778200,6.509778076171875,-0.07438156008720398,0.026765314862132072,-0.012618666514754295
1789058987655788300,6.519788330078125,-0.01509214099496603,-0.002742776647210121,-0.0377354696393013
1789058987665799200,6.529799072265625,0.018833186477422714,-0.029783081263303757,-0.05789786949753761
1789058987675809000,6.53980908203125,0.020468100905418396,-0.0163708683103323,-0.0020263479091227055
1789058987685819100,6.549819091796875,0.016709372401237488,-0.015017760917544365,-0.03654099628329277
1789058987695830300,6.559830322265625,0.025824574753642082,-0.012438489124178886,-0.03015047498047352
1789058987705840400,6.56984033203125,0.028862975537776947,-0.007958520203828812,0.0865258052945137
1789058987715850200,6.579850341796875,0.04700283333659172,-0.022163288667798042,0.0762081891298294
1789058987725861400,6.589861328125,0.044745005667209625,-0.03852122277021408,0.004549714736640453
1789058987735871200,6.599871337890625,0.06262499839067459,-0.03568350523710251,0.008452893234789371
1789058987745881300,6.60988134765625,0.09298036992549896,-0.012538745999336243,-0.023768793791532516
1789058987755892200,6.619892333984375,0.16230326890945435,-0.006351156625896692,0.05448020249605179
1789058987765902300,6.62990234375,0.20519022643566132,-0.01112575363367796,0.02575833350419998
1789058987775912200,6.639912109375,0.2311059832572937,0.007597601041197777,0.0027217245660722256
1789058987785923600,6.649923583984375,0.2871643304824829,-0.0019966410472989082,-0.026557065546512604
1789058987795933400,6.659933349609375,0.3487158417701721,0.011051783338189125,-0.0020522542763501406
1789058987805943600,6.669943603515625,0.3867168724536896,-0.005023874808102846,-0.016916897147893906
1789058987815954400,6.679954345703125,0.3858127295970917,0.030605224892497063,0.03989391773939133
1789058987825964500,6.689964599609375,0.3769911229610443,0.054126158356666565,0.041173506528139114
1789058987835974400,6.699974365234375,0.4341617524623871,0.0516803115606308,0.017952870577573776
1789058987845985500,6.709985595703125,0.47813576459884644,0.03904743492603302,0.021989308297634125
1789058987855995400,6.719995361328125,0.4707857072353363,0.03410594165325165,-0.0068548559211194515
1789058987866005500,6.730005615234375,0.4395998418331146,0.04268265143036842,0.02864774502813816
1789058987876016400,6.740016357421875,0.4220954179763794,0.06807349622249603,0.041668470948934555
1789058987886026500,6.750026611328125,0.4001598656177521,0.08746763318777084,0.0023753875866532326
1789058987896036400,6.760036376953125,0.3812602162361145,0.08223958313465118,-0.057091400027275085
1789058987906047200,6.770047119140625,0.34738579392433167,0.111686572432518,0.04247264936566353
1789058987916057300,6.780057373046875,0.3301529884338379,0.1009974405169487,-0.018013330176472664
1789058987926068200,6.790068115234375,0.3258148431777954,0.07694250345230103,-0.02020377665758133
1789058987936078300,6.800078369140625,0.3434215486049652,0.0734175443649292,0.032644256949424744
1789058987946088200,6.810088134765625,0.32849639654159546,0.04279518499970436,0.03683421015739441
1789058987956099300,6.820099365234375,0.23847784101963043,0.0754183754324913,0.03215476870536804
1789058987966109200,6.830109130859375,0.15074937045574188,0.11709927022457123,0.03923310339450836
1789058987976119300,6.840119384765625,0.14259691536426544,0.07431291788816452,-0.03398784622550011
1789058987986130400,6.85013037109375,0.09229088574647903,0.09694083034992218,-0.010589673183858395
1789058987996140500,6.860140625,0.07276085764169693,0.06416290998458862,-0.004416732117533684
1789058988006150400,6.870150390625,0.04584495723247528,0.05486934259533882,-0.004943009931594133
1789058988016161500,6.88016162109375,-0.007610544096678495,0.07479245215654373,0.013246113434433937
1789058988026171400,6.89017138671875,-0.023030826821923256,0.057111602276563644,0.010931553319096565
1789058988036181500,6.900181396484375,-0.05168164521455765,0.06705477833747864,-0.028239551931619644
1789058988046192400,6.9101923828125,-0.09384264051914215,0.054963842034339905,0.01720990054309368
1789058988056202500,6.920202392578125,-0.13583321869373322,0.04409601539373398,-0.00993250496685505
1789058988066212400,6.93021240234375,-0.16274423897266388,0.03048180416226387,0.037427276372909546
1789058988076223500,6.940223388671875,-0.1661435067653656,0.017987318336963654,-0.03275847062468529
1789058988086233300,6.9502333984375,-0.2610751688480377,0.06097213551402092,-0.059812452644109726
1789058988096243500,6.960243408203125,-0.3133045732975006,0.05941525101661682,-0.04059241712093353
1789058988106254300,6.97025439453125,-0.28303489089012146,0.03673379123210907,-0.016872532665729523
1789058988116264400,6.980264404296875,-0.25601285696029663,-0.024538885802030563,0.0007304283790290356
1789058988126274300,6.9902744140625,-0.22966736555099487,-0.027067720890045166,0.036212898790836334
1789058988136285200,7.00028515625,-0.243929922580719,-0.022121962159872055,-0.04109494015574455
1789058988146295300,7.01029541015625,-0.2986338138580322,-0.017745837569236755,-0.08252131193876266
1789058988156305400,7.020305419921875,-0.2846146523952484,-0.003734148573130369,-0.037211887538433075
1789058988166316300,7.03031640625,-0.23438969254493713,-0.04356471449136734,-0.018437892198562622
1789058988176326400,7.040326416015625,-0.21663068234920502,-0.04440920799970627,-0.013364836573600769
1789058988186336300,7.050336181640625,-0.20456936955451965,-0.03724825009703636,0.0415237694978714
1789058988196347400,7.060347412109375,-0.1788589507341385,-0.030393803492188454,0.0058219656348228455
1789058988206357500,7.070357421875,-0.14945070445537567,-0.02442300319671631,-0.024044279009103775
1789058988216367400,7.080367431640625,-0.11270254850387573,-0.011611334048211575,-0.054788872599601746
1789058988226378500,7.09037841796875,-0.07263528555631638,-0.012268870137631893,-0.019898535683751106
1789058988236388400,7.100388427734375,-0.021244533360004425,-0.03296855464577675,-0.023748934268951416
1789058988246398500,7.1103984375,0.046661101281642914,-0.035604655742645264,0.028132794424891472
1789058988256409300,7.120409423828125,0.09310263395309448,-0.04751777648925781,-0.040681689977645874
1789058988266419500,7.13041943359375,0.10219457745552063,-0.014491011388599873,-0.019294532015919685
1789058988276429300,7.14042919921875,0.13737013936042786,0.003301035612821579,-0.011011035181581974
1789058988286440400,7.1504404296875,0.16416619718074799,0.0022938030306249857,0.012902653776109219
1789058988296450300,7.1604501953125,0.20965886116027832,0.012768015265464783,0.0005229490343481302
1789058988306460400,7.17046044921875,0.25078678131103516,0.029614834114909172,0.02283998765051365
1789058988316471300,7.18047119140625,0.3059094250202179,-0.0118631012737751,-0.03726409748196602
1789058988326481400,7.1904814453125,0.3360407054424286,0.015032246708869934,0.01210122462362051
1789058988336491300,7.2004912109375,0.3547193109989166,0.0031508200336247683,-0.03584925830364227
1789058988346502400,7.21050244140625,0.3915307819843292,0.011194691061973572,-0.02927306480705738
1789058988356512300,7.22051220703125,0.4050289988517761,0.021914180368185043,0.017692845314741135
1789058988366522400,7.2305224609375,0.39059245586395264,0.023620571941137314,-0.0006884494796395302
1789058988376533200,7.240533203125,0.38849470019340515,0.015616973862051964,-0.010183950886130333
1789058988386543400,7.25054345703125,0.3855360746383667,0.01978617161512375,0.015124011784791946
1789058988396554500,7.260554443359375,0.37903714179992676,0.006619236897677183,-0.00006532808765769005
1789058988406564400,7.270564453125,0.3381994962692261,0.02625720202922821,0.004397276323288679
1789058988416574500,7.280574462890625,0.30745944380760193,0.03875381872057915,0.03312798961997032
1789058988426585300,7.29058544921875,0.28984472155570984,0.03967465087771416,0.027804424986243248
1789058988436595500,7.300595458984375,0.26002824306488037,0.03343886137008667,-0.03309567645192146
1789058988446605600,7.31060546875,0.23905467987060547,0.05803082138299942,0.01995609700679779
1789058988456616400,7.320616455078125,0.256134033203125,0.03725443407893181,0.008236856199800968
1789058988466626300,7.330626220703125,0.2772323787212372,-0.009394424967467785,-0.05700074881315231
1789058988476636400,7.340636474609375,0.26311230659484863,0.006144587881863117,0.028078459203243256
1789058988486647300,7.350647216796875,0.252721905708313,-0.020485762506723404,0.022896762937307358
1789058988496657400,7.360657470703125,0.24289484322071075,-0.002779470756649971,0.005091667640954256
1789058988506667300,7.370667236328125,0.2248198688030243,0.024316120892763138,0.07142280042171478
1789058988516678400,7.380678466796875,0.20757244527339935,0.015929559245705605,0.09569751471281052
1789058988526688300,7.390688232421875,0.21100245416164398,0.022269465029239655,0.05375944450497627
1789058988536698400,7.400698486328125,0.23091064393520355,0.0158576387912035,0.04345647245645523
1789058988546709200,7.410709228515625,0.24529291689395905,0.011192820966243744,0.0003772799391299486
1789058988556719400,7.42071923828125,0.25025704503059387,0.01844301074743271,-0.012426134198904037
1789058988566729200,7.430729248046875,0.2826829254627228,-0.002816384192556143,0.0023495208006352186
1789058988576740400,7.440740234375,0.303325355052948,0.0026691954117268324,0.012573394924402237
1789058988586750200,7.450750244140625,0.28440457582473755,0.02966899983584881,-0.004564362578094006
1789058988596760300,7.46076025390625,0.28478753566741943,0.06022211164236069,-0.008928484283387661
1789058988606771500,7.470771484375,0.29168492555618286,0.07019709795713425,0.035036131739616394
1789058988616781600,7.480781494140625,0.33050769567489624,0.03138845041394234,-0.017779143527150154
1789058988626791400,7.49079150390625,0.3358146846294403,0.03169066458940506,-0.02718973346054554
1789058988636802600,7.500802490234375,0.3115663230419159,0.03865829482674599,0.008591167628765106
1789058988646812400,7.5108125,0.2725650668144226,0.032978132367134094,-0.014571793377399445
1789058988656822500,7.520822509765625,0.21273928880691528,0.04630459100008011,0.018654869869351387
1789058988666833400,7.53083349609375,0.15479977428913116,0.03266757354140282,0.011972852982580662
1789058988676843500,7.540843505859375,0.08326727151870728,0.03419170156121254,0.04386793449521065
1789058988686853400,7.550853271484375,0.031158022582530975,0.023200610652565956,0.0015256444457918406
1789058988696864300,7.5608642578125,-0.001709114876575768,0.012100555002689362,-0.01088388729840517
1789058988706874400,7.570874267578125,-0.02972392737865448,0.022554606199264526,-0.014273347333073616
1789058988716884500,7.580884521484375,-0.0604698546230793,0.02100571244955063,0.025099359452724457
1789058988726895400,7.590895263671875,-0.06475883722305298,0.0016645877622067928,0.035785771906375885
1789058988736905200,7.6009052734375,-0.09809654951095581,0.030576130375266075,0.06401287764310837
1789058988746915600,7.61091552734375,-0.09447875618934631,0.023452769964933395,0.06694795191287994
1789058988756926500,7.620926513671875,-0.09460659325122833,0.05285513401031494,-0.006986190564930439
1789058988766936600,7.6309365234375,-0.08708226680755615,0.04397343471646309,-0.03517632931470871
1789058988776946400,7.640946533203125,-0.0312831811606884,0.038364019244909286,-0.0487736314535141
1789058988786957600,7.65095751953125,0.01675163023173809,0.013731434009969234,-0.03664634749293327
1789058988796967400,7.660967529296875,0.06550105661153793,-0.027882855385541916,0.026533951982855797
1789058988806977500,7.6709775390625,0.07168640941381454,-0.011232975870370865,0.04997323453426361
1789058988816988400,7.680988525390625,0.05732105299830437,0.006103936582803726,0.04502641409635544
1789058988826998500,7.69099853515625,0.06828701496124268,0.028474153950810432,-0.0007684675510972738
1789058988837009400,7.701009521484375,0.11157350242137909,0.03326065093278885,-0.004695298615843058
1789058988847019500,7.71101953125,0.19978082180023193,0.027164330706000328,0.010278645902872086
1789058988857029400,7.721029296875,0.30371227860450745,-0.011722348630428314,0.04754985123872757
1789058988867040500,7.73104052734375,0.3996252417564392,-0.047926295548677444,0.12943407893180847
1789058988877050400,7.74105029296875,0.45133131742477417,-0.04590415954589844,0.22663386166095734
1789058988887060500,7.751060546875,0.4460815191268921,0.009837562218308449,0.2023225575685501
1789058988897071600,7.761071533203125,0.4994813799858093,0.06414474546909332,0.1664942502975464
1789058988907081700,7.771081787109375,0.575183629989624,0.13981933891773224,0.14997829496860504
1789058988917091600,7.781091552734375,0.6964298486709595,0.15317402780056,0.07797466963529587
1789058988927102500,7.7911025390625,0.8448637127876282,0.16400600969791412,0.0876476913690567
1789058988937112600,7.801112548828125,0.974884569644928,0.1693515032529831,0.08515603840351105
1789058988947122700,7.811122802734375,1.0622681379318237,0.17307934165000916,0.0730505883693695
1789058988957133600,7.821133544921875,1.0912991762161255,0.21161314845085144,0.15005776286125183
1789058988967143400,7.831143310546875,1.1024106740951538,0.23616093397140503,0.09980864822864532
1789058988977153500,7.841153564453125,1.047000527381897,0.30366644263267517,0.09440615773200989
1789058988987164400,7.851164306640625,1.0487126111984253,0.3305628299713135,0.12073368579149246
1789058988997174500,7.861174560546875,1.0606955289840698,0.31544142961502075,0.10599815100431442
1789058989007184400,7.871184326171875,1.049165964126587,0.3176494240760803,0.12782683968544006
1789058989017195500,7.881195556640625,0.973938524723053,0.33688488602638245,0.11420024931430817
1789058989027205400,7.891205322265625,0.9214736819267273,0.31482815742492676,0.13131453096866608
1789058989037215500,7.901215576171875,0.8092643022537231,0.3127032220363617,0.13026177883148193
1789058989047226400,7.911226318359375,0.6953496336936951,0.2744845747947693,0.11230111122131348
1789058989057236500,7.921236572265625,0.540248692035675,0.26069071888923645,0.13773110508918762
1789058989067246300,7.931246337890625,0.327913373708725,0.28008267283439636,0.07935012876987457
1789058989077257500,7.941257568359375,0.12229496240615845,0.2785162031650543,0.060536228120326996
1789058989087267300,7.951267333984375,-0.032627396285533905,0.2715437114238739,0.08490974456071854
1789058989097277400,7.96127734375,-0.15443265438079834,0.22971531748771667,0.04568776860833168
1789058989107288600,7.97128857421875,-0.22368578612804413,0.20289510488510132,0.11537832766771317
1789058989117298700,7.981298583984375,-0.27915117144584656,0.17193080484867096,0.15059250593185425
1789058989127308500,7.99130859375,-0.3381361961364746,0.15869387984275818,0.12587758898735046
1789058989137319700,8.001319580078125,-0.406063050031662,0.1804274022579193,0.11683189868927002
1789058989147329500,8.01132958984375,-0.4640611410140991,0.18012285232543945,0.1173403412103653
1789058989157339600,8.021339599609375,-0.4724716544151306,0.17912310361862183,0.05808952823281288
1789058989167350500,8.0313505859375,-0.4972784221172333,0.16141322255134583,0.01715998910367489
1789058989177360600,8.041360595703125,-0.5301194787025452,0.13270753622055054,0.059025414288043976
1789058989187370500,8.05137060546875,-0.5318291187286377,0.11400054395198822,-0.002054136712104082
1789058989197381400,8.06138134765625,-0.5929960608482361,0.09042437374591827,0.025616904720664024
1789058989207391500,8.0713916015625,-0.6537224650382996,0.10124212503433228,0.05528431758284569
1789058989217401600,8.081401611328126,-0.6911595463752747,0.09724631905555725,0.02196257747709751
1789058989227412500,8.09141259765625,-0.7347452640533447,0.07320975512266159,0.07713209092617035
1789058989237422600,8.101422607421876,-0.7697418332099915,0.05754610896110535,0.0939057469367981
1789058989247432400,8.111432373046876,-0.7788997888565063,0.03664524853229523,0.0949312224984169
1789058989257443300,8.121443359375,-0.7992804646492004,0.035014063119888306,0.0808689296245575
1789058989267453400,8.131453369140624,-0.8023301362991333,0.01784769631922245,-0.019344642758369446
1789058989277464300,8.14146435546875,-0.7905288934707642,0.020577169954776764,-0.0636868104338646
1789058989287474400,8.151474365234375,-0.7980655431747437,0.021683569997549057,-0.08654813468456268
1789058989297484300,8.161484375,-0.7662231922149658,0.005502735264599323,-0.1354895681142807
1789058989307495700,8.17149560546875,-0.7562893033027649,0.003912511747330427,-0.09424180537462234
1789058989317505500,8.181505615234375,-0.711897611618042,-0.022428281605243683,-0.10221903771162033
1789058989327515600,8.191515625,-0.6545467972755432,-0.013131298124790192,-0.04784350469708443
1789058989337526500,8.201526611328125,-0.6211116313934326,0.003758735489100218,-0.06982896476984024
1789058989347536600,8.21153662109375,-0.5483014583587646,0.0102991983294487,-0.08260230720043182
1789058989357546500,8.22154638671875,-0.43706974387168884,0.023497290909290314,-0.04319843649864197
1789058989367557600,8.2315576171875,-0.3281858265399933,0.03952140361070633,-0.039102260023355484
1789058989377567500,8.2415673828125,-0.21033670008182526,0.018185222521424294,-0.06667662411928177
1789058989387577600,8.25157763671875,-0.07495912909507751,0.011778664775192738,-0.04632291570305824
1789058989397588500,8.26158837890625,0.05762474238872528,0.0026663928292691708,-0.04351700842380524
1789058989407598600,8.2715986328125,0.14430230855941772,0.0030163091141730547,-0.026767509058117867
1789058989417608400,8.2816083984375,0.16538681089878082,0.023397747427225113,-0.007193008437752724
1789058989427619600,8.29161962890625,0.2004268765449524,0.028770174831151962,-0.01387073751538992
1789058989437629400,8.30162939453125,0.24847136437892914,0.03176836296916008,0.005643841810524464
1789058989447639600,8.3116396484375,0.2982892096042633,0.014357907697558403,0.019552893936634064
1789058989457650400,8.321650390625,0.3379040062427521,0.014083068817853928,0.03547193855047226
1789058989467660500,8.33166064453125,0.36224889755249023,-0.008852849714457989,0.01304748933762312
1789058989477670400,8.34167041015625,0.3667350113391876,-0.018865536898374557,0.018706172704696655
1789058989487681300,8.351681396484375,0.3704345226287842,-0.02507556974887848,0.06095699220895767
1789058989497691400,8.36169140625,0.35248294472694397,-0.033476512879133224,0.06528196483850479
1789058989507701500,8.371701416015625,0.3064780533313751,-0.025281937792897224,0.03488774225115776
1789058989517712600,8.381712646484376,0.22683675587177277,-0.016801901161670685,0.007939481176435947
1789058989527722500,8.391722412109376,0.1808515340089798,-0.04768499732017517,-0.007708925753831863
1789058989537732600,8.401732666015626,0.1465635895729065,-0.06746935844421387,-0.001835856819525361
1789058989547743500,8.411743408203124,0.0752905085682869,-0.06698723882436752,-0.017231687903404236
1789058989557753600,8.421753662109374,0.02170717529952526,-0.08269988745450974,0.045410655438899994
1789058989567763500,8.431763427734374,0.012463923543691635,-0.08605894446372986,0.002672590082511306
1789058989577774600,8.441774658203125,-0.004600014537572861,-0.09227556735277176,-0.03131573647260666
1789058989587784400,8.451784423828125,-0.018344683572649956,-0.08538766950368881,0.005347914062440395
1789058989597794600,8.461794677734375,-0.015696968883275986,-0.07031337916851044,-0.038432586938142776
1789058989607805400,8.471805419921875,0.009353500790894032,-0.078485868871212,-0.06021282449364662
1789058989617815600,8.481815673828125,0.08031795173883438,-0.07761208713054657,-0.031992107629776
1789058989627825400,8.491825439453125,0.1520112305879593,-0.12254136800765991,-0.021682899445295334
1789058989637836500,8.50183642578125,0.18591992557048798,-0.10600314289331436,-0.013550670817494392
1789058989647846400,8.511846435546875,0.18684031069278717,-0.06736445426940918,0.04480231925845146
1789058989657857500,8.521857421875,0.17398416996002197,-0.022299770265817642,0.04498660936951637
1789058989667867400,8.531867431640626,0.16429449617862701,0.017606377601623535,0.0034494667779654264
1789058989677877500,8.54187744140625,0.2152269184589386,0.02534019574522972,0.0017945787403732538
1789058989687888600,8.551888671875,0.2380496859550476,0.02435801923274994,-0.045370493084192276
1789058989697898800,8.561898681640624,0.27239352464675903,0.02917328104376793,-0.021341055631637573
1789058989707908400,8.571908447265624,0.3535866439342499,0.013922955840826035,-0.03129222244024277
1789058989717919500,8.58191943359375,0.4118507504463196,0.013829478994011879,-0.022973572835326195
1789058989727929600,8.5919296875,0.43628859519958496,0.03423197567462921,-0.013077901676297188
1789058989737939700,8.601939697265625,0.47431108355522156,0.03948346525430679,0.0207290630787611
1789058989747950300,8.611950439453125,0.49189841747283936,0.06724096089601517,0.04260176420211792
1789058989757960200,8.621960205078125,0.5131616592407227,0.08967169374227524,0.029739493504166603
1789058989767970300,8.63197021484375,0.5247845649719238,0.108806312084198,0.01277807168662548
1789058989777981400,8.6419814453125,0.53403240442276,0.14136585593223572,0.012270741164684296
1789058989787991600,8.651991455078125,0.5686309337615967,0.12046269327402115,0.013999192044138908
1789058989798001400,8.66200146484375,0.5973371267318726,0.11306975781917572,0.017597390338778496
1789058989808012500,8.672012451171875,0.5579120516777039,0.1338619738817215,0.01661073789000511
1789058989818022400,8.6820224609375,0.5220254063606262,0.1424349546432495,0.002337260637432337
1789058989828032500,8.692032470703126,0.48779380321502686,0.13785238564014435,-0.03450118750333786
1789058989838043400,8.70204345703125,0.43394678831100464,0.13785451650619507,0.01309722475707531
1789058989848053500,8.712053466796876,0.3643128573894501,0.12873217463493347,0.002527204342186451
1789058989858063400,8.7220634765625,0.27956709265708923,0.12672920525074005,0.005328050814568996
1789058989868074500,8.732074462890624,0.17102059721946716,0.1426938772201538,0.010650831274688244
1789058989878084400,8.74208447265625,0.06252314150333405,0.1534852683544159,-0.010730091482400894
1789058989888094500,8.752094482421874,-0.056519411504268646,0.15732580423355103,-0.02074664644896984
1789058989898105300,8.762105224609375,-0.13151802122592926,0.15074539184570312,-0.026891890913248062
1789058989908115500,8.772115478515625,-0.1543014496564865,0.11511985957622528,0.005149242468178272
1789058989918125300,8.782125244140625,-0.18486228585243225,0.07786436378955841,-0.01613074541091919
1789058989928136400,8.792136474609375,-0.246916726231575,0.08944611251354218,-0.00964964646846056
1789058989938146300,8.802146240234375,-0.31525158882141113,0.0984308123588562,-0.01870439387857914
1789058989948156400,8.812156494140625,-0.3907453119754791,0.13448114693164825,-0.03360392525792122
1789058989958167300,8.822167236328125,-0.45719650387763977,0.1537049114704132,-0.03161907196044922
1789058989968177400,8.832177490234375,-0.4796304404735565,0.14907483756542206,-0.0539277046918869
1789058989978187300,8.842187255859375,-0.4861690402030945,0.12550640106201172,-0.05819648504257202
1789058989988198400,8.852198486328126,-0.4938221573829651,0.09367810934782028,-0.05099403113126755
1789058989998208500,8.86220849609375,-0.5021485686302185,0.0741821676492691,-0.07567540556192398
1789058990008218600,8.872218505859376,-0.526050865650177,0.06514254957437515,-0.06265765428543091
1789058990018229500,8.8822294921875,-0.5767865180969238,0.08329838514328003,-0.03342893347144127
1789058990028239600,8.892239501953124,-0.6404666304588318,0.0842536985874176,-0.04506523907184601
1789058990038249500,8.90224951171875,-0.6890221834182739,0.09000851958990097,0.015470271930098534
1789058990048260400,8.91226025390625,-0.7216086983680725,0.08914047479629517,0.016093933954834938
1789058990058270500,8.9222705078125,-0.7201839089393616,0.041066691279411316,-0.0057509103789925575
1789058990068281300,8.93228125,-0.7111489176750183,-0.001734202727675438,-0.030864102765917778
1789058990078291500,8.94229150390625,-0.723495364189148,-0.018680430948734283,-0.019277753308415413
1789058990088301300,8.95230126953125,-0.7262659668922424,-0.047992490231990814,0.009338079020380974
1789058990098312400,8.9623125,-0.7418728470802307,-0.03802001476287842,0.03193739801645279
1789058990108322300,8.972322265625,-0.7628260254859924,-0.06306342035531998,-0.012707679532468319
1789058990118332400,8.98233251953125,-0.7443253397941589,-0.07567428797483444,0.005718732252717018
1789058990128343300,8.99234326171875,-0.7572260499000549,-0.04842929542064667,0.021649805828928947
1789058990138353400,9.002353515625,-0.7272074222564697,-0.08018935471773148,-0.07286151498556137
1789058990148363300,9.01236328125,-0.6683540344238281,-0.08395987749099731,-0.050546832382678986
1789058990158374400,9.02237451171875,-0.643174409866333,-0.08256411552429199,-0.02330322563648224
1789058990168384300,9.03238427734375,-0.5961210131645203,-0.09661820530891418,-0.03385654091835022
1789058990178394400,9.042394287109374,-0.5610660910606384,-0.09555533528327942,-0.034057874232530594
1789058990188405500,9.052405517578125,-0.5356602668762207,-0.07688770443201065,0.013714662753045559
1789058990198415600,9.06241552734375,-0.48819664120674133,-0.0943753570318222,0.022880729287862778
1789058990208425500,9.072425537109375,-0.445211797952652,-0.09623349457979202,0.02614705078303814
1789058990218436400,9.082436279296875,-0.3961917757987976,-0.11000789701938629,0.01300594862550497
1789058990228446500,9.092446533203125,-0.3370511829853058,-0.12363170832395554,-0.019006527960300446
1789058990238456600,9.10245654296875,-0.295492023229599,-0.13443295657634735,-0.05983598530292511
1789058990248467500,9.112467529296875,-0.23680664598941803,-0.11882087588310242,-0.01213036198168993
1789058990258477600,9.1224775390625,-0.20272085070610046,-0.1091352254152298,-0.026038721203804016
1789058990268487400,9.1324873046875,-0.1438259482383728,-0.10521206259727478,-0.013633443973958492
1789058990278498300,9.142498291015626,-0.10216639190912247,-0.08834280073642731,-0.02772795781493187
1789058990288508400,9.15250830078125,-0.02756991796195507,-0.05500534921884537,0.047452546656131744
1789058990298518500,9.1625185546875,0.04347410053014755,-0.09877984970808029,-0.0027020180132240057
1789058990308529400,9.172529296875,0.1300256848335266,-0.0960003063082695,0.026228677481412888
1789058990318539300,9.182539306640624,0.1820603907108307,-0.10026269406080246,0.023918919265270233
1789058990328549400,9.19254931640625,0.22824425995349884,-0.10415589064359665,-0.020747918635606766
1789058990338560300,9.202560302734375,0.24780356884002686,-0.07984789460897446,-0.032423749566078186
1789058990348570400,9.2125703125,0.29554086923599243,-0.05308070033788681,0.006924353539943695
1789058990358580200,9.222580322265625,0.34838196635246277,-0.05435901880264282,-0.026360098272562027
1789058990368591400,9.23259130859375,0.4170192778110504,-0.034619659185409546,-0.030324500054121017
1789058990378601200,9.242601318359375,0.48565053939819336,-0.024279404431581497,-0.03646441921591759
1789058990388611300,9.252611328125,0.5687139630317688,-0.032177262008190155,-0.03814304992556572
1789058990398622500,9.26262255859375,0.6303059458732605,-0.009939603507518768,0.002268289914354682
1789058990408632600,9.272632568359375,0.6773982644081116,-0.01852641999721527,0.04331526532769203
1789058990418642400,9.282642333984375,0.6927087903022766,-0.006602114997804165,0.047291629016399384
1789058990428653600,9.292653564453126,0.6528685688972473,-0.005906431935727596,0.024764755740761757
1789058990438663400,9.302663330078126,0.5803557634353638,0.01894884929060936,0.02768091671168804
1789058990448674600,9.312674560546874,0.49415484070777893,0.04180170223116875,-0.0016423509223386645
1789058990458684400,9.322684326171874,0.4367339015007019,0.04505182057619095,0.012857761234045029
1789058990468694500,9.332694580078124,0.37588515877723694,0.025146517902612686,0.027063757181167603
1789058990479957200,9.343957275390625,0.27743473649024963,0.016514945775270462,-0.021828949451446533
1789058990489968600,9.35396875,0.21691787242889404,-0.002810015808790922,-0.00499297957867384
1789058990499978500,9.363978515625,0.12448380887508392,0.01747075468301773,0.04450586438179016
1789058990509988400,9.37398828125,0.01933996193110943,0.01288045383989811,-0.000757190166041255
1789058990519999500,9.38399951171875,-0.06588971614837646,0.015090079046785831,-0.019656313583254814
1789058990530009600,9.394009521484374,-0.1516338437795639,-0.024151377379894257,0.0029538427479565144
1789058990540019500,9.40401953125,-0.21975404024124146,-0.047008756548166275,0.04137792810797691
1789058990550030600,9.414030517578125,-0.3032248616218567,-0.0722188875079155,0.02041585184633732
1789058990560040400,9.42404052734375,-0.432245671749115,-0.07550176233053207,-0.007060780189931393
1789058990570050600,9.434050537109375,-0.5714288949966431,-0.037488870322704315,-0.01417514868080616
1789058990580061400,9.4440615234375,-0.6548041701316833,-0.02073039673268795,-0.00731431320309639
1789058990590071600,9.454071533203125,-0.7008809447288513,-0.003570930100977421,-0.037829820066690445
1789058990600081400,9.464081298828125,-0.6955860257148743,-0.03342576324939728,-0.083977609872818
1789058990610092300,9.47409228515625,-0.6413476467132568,-0.07836747914552689,-0.06580684334039688
1789058990620102400,9.484102294921875,-0.5759316086769104,-0.10816265642642975,-0.012708207592368126
1789058990630112500,9.494112548828125,-0.5716818571090698,-0.11181654036045074,0.0221199132502079
1789058990640123400,9.504123291015626,-0.5675497055053711,-0.09543810039758682,0.03212461248040199
1789058990650133200,9.51413330078125,-0.5672073364257812,-0.07162511348724365,0.013903534039855003
1789058990660143400,9.524143310546876,-0.5296077728271484,-0.052189894020557404,0.02917063795030117
1789058990670154200,9.534154296875,-0.4235996603965759,-0.06999098509550095,0.018101150169968605
1789058990680164400,9.544164306640624,-0.29725852608680725,-0.09054339677095413,0.01921514980494976
1789058990690174500,9.554174560546874,-0.16515950858592987,-0.0988287702202797,0.0014031457249075174
1789058990700185600,9.564185546875,-0.05303376913070679,-0.08093366026878357,0.02376917190849781
1789058990710195500,9.574195556640625,0.04342769831418991,-0.07519378513097763,-0.026640823110938072
1789058990720205300,9.584205322265625,0.1402495801448822,-0.06066916882991791,0.0035791301634162664
1789058990730216400,9.594216552734375,0.2152845412492752,-0.0639738067984581,-0.0024308576248586178
1789058990740226600,9.6042265625,0.2843826413154602,-0.07967554032802582,-0.04709552973508835
1789058990750236400,9.614236328125,0.36413148045539856,-0.0948253720998764,-0.02392987534403801
1789058990760247600,9.62424755859375,0.39985430240631104,-0.10702024400234222,0.008247502148151398
1789058990770257400,9.63425732421875,0.4452480375766754,-0.09844750910997391,0.0615825317800045
1789058990780267500,9.644267578125,0.4765892028808594,-0.10652061551809311,0.06364834308624268
1789058990790278400,9.6542783203125,0.5044517517089844,-0.09464093297719955,0.02600887417793274
1789058990800288500,9.66428857421875,0.5688597559928894,-0.07354337722063065,0.0319778174161911
1789058990810299400,9.67429931640625,0.6450098156929016,-0.04109935462474823,0.053474362939596176
1789058990820308500,9.68430859375,0.7232604026794434,-0.030482929199934006,0.034097202122211456
1789058990830318300,9.694318359375,0.8301640748977661,-0.021105192601680756,0.0011764529626816511
1789058990840328400,9.704328369140624,0.9528743028640747,-0.012932482175529003,0.031297869980335236
1789058990850339300,9.71433935546875,1.0202380418777466,-0.006980010308325291,0.0415751151740551
1789058990860349400,9.724349365234374,1.055974006652832,0.02174750715494156,0.05916555970907211
1789058990870359300,9.734359375,1.0983266830444336,0.03961192071437836,0.026782887056469917
1789058990880370700,9.74437060546875,1.1238895654678345,0.06688348948955536,0.03201226890087128
1789058990890380500,9.754380615234375,1.1164746284484863,0.08901826292276382,0.031109001487493515
1789058990900390700,9.764390625,1.1234270334243774,0.10006771236658096,0.04041408374905586
1789058990910401500,9.774401611328125,1.146575689315796,0.10445758700370789,0.01730615645647049
1789058990920411600,9.78441162109375,1.1308091878890991,0.1173158586025238,0.014324217103421688
1789058990930421500,9.79442138671875,1.0744866132736206,0.14843395352363586,0.05165516957640648
1789058990940432600,9.8044326171875,1.0070098638534546,0.16260595619678497,0.061877716332674026
1789058990950442500,9.8144423828125,0.9215982556343079,0.16599023342132568,0.018275653943419456
1789058990960452600,9.82445263671875,0.8599671125411987,0.15624146163463593,0.05062853544950485
1789058990970463500,9.83446337890625,0.7793010473251343,0.13147687911987305,0.05807366222143173
1789058990980473600,9.8444736328125,0.6442843675613403,0.11588405817747116,0.07964633405208588
1789058990990484500,9.854484375,0.48931509256362915,0.1282953917980194,0.06813956052064896
1789058991000494600,9.86449462890625,0.3322945833206177,0.15118420124053955,0.09515466541051865
1789058991010504400,9.87450439453125,0.17850300669670105,0.15473967790603638,0.06592880189418793
1789058991020515300,9.884515380859375,0.030806751921772957,0.1401870995759964,0.05756647512316704
1789058991030525400,9.894525390625,-0.031191308051347733,0.08647237718105316,0.012031333521008492
1789058991040535600,9.90453564453125,-0.10333447903394699,0.06378677487373352,0.029517116025090218
1789058991050546400,9.91454638671875,-0.20697201788425446,0.08211129158735275,0.0460493303835392
1789058991060556300,9.924556396484375,-0.31902289390563965,0.10224398970603943,0.06256093084812164
1789058991070566400,9.93456640625,-0.40619683265686035,0.13737958669662476,0.07423815131187439
1789058991080577500,9.94457763671875,-0.45441684126853943,0.1311832219362259,0.035625774413347244
1789058991090587600,9.954587646484375,-0.48340028524398804,0.12369359284639359,0.008992345072329044
1789058991100597500,9.964597412109375,-0.5116584897041321,0.09515276551246643,0.014614277519285679
1789058991110608600,9.974608642578126,-0.5272941589355469,0.05989880859851837,0.047104112803936005
1789058991120618500,9.984618408203126,-0.5861585140228271,0.06325598806142807,0.0056227147579193115
1789058991130628600,9.994628662109376,-0.6463006138801575,0.056692421436309814,0.04537925124168396
1789058991140639500,10.004639404296874,-0.6735812425613403,0.06158864498138428,0.02900160849094391
1789058991150649600,10.014649658203124,-0.7248145341873169,0.05883689224720001,-0.03269699960947037
1789058991160659500,10.024659423828124,-0.7322533130645752,0.053436536341905594,0.009776955470442772
1789058991170670600,10.034670654296875,-0.722368597984314,0.06064143404364586,-0.00536544993519783
1789058991180680400,10.044680419921875,-0.6896783113479614,0.04788356274366379,-0.011060087941586971
1789058991190690600,10.054690673828125,-0.6542237997055054,0.010496484115719795,-0.030584152787923813
1789058991200701400,10.064701416015625,-0.6375750303268433,0.018913671374320984,0.0045993998646736145
1789058991210711600,10.074711669921875,-0.6175333857536316,0.01573052443563938,0.03800370544195175
1789058991220721400,10.084721435546875,-0.592025101184845,-0.004694855771958828,0.017370864748954773
1789058991230732500,10.094732666015625,-0.5696030855178833,-0.003937873989343643,-0.013005327433347702
1789058991240742400,10.104742431640625,-0.4994039833545685,-0.01799696683883667,-0.011499842628836632
1789058991250752500,10.11475244140625,-0.3938087224960327,-0.030167806893587112,0.008840282447636127
1789058991260763400,10.124763427734376,-0.29834505915641785,-0.019115155562758446,-0.007797815836966038
1789058991270773500,10.1347734375,-0.1875688135623932,-0.016436807811260223,-0.0294506698846817
1789058991280783400,10.144783447265626,-0.07221611589193344,0.02816235087811947,0.02231106162071228
1789058991290794500,10.15479443359375,0.05080897733569145,0.037969477474689484,0.06392627209424973
1789058991300804600,10.1648046875,0.1904132068157196,0.02344752661883831,0.029152050614356995
1789058991310814700,10.174814697265624,0.29910850524902344,0.03869887441396713,-0.007704871706664562
1789058991320825600,10.18482568359375,0.39159104228019714,0.015352275222539902,-0.03371250629425049
1789058991330835500,10.19483544921875,0.4830833077430725,0.030977845191955566,0.022336361929774284
1789058991340845600,10.204845458984375,0.5261487364768982,0.037832554429769516,0.00973082147538662
1789058991350856400,10.2148564453125,0.5661023855209351,0.044343527406454086,-0.0016480993945151567
1789058991360866600,10.224866455078125,0.5802587270736694,0.09039224684238434,-0.027813658118247986
1789058991370876700,10.234876708984375,0.611933171749115,0.08689037710428238,0.007257011719048023
1789058991380887600,10.244887451171875,0.6271321177482605,0.10728726536035538,0.07344934344291687
1789058991390897400,10.2548974609375,0.6499148607254028,0.09582609683275223,-0.03116711415350437
1789058991400907500,10.264907470703125,0.6789404153823853,0.09596564620733261,0.007631680928170681
1789058991410918400,10.27491845703125,0.6944066286087036,0.09472045302391052,0.04224005714058876
1789058991420928500,10.284928466796876,0.6710277795791626,0.1056268960237503,0.043836355209350586
1789058991430939400,10.294939453125,0.6450686454772949,0.09618359059095383,0.01136074960231781
1789058991440949500,10.304949462890624,0.5617008209228516,0.11953232437372208,-0.025857726112008095
1789058991450959400,10.31495947265625,0.5115764141082764,0.1293829083442688,0.007698580622673035
1789058991460970500,10.324970458984374,0.47278401255607605,0.14492139220237732,-0.030148930847644806
1789058991470980400,10.33498046875,0.4011615514755249,0.1270335465669632,-0.012421655468642712
1789058991480990500,10.344990478515625,0.3291400671005249,0.1474088728427887,0.026700979098677635
1789058991491001600,10.355001708984375,0.26984235644340515,0.2196982353925705,0.05772542953491211
1789058991501011700,10.36501171875,0.19565442204475403,0.17287640273571014,0.0028616497293114662
1789058991511021600,10.375021484375,0.20447863638401031,0.13346734642982483,0.031399644911289215
1789058991521032400,10.385032470703125,0.17779749631881714,0.06716553866863251,0.052768584340810776
1789058991531042600,10.39504248046875,0.10128671675920486,0.09424328058958054,0.0040553901344537735
1789058991541052700,10.405052734375,-0.061890486627817154,0.12390290945768356,-0.06108526140451431
1789058991551063600,10.4150634765625,-0.17746660113334656,0.18060608208179474,-0.004496571142226458
1789058991561073700,10.42507373046875,-0.30396169424057007,0.21059781312942505,-0.040271345525979996
1789058991571083500,10.43508349609375,-0.38229259848594666,0.2150018960237503,-0.02308952994644642
1789058991581094400,10.445094482421876,-0.41836538910865784,0.2010067105293274,0.010813575237989426
1789058991591104500,10.4551044921875,-0.435403436422348,0.16086390614509583,0.015917200595140457
1789058991601114600,10.465114501953124,-0.5013355612754822,0.15229491889476776,-0.020192332565784454
1789058991611125500,10.47512548828125,-0.555518388748169,0.10629680752754211,-0.045040156692266464
1789058991621135400,10.48513525390625,-0.6535301804542542,0.11675584316253662,-0.03521043062210083
1789058991631145500,10.4951455078125,-0.7859850525856018,0.14952197670936584,-0.009034799411892891
1789058991641156400,10.50515625,-0.8537819385528564,0.12546591460704803,-0.03790799155831337
1789058991651166500,10.51516650390625,-0.9019814729690552,0.1161973625421524,-0.03600561246275902
1789058991661176300,10.52517626953125,-0.9599308371543884,0.09535759687423706,-0.035086821764707565
1789058991671187500,10.5351875,-0.9631369113922119,0.06838855147361755,-0.038775812834501266
1789058991681197300,10.545197265625,-0.9714169502258301,0.025267980992794037,-0.03240925818681717
1789058991691207400,10.55520751953125,-0.9560893177986145,0.008783579804003239,-0.05261211842298508
1789058991701218600,10.565218505859375,-0.9340689778327942,-0.018725275993347168,-0.04486365243792534
1789058991711228700,10.575228759765626,-0.9339486956596375,-0.008261344395577908,-0.016749082133173943
1789058991721238500,10.585238525390626,-0.9366915225982666,0.009097672067582607,0.0061778053641319275
1789058991731249700,10.595249755859374,-0.8674164414405823,0.0006519234739243984,-0.04531495273113251
1789058991741260300,10.60526025390625,-0.7805712819099426,-0.017168086022138596,-0.001051617320626974
1789058991751270400,10.6152705078125,-0.6567509174346924,-0.03405517712235451,0.013190106488764286
1789058991761281300,10.62528125,-0.5753583312034607,-0.027971450239419937,0.04995664581656456
1789058991771291100,10.635291015625,-0.48529624938964844,-0.004114602226763964,0.04656969755887985
1789058991781301200,10.64530126953125,-0.364328533411026,-0.0060448613949120045,-0.004945158958435059
1789058991791312100,10.65531201171875,-0.22014890611171722,-0.005382542964071035,0.04335155338048935
1789058991801322200,10.665322265625,-0.08763560652732849,0.001351525541394949,0.023222582414746284
1789058991811332400,10.675332275390625,0.014629599638283253,0.00948866456747055,-0.027590705081820488
1789058991821343200,10.68534326171875,0.12594148516654968,0.007227374240756035,-0.03925241902470589
1789058991831353000,10.69535302734375,0.1797320544719696,0.05861825495958328,0.03168753907084465
1789058991841363200,10.70536328125,0.27608761191368103,0.03539096564054489,-0.022668108344078064
1789058991851374000,10.7153740234375,0.35883280634880066,0.026400664821267128,-0.04156164079904556
1789058991861384200,10.72538427734375,0.38761892914772034,0.026063241064548492,-0.025485467165708542
1789058991871394000,10.73539404296875,0.3835250437259674,0.07114431262016296,0.019745877012610435
1789058991881405400,10.745405517578124,0.40528759360313416,0.0519208163022995,0.021064141765236855
1789058991891415300,10.755415283203124,0.4294152855873108,0.05447204411029816,0.04007942974567413
1789058991901425400,10.76542529296875,0.4123327136039734,0.07514270395040512,0.04500814527273178
1789058991911436300,10.775436279296875,0.3528277575969696,0.07603016495704651,0.01237498689442873
1789058991921446400,10.7854462890625,0.3089630901813507,0.09688670933246613,-0.00653851730749011
1789058991931457300,10.795457275390625,0.2625819444656372,0.08567489683628082,-0.06612367182970047
1789058991941467400,10.80546728515625,0.21113872528076172,0.08633695542812347,-0.03649067133665085
1789058991951477200,10.815477294921875,0.12524458765983582,0.09432648867368698,0.010645478963851929
1789058991961488100,10.825488037109375,0.05849619209766388,0.09410598129034042,-0.0013872153358533978
1789058991971498200,10.835498291015625,-0.007285858504474163,0.12258872389793396,-0.01926061511039734
1789058991981508400,10.84550830078125,-0.05494152754545212,0.10452263802289963,-0.05596057325601578
1789058991991519200,10.855519287109376,-0.10488328337669373,0.1034613773226738,-0.04793970286846161
1789058992001529300,10.865529296875,-0.19421902298927307,0.08291855454444885,-0.03411896154284477
1789058992011539200,10.875539306640626,-0.28034713864326477,0.10307596623897552,0.010074817575514317
1789058992021550000,10.885550048828126,-0.35616999864578247,0.09734084457159042,0.003946884535253048
1789058992031560200,10.895560302734374,-0.4381684362888336,0.09922590851783752,0.03972266986966133
1789058992041570300,10.9055703125,-0.4955877959728241,0.09714198112487793,0.04332512989640236
1789058992051581200,10.915581298828124,-0.553950309753418,0.08487620204687119,0.020523404702544212
1789058992061591000,10.925591064453124,-0.6167521476745605,0.085001640021801,-0.03401786834001541
1789058992071601200,10.93560107421875,-0.6610167622566223,0.0918024405837059,-0.06507363170385361
1789058992081612300,10.9456123046875,-0.6834781765937805,0.06933947652578354,-0.059827469289302826
1789058992091622400,10.955622314453125,-0.7009970545768738,0.07265700399875641,-0.04359906539320946
1789058992101632300,10.96563232421875,-0.7605293989181519,0.07828053832054138,-0.04694639518857002
1789058992111643400,10.975643310546875,-0.8052440881729126,0.10476170480251312,0.02436654642224312
1789058992121653200,10.9856533203125,-0.779138445854187,0.0561816580593586,-0.014744903892278671
1789058992131663400,10.995663330078125,-0.7807382345199585,0.035952337086200714,0.023002764210104942
1789058992141674200,11.00567431640625,-0.7810223698616028,0.01710754632949829,-0.0029031343292444944
1789058992151684400,11.015684326171876,-0.7966287136077881,0.0014367313124239445,-0.0030195945873856544
1789058992161694200,11.025694091796876,-0.7980295419692993,-0.016034139320254326,-0.03968306630849838
1789058992171705300,11.035705322265626,-0.8067405223846436,0.006381004583090544,0.022757213562726974
1789058992181715200,11.045715087890626,-0.8355777859687805,0.02472778782248497,-0.030740365386009216
1789058992191725300,11.055725341796874,-0.849934995174408,0.017224928364157677,-0.007564468774944544
1789058992201736200,11.065736083984374,-0.8077292442321777,0.0002938816323876381,-0.03500647842884064
1789058992211746300,11.075746337890624,-0.795065701007843,-0.0206627007573843,0.030421946197748184
1789058992221756200,11.085756103515624,-0.8012988567352295,-0.02637678012251854,0.0340675488114357
1789058992231767300,11.095767333984375,-0.8048517107963562,-0.049615662544965744,0.00397650059312582
1789058992241777200,11.105777099609375,-0.8238056898117065,-0.039806708693504333,-0.0030044433660805225
1789058992251787300,11.115787353515625,-0.804175615310669,-0.07689809054136276,-0.03239664062857628
1789058992261798100,11.125798095703125,-0.8017063140869141,-0.07842488586902618,0.008185407146811485
1789058992271808300,11.135808349609375,-0.7845960259437561,-0.11073688417673111,0.055677033960819244
1789058992281818000,11.145818115234375,-0.7575755715370178,-0.12687990069389343,0.0036641666665673256
1789058992291829200,11.155829345703125,-0.7392457127571106,-0.1382356435060501,0.047450896352529526
1789058992301839400,11.16583935546875,-0.6833859086036682,-0.14069214463233948,0.055143438279628754
1789058992311849500,11.175849365234376,-0.6166094541549683,-0.11808467656373978,0.031239859759807587
1789058992321860400,11.1858603515625,-0.5846339464187622,-0.14330241084098816,-0.01567305438220501
1789058992331870200,11.1958701171875,-0.5099838376045227,-0.13063053786754608,0.03212845325469971
1789058992341880300,11.20588037109375,-0.41986268758773804,-0.15513348579406738,0.042351797223091125
1789058992351891200,11.21589111328125,-0.37105903029441833,-0.1670055389404297,0.03623190149664879
1789058992361901300,11.2259013671875,-0.3311571478843689,-0.1706966757774353,0.024974985048174858
1789058992371911200,11.2359111328125,-0.31488892436027527,-0.16802065074443817,0.0009745210409164429
1789058992381922300,11.24592236328125,-0.2943620979785919,-0.1516813486814499,0.04427805542945862
1789058992391932200,11.25593212890625,-0.25949451327323914,-0.16213290393352509,0.0959472730755806
1789058992401942300,11.2659423828125,-0.21816012263298035,-0.17196209728717804,0.06701868772506714
1789058992411953200,11.275953125,-0.20682570338249207,-0.19525299966335297,0.061738234013319016
1789058992421963300,11.28596337890625,-0.21413394808769226,-0.14498743414878845,0.07720346748828888
1789058992431974100,11.29597412109375,-0.1994609236717224,-0.14345252513885498,0.09027595818042755
1789058992441984300,11.305984375,-0.15557709336280823,-0.16959333419799805,0.1324596256017685
1789058992451994000,11.315994140625,-0.10184494405984879,-0.1922326683998108,0.05769858881831169
1789058992462005200,11.326005126953126,-0.057433538138866425,-0.21327562630176544,0.05294351279735565
1789058992472015000,11.33601513671875,-0.07108087092638016,-0.19119319319725037,0.06828959286212921
1789058992482025200,11.346025146484376,-0.08530773967504501,-0.18600375950336456,0.00288715329952538
1789058992492036400,11.356036376953124,-0.08783867955207825,-0.1483311951160431,0.07633330672979355
1789058992502046500,11.36604638671875,-0.08194802701473236,-0.18329237401485443,0.03210379183292389
1789058992512056300,11.376056396484374,-0.05630616843700409,-0.17882026731967926,0.0653783529996872
1789058992522067200,11.386067138671875,-0.04264095425605774,-0.23342731595039368,0.07372336834669113
1789058992532077300,11.396077392578125,-0.07684807479381561,-0.19352103769779205,0.026497306302189827
1789058992542087400,11.40608740234375,-0.14103583991527557,-0.18492834270000458,0.05606132373213768
1789058992552098300,11.416098388671875,-0.1908825784921646,-0.15996164083480835,0.025692610070109367
1789058992562108200,11.426108154296875,-0.20433421432971954,-0.1547069549560547,0.033563848584890366
1789058992572118300,11.4361181640625,-0.19255535304546356,-0.19651319086551666,-0.018695436418056488
1789058992582129200,11.446129150390625,-0.2444601058959961,-0.18399019539356232,0.04283849522471428
1789058992592139300,11.45613916015625,-0.27628809213638306,-0.1874469369649887,0.059252649545669556
1789058992602149400,11.4661494140625,-0.2702813446521759,-0.20204025506973267,0.027996458113193512
1789058992612160300,11.47616015625,-0.26346758008003235,-0.2205965369939804,0.006181119941174984
1789058992622170000,11.486170166015626,-0.2685454487800598,-0.22627146542072296,-0.032056547701358795
1789058992632180200,11.49618017578125,-0.29190242290496826,-0.19291479885578156,-0.011829731985926628
1789058992642191000,11.506191162109374,-0.25782594084739685,-0.1894787847995758,-0.020001109689474106
1789058992652201200,11.516201171875,-0.22347049415111542,-0.16714736819267273,0.011193457990884781
1789058992662211000,11.526211181640624,-0.17263634502887726,-0.1696624606847763,0.1081748679280281
1789058992672222500,11.536222412109375,-0.13151802122592926,-0.1915948987007141,0.07914106547832489
1789058992682232000,11.546232177734375,-0.091105617582798,-0.24579663574695587,0.06673926115036011
1789058992692242200,11.5562421875,-0.11198078840970993,-0.22567608952522278,0.0853477343916893
1789058992702253300,11.56625341796875,-0.1863282471895218,-0.22500097751617432,0.04685147479176521
1789058992712263400,11.576263427734375,-0.2610383629798889,-0.2018183022737503,0.0334201380610466
1789058992722273300,11.586273193359375,-0.3114764988422394,-0.18555544316768646,0.05730336531996727
1789058992732284400,11.596284423828125,-0.3684711456298828,-0.22132422029972076,-0.016273697838187218
1789058992742293500,11.60629345703125,-0.4029891788959503,-0.23243093490600586,-0.009374246932566166
1789058992752303600,11.6163037109375,-0.40151965618133545,-0.2559228837490082,0.020229291170835495
1789058992762314500,11.626314453125,-0.378507524728775,-0.2413538098335266,0.06117192655801773
1789058992772324600,11.63632470703125,-0.32838311791419983,-0.24352189898490906,0.048288311809301376
1789058992782334500,11.64633447265625,-0.2573629915714264,-0.2474633753299713,0.0700998604297638
1789058992792345600,11.656345703125,-0.2221720665693283,-0.20500747859477997,0.057470712810754776
1789058992802355500,11.66635546875,-0.16700521111488342,-0.17183753848075867,0.03257415443658829
1789058992812365600,11.676365478515624,-0.017086781561374664,-0.16467373073101044,0.0684695914387703
1789058992822376400,11.68637646484375,0.11729046702384949,-0.19732168316841125,0.013062257319688797
1789058992832386600,11.696386474609374,0.21734896302223206,-0.2002936601638794,0.03576261177659035
1789058992842396400,11.706396484375,0.2527458369731903,-0.15234823524951935,0.018112245947122574
1789058992852407600,11.716407470703125,0.26914769411087036,-0.10019926726818085,0.02921469882130623
1789058992862417400,11.72641748046875,0.3005957305431366,-0.06727688759565353,0.05683119595050812
1789058992872427500,11.736427490234375,0.32474371790885925,-0.07522664964199066,0.01960008591413498
1789058992882438700,11.746438720703125,0.35059234499931335,-0.09382456541061401,0.040701113641262054
1789058992892448800,11.75644873046875,0.3422856330871582,-0.09436207264661789,0.015198159031569958
1789058992902458600,11.766458740234375,0.31677892804145813,-0.11446281522512436,-0.0029464890249073505
1789058992912469500,11.776469482421875,0.2796485126018524,-0.1067502349615097,0.05494535341858864
1789058992922479600,11.786479736328126,0.18150222301483154,-0.09664380550384521,-0.013709074817597866
1789058992932489700,11.79648974609375,0.10771960020065308,-0.07610209286212921,0.051115356385707855
1789058992942500600,11.80650048828125,0.038811370730400085,-0.1035345122218132,0.013327496126294136
1789058992952510700,11.8165107421875,0.0005212378455325961,-0.11640162765979767,0.026109807193279266
1789058992962520600,11.8265205078125,-0.04529019445180893,-0.12950383126735687,0.04400917887687683
1789058992972531500,11.836531494140624,-0.1238771453499794,-0.14969775080680847,0.019107354804873466
1789058992982541600,11.84654150390625,-0.17269954085350037,-0.14064672589302063,0.07103314250707626
1789058992992551700,11.8565517578125,-0.2061387300491333,-0.15078644454479218,0.0647512748837471
1789058993002562600,11.8665625,-0.24460569024085999,-0.15976104140281677,0.04018574580550194
1789058993012572400,11.876572509765625,-0.2573189437389374,-0.18896760046482086,-0.0508221872150898
1789058993022582500,11.88658251953125,-0.26973459124565125,-0.1813725233078003,-0.017940141260623932
1789058993032593400,11.896593505859375,-0.28137731552124023,-0.18720069527626038,-0.022785337641835213
1789058993042603500,11.906603515625,-0.26154929399490356,-0.17933398485183716,0.001825998304411769
1789058993052613400,11.91661328125,-0.2624683678150177,-0.15539446473121643,0.06134996563196182
1789058993062624500,11.92662451171875,-0.22522780299186707,-0.17574234306812286,0.011855918914079666
1789058993072634400,11.93663427734375,-0.19422847032546997,-0.15551051497459412,-0.020684480667114258
1789058993082645800,11.946645751953126,-0.17155511677265167,-0.12431077659130096,0.022832371294498444
1789058993092655600,11.956655517578126,-0.13958722352981567,-0.14516760408878326,0.013119081035256386
1789058993102665700,11.966665771484376,-0.06276167929172516,-0.15261326730251312,0.050845421850681305
1789058993112676600,11.976676513671874,0.009637217037379742,-0.17762769758701324,0.011328156106173992
1789058993122686700,11.986686767578124,0.04072189703583717,-0.1734209656715393,-0.01058166939765215
1789058993132696600,11.996696533203124,0.028969656676054,-0.14236100018024445,-0.005884546786546707
1789058993142707700,12.006707763671875,0.03701985999941826,-0.13500961661338806,-0.03671969100832939
1789058993152717600,12.016717529296875,0.06489621102809906,-0.1204315572977066,-0.001790905254893005
1789058993162727700,12.026727783203125,0.11373139172792435,-0.14672015607357025,0.015491146594285965
1789058993172738600,12.036738525390625,0.14856113493442535,-0.14504122734069824,0.012744009494781494
1789058993182748700,12.046748779296875,0.16239014267921448,-0.1568763256072998,0.01127101480960846
1789058993192758500,12.056758544921875,0.17589394748210907,-0.1457478553056717,0.003070223145186901
1789058993202769400,12.066769287109375,0.18474602699279785,-0.16919484734535217,-0.017352759838104248
1789058993212779500,12.076779541015625,0.21389052271842957,-0.1810104101896286,0.028041502460837364
1789058993222789600,12.08678955078125,0.18962326645851135,-0.178274005651474,-0.006127918139100075
1789058993232800500,12.096800537109376,0.16819719970226288,-0.16368886828422546,0.0655188038945198
1789058993242810400,12.106810302734376,0.14830365777015686,-0.15139971673488617,0.063935287296772
1789058993252820500,12.116820556640626,0.1487625688314438,-0.1400684118270874,0.023128412663936615
1789058993262831400,12.126831298828124,0.1996782124042511,-0.17136214673519135,-0.026174155995249748
1789058993272841500,12.136841552734374,0.24136973917484283,-0.15691640973091125,-0.022235404700040817
1789058993282851600,12.1468515625,0.2344132959842682,-0.12876281142234802,-0.05653132498264313
1789058993292862700,12.15686279296875,0.30312687158584595,-0.11546503007411957,-0.0031469869427382946
1789058993302872600,12.16687255859375,0.3767997622489929,-0.14483889937400818,-0.004143541678786278
1789058993312882700,12.176882568359375,0.4223732650279999,-0.10708323866128922,0.03267402946949005
1789058993322893600,12.1868935546875,0.4043404757976532,-0.0759945660829544,0.029726704582571983
1789058993332903700,12.196903564453125,0.41877856850624084,-0.058321960270404816,0.022362541407346725
1789058993342913500,12.20691357421875,0.4659274220466614,-0.04524371027946472,0.017070839181542397
