time,seconds_elapsed,z,y,x
1788957096454142200,0.07114208984375,0.0012378562241792679,-0.0007293641101568937,-0.0009261704981327057
1788957096464110300,0.0811103515625,0.0014602302107959986,-0.001569058746099472,-0.0013687880709767342
1788957096474077400,0.091077392578125,-0.0005272113485261798,0.0009125382639467716,0.0003924444317817688
1788957096484045300,0.10104541015625,-0.0008923307759687304,-0.0007167835719883442,-0.00013006804510951042
1788957096494013200,0.11101318359375,0.00011909380555152893,-0.0012567692901939154,0.0003973175771534443
1788957096503981300,0.120981201171875,-0.00048331322614103556,0.0005517833633348346,0.0005371333099901676
1788957096513948400,0.130948486328125,-0.00005028315354138613,0.0005528486799448729,0.000011691823601722717
1788957096523916300,0.140916259765625,0.0010650450130924582,-0.0005881369579583406,-0.00044043827801942825
1788957096533884200,0.15088427734375,-0.0007297702832147479,0.00010236958041787148,-0.0003378125838935375
1788957096543851300,0.160851318359375,-0.0002812939928844571,0.0012065161718055606,0.0024830077309161425
1788957096553819400,0.1708193359375,-0.0006532265106216073,0.00012319348752498627,0.001320976298302412
1788957096563787500,0.18078759765625,-0.0008305930532515049,0.00020575150847434998,0.0016765082255005836
1788957096573755400,0.19075537109375,0.0005292169516906142,0.0024060551077127457,-0.0007656100206077099
1788957096583722200,0.20072216796875,-0.00026896747294813395,-0.0004781333263963461,0.000491579994559288
1788957096593690400,0.2106904296875,-0.00015199114568531513,0.0014205006882548332,0.0003520906902849674
1788957096603658500,0.220658447265625,-0.00014107220340520144,-0.0015595767181366682,-0.0004884027875959873
1788957096613625300,0.230625244140625,-0.0006742370314896107,0.0007728198543190956,0.001559035386890173
1788957096623593200,0.24059326171875,-0.0003839523997157812,0.001601329306140542,0.00036274315789341927
1788957096633561300,0.250561279296875,0.00005410902667790651,-0.001284287078306079,-0.001055362168699503
1788957096643529500,0.260529541015625,0.000019221683032810688,0.0006153456633910537,0.002198221627622843
1788957096653496300,0.270496337890625,0.001472768490202725,-0.0001747144851833582,0.0006172549910843372
1788957096663464200,0.280464111328125,0.0009593110298737884,0.001143816509284079,0.0008462867699563503
1788957096673432300,0.290432373046875,-0.0005363201489672065,0.0005773621378466487,-0.00091566052287817
1788957096683399400,0.3003994140625,0.00011420133523643017,0.0006278950022533536,-0.00035464251413941383
1788957096693367300,0.3103671875,-0.00024648895487189293,0.0013980311341583729,0.0005030143074691296
1788957096703335200,0.320335205078125,-0.001016675028949976,0.0013293215306475759,-0.000042401254177093506
1788957096713303300,0.33030322265625,0.00048240553587675095,0.00013249646872282028,-0.00006532948464155197
1788957096723270400,0.3402705078125,0.0002139589050784707,0.0016510309651494026,0.0008955388329923153
1788957096733238500,0.350238525390625,0.00031097710598260164,-0.0014854902401566505,0.0008295020088553429
1788957096743206100,0.3602060546875,0.0001977928914129734,0.0005270607070997357,-0.0003247121348977089
1788957096753173200,0.37017333984375,-0.0007284487946890295,0.0013006420340389013,-0.0003339359536767006
1788957096763141400,0.380141357421875,0.00043615151662379503,0.00002152589149773121,-0.0002353987656533718
1788957096773109500,0.390109619140625,-0.0005012670299038291,-0.00024976697750389576,-0.00007173651829361916
1788957096783077000,0.4000771484375,-0.00024400569964200258,0.000954248127527535,-0.000581465195864439
1788957096793044200,0.410044189453125,-0.0000026122434064745903,0.0008283311035484076,0.002122879959642887
1788957096803012400,0.420012451171875,-0.0006241940427571535,0.00012072920799255371,-0.000790085643529892
1788957096812980500,0.42998046875,0.0012328282464295626,0.0005428402218967676,-0.0002478659152984619
1788957096822947300,0.439947265625,0.00018654833547770977,0.0015682231169193983,0.0005743373185396194
1788957096832915200,0.449915283203125,-0.0017213403480127454,0.0001905697863548994,0.00019350508227944374
1788957096842883300,0.45988330078125,-0.000716452719643712,0.0008296294836327434,-0.0006067026406526566
1788957096852851500,0.4698515625,-0.0006209404673427343,0.00007305922918021679,-0.00023381737992167473
1788957096862818300,0.479818359375,0.000023838598281145096,0.000490909325890243,-0.0008946438319981098
1788957096872786200,0.4897861328125,-0.00019986694678664207,-0.0006720931269228458,0.00044066552072763443
1788957096882754300,0.49975439453125,-0.0001799140591174364,0.0004983812104910612,-0.000015014316886663437
1788957096892722400,0.509722412109375,0.0005551154026761651,0.001756644225679338,0.000812506303191185
1788957096902689500,0.519689453125,0.0010129674337804317,0.000554493279196322,-0.00024149799719452858
1788957096912657200,0.5296572265625,0.000272044213488698,0.0007306287297978997,0.0005024261772632599
1788957096922625300,0.539625244140625,0.0002388162538409233,0.0009647205006331205,0.0015724878758192062
1788957096932592400,0.54959228515625,-0.0006323036504909396,0.0016219886019825935,0.0003698044456541538
1788957096942560500,0.559560546875,0.0007157729705795646,-0.0005679973401129246,0.00034720543771982193
1788957096952528100,0.569528076171875,-0.00019941292703151703,0.001926268683746457,0.0002857549116015434
1788957096962496300,0.579496337890625,-0.0009671415318734944,-0.00013475166633725166,-0.0016303835436701775
1788957096972463400,0.58946337890625,0.0001926651457324624,0.00009321491234004498,0.0008697919547557831
1788957096982431500,0.599431396484375,0.0008245115168392658,0.00035304506309330463,0.00012110592797398567
1788957096992399400,0.6093994140625,-0.001257417956367135,0.000037937890738248825,0.0004122327081859112
1788957097002367200,0.6193671875,-0.0014813096495345235,-0.0007168420124799013,0.00020357128232717514
1788957097012334300,0.629334228515625,0.000011750496923923492,0.0006231453735381365,0.00015593459829688072
1788957097022302500,0.639302490234375,-0.0007122436072677374,0.0010444876970723271,-0.00014935294166207314
1788957097032270300,0.649270263671875,-0.000181756098754704,-0.00009393435902893543,0.00008370401337742805
1788957097042237200,0.6592373046875,-0.0010070697171613574,0.0019212797051295638,0.0003745211288332939
1788957097052205300,0.669205322265625,-0.0007689830963499844,-0.00038901250809431076,-0.00023720692843198776
1788957097062173400,0.67917333984375,-0.0007069028215482831,-0.0006986518856137991,0.00044347112998366356
1788957097072141300,0.689141357421875,0.0002909835893660784,-0.00009731017053127289,0.0004999302327632904
1788957097082108200,0.699108154296875,-0.0009060584125109017,-0.0002710858825594187,-0.0013506119139492512
1788957097092076300,0.709076171875,-0.0002519860863685608,-2.423767000436783e-7,-0.00010744808241724968
1788957097102044400,0.71904443359375,-0.0012597792083397508,0.0015151728875935078,0.001248462125658989
1788957097112012300,0.72901220703125,-0.0006879984866827726,0.0007822710322216153,0.0009091757237911224
1788957097121979100,0.738979248046875,0.00037548074033111334,0.0018936758860945702,0.0006358283571898937
1788957097131947300,0.748947265625,-0.00019675667863339186,0.0010715052485466003,-0.0005244864150881767
1788957097141915400,0.758915283203125,-0.0005323149962350726,-0.0006289230659604073,0.0002478300593793392
1788957097151883300,0.76888330078125,0.0001397560117766261,0.0005020736716687679,0.00019439589232206345
1788957097161850400,0.778850341796875,-0.0001332027604803443,-0.00039666658267378807,0.001878182403743267
1788957097171818200,0.788818359375,0.00016934145241975784,-0.000006392132490873337,0.0002626078203320503
1788957097181786400,0.798786376953125,0.00035736069548875093,0.0009781784610822797,-0.0008697682060301304
1788957097191753500,0.80875341796875,0.00010773050598800182,0.0005066483281552792,0.0005970667116343975
1788957097201721300,0.818721435546875,0.00009924580808728933,0.00010453746654093266,-0.0005031079053878784
1788957097211689700,0.828689697265625,0.00023575290106236935,0.0010009062243625522,0.00032954243943095207
1788957097221657600,0.83865771484375,-0.0012510899687185884,0.0005609520012512803,0.0005591069348156452
1788957097231624700,0.848624755859375,-0.0006725462735630572,-0.0004451477434486151,0.00027208682149648666
1788957097241592600,0.858592529296875,0.00021987897343933582,0.0009785781148821115,0.0001889960840344429
1788957097251560700,0.868560791015625,0.0015941185411065817,0.0012344787828624249,-0.0011444943957030773
1788957097261528600,0.878528564453125,-0.0002695616567507386,-0.00038951681926846504,0.00015512853860855103
1788957097271495700,0.88849560546875,0.00021015212405472994,0.0014269056264311075,-0.0005033076740801334
1788957097281463600,0.898463623046875,-0.000041782972402870655,-0.0012301302049309015,-0.0021805670112371445
1788957097291431700,0.908431640625,-0.00022986996918916702,0.0005387596320360899,0.00007296726107597351
1788957097301399800,0.91839990234375,0.0006859912537038326,-0.0005696481093764305,-0.0004945523105561733
1788957097311366700,0.92836669921875,0.00038121489342302084,0.0010404507629573345,-0.0005876687355339527
1788957097321334500,0.93833447265625,0.000988948275335133,0.000009807292371988297,0.0003889123909175396
1788957097331302700,0.948302734375,0.0003918007714673877,-0.0007077907212078571,-0.0005136141553521156
1788957097341270800,0.958270751953125,0.00030258495826274157,0.00009781541302800179,-0.0006680772639811039
1788957097351237600,0.968237548828125,0.00007714808452874422,-0.0006227158010005951,0.00005176197737455368
1788957097361205500,0.97820556640625,0.0009091196116060019,-0.0000016668345779180527,-0.0009099054150283337
1788957097371173600,0.988173583984375,0.0003253547474741936,0.0010225849691778421,-0.000773285049945116
1788957097381141800,0.998141845703125,0.0008537459652870893,-0.0010966197587549686,0.0009783548302948475
1788957097391108600,1.008108642578125,-0.00007519638165831566,0.0016121820081025362,0.0014229398220777512
1788957097401076500,1.018076416015625,0.0004262767033651471,-0.0001614831853657961,0.00025194790214300156
1788957097411044600,1.028044677734375,-0.00015911972150206566,0.0022222590632736683,0.0017844447866082191
1788957097421011700,1.03801171875,-0.0007575320778414607,-0.0014901875983923674,-0.002480341587215662
1788957097430979600,1.0479794921875,-0.001214789692312479,0.0002397575881332159,0.0004965029656887054
1788957097440947500,1.057947509765625,0.00006672344170510769,0.00031059770844876766,-0.0008894060738384724
1788957097450915600,1.06791552734375,0.0001588207669556141,-0.001599873648956418,0.00038529466837644577
1788957097460882700,1.077882568359375,0.00040729378815740347,0.00021720118820667267,-0.0015340456739068031
1788957097470850800,1.087850830078125,0.00041954766493290663,0.0009469841606914997,-0.00003343261778354645
1788957097480818400,1.097818359375,0.0006106311921030283,-0.000002430519089102745,0.0002360246144235134
1788957097490786600,1.10778662109375,-0.00015754008200019598,0.0023807967081665993,0.0009724833071231842
1788957097500753700,1.117753662109375,-0.0007559523801319301,-0.0009215229656547308,-0.0005239467136561871
1788957097510721800,1.1277216796875,0.0004930701106786728,0.0009631960419937968,0.0015450632199645042
1788957097520689400,1.137689453125,0.00024419999681413174,-0.0007568704895675182,-0.0004624580033123493
1788957097530657500,1.147657470703125,-0.0004666009917855263,0.0020686232019215822,-0.0006337650120258331
1788957097540624600,1.157624755859375,0.0002854756312444806,-0.00011357106268405914,-0.00037517212331295013
1788957097550592800,1.1675927734375,0.0003801898565143347,0.0006722357356920838,0.00048291124403476715
1788957097560560600,1.177560546875,-0.0004930606810376048,0.00014013610780239105,0.00048477528616786003
1788957097570528500,1.187528564453125,-0.0009753443882800639,0.0008585175964981318,-0.000020632054656744003
1788957097580495600,1.19749560546875,0.00042041821870952845,0.00008859788067638874,-0.000534355640411377
1788957097590463700,1.207463623046875,-0.0002656111028045416,0.0021208813413977623,-0.000952425878494978
1788957097600431600,1.217431640625,-0.0011668248334899545,0.001597037655301392,0.0008659805171191692
1788957097610399700,1.227399658203125,-0.000550817116163671,-0.0000961199402809143,-0.0005064085125923157
1788957097620366600,1.23736669921875,0.0013999483780935407,-0.0006846785545349121,0.0017884373664855957
1788957097630334700,1.247334716796875,0.0006157574243843555,0.000014936551451683044,-0.0014933133497834206
1788957097640302600,1.257302490234375,-0.0005863934056833386,-0.0008830814622342587,-0.00011139921844005585
1788957097650270700,1.267270751953125,0.0008777930634096265,-0.0007745241746306419,-0.0008170441724359989
1788957097660237600,1.277237548828125,-0.0007520614308305085,0.0004574541235342622,-0.0006777606904506683
1788957097670205700,1.287205810546875,-0.0005351804429665208,-0.0012739223893731833,0.000528999138623476
1788957097680173600,1.297173583984375,0.0003055795095860958,0.0014057502849027514,-0.000542124267667532
1788957097690141700,1.3071416015625,-0.0005492252530530095,0.00006949924863874912,-0.0008868365548551083
1788957097700108500,1.317108642578125,-0.0017364624654874206,0.001555809285491705,-0.0005150591023266315
1788957097710076700,1.32707666015625,-0.0003795467782765627,0.00048130727373063564,-0.001434672623872757
1788957097720044500,1.33704443359375,0.0007355187553912401,-0.0021400421392172575,0.00042075151577591896
1788957097730012700,1.3470126953125,-0.0015003463486209512,0.0024466877803206444,-0.0002637505531311035
1788957097739979500,1.3569794921875,0.0002522800350561738,-0.003682577284052968,-0.0005441810935735703
1788957097749947600,1.36694775390625,-0.0007390919490717351,0.003836739109829068,0.0006979191675782204
1788957097759915500,1.37691552734375,-0.0012269830331206322,-0.0009297865908592939,-0.0007598954252898693
1788957097769883600,1.386883544921875,0.00011225719936192036,-0.00011221319437026978,0.0007294812239706516
1788957097779850800,1.396850830078125,-0.0003793623764067888,0.00015250500291585922,-0.002574436366558075
1788957097789818600,1.406818603515625,-0.00012095633428543806,0.0016797087155282497,0.0025439001619815826
1788957097799786500,1.416786376953125,-0.00013294059317559004,-0.0005064802244305611,-0.0011546979658305645
1788957097809754600,1.426754638671875,-0.001325504039414227,0.0011630554217845201,-0.00032538967207074165
1788957097819721700,1.4367216796875,-0.0006852690712548792,0.0008403490064665675,0.0009176293388009071
1788957097829689600,1.446689697265625,-0.00025744433514773846,0.00005304301157593727,-0.0006669382564723492
1788957097839657500,1.456657470703125,0.001802244340069592,-0.000530988210812211,0.0012808977626264095
1788957097849625600,1.46662548828125,0.0005124754970893264,0.0005254877032712102,-0.0032518026418983936
1788957097859592700,1.4765927734375,0.0004029286792501807,-0.0016375607810914516,0.0008124234154820442
1788957097869560800,1.486560791015625,0.0005304942606016994,0.0011933791683986783,0.0017405352555215359
1788957097879528400,1.496528564453125,-0.00012763577979058027,0.0007312549278140068,-0.00003081792965531349
1788957097889496600,1.50649658203125,-0.00023922219406813383,0.000749630737118423,0.0002951528877019882
1788957097899463700,1.516463623046875,-0.00002484151627868414,0.00010447157546877861,-0.0011379430070519447
1788957097909431800,1.526431884765625,0.0006800971459597349,-0.0010183171834796667,-0.00132010318338871
1788957097919399400,1.5363994140625,0.00046602648217231035,-0.00022231531329452991,0.0009366320446133614
1788957097929367600,1.546367431640625,0.002480175346136093,0.00043362134601920843,-0.000052199698984622955
1788957097939334700,1.556334716796875,0.00038618617691099644,-0.0011286225635558367,0.0012749317102134228
1788957097949302800,1.566302734375,0.0006833949591964483,-0.00029771612025797367,-0.001706210896372795
1788957097959270700,1.576270751953125,-0.00039084453601390123,0.0004417644813656807,-0.0005169208161532879
1788957097969238500,1.586238525390625,-0.0008928503375500441,0.0013235370861366391,-0.0009187916293740273
1788957097979205600,1.59620556640625,-0.00027928827330470085,-0.0006743066478520632,0.00023075053468346596
1788957097989173800,1.606173828125,-0.0001631744671612978,-0.001132370438426733,0.0008086566813290119
1788957097999141600,1.6161416015625,0.00009588187094777822,0.0005787331610918045,0.00023584486916661263
1788957098009109500,1.626109619140625,-0.00032862601801753044,0.0020184379536658525,0.002825769130140543
1788957098019076600,1.63607666015625,0.000799755216576159,0.0004683731822296977,-0.0012250342406332493
1788957098029044700,1.646044677734375,0.0001677870750427246,0.00034480239264667034,0.0012056324630975723
1788957098039012600,1.6560126953125,0.00000404904130846262,0.00095459318254143,0.00024344725534319878
1788957098048980700,1.665980712890625,0.0006501318421214819,0.0002025165595114231,0.0004543694667518139
1788957098058947600,1.675947509765625,0.0004555690102279186,-0.0002712029963731766,-0.00038754986599087715
1788957098068915700,1.685915771484375,-0.00032633496448397636,0.00024651549756526947,-0.00004879571497440338
1788957098078883600,1.695883544921875,0.000442328630015254,-0.0005819136276841164,0.00036192918196320534
1788957098088851700,1.705851806640625,-0.00009456463158130646,-0.0000482161995023489,0.00037950603291392326
1788957098098818600,1.715818603515625,0.00008021597750484943,-0.00004179426468908787,0.0009334273636341095
1788957098108786700,1.72578662109375,-0.0006907691131345928,-0.0004375400021672249,-0.0006234566681087017
1788957098118754600,1.735754638671875,-0.00073536008130759,-0.0008685362990945578,-0.0003633461892604828
1788957098128722700,1.74572265625,-0.0009998120367527008,0.0007008645916357636,-0.0007729404605925083
1788957098138689500,1.755689453125,0.0005580271827057004,-0.0010075941681861877,0.0016681482084095478
1788957098148657700,1.76565771484375,0.0014997209655120969,-0.001545818755403161,-0.0007577249780297279
1788957098158625500,1.77562548828125,0.0008022658294066787,0.0013334985123947263,0.0013265893794596195
1788957098168593700,1.78559375,-0.0002797764027491212,0.000009108567610383034,0.0009516160935163498
1788957098178560500,1.795560546875,0.0001369755482301116,0.0004244082374498248,-0.00020629120990633965
1788957098188528600,1.805528564453125,-0.0007290844805538654,0.0007234811782836914,-0.00032027484849095345
1788957098198496500,1.81549658203125,-0.00013148016296327114,0.0009311785688623786,-0.00012086378410458565
1788957098208464600,1.825464599609375,-0.0004675710806623101,0.0004286400508135557,-0.00001114141196012497
1788957098218430500,1.835430419921875,-0.0002749240957200527,-0.0009538528975099325,-0.0000318591482937336
1788957098228398600,1.845398681640625,-0.0002664020285010338,-0.0005368019919842482,-0.00007233908399939537
1788957098238366700,1.85536669921875,-0.0008239284506998956,0.000156354159116745,0.0008500837720930576
1788957098248334600,1.86533447265625,0.0007244333392009139,0.00007619312964379787,-0.0007382254116237164
1788957098258301400,1.875301513671875,-0.0006173978326842189,0.001321681309491396,0.0008678175508975983
1788957098268269600,1.88526953125,0.0005618497962132096,-0.00016702571883797646,0.0004259990528225899
1788957098278237700,1.89523779296875,-0.0006135915173217654,-0.00073769292794168,0.0001018233597278595
1788957098288205600,1.90520556640625,0.000026898691430687904,0.0009600722696632147,0.0006395154632627964
1788957098298172400,1.91517236328125,0.00010541034862399101,-0.0005169801879674196,0.00029685720801353455
1788957098308140500,1.925140625,-0.0008796929032541811,0.0005781115032732487,-0.000054413918405771255
1788957098318108700,1.935108642578125,0.00023424031678587198,0.0003326293081045151,-0.00021064374595880508
1788957098328076500,1.94507666015625,0.00039056793320924044,0.00017843232490122318,0.0003776485100388527
1788957098338044700,1.955044677734375,0.0004614971112459898,0.0006228623678907752,0.000575400423258543
1788957098348011500,1.965011474609375,0.0013256927486509085,0.000747498357668519,-0.0004744180478155613
1788957098357979600,1.974979736328125,0.00019582081586122513,0.0012582663912326097,0.00050307996571064
1788957098367947500,1.984947509765625,-0.0011892892653122544,0.0005181740270927548,-0.0014333045110106468
1788957098377915600,1.99491552734375,0.0005671830149367452,0.0000523165799677372,0.00004825880751013756
1788957098387882500,2.004882568359375,-0.0002892895136028528,-0.0013250703923404217,0.000012572389096021652
1788957098397850600,2.0148505859375,0.0015302104875445366,0.00010144338011741638,-0.0013171331956982613
1788957098407818500,2.024818603515625,-0.0006964586209505796,-0.00012252852320671082,-0.0014777220785617828
1788957098417786600,2.03478662109375,0.001011460437439382,0.0013024344807490706,0.0002126595936715603
1788957098427753500,2.04475341796875,-0.0004937583580613136,0.0017900592647492886,-0.0019879103638231754
1788957098437721600,2.0547216796875,-0.00039627798832952976,0.00023073027841746807,0.0001763789914548397
1788957098447689500,2.064689453125,0.0003454124089330435,-0.0008398604113608599,-0.0009448118507862091
1788957098457657600,2.07465771484375,-0.00008960207924246788,0.002172226319089532,0.00016656657680869102
1788957098467624700,2.084624755859375,0.00011040130630135536,-0.0019468851387500763,0.00103342579677701
1788957098477592600,2.094592529296875,0.000029648072086274624,0.0030448250472545624,-0.0004995334893465042
1788957098487560400,2.104560546875,0.00025947880931198597,-0.0005632254760712385,0.0018706796690821648
1788957098497528600,2.114528564453125,-0.00015671213623136282,0.0015150313265621662,-0.0007319231517612934
1788957098507495700,2.12449560546875,0.0006172024877741933,0.0006574934814125299,-0.00048265140503644943
1788957098517463600,2.134463623046875,-0.00033810583408921957,-0.0010235966183245182,-0.0008727274835109711
1788957098527431400,2.144431396484375,-0.00009975291322916746,0.0004693715600296855,0.0002553877420723438
1788957098537399600,2.154399658203125,-0.00017261260654777288,-0.001178758218884468,0.0001688273623585701
1788957098547366700,2.16436669921875,0.0003565574297681451,0.0005514974473044276,-0.0010245353914797306
1788957098557334800,2.174334716796875,-0.0017447029240429401,0.0006756653310731053,0.0001151389442384243
1788957098567302400,2.184302490234375,-0.00003175763413310051,0.0009494383120909333,0.00005894619971513748
1788957098577270500,2.1942705078125,0.002230879617854953,-0.0020861122757196426,0.000030392780900001526
1788957098587237600,2.204237548828125,0.0006723979022353888,-0.0002828857395797968,0.00009271083399653435
1788957098597205800,2.214205810546875,-0.0011288574896752834,0.00022538029588758945,0.0009489338845014572
1788957098607173600,2.224173583984375,0.0011350957211107016,-0.0008204430341720581,0.0001310771331191063
1788957098617141500,2.2341416015625,-0.001852719928137958,0.0005847391439601779,0.0012581790797412395
1788957098627108600,2.244108642578125,-0.0013267456088215113,0.0007735572289675474,-0.000026263762265443802
1788957098637076700,2.25407666015625,-0.0004697809927165508,0.000742386095225811,-0.00002075033262372017
1788957098647044600,2.264044677734375,0.0010748524218797684,-0.00038359849713742733,-0.0005291476845741272
1788957098657012500,2.274012451171875,0.00019408692605793476,0.0006228199927136302,0.0002726861275732517
1788957098666979600,2.2839794921875,0.0008212613174691796,-0.0010754778049886227,-0.0001552840694785118
1788957098676947700,2.29394775390625,0.0002995424438267946,-0.0007243056315928698,-0.0008584908209741116
1788957098686915600,2.30391552734375,-0.000044804299250245094,0.0014573560329154134,0.0003732210025191307
1788957098696883700,2.3138837890625,-0.0002823793329298496,0.0004581267712637782,-0.000773480162024498
1788957098706850600,2.3238505859375,-0.0006118123419582844,0.00040619506035000086,0.00042520882561802864
1788957098716818700,2.333818603515625,-0.00016717426478862762,-0.0004191948100924492,-0.00005185836926102638
1788957098726786600,2.34378662109375,0.0004935559118166566,0.00020318594761192799,0.0016661467961966991
1788957098736754700,2.353754638671875,-0.0001464872620999813,-0.00027046026661992073,-0.00014755455777049065
1788957098746721500,2.363721435546875,-0.00028577062766999006,0.0004962639650329947,0.0002521858550608158
1788957098756689700,2.373689697265625,0.000143281533382833,-0.000768397469073534,-0.0002897619269788265
1788957098766657500,2.383657470703125,-0.0007640575058758259,-0.001303692813962698,-0.000434105284512043
1788957098776625700,2.393625732421875,0.000308578135445714,-0.0009231632575392723,0.001217525452375412
1788957098786592500,2.403592529296875,0.0010856885928660631,0.0006307911826297641,-0.0009785168804228306
1788957098796560600,2.413560546875,-0.0008493715431541204,0.00031577679328620434,0.000023646280169487
1788957098806528500,2.423528564453125,-0.0005156775005161762,0.00003268290311098099,-0.0003947359509766102
1788957098816496600,2.43349658203125,0.00014939939137548208,0.0024096111301332712,-0.0015058484859764576
1788957098826463500,2.44346337890625,-0.0007289110799320042,-0.003482632804661989,-0.00030263233929872513
1788957098836431600,2.453431640625,0.0006943894550204277,0.002109578112140298,0.0011126571334898472
1788957098846399500,2.4633994140625,0.0008294116705656052,-0.0010870140977203846,-0.0002559409476816654
1788957098856367600,2.47336767578125,-0.0002852183533832431,0.0005319367628544569,-0.0006904285401105881
1788957098866334700,2.483334716796875,0.0007677954854443669,-0.0007402552291750908,-0.0014978991821408272
1788957098876302600,2.493302490234375,-0.00020365009550005198,0.001177708269096911,-0.0009550726972520351
1788957098886270500,2.5032705078125,0.0002983558224514127,0.00022935657761991024,-0.0011007478460669518
1788957098896238600,2.513238525390625,-0.0008377489866688848,0.0000258574727922678,-0.0015110759995877743
1788957098906205700,2.523205810546875,-0.0008630490629002452,0.0005635498091578484,0.0005584661848843098
1788957098916173600,2.533173583984375,-0.00008347933180630207,0.0009194039739668369,0.0011750692501664162
1788957098926141400,2.543141357421875,0.000365795916877687,0.0012269990984350443,0.0007710680365562439
1788957098936109600,2.553109619140625,-0.0011621774174273014,0.00043289398308843374,-0.0009663659147918224
1788957098946076700,2.56307666015625,0.000016537727788090706,0.0005308983381837606,0.00017932569608092308
1788957098956044800,2.573044921875,-0.0009527162765152752,0.0013534009922295809,-0.0013849246315658092
1788957098966012400,2.583012451171875,-0.0014565864112228155,0.000845003523863852,-0.000005673151463270187
1788957098975980500,2.59298046875,0.0008442159742116928,0.001051677274517715,-0.0010659904219210148
1788957098985947600,2.60294775390625,-0.0015912448288872838,-0.0017363859806209803,0.00010873004794120789
1788957098995915800,2.612915771484375,0.0005910781910642982,0.0006933294935151935,0.00018696533516049385
1788957099005883400,2.62288330078125,0.0005982686998322606,-0.0011900579556822777,0.0000016093254089355469
1788957099015851500,2.6328515625,-0.0015384061262011528,0.000033738790079951286,0.0012139184400439262
1788957099025818600,2.642818603515625,-0.0001088213175535202,-0.0006480305455625057,0.0005420027300715446
1788957099035786800,2.652786865234375,-0.0005947858444415033,-0.0012674443423748016,0.0006675361655652523
1788957099045754600,2.662754638671875,-0.0004456487949937582,-0.0011143125593662262,0.0012209410779178143
1788957099055722500,2.672722412109375,0.0010166032006964087,0.00025714049115777016,0.00026783673092722893
1788957099065689600,2.682689697265625,-0.0006364208529703319,-0.00027416017837822437,0.00003933720290660858
1788957099075657700,2.69265771484375,0.0008435207419097424,-0.0007321594748646021,0.00045837974175810814
1788957099085625600,2.70262548828125,0.0005923847202211618,-0.0004890128038823605,-0.00047425925731658936
1788957099095593500,2.712593505859375,0.0013360475422814488,0.0014672055840492249,-0.00021702749654650688
1788957099105560600,2.722560546875,0.000161327188834548,-0.0001506649423390627,-0.0011944076977670193
1788957099115528700,2.73252880859375,0.0009564924985170364,-0.0006184631492942572,0.00008790474385023117
1788957099125496600,2.74249658203125,-0.00032608595211058855,-0.00005413917824625969,0.0005217338912189007
1788957099135464700,2.752464599609375,-0.0010631515178829432,0.000055774813517928123,-0.00019990839064121246
1788957099145431600,2.762431640625,-0.0010764673352241516,-0.0002446295693516731,0.0009226137772202492
1788957099155399700,2.772399658203125,0.0013528108829632401,0.0003653443418443203,-0.0006119091995060444
1788957099165367600,2.782367431640625,-0.00014788040425628424,-0.0008647695649415255,0.00042991945520043373
1788957099175335700,2.792335693359375,0.00038514030165970325,0.0013044900260865688,0.0008593061938881874
1788957099185302500,2.802302490234375,0.0003638350171968341,0.00007197912782430649,-0.00044351257383823395
1788957099195270700,2.812270751953125,0.001313401386141777,-0.001358475536108017,0.0010045254603028297
1788957099205238500,2.822238525390625,-0.00024987419601529837,-0.0002740363124758005,0.0005922680720686913
1788957099215207000,2.83220703125,-0.0004678276600316167,-0.0005009346641600132,0.0013311118818819523
1788957099225174000,2.842174072265625,-0.0005868709995411336,0.0009361070115119219,0.000838959589600563
1788957099235142000,2.852141845703125,-0.00025104626547545195,-0.0006779422983527184,0.0013774838298559189
1788957099245110000,2.862110107421875,-0.0009037870331667364,0.00035323365591466427,-0.00016022520139813423
1788957099255078000,2.872077880859375,0.0005812229355797172,0.0001145398709923029,0.0013418365269899368
1788957099265045000,2.882044921875,0.0002110436325892806,0.0006823259172961116,-0.0012283804826438427
1788957099275012900,2.892012939453125,-0.0007210549083538353,-0.0017290832474827766,-0.0004211580380797386
1788957099284981000,2.90198095703125,0.00014633662067353725,-0.0011162899900227785,0.0013088313862681389
1788957099294949000,2.91194921875,-0.000359205761924386,0.0000502557959407568,-0.0003420640714466572
1788957099304916000,2.921916015625,-0.0003389656776562333,-0.0004051448777318001,-0.0006411373615264893
1788957099314883800,2.9318837890625,-0.000035324832424521446,-0.00005069142207503319,0.0010869195684790611
1788957099324852000,2.94185205078125,0.0006128886016085744,0.0015011326177045703,0.0004988936707377434
1788957099334820000,2.951820068359375,0.0004682650323957205,-0.000763212563470006,-0.00103383744135499
1788957099344787000,2.961786865234375,-0.0009983377531170845,-0.0009866517502814531,0.0003765728324651718
1788957099354754800,2.9717548828125,-0.0008541779243387282,0.0004059190396219492,0.00032670795917510986
1788957099364723000,2.981722900390625,0.0004025677917525172,-0.0004955609329044819,0.0007133986800909042
1788957099374691000,2.991691162109375,-0.0008870961028151214,-0.00018997467122972012,0.0013328357599675655
1788957099384658000,3.001657958984375,-0.001436239923350513,-0.0007841258775442839,-0.000016854610294103622
1788957099394625800,3.011625732421875,-0.0006880736909806728,0.0010598161024972796,0.0013029403053224087
1788957099404594000,3.021593994140625,0.0009993050480261445,0.0002195888664573431,-0.0002534110099077225
1788957099414562000,3.03156201171875,-0.0008751804125495255,0.0015531587414443493,0.0006240652874112129
1788957099424529000,3.04152880859375,0.0005490782205015421,0.00023223087191581726,-0.000003375578671693802
1788957099434496800,3.051496826171875,-0.002425776794552803,-0.000010715564712882042,-0.00012471526861190796
1788957099444465000,3.06146484375,-0.00010110344737768173,-0.00025386200286448,0.00007422268390655518
1788957099454433000,3.07143310546875,0.00016895344015210867,0.0012088465737178922,0.0008902624249458313
1788957099464400100,3.081400146484375,-0.001323215663433075,-0.0008820011280477047,-0.0015862109139561653
1788957099474367700,3.09136767578125,0.0013080526841804385,0.0003630868159234524,0.0010780035518109798
1788957099484335900,3.1013359375,-0.000868548930156976,-0.00040949624963104725,-0.0004498520866036415
1788957099494304000,3.111303955078125,-0.00045080319978296757,-0.00041063246317207813,0.0012113945558667183
1788957099504271000,3.12127099609375,-0.0007123256218619645,-0.0005075715016573668,-0.0007590781897306442
1788957099514238700,3.13123876953125,0.0013139871880412102,-0.00044376752339303493,0.0007140180096030235
1788957099524206800,3.141206787109375,0.0005842810496687889,0.0007810201495885849,-0.00010357238352298737
1788957099534175000,3.151175048828125,0.0008072910131886601,0.0006766326259821653,0.00014918716624379158
1788957099544142000,3.16114208984375,0.0004906411049887538,-0.000552948797121644,-0.0009637479670345783
1788957099554110000,3.17110986328125,-0.0007623795536346734,0.0003985080402344465,0.0001801745966076851
1788957099564077800,3.181077880859375,-0.0008358827908523381,-0.0002371885348111391,0.0002981526777148247
1788957099574046000,3.1910458984375,-0.000977531773969531,-0.00028622522950172424,-0.0012367661111056805
1788957099584013000,3.201012939453125,0.0007362124742940068,0.0008938214741647243,-0.0007448801770806313
1788957099593981000,3.21098095703125,-0.00018749339506030083,-0.0008636810816824436,0.00020853010937571526
1788957099603948800,3.22094873046875,-0.00043676525820046663,-0.0004437004681676626,-0.0005661835893988609
1788957099613917000,3.2309169921875,0.00030328554566949606,0.001874461187981069,0.001078303437680006
1788957099623884000,3.240884033203125,-0.0003217583289369941,-0.0005825711414217949,-0.0012224013917148113
1788957099633852000,3.250851806640625,0.000876407721079886,0.0003169258125126362,0.0011584809981286526
1788957099643820000,3.260820068359375,-0.0011012557661160827,-0.00048255501314997673,-0.0008436837233603001
1788957099653788000,3.270787841796875,-0.000501707661896944,-0.0001726879272609949,-0.0002523125149309635
1788957099663755000,3.280755126953125,-0.0005664225900545716,0.0007740657310932875,-0.0007444643415510654
1788957099673723000,3.290722900390625,-0.00019364990293979645,0.001334170694462955,-0.0000997297465801239
1788957099683691000,3.30069091796875,-0.0002865942660719156,-0.001242437632754445,-0.0007546008564531803
1788957099693659000,3.310658935546875,0.00002345559187233448,0.0010331510566174984,0.0008575031533837318
1788957099703626000,3.3206259765625,-0.00037708389572799206,-0.0007666132878512144,0.0002769338898360729
1788957099713593900,3.33059375,0.0008297020103782415,-0.0014633885584771633,-0.00026966771110892296
1788957099723562000,3.34056201171875,-0.0003681877860799432,0.00024449662305414677,0.0004600384272634983
1788957099733530000,3.350530029296875,-0.00018442852888256311,0.0011220509186387062,0.0002671023830771446
1788957099743497000,3.3604970703125,-0.002770091639831662,0.0007785031339153647,-0.0007488937117159367
1788957099753464800,3.37046484375,-0.0018226314568892121,0.0007992552127689123,-0.0006237640045583248
1788957099763433000,3.380432861328125,0.000023205531761050224,0.0009095100685954094,0.0012585585936903954
1788957099773401000,3.390401123046875,0.000568829127587378,0.0006512162508442998,-0.0005592205561697483
1788957099783368000,3.400367919921875,-0.000609086942858994,0.0021740118972957134,0.00040351226925849915
1788957099793335800,3.410335693359375,-0.00219437712803483,-0.0018505617044866085,-0.0009957547299563885
1788957099803304000,3.420303955078125,-0.0013695962261408567,0.000390754546970129,0.0005307691171765327
1788957099813272000,3.43027197265625,-0.0005334658781066537,0.00042998185381293297,-0.0006089778617024422
1788957099823239000,3.440239013671875,0.000040711602196097374,0.00037698494270443916,0.002379621611908078
1788957099833206800,3.450206787109375,-0.0008852628525346518,-0.0006955056451261044,-0.0007135700434446335
1788957099843175000,3.4601748046875,-0.0007619584794156253,0.00014179223217070103,0.001268087886273861
1788957099853143000,3.47014306640625,0.00006699108052998781,-0.0003059413284063339,0.0010228832252323627
1788957099863110000,3.48010986328125,0.0015061633894219995,-0.00026972219347953796,0.0009081009775400162
1788957099873077800,3.490077880859375,-0.00037501624319702387,0.0009042979218065739,0.00012895511463284492
1788957099883046000,3.5000458984375,0.000534719554707408,-0.0014560616109520197,-0.0010902397334575653
1788957099893014000,3.510013916015625,-0.0005262679187580943,0.0007638566894456744,-0.00009325006976723671
1788957099902981000,3.519981201171875,0.00016588764265179634,-0.0008050114847719669,0.0004111523739993572
1788957099912948700,3.52994873046875,0.0009291018359363079,0.0006514888955280185,0.0007948023267090321
1788957099922916900,3.539916748046875,0.0010097958147525787,0.0003060768358409405,0.001076298300176859
1788957099932885000,3.549885009765625,0.0004377164877951145,0.0012839698465541005,-0.00024946732446551323
1788957099942852000,3.55985205078125,-0.0005463213892653584,-0.0009115401189774275,0.00028289854526519775
1788957099952819700,3.56981982421875,0.00003101769834756851,0.00008936179801821709,0.001885838806629181
1788957099962787800,3.579787841796875,-0.000012391828931868076,0.0000041406601667404175,-0.0012795943766832352
1788957099972756000,3.589755859375,-0.0005087705794721842,0.000009109033271670341,-0.0012918487191200256
1788957099982723000,3.59972314453125,0.0011005777632817626,0.0007031288696452975,-0.0013299318961799145
1788957099992691000,3.60969091796875,-0.0005229683592915535,0.00020851334556937218,0.00005406839773058891
1788957100002658800,3.619658935546875,-0.0005618504947051406,0.00016803317703306675,0.0014596846885979176
1788957100012627000,3.629626953125,0.00041610689368098974,0.0008652224205434322,-0.003045231569558382
1788957100022594000,3.639593994140625,-0.0020036413334310055,-0.0005020445678383112,-0.0010941997170448303
1788957100032562000,3.64956201171875,0.0005352010484784842,-0.0004955942276865244,-0.0008598086424171925
1788957100042529800,3.65952978515625,0.0002529058838263154,0.0006282598478719592,0.002172466367483139
1788957100052498000,3.669497802734375,0.00006429082714021206,-0.0006306818686425686,-0.00036478694528341293
1788957100062465000,3.679465087890625,0.0019343625754117966,0.0001043505035340786,-0.00023588957265019417
1788957100072433000,3.689432861328125,-0.00018905522301793098,0.0026810772251337767,-0.0013632145710289478
1788957100082401000,3.699401123046875,0.00037660019006580114,0.0003223156090825796,-0.0001797056756913662
1788957100092369000,3.709368896484375,-0.0005664268974214792,0.0005991394864395261,0.0008046026341617107
1788957100102336000,3.7193359375,-0.0005280773621052504,-0.00010926136747002602,-0.00003216275945305824
1788957100112303900,3.729303955078125,0.00024326599668711424,0.0005580631550401449,0.002014338970184326
1788957100122272000,3.73927197265625,0.0007916109170764685,0.001489903312176466,-0.0007723928429186344
1788957100132240000,3.749239990234375,0.0014702290063723922,0.00034119049087166786,-0.0008406201377511024
1788957100142207000,3.75920703125,0.00038499082438647747,0.0005308075342327356,0.000645423773676157
1788957100152174800,3.7691748046875,0.000712545239366591,-0.00048751733265817165,0.000540225300937891
1788957100162143000,3.77914306640625,0.0019559753127396107,0.00018972461111843586,6.691552698612213e-7
1788957100172111000,3.789111083984375,0.0002932812785729766,-0.0007340293377637863,0.00048104533925652504
1788957100182078000,3.799077880859375,0.00006211886648088694,-0.0010016770102083683,-0.0000356077216565609
1788957100192045800,3.8090458984375,0.0016974278260022402,0.00036216084845364094,-0.0002088821493089199
1788957100202014000,3.819013916015625,-0.00023655977565795183,-0.0004913820885121822,-0.0001905062235891819
1788957100211982000,3.828982177734375,-0.0017093135975301266,-0.0005433387123048306,0.0008430127054452896
1788957100221949000,3.838948974609375,0.0005999132990837097,-0.0009100558236241341,-0.0003748508170247078
1788957100231916800,3.848916748046875,0.0007790899835526943,0.00061685626860708,-0.00039623305201530457
1788957100241885000,3.858885009765625,0.000049117603339254856,-0.0001565257553011179,-0.00014429818838834763
1788957100251853000,3.86885302734375,0.00037485966458916664,0.001012439839541912,-0.00012954603880643845
1788957100261820200,3.878820068359375,-0.0008834839100018144,-0.000027790898457169533,-0.0011466071009635925
1788957100271787800,3.888787841796875,0.0006437526317313313,0.00032198894768953323,0.0007681767456233501
1788957100281756000,3.898755859375,0.000600609346292913,0.0028306865133345127,-0.0014731395058333874
1788957100291724000,3.90872412109375,0.0007849108660593629,0.0001499941572546959,-0.0003080219030380249
1788957100301691100,3.918691162109375,0.0001809059176594019,0.0007854243740439415,-0.0019543878734111786
1788957100311659000,3.928658935546875,0.0012445756001397967,0.00008467980660498142,0.00048592593520879745
1788957100321627000,3.938626953125,0.00023124273866415024,-0.00104423426091671,-0.0016065197996795177
1788957100331595000,3.948594970703125,0.0003313173074275255,-0.00008441810496151447,-0.0013728318735957146
1788957100341562000,3.95856201171875,-0.00007082009688019753,-0.0003747025039047003,0.00019630230963230133
1788957100351530000,3.968530029296875,-0.0009342009434476495,-0.0006513223052024841,0.00008626235648989677
1788957100361497900,3.978497802734375,0.000147308805026114,-0.00023293960839509964,-0.00022213207557797432
1788957100371466000,3.988466064453125,0.000831610057502985,0.0010835211724042892,0.0004203924909234047
1788957100381433000,3.99843310546875,0.0006779455579817295,-0.00100253289565444,-0.001990833319723606
1788957100391401000,4.00840087890625,-0.0004809147212654352,-0.0003705222625285387,0.0017782305367290974
1788957100401369000,4.018369140625,-0.0004886379465460777,-0.00019262311980128288,-0.0004337909631431103
1788957100411337000,4.0283369140625,0.000861175823956728,-0.0004303904715925455,0.00052594393491745
1788957100421304000,4.038303955078125,0.00017727597150951624,-0.00032839132472872734,0.0012798844836652279
1788957100431272000,4.04827197265625,-0.0012402294669300318,-0.0017074118368327618,0.0006401510909199715
1788957100441240000,4.058239990234375,0.0010785849299281836,0.0011592148803174496,0.0013099359348416328
1788957100451208000,4.0682080078125,-0.0011004596017301083,0.00010578730143606663,0.0008438159711658955
1788957100461175000,4.078175048828125,0.0003467021742835641,-0.0004697216209024191,0.0015037469565868378
1788957100471143000,4.088142822265625,0.000355133437551558,-0.0004109116271138191,0.000049822963774204254
1788957100481111000,4.098111083984375,-0.000028894399292767048,0.00032625114545226097,-0.0013763001188635826
1788957100491079200,4.1080791015625,0.00004799710586667061,0.00062941899523139,-0.0007030959241092205
1788957100501046000,4.1180458984375,-0.00046359619591385126,-0.00035808118991553783,-0.0010000388137996197
1788957100511014000,4.128013916015625,-0.002099264645949006,0.0019759852439165115,0.00008572498336434364
1788957100520982000,4.13798193359375,-0.00031574571039527655,-0.00018516997806727886,0.0011035851202905178
1788957100530950100,4.1479501953125,-0.002639461774379015,-0.0005177711136639118,-0.0009492724202573299
1788957100540917000,4.1579169921875,0.000599740887992084,-0.0001672990620136261,-0.0008717747405171394
1788957100550884900,4.167884765625,-0.00012124492786824703,0.00005798577331006527,0.0003148498944938183
1788957100560853000,4.17785302734375,-0.0007526804693043232,0.00010485737584531307,-0.0001858244650065899
1788957100570821000,4.187821044921875,-0.0014169829664751887,0.00022561405785381794,0.0010278518311679363
1788957100580788000,4.1977880859375,-0.00046117452438920736,-0.0009128872770816088,0.00024594785645604134
1788957100590755800,4.207755859375,0.0005118109984323382,-0.00024621421471238136,0.0011833379976451397
1788957100600724000,4.217723876953125,-0.0009539928869344294,0.0013716561952605844,0.00040995609015226364
1788957100610691000,4.227691162109375,0.0011136805405840278,-0.00001675635576248169,0.0010451297275722027
1788957100620659000,4.237658935546875,-0.0009808957111090422,0.00021227565594017506,-0.0004462404176592827
1788957100630626800,4.247626708984375,-0.0001091579906642437,0.0015041197184473276,0.000063315499573946
1788957100640595000,4.257594970703125,0.00033825309947133064,-0.0003984426148235798,0.002318480284884572
1788957100650562000,4.26756201171875,0.0012340969406068325,-0.00037509878166019917,0.00003819819539785385
1788957100660530200,4.2775302734375,0.00014646188355982304,0.0007785825291648507,-0.0012869909405708313
1788957100670497800,4.287497802734375,-0.0012866163160651922,-0.001490253722295165,-0.00028330087661743164
1788957100680466000,4.2974658203125,0.0016873355489224195,-0.00025934050790965557,-0.00011126045137643814
1788957100690433000,4.30743310546875,0.0002459597308188677,-0.0009424821473658085,0.0002223472110927105
1788957100700401200,4.317401123046875,0.0006696686614304781,-0.0001869434490799904,0.0008015846833586693
1788957100710368800,4.32736865234375,-0.0009151966660283506,0.001596938818693161,0.0005475440993905067
1788957100720337000,4.3373369140625,0.0003988069947808981,-0.00041587837040424347,0.000711061991751194
1788957100730304000,4.347303955078125,0.00007375015411525965,-0.0004718359559774399,-0.0022818008437752724
1788957100740272000,4.357272216796875,-0.00007725111208856106,-0.000026289140805602074,0.0005422155372798443
1788957100750240000,4.367239990234375,0.00012480327859520912,-0.0013299749698489904,0.00012171221897006035
1788957100760208000,4.377207763671875,0.00003239163197577,0.0008420991944149137,-0.0003073234111070633
1788957100770175000,4.387175048828125,0.0006364891305565834,-0.00039174826815724373,0.0005197240971028805
1788957100780143000,4.39714306640625,-0.0004050731658935547,-0.0006301011890172958,-0.0005029295571148396
1788957100790111000,4.407111083984375,-0.0006622541695833206,-0.0009410979691892862,0.00016830023378133774
1788957100800078800,4.417078857421875,0.00003043399192392826,-0.0005725165829062462,-0.0006247893907129765
1788957100810046000,4.4270458984375,0.001588685903698206,-0.0004225021693855524,-0.0002098632976412773
1788957100820014000,4.43701416015625,0.00043873279355466366,0.0012763282284140587,-0.002491659950464964
1788957100829982000,4.44698193359375,-0.0002754239831119776,0.000977449701167643,0.0005758842453360558
1788957100839950000,4.4569501953125,0.00027451885398477316,-0.0010529442224651575,-0.00016553979367017746
1788957100849917000,4.4669169921875,-0.0002796713961288333,-0.0004917355254292488,-0.0018155537545681
1788957100859885000,4.476885009765625,0.0008548351470381021,0.00012878119014203548,0.0003245621919631958
1788957100869853000,4.48685302734375,-0.00020265893545001745,-0.0003641617950052023,0.00011525489389896393
1788957100879821000,4.496821044921875,-0.0008625902119092643,0.0008537018438801169,-0.0013012802228331566
1788957100889788000,4.506787841796875,-0.0007921999786049128,0.0016566558042541146,0.0017358199693262577
1788957100899756000,4.516756103515625,-0.0005290796980261803,0.0007498494815081358,-0.001277280505746603
1788957100909724000,4.526723876953125,0.0003627943806350231,0.0013980712974444032,0.00030735693871974945
1788957100919692000,4.536692138671875,-0.0012753159971907735,0.0011072540655732155,0.0002540941350162029
1788957100929659000,4.546658935546875,0.000746791367419064,0.00013665365986526012,0.0014024525880813599
1788957100939627000,4.556626953125,0.0009960633469745517,0.0007675564847886562,-0.0009246175177395344
1788957100949595000,4.566594970703125,0.0000454349210485816,-0.00006645359098911285,0.0000852290540933609
1788957100959563000,4.57656298828125,0.000047831679694354534,0.0005580577999353409,0.00008789217099547386
1788957100969529900,4.58652978515625,-0.0004998199874535203,0.0015428820624947548,-0.0010911575518548489
1788957100979498000,4.596498046875,0.0008155152900144458,-0.00042332964949309826,-0.0014847726561129093
1788957100989465900,4.6064658203125,-0.0001742152962833643,0.0006127351662144065,-0.00002050492912530899
1788957100999434000,4.61643408203125,0.0007235362427309155,-0.0007071273867040873,-0.0005510067567229271
1788957101009401000,4.626401123046875,0.0012651800643652678,0.000685547711327672,0.0015097488649189472
1788957101019369000,4.636368896484375,0.0006473266985267401,-0.0014369916170835495,-0.002655434887856245
1788957101029336800,4.6463369140625,-0.0010564273688942194,-0.000126709695905447,0.0011586532928049564
1788957101039305000,4.656304931640625,0.00020857411436736584,0.0005329552805051208,0.000028940383344888687
1788957101049272000,4.66627197265625,-0.0003593993606045842,0.0010197527008131146,-0.0003369217738509178
1788957101059240000,4.676239990234375,0.00014553603250533342,-0.00041782157495617867,0.0013262219727039337
1788957101069207800,4.686207763671875,0.000005857436917722225,0.0010232666973024607,0.0005508125759661198
1788957101079176000,4.696176025390625,0.00020266510546207428,0.0010522952070459723,0.0014520264230668545
1788957101089143000,4.70614306640625,-0.00008200830779969692,-0.00020756316371262074,0.0010044081136584282
1788957101099111200,4.716111083984375,0.0018160265171900392,0.0007692844374105334,0.0014318455941975117
1788957101109078800,4.726078857421875,0.0001234641531482339,0.0008139726705849171,-0.0005891588516533375
1788957101119047000,4.736046875,-0.00020144146401435137,-0.000007079914212226868,-0.00031911442056298256
1788957101129014000,4.746013916015625,-0.0001788680674508214,0.0008432018803432584,-0.000018770340830087662
1788957101138982100,4.755982177734375,-0.001481153885833919,-0.0015648282133042812,-0.001559675671160221
1788957101148949800,4.76594970703125,0.00034675258211791515,0.0010382354957982898,0.0004635155200958252
1788957101158916900,4.775916748046875,-0.0005070568295195699,-0.0006592634599655867,0.0016986895352602005
1788957101168885000,4.785885009765625,0.000054685515351593494,-0.00007627648301422596,-0.0007764254696667194
1788957101178853000,4.79585302734375,-0.00001801876351237297,0.0013618303928524256,-0.00009332504123449326
1788957101188821000,4.805821044921875,0.0012488493230193853,0.00013568904250860214,-0.0007812650874257088
1788957101198787800,4.815787841796875,-0.001459319144487381,0.00023395963944494724,0.0009908024221658707
1788957101208756000,4.825755859375,-0.0011077423114329576,-0.0015274856705218554,-0.0019528809934854507
1788957101218724400,4.835724365234375,0.0007937545888125896,0.002025703899562359,0.0009233327582478523
1788957101228692200,4.845692138671875,0.0011864234693348408,-0.0017910129390656948,-0.0005832826718688011
1788957101238659000,4.8556591796875,-0.00043224578257650137,-0.0008386666886508465,0.0005807848647236824
1788957101248627200,4.865627197265625,-0.0006491792155429721,-0.0001601420808583498,-0.0005562100559473038
1788957101258595300,4.87559521484375,-0.000612960197031498,-0.0001851757988333702,-0.0008456953801214695
1788957101268563200,4.885563232421875,-0.0010312801459804177,-0.0004517054185271263,-0.0004037986509501934
1788957101278530000,4.895530029296875,-0.0002011727774515748,-0.00015343143604695797,0.00008569005876779556
1788957101288498200,4.905498291015625,0.0006536705186590552,0.001490285387262702,0.001213205512613058
1788957101298466300,4.91546630859375,-0.0004645909648388624,-0.00020774593576788902,-0.0007484788075089455
1788957101308434200,4.92543408203125,0.0010439559118822217,-0.0009621675126254559,-0.0008193799294531345
1788957101318401300,4.9354013671875,0.0002141149016097188,-0.00032061198726296425,-0.0009059328585863113
1788957101328369200,4.945369140625,0.0006136506563052535,0.000630756956525147,-0.0005275346338748932
1788957101338337300,4.955337158203125,0.0008442805847153068,-0.0005351749714463949,0.0008919304236769676
1788957101348305200,4.96530517578125,0.00012659502681344748,0.0005198124563321471,-0.0006840862333774567
1788957101358272300,4.975272216796875,0.0002269961405545473,0.0006090282695367932,-0.0004063188098371029
1788957101368240000,4.985240234375,-0.0003930391976609826,-0.0010372421238571405,0.00031256303191185
1788957101378208300,4.995208251953125,0.0011803563684225082,0.00048555340617895126,0.00048620114102959633
1788957101388176100,5.005176025390625,0.0005767019465565681,0.0005854510236531496,0.0015835915692150593
1788957101398143200,5.015143310546875,0.0003189078997820616,0.00020967889577150345,-0.000017234589904546738
1788957101408111400,5.025111328125,-0.0003816832322627306,0.0003814611118286848,0.00046403519809246063
1788957101418079200,5.035079345703125,0.0011086215963587165,-0.0007599696982651949,-0.0012651551514863968
1788957101428047000,5.045047119140625,-0.0006586248055100441,-0.0004961206577718258,-0.00046924175694584846
1788957101438014200,5.05501416015625,0.00018266774713993073,-0.0008998559787869453,-0.0013648630119860172
1788957101447982300,5.064982421875,0.0009302954422309995,0.00006937561556696892,0.00009307730942964554
1788957101457950200,5.0749501953125,-0.0012265987461432815,-0.0005141228903084993,0.0012259860523045063
1788957101467918000,5.08491796875,-0.0004122799728065729,0.0007001968333497643,-0.0005728830583393574
1788957101477885200,5.09488525390625,0.00009079114533960819,0.000005111796781420708,-0.0005025756545364857
1788957101487853300,5.104853271484375,-0.000943636754527688,-0.0005341542419046164,-0.00039505306631326675
1788957101497821400,5.114821533203125,-0.0005918331444263458,0.0003699888475239277,-0.0003351322375237942
1788957101507789000,5.1247890625,-0.0012316773645579815,0.00010244734585285187,-0.0005570226348936558
1788957101517756200,5.134756103515625,0.00012174108996987343,-0.0018155609723180532,-0.0002262578345835209
1788957101527724300,5.144724365234375,0.0001919178757816553,0.0005947042955085635,-0.0005914876237511635
1788957101537692400,5.1546923828125,0.00035943067632615566,0.00014063529670238495,0.00041385600343346596
1788957101547660000,5.164659912109375,0.0005185742629691958,-0.0003952689003199339,-0.0010782754980027676
1788957101557627100,5.174627197265625,-0.0011451023165136576,-0.0005238994490355253,0.00015077367424964905
1788957101567595300,5.18459521484375,-0.000738402595743537,-0.00032905908301472664,-0.00030942773446440697
1788957101577563400,5.1945634765625,0.00004856148734688759,0.0006728222360834479,-0.0001224740408360958
1788957101587530200,5.2045302734375,0.00043937633745372295,-0.0003184338565915823,0.0003332821652293205
1788957101597498000,5.214498046875,-0.00036569719668477774,0.0010344518814235926,0.0010302318260073662
1788957101607466200,5.22446630859375,-0.0001289917854592204,0.0005792255979031324,-0.0006963214837014675
1788957101617434400,5.234434326171875,-0.000315413111820817,-0.0006711285095661879,-0.0003711497411131859
1788957101627401200,5.244401123046875,-0.00033192511182278395,0.0005235640564933419,0.00015882262960076332
1788957101637369000,5.254369140625,-0.00018731551244854927,0.00010837730951607227,-0.0003168177790939808
1788957101647337200,5.264337158203125,-0.0005470166215673089,-0.0003260192461311817,0.000702188815921545
1788957101657305300,5.274305419921875,0.0003909486113116145,-0.00011216755956411362,-0.0004059523344039917
1788957101667272400,5.2842724609375,-0.0002137522678822279,0.0010927857365459204,-0.0006706160493195057
1788957101677240000,5.294239990234375,0.00030103675089776516,0.0000059497542679309845,0.000464423093944788
1788957101687208200,5.304208251953125,-0.0003739320673048496,0.00017561949789524078,-0.00045079179108142853
1788957101697176300,5.31417626953125,0.00042927730828523636,0.001574311638250947,-0.00012908177450299263
1788957101707143400,5.324143310546875,-0.0009423733572475612,0.0007989174919202924,0.0005405433475971222
1788957101717111000,5.334111083984375,-0.00037911476101726294,0.0007842701161280274,0.0004478655755519867
1788957101727079200,5.3440791015625,-0.0009351828484795988,0.00047454447485506535,-0.0007662693969905376
1788957101737047300,5.35404736328125,0.0008052204502746463,0.0007661855779588223,-0.0005872603505849838
1788957101747014400,5.364014404296875,0.0008014849154278636,-0.00101409200578928,-0.0006726239807903767
1788957101756982300,5.373982177734375,-0.0005761655047535896,0.0016520735807716846,-0.0007083918899297714
1788957101766950100,5.3839501953125,-0.00031464314088225365,0.0013210426550358534,0.0007518194615840912
1788957101776918300,5.393918212890625,0.00043237966019660234,0.0009756631916388869,0.000375580508261919
1788957101786885400,5.403885498046875,-0.00017402204684913158,-0.00020917714573442936,0.000019249506294727325
1788957101796853200,5.413853271484375,0.0003479763399809599,0.0008196786511689425,0.0003142724744975567
1788957101806821400,5.4238212890625,-0.0005945164011791348,0.0002566864714026451,-0.0000013122335076332092
1788957101816789200,5.433789306640625,-0.00005937926471233368,-0.00048181600868701935,-0.0010634721256792545
1788957101826756400,5.44375634765625,0.0008247902151197195,0.0008830538718029857,0.0008870270103216171
1788957101836724200,5.45372412109375,0.00007436634041368961,0.001249200664460659,-0.00015650223940610886
1788957101846692400,5.4636923828125,-0.0007472189026884735,0.00007554562762379646,0.0010235444642603397
1788957101856660200,5.47366015625,0.00030685821548104286,0.00004399009048938751,0.0016799732111394405
1788957101866627300,5.48362744140625,-0.0013032888527959585,-0.00019090063869953156,0.001024835743010044
1788957101876595200,5.49359521484375,-0.00012254377361387014,0.00031019444577395916,0.000507943332195282
1788957101886563300,5.503563232421875,-0.00013479439076036215,0.001674798084422946,-0.002194366417825222
1788957101896531500,5.513531494140625,-0.0019222212722525,-0.0007771907839924097,0.0011224276386201382
1788957101906498300,5.523498291015625,-0.0005347144324332476,-0.000417930306866765,-0.0010797404684126377
1788957101916466200,5.533466064453125,-0.0012069130316376686,-0.027663925662636757,-0.009862562641501427
1788957101926434300,5.543434326171875,-0.0009187589748762548,0.02539955824613571,0.010489048436284065
1788957101936402400,5.55340234375,-0.00015680748037993908,-0.01113444846123457,-0.003935947548598051
