time,seconds_elapsed,z,y,x
1789484375380149200,0.070149169921875,4.5713370249241585,-0.9941910703361034,1.2432168306954203
1789484375390120200,0.0801201171875,5.714353798115253,-1.173038401967287,1.36827075894922
1789484375400092400,0.090092529296875,2.912586651590466,0.9934633405834435,-0.13498252574047073
1789484375410063400,0.1000634765625,-1.8608073156386613,2.8456290846049783,1.2113533734448254
1789484375420034300,0.110034423828125,-0.4814408699184656,-0.013989654646813869,0.1939114288427867
1789484375430005200,0.120005126953125,-5.2271904588967555,1.9809943685084581,-0.917265943826735
1789484375439977500,0.1299775390625,-10.436411545860766,5.102074717453122,-2.1307612977363166
1789484375449948400,0.139948486328125,-1.9635089807003736,0.8694026611506939,-3.9814524391606447
1789484375459919000,0.149919189453125,3.4423657282203433,-3.4147949997276066,-0.96047818582654
1789484375469891300,0.159891357421875,3.300810893151164,-2.567252872729301,1.3170461831465363
1789484375479862300,0.1698623046875,1.6370079126030206,-0.805882082876563,1.7980103754639625
1789484375489833500,0.17983349609375,0.36330256627202034,0.4217205607101321,2.140649800674617
1789484375499804200,0.18980419921875,-1.1908195578515528,-1.3378572082459925,1.6765972879305482
1789484375509776400,0.1997763671875,-2.169660498842597,-0.17284195373654365,-0.7727115616153926
1789484375519747300,0.209747314453125,2.2745617197751997,-1.7215078582808374,-1.387125973805785
1789484375529718300,0.21971826171875,2.709606164699793,-0.5615706376880407,1.0127747017096727
1789484375539690200,0.229690185546875,-1.4641934313952922,0.8746133815363049,1.8506395573675631
1789484375549661400,0.239661376953125,-4.0723938160628075,1.8339824370771645,-2.4070392221584913
1789484375559632400,0.24963232421875,-6.352832903438806,2.816248676341772,0.027770671511627733
1789484375569603300,0.259603271484375,-2.219869760122895,-0.6021159985661506,1.0046041816703974
1789484375579575300,0.2695751953125,-0.6849632086008787,-1.6678224453225732,0.5490735962191596
1789484375589546200,0.279546142578125,-5.014693371120095,3.1726983079791067,1.5583762744367122
1789484375599517400,0.289517333984375,-0.8508055127084255,1.6930951260060072,2.7223022724047303
1789484375609489200,0.2994892578125,6.778946438410878,-3.7743794222593303,1.5535212356209753
1789484375619460400,0.30946044921875,10.873145259046554,-5.66855533901453,-0.45937747013773766
1789484375629431300,0.319431396484375,6.847684459072351,-3.8695030532822012,1.573051134868711
1789484375639403300,0.3294033203125,4.015962903788686,-3.134304572176933,4.072710042405128
1789484375649374200,0.339374267578125,-2.007453336367011,1.0485767405182123,-0.1741608177827671
1789484375659345400,0.349345458984375,-2.5017630402088162,-3.736345459680259,-1.3622950455404816
1789484375669316400,0.35931640625,-4.729585805162787,1.766026506704092,1.2976770274184644
1789484375679288300,0.369288330078125,-1.187408288103342,3.098527740874886,-0.03397480511507019
1789484375689259300,0.37925927734375,1.3095301084280013,2.5281454356998205,1.599175610075891
1789484375699230200,0.389230224609375,2.928782584109902,0.6995607660129666,1.1633088159177452
1789484375709202200,0.3992021484375,2.870648959571123,-0.5686480287283658,1.769449613020569
1789484375719173000,0.409173095703125,1.1141174264431,-0.24750790314227342,0.16050138147100806
1789484375729144300,0.419144287109375,-3.2677485815048217,4.063215653350949,-0.1822795893684961
1789484375739116300,0.4291162109375,-3.4442940659344194,2.9203131541892886,2.270435287494957
1789484375749087200,0.439087158203125,-4.224422698873282,3.0437600856378673,0.38670411932133136
1789484375759058200,0.44905810546875,0.12081716746687889,-2.453670624952018,-3.4765143737986683
1789484375769030400,0.459030517578125,2.0495400814682245,-1.6590522788897155,-1.4827474713481963
1789484375779001300,0.46900146484375,0.8749608797997236,3.861770705464482,-1.089531997371465
1789484375788972300,0.47897216796875,3.0901164708822964,-1.224006957182288,0.43410588543284684
1789484375798944300,0.4889443359375,2.6835107694566247,-2.889256629407406,1.3418620599731803
1789484375808915500,0.49891552734375,-2.34500303722322,2.6343893034130335,0.7944357560370117
1789484375818886400,0.508886474609375,-5.076943198806047,4.678900450803339,1.640475880974531
1789484375828858400,0.5188583984375,-3.626011984565854,3.156388685952127,-1.1656254222970455
1789484375838829300,0.528829345703125,-2.3644266996175047,3.212623491132259,-4.075702794480324
1789484375848800300,0.53880029296875,1.2622177376329897,-0.18561843320131302,-3.698413788431883
1789484375858772200,0.548772216796875,2.013003371709585,-1.943958769316971,-1.2996654247567057
1789484375868743200,0.5587431640625,2.2837042266517877,-1.0794058862850069,-2.5610978572309016
1789484375878714400,0.56871435546875,1.3476000191032886,-0.9035521835118532,-1.435679869094491
1789484375888685300,0.578685302734375,0.7574690573632716,-1.1111623760297893,0.6948992770079523
1789484375898657300,0.5886572265625,0.9468371984869242,-1.5704346687600015,-1.262899874678254
1789484375908628200,0.598628173828125,1.5661545072227716,-1.8512702564865349,0.15151703343135303
1789484375918599400,0.608599365234375,0.9092746528118848,-0.34864246501773594,-0.3121061936505139
1789484375928571100,0.618571044921875,0.06852525469362736,-0.6779255650490522,2.234716469990462
1789484375938542300,0.628542236328125,-0.5424924277305603,-0.6408893813356756,3.3738974644109603
1789484375948514300,0.638514404296875,0.44535716462433333,-1.1338280890852213,1.370843678177148
1789484375958485200,0.6484853515625,2.3294869036614894,-2.865762064312398,2.4991949432864784
1789484375968456200,0.658456298828125,-0.003677811729907989,-0.871828719253838,1.2613720805890858
1789484375978428400,0.668428466796875,1.6838538349300622,-1.3635752946093678,1.249178077187389
1789484375988400000,0.678400146484375,0.1848170536905527,-0.6508768146038055,-0.6346453723795712
1789484375998371300,0.688371337890625,-0.5857903021872043,0.34387451996356244,0.18366317094769327
1789484376008343300,0.69834326171875,-1.5883932270377874,1.6102084607437253,-0.3981371482878923
1789484376018314200,0.708314208984375,-0.35252164453864093,0.9138710406914353,-2.0030619695402683
1789484376028285200,0.71828515625,0.9465098662286996,-0.5541285049885512,0.5779070015914738
1789484376038257400,0.72825732421875,0.9566203413546085,-0.8252569376930594,1.7788814582325516
1789484376048228400,0.738228271484375,-0.9781634801208973,0.060473465663194656,-0.5893250887172297
1789484376058199300,0.74819921875,-2.0839263351947066,0.30313539007902146,-0.8937562542278319
1789484376068171300,0.758171142578125,-0.7352946349561214,-0.309799816404283,-0.6394792222768068
1789484376078142500,0.768142578125,1.9409440976709127,-2.170976257616281,-0.21797898978646843
1789484376088113400,0.778113525390625,1.000135657954216,-1.0754141863003372,0.9416363419082016
1789484376098085400,0.78808544921875,0.15964578755497932,-0.5792515480682253,0.007757219680782873
1789484376108056300,0.798056396484375,-0.15348492683768272,-0.9739157595485448,-1.4287157291702925
1789484376118027300,0.80802734375,0.630123949432373,-1.24245768289119,-1.551954278565198
1789484376127999200,0.817999267578125,0.5068792625576257,-0.6585419424042105,0.6030058600779622
1789484376137970200,0.82797021484375,1.8695868344217537,-2.253331300219893,0.7004729124218225
1789484376147942400,0.8379423828125,0.6871212634176015,-0.8552572314202785,-0.6774226570282131
1789484376157913000,0.8479130859375,-1.3531927245438098,1.3292358026340603,-0.634571868751943
1789484376167884300,0.85788427734375,-0.475779775416851,-1.1900476966962217,-0.21974181647421792
1789484376177856300,0.867856201171875,-1.3008347607970236,-0.011176350791752337,0.4823928734136745
1789484376187827500,0.877827392578125,-0.9063251553565264,1.3822887629076839,-3.0636271078854795
1789484376197798100,0.887798095703125,0.9465905302494764,0.6585398965775966,-2.3792956213168797
1789484376207770400,0.897770263671875,0.7028034011960029,2.0926286970883607,-0.8462167966786771
1789484376217741300,0.9077412109375,-0.9856716637939215,2.991657557956874,-1.1124893868498504
1789484376227712500,0.91771240234375,-0.23659517172276973,1.6095079112589359,0.4846503700168803
1789484376237684200,0.927684326171875,0.5534264941990376,0.6491024984076619,-0.4763128593802452
1789484376247655400,0.937655517578125,0.3819260181993246,1.6696917463257908,-1.160844252435118
1789484376257627100,0.947627197265625,-0.40352585558891296,1.2674065384477375,-0.56601413656082
1789484376267598300,0.957598388671875,-0.9683072720170021,0.9066656393572687,1.1850379057101905
1789484376277569300,0.9675693359375,0.003824526724219322,-0.26488369309604165,-0.85143577343598
1789484376287541500,0.97754150390625,0.9192150320678949,-0.12534633532911538,-0.24431423993380738
1789484376297512200,0.98751220703125,-0.7239028878480196,1.5008628276228904,1.4311746666297316
1789484376307483100,0.997483154296875,-0.32232933537065983,1.1127169119954108,1.9953021491937337
1789484376317455400,1.007455322265625,1.3319617204666137,-0.2956175617948174,0.13632345548802985
1789484376327426300,1.01742626953125,0.26140754141807554,-0.21752017663568257,-1.3352742060154676
1789484376337398300,1.027398193359375,-0.07402852828502654,0.25884938136786223,-0.022950544179067944
1789484376347369200,1.037369140625,-0.4480003726094961,-0.9974804672703146,0.6649041709125042
1789484376357340400,1.04734033203125,-0.898128989419341,-0.4016249904036522,0.9384856958575546
1789484376367312100,1.05731201171875,0.7637561748087406,-1.0818073944687843,-0.29678364643212407
1789484376377283300,1.067283447265625,2.7851287309348582,-2.1614067574992775,-0.17936856076000257
1789484376387255300,1.07725537109375,1.2601269028335809,-0.9347299965858459,1.6375278448238968
1789484376397226200,1.087226318359375,-0.05395195493996143,-0.39852439403980966,0.5713178324595093
1789484376407197200,1.097197265625,-0.028424130451679228,-1.2587433395206928,0.7318603496585041
1789484376417169400,1.10716943359375,1.0423732097029685,-1.8291589624434708,0.4142223139092326
1789484376427140400,1.117140380859375,1.2827584213584662,-1.555976519818604,0.8757067297309636
1789484376437112300,1.1271123046875,0.26945991497039795,0.5057105110391974,1.1723667863160372
1789484376447083300,1.137083251953125,-0.12913900561034677,0.35646687503308055,2.391797229363024
1789484376457054500,1.147054443359375,-0.11509294460117817,-0.6931319020092487,2.618381002420187
1789484376467026200,1.157026123046875,-0.12792495364546774,-0.5578188839390874,2.957201746125519
1789484376476997400,1.166997314453125,-1.1291425616174935,0.36377339865416286,1.5540172024443746
1789484376486968300,1.17696826171875,-0.8628577695518732,0.933989407351613,1.520006650162488
1789484376496940300,1.186940185546875,0.04392565096616745,0.256300281406939,1.9923202107734976
1789484376506911200,1.1969111328125,-0.28030805672109127,0.587172988717258,1.0394904938735068
1789484376516883500,1.206883544921875,0.6548088933557271,-0.2327165767237544,1.0452763837985695
1789484376526854400,1.2168544921875,0.5397884294688702,-1.1534084033459424,0.9907307007491588
1789484376536826400,1.226826416015625,-0.20734803445041178,0.22884733407497404,0.786988727966696
1789484376546797300,1.23679736328125,-0.5094108268618583,1.024412605598569,1.0291785048261284
1789484376556768300,1.246768310546875,-0.07062485732138156,-0.8453355568647384,1.366525084325671
1789484376566740200,1.256740234375,-0.6978904947131872,-0.6312213892802596,2.1890948287613687
1789484376576711200,1.266711181640625,-0.2116910320907831,0.11767156291753053,0.5290497394420206
1789484376586683400,1.276683349609375,1.263660922178626,-0.9468275538757442,0.9949188000887632
1789484376596654000,1.286654052734375,-0.6055033029168844,0.2892062334477901,2.315480882401764
1789484376606625300,1.296625244140625,-2.1299591875731942,-0.08121697848439216,0.6318782457537949
1789484376616597200,1.30659716796875,-0.9936936422079801,-1.0679688387304545,2.0181291902907192
1789484376626568200,1.316568115234375,0.22954408416748046,-0.592808948777616,1.8925307798966764
1789484376636540400,1.32654052734375,1.8266028482198715,-0.6898045111522078,2.372791938511282
1789484376646511400,1.336511474609375,2.413118542072177,-0.6328928296238183,1.845336920914799
1789484376656482300,1.346482421875,0.7564005513489246,-0.5124368966847658,2.8070024168297647
1789484376666454300,1.356454345703125,-1.6246487817674875,0.3016881138801574,1.9518167893409728
1789484376676425200,1.36642529296875,-1.8576508974343537,-0.49205111126005646,1.1290638703580944
1789484376686397400,1.3763974609375,-1.6538585096389053,0.6556076425179839,1.1112238238934427
1789484376696368000,1.3863681640625,1.412814541813731,-0.4035045205399394,-0.3863862124785781
1789484376706340400,1.39634033203125,2.857093896949291,-1.0920403269305825,1.7533653241820633
1789484376716311300,1.406311279296875,1.8885458019137382,0.38331659577488897,-0.006171820502728223
1789484376726282200,1.4162822265625,0.38491643218696114,1.0389674929127097,0.03751687990240753
1789484376736254200,1.426254150390625,-0.1962543935060501,0.7798866408765316,-0.054051688987389206
1789484376746225400,1.436225341796875,-1.5878718335121869,0.7415534030899406,-0.6811488379444927
1789484376756197000,1.446197021484375,-2.036952402573824,0.592683861093223,-1.5433185521669686
1789484376766168300,1.456168212890625,-1.5425895072400568,-0.209809456127882,-0.9750606917999685
1789484376776140300,1.466140380859375,-1.3387573719561099,0.44398938340246674,-0.20097718424424527
1789484376786111200,1.476111328125,-0.5157745166748762,-0.36743922768533227,-0.02403101005926728
1789484376796082200,1.486082275390625,0.6516290942758322,-0.6681897684544325,0.43302850199230014
1789484376806054400,1.496054443359375,1.1329963144361972,-1.3251719141960143,-0.8697362039539962
1789484376816025300,1.506025390625,0.4908516723424196,-0.08723287777304649,0.21548655191622673
1789484376825997300,1.515997314453125,-0.11964987725317477,0.04899754740297794,1.7624924873590468
1789484376835968300,1.52596826171875,-1.3841542645186184,0.8433394146114588,0.5887978134401142
1789484376845940200,1.535940185546875,-0.11393442221581936,-0.09781155493259429,1.6787445290923118
1789484376855911200,1.5459111328125,1.1200503236234187,-1.0931778065279125,0.7109465948369353
1789484376865883400,1.55588330078125,1.4763018023401497,-1.9801634706422686,1.109529587196186
1789484376875854300,1.565854248046875,0.6894546748012303,-0.7320552146434783,1.3828808835819362
1789484376885825300,1.5758251953125,-0.3137994074344635,-0.31138445524722336,0.3877242561493069
1789484376895797200,1.58579736328125,-2.003561005103588,1.1795143199831246,0.5355000846251845
1789484376905768400,1.5957685546875,-1.0528139396965503,0.573556551297009,0.6368993618514388
1789484376915740200,1.605740234375,0.27495909690856934,0.3304889686897397,-0.020358970483019947
1789484376925711400,1.61571142578125,1.932729811555147,-0.7284732645034789,-0.42397929942235346
1789484376935683300,1.625683349609375,1.1123282049387693,-0.8391133213490247,0.38380671737939115
1789484376945654300,1.635654296875,-0.3881915083348751,-0.3278334857448935,0.12850545694716273
1789484376955626200,1.645626220703125,-1.4801689991623161,0.5071557414114475,0.8453826108768582
1789484376965597400,1.655597412109375,-0.840119868043065,-0.7815422991290688,1.4607590730324387
1789484376975568400,1.665568359375,0.623941461405158,-1.730587529054284,0.10577559261433779
1789484376985540400,1.675540283203125,0.6262941620111465,-0.4978983759835362,-0.001008811716362834
1789484376995510500,1.685510498046875,1.2105635382413864,-0.8323255609050393,-0.34889074069038034
1789484377005482500,1.695482421875,-0.45834933266639705,0.5860562596470117,1.9644084137581288
1789484377015453700,1.70545361328125,0.2512240010559559,-1.039988652653992,-0.9816779179826378
1789484377025425400,1.71542529296875,0.06701485013067722,-0.9950520710796117,0.37964389861151576
1789484377035396600,1.725396728515625,-1.4643530058711767,1.8804487124368547,0.4740777938045561
1789484377045368300,1.735368408203125,0.350477571490407,0.10418605840057134,0.13701419596485792
1789484377055339500,1.745339599609375,1.7917717733353375,-0.8450979487165808,1.1372089636951683
1789484377065311500,1.7553115234375,0.31110826865434643,0.38303281039744613,0.4563241104491055
1789484377075282700,1.76528271484375,-1.7942413783192634,1.3137944878742098,1.2765934689879417
1789484377085253400,1.77525341796875,-2.461979311352968,1.2284329569309949,-0.4375999746263027
1789484377095225600,1.7852255859375,0.10273206019997597,0.2589917124480009,0.7323238024517893
1789484377105196500,1.795196533203125,1.0160890138894318,-0.7463032279655337,-0.9913848538089542
1789484377115168500,1.80516845703125,0.712062812450528,0.042425183275341984,0.27009521719925106
1789484377125139500,1.815139404296875,-0.22757950609624383,1.46829122210294,1.1738910732738672
1789484377135111700,1.825111572265625,0.4799024083048105,0.9991106988206505,0.0034993864230811592
1789484377145082400,1.835082275390625,0.7317974404901265,0.03945259720534086,1.1057265416514128
1789484377155054600,1.8450546875,0.9389443994104861,-1.6553665761142968,-0.737786013380438
1789484377165025500,1.855025634765625,-0.7737532526880502,0.09040361676365137,0.6241551772210746
1789484377174997500,1.86499755859375,-2.10766201556921,0.8434948974341153,0.03833608733080327
1789484377184968400,1.874968505859375,-1.2974001101732253,-0.08225801196992397,0.3047910483315587
1789484377194940700,1.884940673828125,-0.9311725963652133,-1.6001909245982766,-1.0687037288762629
1789484377204911400,1.894911376953125,0.26717268081605433,-1.1021142694383859,-0.24132088507041333
1789484377214883600,1.904883544921875,0.7851929305911064,-0.6425853715986013,-0.34802506377175446
1789484377224854500,1.9148544921875,0.2785129899978638,0.08155600118041038,-0.6835326643411069
1789484377234825700,1.92482568359375,0.2916413516402244,-1.0286705553039908,-1.1148318583227694
1789484377244797400,1.93479736328125,0.24168869546949862,-0.616826368702948,-1.3935359869785606
1789484377254768600,1.9447685546875,1.4244003501892089,-1.5913187590956688,-1.01793902567029
1789484377264740400,1.954740234375,1.2003279754310845,-0.36902941948622464,-1.6588300144411623
1789484377274711600,1.964711669921875,0.3957148895770311,-0.06831599585711956,-0.9465624731987714
1789484377284683500,1.97468359375,0.39901802277565,-0.5037532394915819,-1.02280633944571
1789484377294654700,1.98465478515625,-0.7385942610234022,0.002745499315857887,0.32972167411167175
1789484377304626400,1.99462646484375,-1.1809171725183725,0.28304274238198995,-0.1666275727337226
1789484377314597600,2.00459765625,-1.1815256598055361,0.8947115821912884,0.1473684897840023
1789484377324569300,2.0145693359375,-0.20168810899257658,0.4360013072580099,0.274615544167906
1789484377334540500,2.02454052734375,0.07685059996843338,-0.43079467852562664,0.671971040558815
1789484377344512500,2.034512451171875,1.1491653589487074,-0.6627706660151481,0.7705652703016996
1789484377354483700,2.044483642578125,2.2529478538602588,-0.12004735213816166,0.24981919402563943
1789484377364455400,2.054455322265625,1.077818617093563,0.5297478047087788,0.15280801395680754
1789484377374426600,2.064426513671875,-0.36192367913424967,-0.21660686118304728,0.5751065572179853
1789484377384398300,2.0743984375,-1.0719535244524478,-0.5563794987857341,-0.4631386493021622
1789484377394369500,2.08436962890625,-0.310978504794836,-0.9270058320745825,-1.3949996297903358
1789484377404341500,2.094341552734375,-0.2988660421967506,0.1736120613262057,-1.3952948133446275
1789484377414312700,2.104312744140625,0.6915811654359102,0.6936559258833527,-0.530543923522532
1789484377424284400,2.114284423828125,2.6226129409015178,-0.6209598152458667,-1.2818733090870083
1789484377434255600,2.124255615234375,1.8149048116415738,0.1539458223477006,0.873472833199054
1789484377444227600,2.1342275390625,-0.40256840873360633,1.1986743630051613,0.08517709602070972
1789484377454198500,2.144198486328125,-0.8951338992565869,1.7281921583503483,0.5245727036258205
1789484377464170500,2.15417041015625,-0.6177689102500676,1.0042892705023287,1.7977590310513971
1789484377474141700,2.1641416015625,0.3265209418416023,0.21382336794435977,0.7790027707140892
1789484377484113400,2.174113525390625,0.6682920597851276,0.39743192262798543,1.2824632378041743
1789484377494084600,2.184084716796875,0.07061199783980845,1.605598628860712,0.28011571248676626
1789484377504056600,2.194056640625,-0.3489642443180084,1.047960069924593,0.20706271470300852
1789484377514027500,2.204027587890625,-1.7015093186080454,1.4078133725255726,0.2360184312807396
1789484377523999500,2.21399951171875,-0.6936860287606715,0.31866905929744244,-0.1390875499065034
1789484377533970700,2.223970703125,0.5157675024121999,-0.3293313230872154,-0.11918868034905754
1789484377543942400,2.2339423828125,0.5855488946467637,0.6927040319859981,-0.3276063259255141
1789484377553913600,2.24391357421875,0.585360094076395,0.3506543893620372,0.38777719191294163
1789484377563885600,2.253885498046875,0.9894757322520017,-0.5309533811062574,-0.742842127726227
1789484377573856500,2.2638564453125,0.09694237088263034,-0.6184542621657252,-0.3101400081440806
1789484377583828500,2.273828369140625,1.0784177520304918,-1.229915596704185,-1.607333197568357
1789484377593799700,2.283799560546875,-1.5427560959786175,-0.3809352535963058,-0.09441920908056199
1789484377603771400,2.293771484375,-1.1667132905989885,-1.301281627781689,-0.2230570419694297
1789484377613742600,2.30374267578125,-0.5835591821342706,-0.789854200400412,-1.0273242552615702
1789484377623714600,2.313714599609375,-0.02634790869951248,-0.7037143785610794,-0.8204667077418416
1789484377633685500,2.323685546875,-0.3051379620730877,0.11100538302659987,-1.259291328792274
1789484377643657500,2.333657470703125,1.5583090544193983,-1.122146419119835,0.4614483215950429
1789484377653628700,2.343628662109375,0.729122083801031,-0.670913348199427,-0.3677828534912318
1789484377663600400,2.353600341796875,0.6343465355634689,-1.3644716589272021,1.0420263690266758
1789484377673571600,2.363571533203125,-0.16502046633064746,-0.9294999869778752,2.045150906598568
1789484377683543600,2.37354345703125,0.49339375804066654,-0.06421148314774036,2.2147524171091613
1789484377693514500,2.383514404296875,1.4458634094566105,-0.4400634421303868,1.9675147092103957
1789484377703486500,2.393486572265625,0.6743313399493694,-0.17536767282187937,1.2747139388516544
1789484377713457700,2.403457763671875,0.060844637063145635,0.5615718067318201,0.47380811001770196
1789484377723429400,2.413429443359375,0.19863865829408167,0.28637480941414833,0.4556701765850186
1789484377733400600,2.423400634765625,-0.17588789730370044,0.3920569515913725,-0.002734703927207738
1789484377743372500,2.43337255859375,-0.5927186401456594,-0.20244009640365837,-0.4273306556768715
1789484377753343500,2.443343505859375,0.45846272991299625,0.3090545509949326,0.11398253567386418
1789484377763315500,2.4533154296875,0.6433242072671651,0.664540890558064,0.06973591825817711
1789484377773286700,2.46328662109375,0.7549772405475378,0.10506985549777746,-0.34061033053584394
1789484377783258400,2.47325830078125,0.268514158552885,-0.05682283420115709,0.7888704500600695
1789484377793229600,2.4832294921875,-1.489050809276104,0.7101452883914112,-0.800248533969
1789484377803201500,2.493201416015625,-0.9865420168876647,-0.3388447091028094,-1.4826123006612062
1789484377813172500,2.50317236328125,-0.8315028463453054,0.08486585638076066,0.6590160627219825
1789484377823144400,2.51314453125,1.0198270313739777,-2.2293416450843213,-1.9628877800621092
1789484377833115600,2.52311572265625,1.2941466613352297,-2.3702187270224093,-3.079904873469472
1789484377843087400,2.53308740234375,-0.8374830897986888,0.20217326216101644,-1.4411337505862116
1789484377853059600,2.5430595703125,0.09822598095238208,-1.4988041415274143,0.5000088287988678
1789484377863030500,2.553030517578125,1.3932821583479642,-2.967797082158923,-0.12599153789747505
1789484377873002500,2.56300244140625,1.2041998484283685,-1.556200099441409,1.2621841276243329
1789484377882973400,2.572973388671875,0.9895791926264762,-1.4865931869909166,0.7449937528021633
1789484377892945400,2.5829453125,-0.5718412718117237,-0.700895229487121,3.419266884444654
1789484377902916400,2.592916259765625,-1.4541045835793018,1.0699468608051539,0.7320453508365898
1789484377912888600,2.602888671875,-1.874042060264945,-0.3154845840424299,1.0497202845301479
1789484377922859500,2.612859619140625,-2.0695424205332995,1.2016919572606681,1.7999993573240936
1789484377932831500,2.62283154296875,0.23644728768467901,0.9362728421136737,-0.8688494842473417
1789484377942802400,2.632802490234375,2.732935017839074,0.17431202628910542,-0.4879109792480245
1789484377952774400,2.6427744140625,1.9338485864520072,0.2278539391234517,0.10941152883074245
1789484377962745300,2.652745361328125,0.32662615578174586,1.1086936478286982,0.3628232948550954
1789484377972717600,2.662717529296875,-0.8220961355745792,0.9838663679376244,-1.0360773244291543
1789484377982688500,2.6726884765625,-1.1574801828294992,1.762188243715465,-1.571843951036036
1789484377992661000,2.682660888671875,-0.6931710649758577,1.047973221667111,-1.8643517102472482
1789484378002632000,2.6926318359375,0.12761223443448544,-0.263113176292181,-0.7793187047954648
1789484378012604000,2.70260400390625,-0.2756581850886345,0.4806532266721129,-1.1994270080033689
1789484378022576000,2.712576171875,-0.9577373626857996,0.8735159416884183,0.4455054139886051
1789484378032547000,2.722547119140625,-2.326139931321144,1.7277382771030068,0.646857788220793
1789484378042519000,2.73251904296875,-1.4587176303327083,0.31646365820765493,0.331321547056362
1789484378052490000,2.742489990234375,0.00514087001979351,-1.2267998027712106,0.06825964886026922
1789484378062462200,2.752462158203125,0.652358577594161,-1.480740369309485,0.4977661279059946
1789484378072433000,2.762432861328125,1.8244558993190525,-1.1455506755828857,0.5187352296439931
1789484378082405000,2.772405029296875,0.3559714927315712,0.18735855486690997,0.23913353109396993
1789484378092376000,2.7823759765625,0.19422785611450671,-0.19267565823644398,-0.11755743501856922
1789484378102348000,2.79234814453125,-0.3097475016951561,-0.5799111810207367,-0.14035535961892456
1789484378112319000,2.802319091796875,-0.3519488130867481,0.046156478758156295,-1.8097633570998906
1789484378122291200,2.812291259765625,-0.8994482553243637,1.6238424338206647,-1.3591723834753036
1789484378132262000,2.822261962890625,-0.8876122715801,1.5611103755757212,0.3561479452770203
1789484378142234000,2.832234130859375,-0.554016861307621,-0.20014789381325243,0.07160806880560704
1789484378152205000,2.842205078125,0.1933960814654827,0.4658721293866634,-0.15220813923436216
1789484378162177000,2.852177001953125,2.0598983938753603,-0.24759616594761608,-0.23610450212899595
1789484378172149000,2.86214892578125,1.7660107246130703,-0.24937252797037363,2.3799051315173507
1789484378182120200,2.8721201171875,-0.5638409207075834,0.9768357386484742,1.8541855594113468
1789484378192092000,2.882091796875,-1.2600719577759503,0.6801078775241971,1.1350519317917525
1789484378202063000,2.89206298828125,-0.12973346437215805,0.009366963282227516,0.8458538085851818
1789484378212034800,2.902034912109375,0.8764677772313356,-0.9133946553513407,1.8765125420317053
1789484378222006000,2.912006103515625,0.1357785897552967,-0.5941060028508305,0.9938410147894173
1789484378231978000,2.92197802734375,0.8741501479387283,-1.3422580735534428,1.5132788032121955
1789484378241949200,2.93194921875,-0.794320824420452,0.23191022877693174,1.010345282605663
1789484378251921000,2.9419208984375,0.2936141130179167,-1.561300929711759,1.327955115173757
1789484378261892000,2.95189208984375,1.5433254202991724,-1.6455702815040945,2.158561889462173
1789484378271864000,2.961864013671875,1.2137351540148258,-1.7450325262531636,2.4835247882068154
1789484378281836000,2.9718359375,0.23701427391767502,-0.0455704955637455,2.715211729621887
1789484378291807000,2.981806884765625,1.0661731874853373,-1.4079054347231983,1.0899113520778716
1789484378301779000,2.991779052734375,-1.6925591194331644,1.2786974555298685,-0.3673024495631456
1789484378311750000,3.00175,-2.990357873535156,1.0495195743262766,0.8402017741728574
1789484378321722000,3.01172216796875,-1.5675234574884176,1.002438966460526,1.3891557260677219
1789484378331693000,3.021693115234375,1.1622095494389533,1.0981018189266323,-0.8941169042337686
1789484378341665000,3.0316650390625,3.827310801979899,-0.9580953823432325,0.29303441343382
1789484378351636000,3.041635986328125,0.9257114083498715,1.8746765587761998,1.7637660144262015
1789484378361608000,3.05160791015625,-1.222391923201084,2.3369150078356267,0.8178533834382892
1789484378371580000,3.061579833984375,-1.6373644709557293,1.8110721016108988,1.0136860444009304
1789484378381551000,3.071551025390625,-0.7393956405341625,1.0226493953183293,0.5109877573223784
1789484378391522800,3.081522705078125,-0.7422901929318905,1.375465931150317,-0.3225735559226945
1789484378401494000,3.091493896484375,0.610811930719018,0.567263880893588,-0.7753270778760314
1789484378411466000,3.101466064453125,0.6024029988139867,1.1744470997214316,-0.5212099491944536
1789484378421437000,3.11143701171875,-1.2416332147657871,1.8339158015817403,0.51662981832996
1789484378431409200,3.1214091796875,-1.9517408014953135,1.083592816580832,0.6296360197849571
1789484378441380000,3.131380126953125,-1.386663616991043,0.9152575266137719,-1.6667562773957847
1789484378451352000,3.14135205078125,-0.29962825874090193,0.6786082866162061,-1.4407977966301142
1789484378461324000,3.151323974609375,0.5672983676850796,-0.14130612100511789,-1.422940945161134
1789484378471295200,3.161295166015625,1.4036854789406061,-1.0365262372404336,0.8479463238850236
1789484378481267000,3.171266845703125,0.48733811126351356,-0.1962044168844819,0.13078786879591642
1789484378491238100,3.181238037109375,0.4987064774960279,0.005833820720016956,-1.49236826326102
1789484378501209900,3.1912099609375,-0.20619594180583953,0.5155962374985218,0.01411488846167922
1789484378511181000,3.20118115234375,-0.10813947220146655,-0.4120329871714115,0.36786907046996054
1789484378521153000,3.211153076171875,-0.6203448982179165,0.6219087865337729,0.3552180805483833
1789484378531124200,3.221124267578125,-0.5880991636514663,0.7219953006610274,-0.09623413128172978
1789484378541096000,3.231095947265625,0.3049047378391027,-0.4694838901430368,-0.24539538623401894
1789484378551068200,3.241068115234375,1.0008487746596335,-0.5750798153415322,-0.7578433705683797
1789484378561038800,3.251038818359375,0.3785843065559864,0.1494444192752242,0.6069316186869517
1789484378571011000,3.261010986328125,1.4812714074462652,-1.3329057233184576,0.9258423412531613
1789484378580982000,3.27098193359375,0.4594073172867298,-0.002766542103886604,0.4973691644776612
1789484378590954000,3.2809541015625,-0.15641104341745377,-0.020524024851620196,0.1494356514468789
1789484378600925000,3.290925048828125,0.16427286283373832,0.00679828183799982,0.15904484425345436
1789484378610897200,3.300897216796875,-0.7550052975982428,0.8073498173415661,0.7105065959844737
1789484378620868900,3.310868896484375,-1.1953782440692187,1.0300412591353059,0.5340905100882053
1789484378630840000,3.320840087890625,-0.6434072093755007,-0.19402765736728905,-0.47377018916010855
1789484378640812000,3.33081201171875,-0.33520167642533777,0.25956045224666596,0.05532066774358973
1789484378650783000,3.340782958984375,-0.936218189316988,0.002455284197628498,1.1782486839614807
1789484378660755000,3.3507548828125,1.211906769543886,-1.6445146349713204,1.2260305719643831
1789484378670726100,3.36072607421875,1.6500795756220816,-1.5579209318846463,-0.7606070631280542
1789484378680697900,3.37069775390625,2.922169303449988,-2.5997218946576117,1.0920272482533007
1789484378690669000,3.3806689453125,-0.7450467981636524,-0.006413666434586048,0.14198643141947687
1789484378700641000,3.39064111328125,-0.7431476865440607,-0.013034838140010833,0.14504813881134612
1789484378710613000,3.400613037109375,-2.2595564583450556,0.5038566998660564,-0.10702111742971464
1789484378720584000,3.410583984375,-2.4624539431273935,0.46803018420338627,1.8553991729848085
1789484378730556000,3.420555908203125,-2.157918038600683,1.3192758418947457,0.7875881551645696
1789484378740526800,3.43052685546875,1.0192676439255475,-0.4230018326923251,-0.012737462628632783
1789484378750499000,3.4404990234375,2.0341946282982826,-0.371149188119173,0.43535774865746496
1789484378760471000,3.450470947265625,2.232265131315589,-0.885609407325089,-0.22847117597265168
1789484378770442000,3.46044189453125,1.385349027261138,-0.3676119539037347,0.7303183809135109
1789484378780414200,3.470414306640625,0.31649346882402896,1.1251154980584979,-1.522019889681041
1789484378790385000,3.480385009765625,-0.0037426936596632,1.0866688630253076,-0.6948245312713086
1789484378800357000,3.490357177734375,-1.3632926782757042,1.5660107148379085,-2.269766156061739
1789484378810328000,3.500328125,-0.8400327742815017,0.824668324150145,-2.344453732777387
1789484378820300000,3.510300048828125,-1.6743863338828087,1.2470073090195655,-1.920296592570096
1789484378830272000,3.52027197265625,-1.2744067725986241,1.5646274437859653,-1.980193427389115
1789484378840243200,3.5302431640625,0.8369137654781341,-0.24905484032332895,-1.7988674306847154
1789484378850215000,3.54021484375,2.884142062872648,-1.008966322402656,-1.7060739961750804
1789484378860186000,3.55018603515625,0.5354910245358944,0.09875994169861077,0.15889003728423268
1789484378870158000,3.560157958984375,-2.004984315904975,0.12723580233752727,-0.16048190958555786
1789484378880129000,3.57012890625,-2.5127099661588668,0.7926847476512193,-0.9261617824658751
1789484378890101000,3.58010107421875,-2.1710744572937486,0.8153995605453849,-2.177198493131995
1789484378900073000,3.590072998046875,0.9725812960743904,-1.3504179991334675,-2.168556483123451
1789484378910044000,3.6000439453125,2.2373159849643707,-1.5340005425930023,-0.11621156423441134
1789484378920016100,3.61001611328125,-0.10565759225785731,0.5388540712282062,-0.556817853670381
1789484378929987000,3.619987060546875,-0.10607318732142448,0.5389242138549685,-0.5769275255674496
1789484378939959000,3.629958984375,-1.88740481518507,1.446149825182557,-1.9197825055681168
1789484378949930000,3.639929931640625,-1.0023451506972312,-0.296509834459424,-2.407283698438853
1789484378959902000,3.64990185546875,-0.4777630581885576,0.23698475556224582,-1.3539128555119038
1789484378969874000,3.6598740234375,0.27263912952840325,0.5920619298025965,-1.7266946132689713
1789484378979845000,3.66984521484375,1.9180700025618076,-0.5663081876039505,-1.4512512399747968
1789484378989816600,3.679816650390625,2.132792949694395,-0.7735086302772164,0.14585461462233215
1789484378999787500,3.68978759765625,0.6098492231667041,-0.2826704019382596,-0.5078488382421433
1789484379009759700,3.699759765625,-0.3235200064599514,0.2446954760700464,0.7617841440834104
1789484379019731500,3.7097314453125,-0.7342313896387815,0.4925719202637672,1.1545613727733492
1789484379029702700,3.71970263671875,-1.8354098395317793,0.5520099053993821,2.104066475295275
1789484379039674600,3.729674560546875,-2.2476433177113533,1.031120578804612,1.5440129641719162
1789484379049645600,3.7396455078125,-0.6283873348981142,0.8727946416765451,0.02194686072897166
1789484379059617500,3.749617431640625,0.8169798154741525,0.17301146508455276,-0.7794844898164272
1789484379069588700,3.759588623046875,2.844645334264636,-1.69190533169955,1.0798341216344385
1789484379079560400,3.769560546875,3.0490000321179624,-2.6818036732777952,1.7113842314124106
1789484379089532700,3.77953271484375,2.0216800146400926,-1.4367778934642672,0.08448416358679532
1789484379099503600,3.789503662109375,1.6935060448944568,-0.2900283634856343,-1.307495972251892
1789484379109475600,3.7994755859375,-0.9500520688802003,0.5343985531240701,-1.707042841207236
1789484379119446500,3.809446533203125,-4.748998361641168,1.6543661669000982,0.4297294239142909
1789484379129418500,3.81941845703125,-5.630729758489132,2.67232097466141,-0.7254125617586076
1789484379139390700,3.829390625,-1.319154261341691,0.7038616780772805,-3.082412472376227
1789484379149361700,3.839361572265625,2.864654687592387,-2.224716907893121,-1.4674676307603716
1789484379159333600,3.849333740234375,3.0046055945962666,-1.1369023819640278,0.9712545775152742
1789484379169304600,3.8593046875,2.277043015196919,-0.12397709280252456,0.9284468977283686
1789484379179276800,3.86927685546875,0.30150223591923714,1.0563882910519837,0.6039305737074464
1789484379189247500,3.87924755859375,-1.0996282978415488,1.7495608173325656,-1.2692299544826149
1789484379199219700,3.8892197265625,-0.7337608495175838,0.813396111768484,0.1051633424675092
1789484379209191700,3.899191650390625,-0.05910860705077648,0.9851493934854865,-0.43831531982142474
1789484379219162600,3.90916259765625,0.45525136665105814,1.583150942470133,-1.4241748708702624
1789484379229134600,3.919134521484375,0.4281932638555765,0.9884823373004794,-1.3614876746803521
1789484379239105800,3.929105712890625,-1.2681009504526852,1.629302452792227,-0.9843988673791289
1789484379249077500,3.939077392578125,-2.8616414772510526,1.6611083346366882,-1.6491178909830748
1789484379259049700,3.9490498046875,-1.2932388988405465,0.4645893960997462,-1.3235112875074146
1789484379269020700,3.959020751953125,-0.3467302016556263,0.04747136074900627,-0.7777659223955125
1789484379278992600,3.96899267578125,0.9486743507862091,-1.3846779961317777,-0.49917387581206857
1789484379288963600,3.978963623046875,1.28681675683856,-1.05093061016798,-0.30351803272105754
1789484379298935600,3.988935546875,-0.5469178429573774,0.39981940228641033,-0.48062297766432166
1789484379308907500,3.998907470703125,-1.6481120749413967,0.5687164177894592,0.8156316157355904
1789484379318878700,4.008878662109375,-0.09289689488410949,-0.9728425773590803,0.7173859802346676
1789484379328850700,4.0188505859375,-0.6141571494936943,-0.2944926494181156,0.8294314468987286
1789484379338821600,4.028821533203125,0.9569956044077873,-0.49661067426055666,1.408805744563788
1789484379348793900,4.0387939453125,0.9470394430607557,0.14098726431429384,0.9126831460811197
1789484379358765600,4.048765625,0.3500906179994345,0.1492094414755702,1.0564563878521323
1789484379368736800,4.05873681640625,-1.2785446030557155,1.5521894024953244,1.5017083385363221
1789484379378708500,4.06870849609375,-1.6201649143517016,1.047183824855089,2.006404557966441
1789484379388679700,4.0786796875,0.8429179743289947,-0.01621551400274038,1.251924307155609
1789484379398651600,4.088651611328125,1.095474685293436,0.1994853382512927,0.5012026051606983
1789484379408623600,4.09862353515625,1.8723007695555687,-1.095856670348346,1.6188742900192736
1789484379418594600,4.108594482421875,0.17201251717507837,0.03285539089739323,1.6124191225305198
1789484379428566800,4.11856689453125,-1.0662176111489534,0.6990595384925603,0.9874963219378143
1789484379438537500,4.128537353515625,-1.1123480786830187,-0.29354192456454037,-0.14078288258230312
1789484379448509700,4.138509765625,-1.142538049763441,0.8441922320485115,-0.289544105366338
1789484379458481700,4.148481689453125,-0.6932949836164712,0.14477642746418715,-0.5493924163773656
1789484379468452600,4.15845263671875,0.6631810003817081,-0.047858898761868475,0.04886409374903887
1789484379478424600,4.168424560546875,2.062237650477886,-2.0288032906487583,-0.10561188995260745
1789484379490888700,4.180888671875,1.7636065860807895,-1.3724366464570164,1.792224923930317
1789484379500860700,4.190860595703125,0.6685773064672946,-0.5139926016941666,1.1147538977157323
1789484379510831600,4.20083154296875,1.0116104071706533,-1.2454013351276516,1.3812361851148307
1789484379520803600,4.210803466796875,0.5782704280763864,-1.1222215301826595,-0.11814051386984065
1789484379530775600,4.220775634765625,-0.08557166656255721,-0.8849182101905345,0.1961898221035488
1789484379540746800,4.230746826171875,-2.683820566058159,1.5480489416897296,-0.5457669558892027
1789484379550718500,4.240718505859375,-2.4931705684304237,1.0359513599619268,-1.022396954927221
1789484379560689700,4.250689697265625,-0.023278584256768226,-0.9859332373395562,-0.07017404938053805
1789484379570661600,4.26066162109375,1.7291975360006093,-0.747044986243546,0.1946071742882952
1789484379580633600,4.270633544921875,2.456440966448188,-1.40243781696707,0.10400208013579249
1789484379590604500,4.2806044921875,2.470599255660176,-1.003819022642076,0.7339420513033866
1789484379600576500,4.290576416015625,1.028936805024743,0.42089258545339103,-0.22001961050229146
1789484379610547500,4.30054736328125,-0.2632797650307417,0.4437810013487935,-0.166035415526852
1789484379620519700,4.310519775390625,-2.1174597714841363,1.81024967931211,-0.9975379696112125
1789484379630491600,4.32049169921875,-1.800784516352415,2.2364541074380275,-1.5480232227265833
1789484379640462600,4.330462646484375,-1.459382231721282,2.0244237603902815,-1.8561204729966818
1789484379650434800,4.340434814453125,-0.38443361710608004,0.12271452552080153,-1.8941786932341753
1789484379660405800,4.35040576171875,-0.018524083206057546,0.11682429843842983,0.019018396928487346
1789484379670377700,4.360377685546875,0.48183074601888654,0.9126917677789926,-0.5459801237158477
1789484379680349700,4.370349609375,0.09303308848440646,-0.3601853110343218,1.5255150383204221
1789484379690320600,4.380320556640625,0.07206745734512805,0.12010025136917829,0.8308066077094525
1789484379700292600,4.390292724609375,-1.9763713848829267,1.4564958626300095,-0.5488624742191285
1789484379710263800,4.400263916015625,0.7565595413029194,-1.0371116359129549,-0.9996218632131815
1789484379720235500,4.410235595703125,1.7788666990548372,-1.1156886212825774,1.1275965742845087
1789484379730207700,4.420207763671875,2.490450203555822,-0.9254328836694359,1.804224573803693
1789484379740178700,4.4301787109375,-0.8147703227311373,1.0910317344099283,2.0274577212587
1789484379750150700,4.440150634765625,-4.154456013199686,3.2319244039297104,0.38648141648136075
1789484379760121600,4.45012158203125,-2.2351216897904873,0.593612666375935,-1.1702690833844245
1789484379770093600,4.460093505859375,2.2248341045320035,-2.4334867918401955,-0.6162213885471225
1789484379780065500,4.4700654296875,2.965518031311035,-0.7271165891975164,-0.8260778986871242
1789484379790036700,4.48003662109375,2.380346737805009,-0.5608583977654577,-0.5532706095175818
1789484379800008400,4.490008544921875,0.16221768386960028,1.248832478620112,1.155441589673981
1789484379809979600,4.499979736328125,-0.33036592683196064,0.10147095422297715,-0.36827834539059545
1789484379819951600,4.50995166015625,-0.46099604778289793,-0.7080424708932638,-0.36696660520490254
1789484379829923600,4.519923583984375,-1.148026710307598,0.3642024377211928,-1.476987008125335
1789484379839894500,4.52989453125,-0.9810539408653974,1.0090946249574422,-0.34703919453956183
1789484379849866800,4.53986669921875,-0.3816951320528984,-0.9203171480908989,1.0022348952557891
1789484379859837400,4.54983740234375,-1.3917314217746257,0.2499362993329763,0.6347863882854581
1789484379869809700,4.5598095703125,0.26058804172873495,-1.072165705898404,0.5501996411070227
1789484379879781600,4.56978173828125,1.6189228053361175,-0.8630489082098006,1.4212464162029326
1789484379889752600,4.579752685546875,1.406746035555005,-0.8609665489777922,1.5700886318013072
1789484379899724800,4.589724853515625,0.22525720062851903,-0.7856754534110426,2.036592775481194
1789484379909695700,4.59969580078125,0.748322458833456,-1.467687118729949,2.568118841908872
1789484379919667700,4.609667724609375,1.0869769060611725,0.0664098699748516,0.5741194824093953
1789484379929639700,4.6196396484375,1.8812451235115526,-1.3851552582547069,-1.0812225803181528
1789484379939610600,4.629610595703125,-0.21284780091047287,-0.21638737321346996,2.008486040415615
1789484379949582600,4.63958251953125,-2.5977830355495213,2.2039237107113,0.6889478943228721
1789484379959553800,4.6495537109375,-2.798918771356344,0.8897486990869045,-0.06034739159811288
1789484379969525500,4.659525390625,-0.1859200464963913,-0.42388270718008275,-0.1740661983018741
1789484379979497700,4.669497802734375,0.3969482307642698,0.514357343353331,0.0001859692924655974
1789484379989469000,4.679468994140625,1.1436311056971549,0.35697160968482494,0.5593649443373083
1789484379999441000,4.68944091796875,0.7086760926216841,1.018226318179071,-0.5468943159513175
1789484380009411800,4.699411865234375,1.8200643863618373,0.15459785651564598,-1.225608839420974
1789484380019383800,4.7093837890625,0.6812684457361697,0.19748744243234395,-0.004759049361664802
1789484380029355800,4.719355712890625,-0.3237076379865408,0.8753001947566866,-0.26419965635463594
1789484380039327000,4.729326904296875,-1.7966203824102878,3.1114830840379,-0.3254933158269152
1789484380049298700,4.739298583984375,-2.6124603801995514,3.159840287710726,-0.05639461711803451
1789484380059270000,4.749269775390625,-1.7860387826412916,1.416254160873592,-0.18141363845523445
1789484380069241900,4.759241943359375,-0.17279636102914808,1.1558970052912831,-1.0220190615255385
1789484380079213800,4.7692138671875,0.6832406225919723,1.4700412806406615,-1.1204278516989201
1789484380089184800,4.779184814453125,0.7382675132870674,0.9469628706932067,1.410104698333144
1789484380099156700,4.78915673828125,0.2717401348620653,-0.032551147253811356,0.4126082663087174
1789484380109127700,4.799127685546875,0.1445885036766529,-0.6365194956883787,-1.3183635493554173
1789484380119100000,4.809099853515625,-0.8127174818545579,-0.25712504179328677,-1.2423930932223797
1789484380129071900,4.81907177734375,-0.8279150509864092,-0.11854717670828104,-2.538481828536093
1789484380139042800,4.829042724609375,-0.2710252645909786,-0.2937622893169522,-0.26171697269342836
1789484380149015000,4.83901513671875,0.7696148377090692,-1.1320263003602624,-0.6023918563654646
1789484380158985700,4.84898583984375,-0.5056465058922768,-0.5617597305193543,-1.3574981666527688
1789484380168958000,4.8589580078125,-0.829446498337388,-0.23155980790406464,-0.6229957049876451
1789484380178930000,4.868929931640625,0.8377133914232253,-1.5879644802317023,-0.29215627889242024
1789484380188900900,4.87890087890625,0.017846622335910795,-0.6001753858923912,2.362160215990245
1789484380198872800,4.888872802734375,0.8814344597280025,-1.1835735322460532,2.118907193813473
1789484380208844000,4.898843994140625,0.5696428849846125,-0.14138970763534306,2.914189118351042
1789484380218815700,4.908815673828125,-0.17438333795964717,1.2024562196314335,2.094414411461353
1789484380228787000,4.918786865234375,1.3734995995134114,-0.31817426151782274,2.883584721250832
1789484380238759000,4.928759033203125,0.9755588505804538,-0.391598978690803,3.577374210385978
1789484380248731000,4.93873095703125,-0.5156774860411882,0.7664528665468097,2.272992863023281
1789484380258701800,4.948701904296875,-0.6754191351860761,-0.30604455552399157,1.7924186929367483
1789484380268673800,4.958673828125,-0.6071931556999683,0.35585195800513025,1.202575608227402
1789484380278644700,4.968644775390625,-0.7544576005876064,0.10292378337979316,0.9873048179537057
1789484380288617000,4.978616943359375,-0.21124913354218006,-0.023139175786077975,0.030698358993977305
1789484380298589000,4.9885888671875,1.0474421835303307,-1.055240874582529,-0.3014277824435383
1789484380308560000,4.998559814453125,1.2935393430918454,-0.6773758222118019,-0.3293820668937638
1789484380318532000,5.008531982421875,2.1574282092571258,-1.3893424808114767,0.48157351985480634
1789484380328502800,5.018502685546875,0.3542576745510101,-0.12472878795266151,1.5495286588534711
1789484380338475000,5.02847509765625,-0.447821508911252,0.7156099835380911,0.725725646295771
1789484380348446700,5.03844677734375,-0.21104805801212786,0.1509039704337716,0.7908373662188649
1789484380358418000,5.04841796875,-1.0857950028002261,1.015744145974517,-0.2453738867882639
1789484380368390000,5.058389892578125,-2.643737561994791,0.4488493906542659,0.21785689777676015
1789484380378361000,5.068361083984375,-2.5731331629395484,0.008732172510027884,1.8082830554142593
1789484380388332800,5.078332763671875,0.764855660483241,-0.9402025827780366,0.35736944989599284
1789484380398305000,5.088304931640625,4.7318765464484684,-3.3910298009976745,-0.3319343086598441
1789484380408276000,5.09827587890625,4.031832673093676,-2.8702511924251914,0.763382373060286
1789484380418248000,5.108248046875,-0.08948737870156764,-0.1626931924268603,1.978099085458368
1789484380428219000,5.118218994140625,-1.9106822303980588,0.1647305434733629,0.5399520590653643
1789484380438190800,5.12819091796875,-1.0049152934461831,-1.4194760455295443,0.19837825379222632
1789484380448161800,5.138161865234375,-0.8293751866668462,-0.000058452188968658445,-0.9976035821933299
1789484380458134000,5.148134033203125,0.38129531908035275,0.20038930135369298,-0.48324660416617987
1789484380468105700,5.158105712890625,0.4709627305239439,0.5472045509442687,0.2995551935046911
1789484380478077000,5.168076904296875,0.4595370811462402,-0.07058072591871023,-0.8191378702908754
1789484380488049000,5.178048828125,1.3139531855672597,-0.33504823942929507,0.9467617951631545
1789484380498019800,5.188019775390625,1.8574135815471409,-0.7636559293046593,-0.5511132488206029
1789484380507991800,5.19799169921875,0.7719716299682855,0.7267986092895269,2.196890304943174
1789484380517963800,5.2079638671875,-3.060355538868904,3.1978514539361,0.8100983853973448
1789484380527934700,5.217934814453125,-4.505049320024252,3.151916508974135,-0.3961260641938075
1789484380537907000,5.227906982421875,-0.8731564607262611,-0.4024479972243309,-2.017123081988096
1789484380547878000,5.2378779296875,0.6418816072434187,-1.2594801293626428,0.11142864993996918
1789484380557849900,5.247849853515625,1.3726760081708431,-0.2299897821083665,0.5246424809264019
1789484380567820800,5.25782080078125,-0.7890361620157956,2.05100255523622,0.5763698551520705
1789484380577792800,5.267792724609375,-1.1499193921864033,1.233361937765777,-0.6710727765448391
1789484380587765000,5.277764892578125,0.6996516591668128,-1.4747452205479143,-1.6003604359462855
1789484380597736000,5.28773583984375,0.47875265374779696,-0.3476262737125158,-0.824380300989002
1789484380607708000,5.2977080078125,-0.9771277073323726,0.04825666590780019,-0.03329853155501187
1789484380617678800,5.307678955078125,0.654646980792284,-0.4207011545345187,-0.008552212833240628
1789484380627651000,5.317651123046875,1.1740969711095095,-1.8002675067409872,-0.6044822162408381
1789484380637621800,5.327621826171875,-1.251488253825903,-0.826020615541935,-1.216030644540861
1789484380647594000,5.337593994140625,0.5675538037508726,-1.803569178634882,-0.7205361878938973
1789484380657566000,5.34756591796875,0.589684971538186,-0.49204906543344257,-1.832871114834398
1789484380667537000,5.357536865234375,1.2333137147098778,-1.2673027858123183,0.176974596561864
1789484380677508900,5.3675087890625,-0.42026480894386764,-0.5458589815542102,0.3249249048218131
1789484380687480000,5.37747998046875,-0.9936918886423111,0.9877896788612007,-1.030578142490983
1789484380697451800,5.38745166015625,-0.4137023816883564,0.9064648560881614,-0.3760906996419653
1789484380707424000,5.397424072265625,-0.5643804344117641,0.146445821981132,0.010688603807426988
1789484380717395000,5.40739501953125,1.3434598505586386,-1.3125561782509088,-0.2432920390129089
1789484380727367000,5.417366943359375,3.2467344350486993,-2.7487451659113167,0.2403573738005012
1789484380737337900,5.427337890625,2.0004975258797404,-1.0825865621477364,-0.04076981728374958
1789484380747309800,5.437309814453125,-0.9962176077276468,1.490904035927355,-0.02880598764242604
1789484380757280800,5.44728076171875,-1.6208493894845246,2.807489323563874,0.09041510627204552
1789484380767253000,5.4572529296875,-0.5685457373976707,1.4692112595573066,-1.190935731577128
1789484380777224700,5.467224609375,-0.9100210872650146,0.1999213915809989,0.8523525960199534
1789484380787196000,5.47719580078125,-0.7554518723219633,0.5613403360635042,-0.05602754650446586
1789484380797167900,5.48716796875,1.3013438793629406,-0.3947232481911778,-0.983547730442509
1789484380807138800,5.497138916015625,3.424427335947752,-2.077972395226359,-2.2154298779793082
1789484380817110800,5.50711083984375,1.0963467919528485,-0.5983499240308999,-2.1322864614769816
1789484380827082000,5.51708203125,-0.6573316898316145,-0.4102209693133831,-1.1589021784566342
1789484380837053700,5.5270537109375,0.46741643621921536,-2.1127263132214544,-2.725091026340425
1789484380847026000,5.53702587890625,-0.3347118470817804,-0.3731809862077236,-3.7993557503446933
1789484380856996900,5.546996826171875,0.22615853338241576,-0.18697101685404777,-4.298278793200851
1789484380866968800,5.55696875,1.0185516046106815,0.6648670537725091,-3.2430262281805273
1789484380876939800,5.566939697265625,-0.23880700255334375,1.5898735287234187,-2.3983808455370363
1789484380886911700,5.576911865234375,-1.0180611907452344,0.8381935761556029,-1.1008690916828812
1789484380896882700,5.586882568359375,-1.4839555319637059,1.1607830237671732,-0.7522603828042745
1789484380906855000,5.59685498046875,0.8414508243858814,-0.05607406166046858,-0.6586041939854621
1789484380916827000,5.606826904296875,2.152023719865084,0.10089081624746322,-0.3385735274786129
1789484380926797800,5.6167978515625,1.0014777202129364,0.844418734280765,0.9381921197384595
1789484380936770000,5.62677001953125,-2.842950220784545,2.9815169799536463,0.9647906421981751
1789484380946741000,5.636740966796875,-3.39768662853837,2.355560963855684,-0.6936231195922941
1789484380956713000,5.646712890625,-1.265059683060646,1.0183478987321257,-0.5423132717713713
1789484380966684000,5.656683837890625,1.2200953366965055,-0.22229338238686322,-0.4644204692736268
1789484380976656000,5.66665576171875,0.39677638132870197,0.16869681675583123,1.1695843159906565
1789484380986627800,5.6766279296875,-0.478577297180891,1.0931418584316968,0.8275945868603884
1789484380996598500,5.6865986328125,-1.7626678439259529,1.1272025334656237,0.19706388325802981
1789484381006570500,5.696570556640625,-0.45811844651997086,-0.6306877207949757,1.301779932692647
1789484381016541400,5.70654150390625,-0.15300094271302223,-0.32072014660835263,0.2257192651823163
1789484381026513700,5.716513671875,1.6724644259095192,-0.0129556354239583,-0.28490875544957817
1789484381036484400,5.726484375,2.036103676789999,-1.1148100848823785,2.322078088709712
1789484381046456600,5.73645654296875,-0.2787503058850765,0.4839017070740461,3.564925355440378
1789484381056428500,5.746428466796875,-1.493034325954318,1.863674103246629,2.641119488450885
1789484381066399500,5.7563994140625,-0.5493371790587902,0.7280600075274706,0.9917399508569389
1789484381076371500,5.766371337890625,-0.12986556631922722,0.8921639435350894,1.5338048738904297
1789484381086342700,5.7763427734375,0.770372378078103,0.13616817359477282,1.561919207740575
1789484381096314400,5.786314453125,0.9044722209662198,0.0660135641336441,2.8790663670435546
1789484381106285600,5.79628564453125,0.9721773914486169,-0.358890595048666,2.583182555527985
1789484381116257500,5.806257568359375,-0.2130541371375322,-0.03952770826816559,0.8669383168637752
1789484381126229500,5.8162294921875,-0.20274784717857836,-0.2978600800246,0.9031428720586001
1789484381136200400,5.826200439453125,0.9258306508153676,-0.7452186475992202,1.257618427143991
1789484381146172400,5.83617236328125,2.614056124958396,-1.6663637709468602,-0.4982803610384464
1789484381156143400,5.846143310546875,1.6491197906792163,-0.7159674186736344,0.8277987311303615
1789484381166115600,5.856115478515625,-0.5559188955366611,0.9356763375252485,1.1874809149481356
1789484381176086500,5.86608642578125,-3.7478345296829936,3.2925288024961947,-0.43736470456570387
1789484381186058500,5.87605859375,-2.034406225222349,0.9978551458016037,0.2799869715405628
1789484381196030700,5.88603076171875,-0.7746025629937648,-0.1278361063182354,-0.37816732325293123
1789484381206001400,5.89600146484375,1.2874012787282467,-0.9537643674015999,-1.0055575368724763
1789484381215973600,5.9059736328125,2.465507485479116,-0.41293928836137056,-0.22215806556940076
1789484381225944600,5.915944580078125,1.5898258901894091,-0.8245712935164571,0.6999777493160217
1789484381235916500,5.92591650390625,-0.9886696765661239,-0.07186959668546915,0.43238592977244406
1789484381245887500,5.935887451171875,-0.016371289086341858,-2.185109996908903,-0.9166621327146888
1789484381255859700,5.945859619140625,-0.3069605013251304,-0.06156769064068794,0.09155097843417898
1789484381265831400,5.95583154296875,0.5270645569741725,0.026908757452666757,-1.1148390917811541
1789484381275802600,5.965802734375,1.0666448966503144,-0.7238412207886576,-1.0070279747512192
1789484381285774600,5.975774658203125,-0.042623920717835426,0.28803718966841696,-1.6194703562162815
1789484381295745500,5.98574560546875,-0.30581893007457256,-0.11565700822472572,-0.951588338536769
1789484381305717500,5.995717529296875,-0.9723036481767893,0.47480859229713673,-0.045859779100213195
1789484381315688700,6.005688720703125,-0.4133388090729713,0.17237813561707735,0.11219928725259377
1789484381325660400,6.015660400390625,-0.018952537751197814,-0.24972996310591697,-0.061684777681715784
1789484381335631600,6.025631591796875,-0.973488474047184,0.886739580398798,-0.9016817865300923
1789484381345603600,6.035603515625,-1.2889052535504102,0.6363093600690365,-0.6986226083800197
1789484381355575600,6.045575439453125,-0.01643207936286926,-0.6293433204486966,-1.836190906906873
1789484381365546500,6.05554638671875,1.0576029275387524,-0.2536024206250906,-1.8184985983498394
1789484381375518500,6.0655185546875,1.062650274056196,-0.28965456173717974,-0.16747505640853194
1789484381385489400,6.075489501953125,-0.28921032510101796,1.1115417307361959,0.6569223783783614
1789484381395461600,6.085461669921875,-0.7865764939039945,-0.21341770975291727,-1.0709719660691916
1789484381405432600,6.0954326171875,-2.0483242759376763,1.4230457207098604,0.6225773334451019
1789484381415404500,6.105404541015625,-1.864351271855831,1.0559653894647956,0.9053507573664188
1789484381425376500,6.11537646484375,-1.0113222378790379,0.2813669181242585,0.3213019650842994
1789484381435347500,6.125347412109375,-0.5241138904750346,0.5939899752557277,0.1170165330749005
1789484381445319400,6.1353193359375,0.524251253119111,-0.4216720453932881,0.33511147739123553
1789484381455290600,6.14529052734375,1.014872623836994,-0.6405103188902139,-0.1553453504147008
1789484381465262300,6.155262451171875,-0.914591463920474,0.10424743319898844,0.22886879698811097
1789484381475233500,6.165233642578125,-1.139634145015478,0.5319081976130604,-0.350746524624899
1789484381485205500,6.17520556640625,-0.6097697281897068,0.3538035010427236,-0.8971938274610787
1789484381495177500,6.185177490234375,0.06574000788927079,-0.14298077621906996,-1.2891565979629753
1789484381505148400,6.1951484375,0.4760258591324091,-0.006121113228797912,-0.33170207080654796
1789484381515120400,6.205120361328125,0.5422954438537358,-0.20568097802102564,-1.143073471814394
1789484381525091300,6.21509130859375,-0.9355161785274744,-0.13951193106472493,-0.5054633313450962
1789484381535063600,6.2250634765625,-0.13222645023167132,-0.4822434184730053,-0.5181049323838204
1789484381545034500,6.235034423828125,3.3427140983790156,-2.1916288772836325,-1.6717406416796148
1789484381555006500,6.24500634765625,4.290177904331684,-1.7011720494776963,-0.1239230427940376
1789484381564978700,6.254978759765625,2.4656653063893317,0.29716303767114877,1.266121174812317
1789484381574949400,6.264949462890625,-0.08266951538026332,2.6087542191579938,1.2651876933544874
1789484381584921600,6.274921630859375,-2.9497990686535833,2.2603139987140892,2.1199980577901005
1789484381594892500,6.284892578125,-4.646584865871072,2.6034432532683014,2.3880516130939125
1789484381604864500,6.294864501953125,-2.5892408326536414,0.3328767406091094,1.5374081590794026
1789484381614835500,6.30483544921875,2.4929431894153353,-1.593005689269304,0.3989854356803
1789484381624807700,6.3148076171875,3.9072254656940695,-1.6252581458374857,0.48170302798599
1789484381634778600,6.324778564453125,2.633328396183252,-0.9219272136360407,1.4365170505709945
1789484381644750600,6.33475048828125,-0.2818102779775858,-0.27579583999365564,2.30303480393514
1789484381654722600,6.34472265625,1.1169991193592548,-2.4630329120591283,1.0246714026652275
1789484381664693500,6.354693603515625,0.8722042745679617,-1.1394713556692004,-2.184342665798217
1789484381674665500,6.36466552734375,-1.1722872913390396,1.195884732286632,-1.7477065677680075
1789484381684636700,6.37463671875,-2.728076471891999,1.6873144967779516,0.297085825982783
1789484381694608400,6.3846083984375,-1.130005315926671,-0.31632191164940593,0.5387114478871226
1789484381704579600,6.39457958984375,1.2652286098867653,-1.0548089129060507,-1.2571361965849994
1789484381714551600,6.404551513671875,1.4719418535649775,-0.35343992842733857,0.34735856268703935
1789484381724523500,6.4145234375,1.5583762744367122,-0.37218496090769765,1.7349208820834754
1789484381734494500,6.424494384765625,-1.2389099272817372,2.130767289085686,1.5934037486761807
1789484381744466400,6.434466552734375,-1.4468389764904974,1.4906290183782576,0.6707013859491795
1789484381754437400,6.444437255859375,-1.8094500533670186,1.981313517460227,-0.7298322778970002
1789484381764409600,6.45440966796875,-1.6245201869517565,1.9619404162093996,-0.13363527584997936
1789484381774380500,6.464380615234375,-3.097797088512778,4.0800858318701385,-0.49077049686498936
1789484381784352500,6.4743525390625,-1.1120651700884103,2.0054422888055443,0.08771856066444889
1789484381794324500,6.484324462890625,1.4993302112281321,-1.1138219506278633,-0.7258489073492587
1789484381804295400,6.49429541015625,0.8367027530759572,0.03359013491272926,-1.5461819787740707
1789484381814267400,6.504267333984375,-0.3887386208236217,0.8471791389048099,-0.26536126574622465
1789484381824238600,6.514238525390625,0.25809154873788354,0.11514759739786386,0.14074611250218003
1789484381834210300,6.524210205078125,0.025090017592906952,0.22889351130425928,-2.6714371775642034
1789484381844181500,6.534181396484375,-0.006205284380912781,-1.264770636986196,-0.4459597701599821
1789484381854153500,6.544153564453125,0.20291502043902873,-1.3248638711601495,0.39801238939706235
1789484381864125400,6.55412548828125,0.7739204259485006,-0.20547493405491113,-0.7508727278381586
1789484381874096400,6.564096435546875,-0.4967337161183357,0.32143764722794294,-0.12701790353683753
1789484381884068600,6.574068603515625,-0.8412567631185054,0.0520297547057271,-0.3189774311268702
1789484381894039300,6.584039306640625,-0.07247779171168804,-0.7016875489085912,-0.420097197292
1789484381904011500,6.594011474609375,1.1403618747681379,-0.964456149546802,-0.1617156160989776
1789484381913982500,6.603982421875,1.4342542202055453,-0.5781693057894707,1.168719442789629
1789484381923954400,6.613954345703125,-0.0412000253945589,1.2529752775132654,0.7372169082555919
1789484381933926700,6.6239267578125,-0.02403261749446392,-0.09153086722791194,-0.5577395350925624
1789484381943897600,6.633897705078125,-1.7503057904809711,0.16276684218496082,0.3866687557470053
1789484381953869600,6.64386962890625,-0.5546867233932018,0.0752244600713253,0.6895330007344483
1789484381963840500,6.653840576171875,2.5112767184853553,-0.4754939442127943,0.272894803056214
1789484381973812500,6.6638125,2.3691128116071223,-0.3449056165769696,1.579362509972602
1789484381983783400,6.673783447265625,-0.17939502864181994,0.7588920759037137,2.7914357221245765
1789484381993756000,6.683755859375,-4.611843807357549,1.8633643066450953,5.58306375195086
1789484382003727600,6.6937275390625,-5.081201440772414,1.9065996372595428,2.3198203729107973
1789484382013698800,6.70369873046875,-2.155296457925439,0.1956152188196778,1.75564189081192
1789484382023670800,6.7136708984375,3.0281583196192976,-1.9810572046115993,0.666768357349187
1789484382033641700,6.723641845703125,4.76486637738049,-2.3970389294087884,1.398019708263874
1789484382043613700,6.73361376953125,3.541899869161844,-1.4234741752550004,2.2774995267927647
1789484382053585000,6.7435849609375,0.566803277644515,-1.7922861525982616,2.2165400311782957
1789484382063556600,6.753556640625,-2.355194760891795,-0.13982611158043146,1.329108522992581
1789484382073528800,6.76352880859375,-3.1318571790248155,1.2051169632732868,0.03374883260577917
1789484382083499800,6.773499755859375,0.0592208352535963,-0.6746624715998768,1.538291371654719
1789484382093471700,6.7834716796875,2.1326070717334744,-1.0768635083258151,-0.2080623567322269
1789484382103442700,6.793442626953125,3.3368530973911286,-1.748460162614286,0.24751645177491008
1789484382113414700,6.80341455078125,2.291175000923872,-0.6441606580913066,1.8602626873679458
1789484382123387000,6.813386962890625,1.601833138847351,-1.3509776788428425,1.8087847213260828
1789484382133357800,6.82335791015625,0.20778467230200767,-1.1590522544518111,1.3296945061869918
1789484382143329800,6.833329833984375,-1.6260586485654114,0.39592502519637346,0.15742789230979978
1789484382153300700,6.84330078125,-1.8985019632607698,0.5782458781570196,0.4559934171900153
1789484382163273000,6.85327294921875,-2.1958628615915776,0.8870338871702551,-1.9851637631475925
1789484382173243600,6.86324365234375,-3.198811238878965,1.388461606323719,-0.5720305107735097
1789484382183215900,6.8732158203125,-3.2236452358841894,1.0835697279661893,-1.3574702557325362
1789484382193187800,6.883187744140625,-1.6838795538932083,0.1536050460860133,-0.779486535643041
1789484382203158800,6.89315869140625,2.007419434097409,-1.3867477881431578,0.47303917147181923
1789484382213130800,6.903130859375,3.9301241107225415,-1.5766902220234273,0.2632233586683869
1789484382223102000,6.91310205078125,2.842830393797159,-0.2238318440005183,2.5330817230582237
1789484382233073700,6.92307373046875,-0.7765782469809055,1.6037959633529186,0.936607042504102
1789484382243044900,6.933044921875,-2.2789444649040695,2.7231442761868236,1.5293500864386558
1789484382253016800,6.943016845703125,0.6335825654536485,-0.216378020863235,-0.8821266067106276
1789484382262988800,6.95298876953125,3.3727070855826136,-0.704008100810647,0.7780439356192946
1789484382272959700,6.962959716796875,4.217153000131249,-1.0414888280838728,0.13317929397709666
1789484382282931700,6.972931640625,2.909081273818016,-0.6957090590208769,0.0924465938333422
1789484382292902700,6.982902587890625,-2.1873720966219903,2.629546247296035,2.3554078191205856
1789484382302875000,6.992875,-4.668883206918835,2.7164833569929003,0.25326040225438773
1789484382312845800,7.002845703125,-3.268952112075686,1.01612028581053,-2.2475068318501115
1789484382322817800,7.01281787109375,-0.9361258348584175,-0.0784337775066495,-1.5473811254307628
1789484382332789800,7.022789794921875,0.6060387249678373,-1.3668556314542888,0.3062624360583722
1789484382342760700,7.0327607421875,1.346354987478256,-2.245297339107096,-1.0702437248598784
1789484382352732700,7.042732666015625,1.1296703848838805,-2.316018642540276,-1.3757339344367383
1789484382362704000,7.052703857421875,1.6499042190551756,-2.7431013148054477,-1.9330814014717936
1789484382372675600,7.062675537109375,2.1176649386674162,-2.2661939966633913,-1.5761492470145224
1789484382382646800,7.072646728515625,2.0652339096844194,-1.571198638869822,-0.7599263873875141
1789484382392618800,7.08261865234375,-0.6626619449436664,0.8653487095847725,-0.17027557384725658
1789484382402590700,7.0925908203125,-2.658649884444475,1.8900439315170048,0.3832274561867118
1789484382412561700,7.102561767578125,-3.3899943204700946,2.532870418395102,-0.6064670699151232
1789484382422533600,7.11253369140625,-2.81927416164279,1.568154448868334,0.8874769547626375
1789484382432504600,7.122504638671875,-1.4734405676901339,0.7146931609541177,-0.16649013702441007
1789484382442476800,7.132476806640625,0.6513865176916122,-0.14310089546740054,0.06620820992290974
1789484382452447700,7.14244775390625,0.41514615075588224,-0.5663859290152787,0.8540219905368983
1789484382462419700,7.152419677734375,0.15578502047359943,-0.8394257482990622,0.7501213249489664
1789484382472392000,7.162391845703125,-0.14788929878771304,-0.3574716681614518,0.464261479319632
1789484382482362600,7.172362548828125,0.7968471280276775,-1.3998685510009525,-0.1606805739628151
1789484382492334800,7.1823349609375,2.074948078969121,-1.9401678526014088,-1.241799218982458
1789484382502305800,7.192305908203125,2.862754406929016,-2.161892787450552,-1.649499145385623
1789484382512277800,7.20227783203125,2.465819620168209,-1.4891709285244346,-1.9120295533537863
1789484382522248700,7.212248779296875,0.6547358281195164,-0.2840139255017042,-1.3240414488613605
1789484382532221000,7.222220947265625,-1.147116609725356,0.565449232687056,-1.661870405050367
1789484382542192600,7.232192626953125,-2.058192174479365,0.8892921874910592,-0.661194064348191
1789484382552163800,7.242163818359375,-2.059541251000762,1.4242352227553725,-0.6369973423331976
1789484382562135800,7.2521357421875,0.14416238721907138,0.590013180579245,0.7451030583955347
1789484382572106800,7.262106689453125,1.293323654514551,1.2893804698467255,0.28842971438365056
1789484382582078700,7.27207861328125,1.7689982159912585,2.3033754340663553,0.05809154809587635
1789484382592050000,7.2820498046875,0.11183365054428576,1.6419783944919704,-0.9388726493485271
1789484382602021600,7.292021728515625,-0.004256488400697708,1.1365025689914823,0.738202923618257
1789484382611993900,7.301993896484375,-0.8245540501207113,1.3089601995855569,0.20787962057646361
1789484382621964800,7.31196484375,-0.2943137857198715,1.5499068445160984,1.77232443780452
1789484382631936800,7.321936767578125,-2.734585707655549,2.509061380523443,0.9445088286045938
1789484382641907700,7.33190771484375,-2.8925971720069645,1.3789727702274919,0.7025280913859605
1789484382651879700,7.341879638671875,-3.0343355469495057,0.9010092210307716,0.2611355012773536
1789484382661850600,7.3518505859375,-1.0263812753230332,-0.2162108476027846,0.8710085619773715
1789484382671822800,7.36182275390625,0.5329512769252062,-0.272063375467062,0.7905065998945384
1789484382681794600,7.371794677734375,-0.4972790750414133,0.1399345403909683,-0.34430808907523747
1789484382691765800,7.381765869140625,-2.2767495852082966,1.1962301847234367,1.2357644688628613
1789484382701737700,7.39173779296875,-2.8047014464110136,0.4822717677846551,-0.11405241343914531
1789484382711708700,7.401708740234375,1.4024766876727341,-1.9805030778601764,0.2229963612907566
1789484382721680600,7.4116806640625,5.7026376413583755,-3.478819728131592,-0.43531029278654604
1789484382731651800,7.42165185546875,6.295712255334854,-3.2118957613795995,-0.23757629171460865
1789484382741623600,7.43162353515625,2.669418531218171,-1.6082248857110737,-0.7274243399724364
1789484382751594800,7.4415947265625,-2.328271682652831,0.7819897506356239,-0.8038107564952224
1789484382761566700,7.451566650390625,-5.501518856686354,1.501102481597662,-0.2833201162849553
1789484382771538700,7.46153857421875,-3.08727510997653,-0.460567008715868,0.9666950875800102
1789484382781509600,7.471509521484375,1.1641472395032644,-1.3965855838075278,1.3619910941578448
1789484382791481900,7.48148193359375,4.319930653038621,-0.809338068549335,0.7195513415750115
1789484382801452500,7.49145263671875,4.382426564440131,0.43926293940246103,2.5290894385516642
1789484382811424800,7.5014248046875,2.2099410713046788,0.7007768638044596,1.693129758927971
1789484382821395700,7.511395751953125,-0.36718262257575984,-0.5060375510364771,1.6900554660491645
1789484382831367700,7.52136767578125,-2.4387200163185594,-0.31137890228927134,1.9194889294490216
1789484382841340000,7.53133984375,-0.17127368150651454,-1.511770298345387,1.0104415825869888
1789484382851310800,7.541310791015625,1.8865566739231348,-1.7752274657696485,0.1774204223669134
1789484382861282800,7.55128271484375,0.5507528910756111,-0.827700823713839,-0.9772597362142056
1789484382871253800,7.561253662109375,-0.30436230152547356,0.9862722600355743,-0.7120599629063159
1789484382881225700,7.571225830078125,-0.04956687172353268,1.0739715862765908,-1.1520667064134031
1789484382891196700,7.58119677734375,0.14706395387947557,0.3716512924224138,0.8211627271819859
1789484382901169000,7.5911689453125,-0.6506506046324968,1.3644368798747657,-0.2182624098377302
1789484382911139800,7.601139892578125,-1.9901754538297651,2.5892180362999437,-1.1602506704561413
1789484382921111800,7.61111181640625,-1.0090712440818548,1.8376304381906985,0.26856439090278
1789484382931083800,7.621083740234375,-0.0023141221612691877,0.29456454561054707,-0.1160145620912779
1789484382941054700,7.6310546875,-0.3885129953742027,0.4586936160594225,-1.6426896115012466
1789484382951026700,7.641026611328125,0.21036124479174612,-1.066621223513782,-1.3086512797668575
1789484382960998000,7.650997802734375,1.204051379868388,-3.076162472070753,0.21408190928269177
1789484382970969600,7.660969482421875,-0.014524784436821937,-2.3538714033335446,-1.1111571883980185
1789484382980940800,7.67094091796875,-0.44834991669952867,-0.3853521932557225,-0.4608655898036435
1789484382990912800,7.680912841796875,-0.4652116196513176,-0.19516455244272946,-0.46657519962210203
1789484383000884700,7.690884765625,-1.0908546242773531,0.16345423992723226,-1.4778963780552148
1789484383010855700,7.700855712890625,-0.22545067737400531,0.006225450386106967,-0.5475955230232328
1789484383020827600,7.71082763671875,-0.15157821643352506,0.49149873807430267,1.8839441533371806
1789484383030798800,7.720798828125,-0.20210721118748187,0.6588248509988188,0.30046721204938365
1789484383040770800,7.730770751953125,0.14181962348520755,0.7393123461648822,-0.4179554725555703
1789484383050742000,7.740741943359375,0.8801111021697521,0.45237055051773783,-0.21674564859922973
1789484383060713700,7.750713623046875,1.1408207244515418,-0.5429527387186884,0.20212259141970423
1789484383070685000,7.760684814453125,1.2367647319465875,0.15431670148670673,-0.13297893083309753
1789484383080656600,7.77065673828125,-1.2882388985961675,1.270020520338416,-0.1821993272065185
1789484383090628900,7.78062890625,-1.4034779736697673,0.6036173430398106,0.2627459504149854
1789484383100599800,7.790599853515625,-0.8015618815898895,0.827695270755887,0.8003058171141892
1789484383110571800,7.80057177734375,0.8603799812614917,-0.153738024815917,0.4558269380493089
1789484383120542700,7.810542724609375,0.6922445977807045,0.7088003035232424,1.5851153744108974
1789484383130515000,7.820514892578125,0.6557219165474176,0.21249416516721248,0.24509967295676469
1789484383140486000,7.83048583984375,-0.5917442421555519,-0.11686316914409399,1.2851339183181523
1789484383150457900,7.840457763671875,-0.4575415234148502,-1.3013777816325425,0.40299737473540004
1789484383160428800,7.8504287109375,-0.7467816591322421,-0.3648988955527544,0.02186995043470524
1789484383170400800,7.86040087890625,-0.4506576091200113,-0.7645204371795058,-0.4263018971510231
1789484383180372700,7.870372802734375,0.4708768058061599,0.4217448183685541,0.9913809813514352
1789484383190344000,7.880343994140625,1.0010393287956714,-0.0708674339056015,0.8982043196778744
1789484383200315600,7.890315673828125,0.41577860344052314,-0.016218728873133657,0.9844338656272739
1789484383210286800,7.900286865234375,0.7853571812421083,-0.5055120658576489,-0.6739798230979591
1789484383220258800,7.9102587890625,0.183113756904006,-0.4653808387383818,-1.4082593627274036
1789484383230229800,7.920229736328125,-1.0167968698978422,-0.0019856208592653273,-0.991579864924401
1789484383240201700,7.93020166015625,-2.2911457748293875,1.0541662310883402,-0.7867902827851474
1789484383250173000,7.9401728515625,-0.12374094595909117,-0.5443535454273224,-1.2061500326480716
1789484383260144600,7.95014453125,1.6144558890551328,-1.007873266468942,-0.325090178386122
1789484383270116900,7.960116943359375,1.3662801696538924,-0.5584308783575892,0.23838179941121487
1789484383280087800,7.970087890625,2.2185154229044914,-0.7840937371775507,0.11344075694736093
1789484383290059800,7.980059814453125,1.3495569983899594,0.005131225408613682,0.1748513938628137
1789484383300030700,7.99003076171875,0.25788696607649325,-0.13536591730117797,-0.164402718024794
1789484383310002700,8.000002685546875,-0.8176052538961172,0.6388692736849189,-0.5586275699734687
1789484383319973600,8.0099736328125,-2.7137510094195605,2.91569455447793,0.7556585008099674
1789484383329945900,8.01994580078125,-0.8557768713802099,-0.10204758506715297,0.5339558143252506
1789484383339916800,8.029916748046874,0.4663724801242351,-0.829815623910725,0.06963928035013377
1789484383349888800,8.039888671875,1.8116344116687773,-0.6579086129367351,1.1130963397670537
1789484383359861000,8.049861083984375,1.1341986759632825,0.6805062291920184,-0.6908592809021472
1789484383369831700,8.059831787109376,0.35380759269595147,0.5899184880331159,0.02130435244119726
1789484383379804000,8.069803955078125,-1.1365396861314774,0.5636702403157949,0.4363675102218985
1789484383389774800,8.07977490234375,-1.8125480193823575,0.46653994564563034,-0.6723680770523845
1789484383399746800,8.089746826171876,-0.790671069741249,-0.29241584314405916,-0.7800093174081295
1789484383409717800,8.0997177734375,0.8852057949602603,-0.631776392814517,0.557953908495605
1789484383419690000,8.10968994140625,-0.24631752431392667,1.0057345008745788,1.6063357109636067
1789484383429661700,8.11966162109375,-0.4137210863888263,0.8534656718283892,0.5963804505888373
1789484383439633000,8.1296328125,-0.5525274995326995,0.06253828923851251,0.9386848716914653
1789484383449604900,8.13960498046875,-1.489229672974348,0.8730930401012301,-0.30587893489981066
1789484383459575800,8.149575927734375,-0.04240764761865139,0.09755874921530484,1.0974329066891222
1789484383469547800,8.1595478515625,-0.17211305494010448,1.0288833212718367,1.6073809822328389
1789484383479519000,8.16951904296875,1.0624877769708634,0.8367819557920098,2.2101453617051243
1789484383489490700,8.17949072265625,0.8582622584551572,0.561603663174808,0.07643147494064177
1789484383499462000,8.1894619140625,-1.109051959747076,1.2772405347198248,0.8318679533306509
1789484383509433900,8.199433837890625,-0.7199480127424002,0.8963234013020992,0.19551544823963193
1789484383519405800,8.20940576171875,0.26516835525631904,-0.453675787897408,0.06350532133949455
1789484383529376800,8.219376708984376,1.0298130033373831,-0.6110100836396217,0.3380487729521468
1789484383539348700,8.2293486328125,-0.09825286895930767,-0.07059183183461427,-0.6627558337721974
1789484383549319700,8.239319580078124,-0.6519283694833516,-0.2985541997686028,0.08003512088921852
1789484383559292000,8.2492919921875,-1.3169243103325365,0.40176615244001146,-2.2655622746311126
1789484383569262800,8.259262939453125,-1.3139496784359217,-0.06605243483930825,-1.613203843167424
1789484383579234800,8.26923486328125,-0.1267418813407421,-1.351722651991248,-1.691979127588123
1789484383589205800,8.279205810546875,0.5401531711280345,-1.2642927903413772,-2.0478481828585267
1789484383599177700,8.289177734375,0.5582528914421796,0.20397768123447893,-1.0229437020897865
1789484383609149700,8.299149658203126,1.7913842353224754,-0.22247253834605216,-1.4566586519762872
1789484383619121000,8.309120849609375,2.108469240298867,-0.639642888405919,-1.5318307973384857
1789484383629092600,8.319092529296874,-0.2638806535333395,0.21904694781154394,-1.998778739263117
1789484383639063800,8.329063720703125,-1.1850456506252287,0.015613164195418357,-0.7889216687906533
1789484383649035800,8.339035888671875,-2.189697909221053,0.4776315407633781,-0.953918315854296
1789484383659006700,8.3490068359375,-0.03799567639529705,-0.12140373518317937,-0.33297318672090764
1789484383668978700,8.358978759765625,1.6645482459574936,-0.8882681051403284,-0.2062458088295534
1789484383678950000,8.368949951171874,0.810772193005681,0.6437973777368664,-0.9549589840136468
1789484383688921600,8.378921630859375,1.6092127277046442,-0.12459873183220624,-0.7430596429344266
1789484383698893800,8.388893798828125,1.0568395419508219,0.21933190223276613,-0.8825316803801804
1789484383708864800,8.39886474609375,0.7402443663179874,-0.7209224107325076,-0.8462789751946925
1789484383718836700,8.408836669921875,-1.4205775770306586,0.31334289583861824,-0.845002379387617
1789484383728807700,8.4188076171875,-2.022264536529779,1.1775865667909382,-0.16030448892572893
1789484383738780000,8.42877978515625,0.2201093163460493,-0.3070522712618112,0.4124650949783623
1789484383748750600,8.43875048828125,3.172324798491597,-1.7717168273001909,0.0032203228865284473
1789484383758722800,8.448722900390624,3.404290556848049,-1.6559756479233503,0.20465170803852378
1789484383768693800,8.45869384765625,0.4155851266950369,0.36201077289581296,-0.10549620941737665
1789484383778665700,8.468665771484375,-0.6382020419478416,0.41369653646945953,0.34002376281954344
1789484383788638000,8.478637939453124,-1.1942524549096822,-0.37960079012215137,-0.2444885005221702
1789484383798609000,8.48860888671875,-2.6182699432611463,0.4855678867205977,-0.7804910365104675
1789484383808580900,8.498580810546875,-1.6363474028676748,0.7522647667184471,-0.2999805793099105
1789484383818551800,8.5085517578125,0.5357715950429439,-0.11586772836595773,-1.272547700728476
1789484383828523800,8.518523681640625,-0.08624386673569678,0.9147902013629674,0.9692979635547846
1789484383838494700,8.52849462890625,0.42101065887510775,-0.08227525536566972,0.17140198406130075
1789484383848467000,8.538467041015625,0.5555886406689882,-0.024779051947593687,0.987878818449378
1789484383858438700,8.548438720703125,-0.18992460596263408,1.0443781197845936,-0.794420631533116
1789484383868409900,8.558409912109376,-0.8943342733114957,1.3698878387570381,1.2326752706758677
1789484383878381800,8.5683818359375,-1.2926532079070805,2.0880504293873905,0.8368274023689329
1789484383888352800,8.578352783203124,0.5992161854714155,0.09002163170874118,-0.5243835742618889
1789484383898324700,8.58832470703125,0.6948410440146923,0.8235977723091841,0.44412645378559823
1789484383908296000,8.5982958984375,0.021077274820208547,1.7089911987960338,-0.4280750443033874
1789484383918267600,8.608267578125,-1.002792894464731,1.6309712627872823,0.8798231520738452
1789484383928238800,8.61823876953125,-0.14220657697618005,0.06539689354002476,0.2418903555214405
1789484383938210800,8.6282109375,0.34943712252676484,-0.11232611023634671,2.047011001382023
1789484383948182800,8.638182861328126,-0.4542266997784376,0.37632074553817507,0.1637005976374261
1789484383958153700,8.64815380859375,1.0129138909846545,-0.8258060960084199,2.1337388522423804
1789484383968125700,8.658125732421874,1.017353334736824,0.3446896357387304,1.4111375485122204
1789484383978096600,8.6680966796875,0.24995675759911537,-0.6905497765615582,2.2909208800323304
1789484383988068900,8.67806884765625,-0.8948258562207222,-1.965813458250463,1.9785291474387048
1789484383998039800,8.688039794921876,-1.0271955143153666,-1.2155527248308062,1.4893481847874819
1789484384008011800,8.69801171875,-0.19157178864777086,-1.455754688873887,2.181356343463808
1789484384017982700,8.707982666015624,0.7205500702887773,-2.3524393247038127,1.0168007423553616
1789484384027955000,8.717954833984376,1.1362041705667971,-2.518953828984499,-0.16175792087074367
1789484384037926700,8.7279267578125,0.4400988057047128,-1.904353904159367,-1.630970093743503
1789484384047897900,8.73789794921875,-0.07184943068027495,-1.0769394961714744,-1.159308275039494
1789484384057869600,8.74786962890625,-1.543417190235853,0.27845775267928835,-2.029006265874952
1789484384067840800,8.7578408203125,0.7870183924525975,-0.7920704151451587,-1.9201767655827104
1789484384077812700,8.767812744140626,1.6839999654024838,-1.4157768987506627,-0.990587639016658
1789484384087784000,8.777783935546875,2.232091528314352,-0.40732963178604836,-2.071687469737977
1789484384097755600,8.787755615234374,2.2393775936692952,0.12668547497838734,-0.37724987961445
1789484384107728000,8.797727783203126,1.7279864066451787,1.4760115872219204,-0.8779897261016071
1789484384117698600,8.807698486328125,-0.6485100854724645,1.6984692202597855,-0.4788107406105846
1789484384127670800,8.8176708984375,-1.9039497072726488,1.3899410312265157,0.7806036300394683
1789484384137641700,8.827641845703125,-2.3792151034265756,1.2358178064852952,1.863222121695429
1789484384147613700,8.83761376953125,-1.1699456966489552,1.187564647708833,1.1985752865448593
1789484384157584600,8.847584716796876,-0.5938333233892917,1.6255506990432738,0.8023474790096282
1789484384167556900,8.857556884765625,1.3613643405616283,0.22340368171632288,1.2275818930596112
1789484384177528800,8.86752880859375,2.335554825398326,-0.6635723377868533,-0.13932874738438986
1789484384187499800,8.877499755859375,1.0388637402772902,0.40895898655354973,-0.22297150084413586
1789484384197471700,8.8874716796875,0.2639619020760059,0.13428981250226496,-0.5073682151183486
1789484384207442700,8.897442626953126,-0.6236527075916528,-0.5624316384315491,-0.32557482009790834
1789484384217415000,8.907414794921875,-0.3196668381631374,-0.41464726132303475,-0.11881985616981983
1789484384227385900,8.9173857421875,0.1300976215094328,-0.3059928253367543,-1.3871701052084564
1789484384237357800,8.92735791015625,0.29294658901989457,-0.39949645394235844,0.26414076577425
1789484384247329800,8.937329833984375,-0.33114334094524384,0.13312573715895415,-0.5169345368975773
1789484384257300700,8.94730078125,-1.0057207646101713,-0.021070552818477153,-0.7124378563079983
1789484384267272700,8.957272705078125,-1.2562152823477983,-0.7115124850913882,-1.088928989977017
1789484384277244000,8.967243896484375,0.17321254061460495,-0.7741352377429604,0.6648709262300282
1789484384287215600,8.977215576171876,1.0897235744208096,-0.7289341600134969,0.6335300315488129
1789484384297186800,8.987186767578125,0.6706026748150586,0.36382775918990373,1.53462495810166
1789484384307158800,8.99715869140625,0.9829793559700251,0.6685869510784744,1.2299161812260746
1789484384317129700,9.007129638671875,0.747039433285594,0.207608731213212,0.7305049895267933
1789484384327101700,9.017101806640625,1.5496856029808521,-1.2131082542881368,1.1849234855502844
1789484384337074000,9.027073974609374,-0.29205986931324,0.40068186433464287,1.5981700862951576
1789484384347044600,9.037044677734375,-0.7015256363451481,0.6732406221032142,2.137360842131823
1789484384357016800,9.047016845703125,-0.33036709587574004,0.26227321833670136,1.0617686689160764
1789484384366987800,9.05698779296875,-0.9060282182365655,0.12025544193089008,-0.04882281645715702
1789484384376959700,9.066959716796875,-1.8445061691790818,0.37229368197917934,-0.02239004248578567
1789484384386930700,9.0769306640625,-2.198191012278199,1.649193148176372,0.1596187168849632
1789484384396903000,9.08690283203125,-0.353931511336565,0.36969460539668797,0.333295258282125
1789484384406874600,9.09687451171875,1.4220605090647935,-1.262810442829132,0.312348149180226
1789484384416845800,9.106845703125,0.08857610907554626,0.1703261715233326,-0.9903181744255125
1789484384426817500,9.116817626953125,-0.30150983470380305,0.6428706182807683,-1.20715526416786
1789484384436788700,9.126788818359374,0.2500064419597387,-0.6899792831972241,-0.8871503531567752
1789484384446760700,9.1367607421875,0.3306470818608999,-0.6397942795753478,-1.7041598331168293
1789484384456732000,9.14673193359375,-0.4603653486639261,-0.13093056520223617,-1.1514372494034468
1789484384466703600,9.15670361328125,0.500293454426527,-0.6119020640432834,-0.48182139366865157
1789484384476675800,9.16667578125,0.3274626066058874,-0.061898822291195386,-0.7357157829776406
1789484384486646500,9.176646484375,0.7887579295963049,0.06584960574358702,-0.7189674772724509
1789484384496618800,9.18661865234375,0.9755191030919551,0.056259647360444066,0.6540916849970817
1789484384506589700,9.196589599609375,1.3359347157508135,-0.27094986126720905,0.8324099512528628
1789484384516561700,9.206561767578124,0.4679097726941108,-0.11204203259795903,0.48362208641506726
1789484384526532600,9.21653271484375,0.32266251284778114,0.4860433952778577,1.629424033345282
1789484384536504800,9.2265048828125,1.3168261106550694,-0.8175313118770718,1.4069561711743472
1789484384546476800,9.236476806640624,1.3291776427060364,0.07074702239632606,0.6294901085082442
1789484384556447700,9.24644775390625,0.505839982637763,0.4561345792263746,0.2668335485221818
1789484384566419700,9.256419677734375,-0.35939269935190676,0.5493786801129579,1.1473603553533553
1789484384576390700,9.266390625,-1.6980945417284965,1.140749412781,-0.5833095182221383
1789484384586363000,9.27636279296875,-0.16570143433213233,0.9951841730266809,0.7048445516347884
1789484384596333800,9.286333740234374,1.0069202035278082,0.027298341292142866,-0.336528102723509
1789484384606305800,9.296305908203125,-0.6139098967343568,0.39818887847512957,-1.1055748582210392
1789484384616277800,9.30627783203125,-1.883426559203863,1.0204071693494916,-0.5024202373221517
1789484384626249000,9.3162490234375,-2.4846119989216326,0.776937143421173,-0.018758111157640815
1789484384636220700,9.326220703125,-1.2494096939861774,-0.9991495695263147,0.04536510918475687
1789484384646191900,9.33619189453125,-0.20395430035889148,-1.3938403767526149,0.44123033048529176
1789484384656163600,9.34616357421875,0.0869797797948122,-0.859185803040862,-1.5995615406535566
1789484384666134800,9.356134765625,-1.1867530390650034,-0.643369215452671,-0.8047665959153324
1789484384676106800,9.366106689453124,-0.24251871655285356,-1.479188463692367,0.3346719534628093
1789484384686078700,9.37607861328125,0.20942425620257854,-2.6778514285206794,-0.6985302539214492
1789484384696049700,9.386049560546875,0.4859375968158245,-1.7142162399679421,-0.48496509852185843
1789484384706022000,9.39602197265625,0.12653554511368273,-0.12051467738896608,-0.07496906053815036
1789484384715992600,9.40599267578125,0.42800212519764896,-0.2978518967181444,-0.40227085055913775
1789484384725964800,9.41596484375,0.3956973539203405,-1.0616831825897097,0.06079340006625279
1789484384735935700,9.425935791015625,-1.979366475045681,0.7639569580778479,-1.2424627974577247
1789484384745907700,9.43590771484375,-0.5668973856687546,0.4586009693399071,-0.24438834634963422
1789484384755879700,9.445879638671874,0.03413783192336559,1.1617957079410552,-1.4384211306266486
1789484384765851000,9.455850830078125,0.9231956261366605,0.44699820982962846,-1.5284544527731836
1789484384775822600,9.465822509765625,0.5588812524735928,-0.08148498177081347,-0.8873259289193898
1789484384785793800,9.475793701171876,-0.37098610651195046,1.269156889246404,-0.15459853236908092
1789484384795765800,9.485765869140625,0.02084229702055454,1.450898188753426,0.982036668292433
1789484384805736700,9.49573681640625,1.6973633048444985,0.31967648277431726,0.6317268545843661
1789484384815708700,9.505708740234375,1.8347621892780064,-0.35635464683026075,0.894646992522478
1789484384825680600,9.5156806640625,0.9678303021550178,-0.07469897489249706,1.8923159681022166
1789484384835651600,9.525651611328126,-0.11330839927196502,0.2410249708637595,2.3811444640539583
1789484384845623800,9.535623779296875,-0.7655138321310281,0.46558191426843404,0.45436881166286763
1789484384855594800,9.5455947265625,-1.704201626431942,0.7348387078821659,0.17854898800542576
1789484384865566700,9.555566650390626,-1.6737854453802108,-0.1113160564109683,0.4359317491531372
1789484384875537700,9.56553759765625,-0.8628162684977054,-0.15874357801824807,1.3331028533257543
1789484384885509600,9.575509521484374,0.8940437659323215,-0.6147399178177118,-0.14717908642543479
1789484384895481900,9.58548193359375,2.2740344810307023,-0.38154637123197316,-0.11392450361000374
1789484384905452800,9.595452880859375,3.3318039973080156,-0.29735359180718657,-0.8198980410084128
1789484384915424800,9.6054248046875,1.4880021770060061,0.37118981239050625,0.05347799901897087
1789484384925395700,9.615395751953125,-1.5771540401428936,0.9828867092505097,0.137757616476994
1789484384935368000,9.625367919921874,-2.7358044357955453,-0.34050767387896774,0.5457879986772314
1789484384945338600,9.635338623046875,-2.0575152981311082,-0.06392360611706972,0.4455512258917093
1789484384955310800,9.645310791015625,0.6847177094072103,-1.7138675726607442,0.22203659461420028
1789484384965282600,9.655282470703124,0.8920932163864373,-0.3665273735374212,1.5614545128382742
1789484384975253800,9.665253662109375,1.038340008664131,0.2133428909510374,0.9718073890924454
1789484384985225700,9.675225830078125,0.9743974055856466,0.21241233210265636,1.5590455520004034
1789484384995197200,9.685197265625,1.9755138912707566,-1.1103805780023335,2.294481348992884
1789484385005169200,9.695169189453125,2.220627300491929,-1.5624892627134919,0.9544629441250115
1789484385015141000,9.70514111328125,1.8504449115782975,-0.04203793752342462,2.278879729104787
1789484385025112000,9.715112060546875,1.216989187374711,0.9331158393874764,0.22793949851505457
1789484385035084000,9.725083984375,1.120202883836627,0.2459267714306712,0.6088828623525798
1789484385045055200,9.73505517578125,0.7884545627355575,0.2148597252547741,2.1851545667029915
1789484385055027000,9.74502685546875,0.8872416847020387,-0.19391338333785532,-0.12435619178060442
1789484385064998100,9.754998046875,0.7083429151445627,0.10999620598405599,0.8357860766224563
1789484385074970000,9.76497021484375,0.5266928010523318,0.5849439144909382,1.3166358487799763
1789484385084942000,9.774942138671875,0.774266462907195,0.3560696924090385,1.1882995378546417
1789484385094913000,9.7849130859375,0.606716185837984,0.8742746511012315,1.2968573815986513
1789484385104885000,9.794885009765625,-0.6542775629580021,1.661485058994591,1.4266805700808762
1789484385114856000,9.80485595703125,-0.05252630605101585,0.9728238726586103,1.6515967021867632
1789484385124828200,9.814828125,0.9835592016845941,-1.0663611112728715,2.239248998853564
1789484385134799000,9.824799072265625,-0.5659539673388004,-0.3207525875732303,1.7977635610960423
1789484385144771000,9.83477099609375,-0.94887776440382,0.5338026330575346,2.4648057669505476
1789484385154743000,9.844742919921876,-0.5453226827204227,1.3847311876237391,1.5601131812319158
1789484385164714000,9.8547138671875,-0.8835749788880348,2.225234209765494,0.733496499492973
1789484385174686000,9.86468603515625,-0.8411480420470238,1.3653022645324469,0.4343436762440949
1789484385184657200,9.8746572265625,-0.7284744335472584,0.8280465684115886,0.2469049688130617
1789484385194628900,9.88462890625,-1.0028507621318101,1.4606415841326117,-0.36308746221661564
1789484385204600000,9.89460009765625,-0.05491875414550304,0.905458601655066,-1.0312608640581369
1789484385214572000,9.904572021484375,0.2224795526087284,0.21097762312442064,0.007295490770414471
1789484385224544000,9.9145439453125,0.6422884344786405,0.053693011742830275,-0.6457113946646451
1789484385234515000,9.924514892578125,0.9853338101416825,-0.8081216784968972,-0.4074867585765198
1789484385244487200,9.934487060546875,0.2039841109752655,-0.18217355344444514,-1.027212976906821
1789484385254457900,9.944457763671876,-0.3424211062848568,-0.4958700850263238,-0.734886200285703
1789484385264430000,9.95443017578125,-1.387189686691761,-0.7993734316349029,0.010380597304180264
1789484385274402000,9.964402099609375,-0.8194248705387115,-1.2047393621325493,-0.6579097089152782
1789484385284373000,9.974373046875,0.723993488740921,-1.3443468625262378,-0.3602272870125249
1789484385294345200,9.98434521484375,0.7104454403817653,-0.8662883285224438,-0.7447918735545128
1789484385304316200,9.994316162109374,1.6525252152085304,-1.138647764326632,-0.20739242158140986
1789484385314288000,10.0042880859375,1.4570850606948136,-1.0756427343592048,-1.4322715219557285
1789484385324259000,10.014259033203125,-0.16645371400415895,-0.9527931842818855,0.5667102655988187
1789484385334231000,10.02423095703125,-1.3634563444048164,-0.34302784000635145,0.9005072628580033
1789484385344203000,10.034203125,0.29049919586777684,-0.5667702521577477,2.0826466706477103
1789484385354174200,10.04417431640625,1.5292536403268575,-1.0324100340932607,0.7311365654285997
1789484385364146000,10.05414599609375,0.7889046445906162,-0.11546031660884618,0.18973003323860466
1789484385374117000,10.0641171875,-2.0893080282330514,0.7838236880645155,1.1853583698362111
1789484385384089000,10.074089111328124,-2.600287127324939,1.6649389988407493,1.8732294287078082
1789484385394060000,10.08406005859375,0.11833587204515933,-0.6637953328877687,1.160740353669226
1789484385404032000,10.094031982421875,2.895251485908031,-2.2088585367649793,-0.10677530770879239
1789484385414004000,10.10400390625,2.4622511140316723,0.3001554974853992,0.6529520134426653
1789484385423975000,10.113974853515625,2.162834452214837,1.300875092807412,0.06642967065386474
1789484385433947100,10.123947021484375,0.4822609541296959,0.40870968796759843,-1.5890328401155769
1789484385443918000,10.13391796875,-1.66567403511703,1.0569690135493874,-0.0012440452443435788
1789484385453890000,10.14389013671875,-1.1799030270397664,0.5753478186279535,-0.9535317276895046
1789484385463862000,10.153862060546874,-0.5246142412126064,0.49251200677007434,-0.23847809939254075
1789484385473833000,10.1638330078125,0.14269056110084055,0.04506663769483566,-0.6734332951311022
1789484385483805000,10.173804931640625,-0.7351894210159778,-0.8800584951996803,-0.790825968042016
1789484385493776100,10.183776123046876,-0.5239426255613565,-0.8374825052767991,-0.610190547417663
1789484385503747800,10.193747802734375,0.03319675168097019,-1.1803428797617554,1.405790196134895
1789484385513719000,10.203718994140624,0.9023498219847679,-1.8436171113848685,0.08527414492070674
1789484385523691000,10.21369091796875,0.4577671488642692,-1.3970523245364426,1.2674454091534018
1789484385533663000,10.2236630859375,-0.7986895410239696,-0.7450894682615995,-0.17749412692394106
1789484385543634000,10.233634033203124,-0.3348293359816074,-1.3391256207466125,-0.47483211930319663
1789484385553606100,10.243606201171875,0.8284533956468105,-1.0320865012273193,0.4140901023643091
1789484385563576800,10.253576904296875,0.469940401738882,-0.68052201128304,-2.271970534238219
1789484385573549000,10.263549072265626,0.3349912485450506,-0.5535533354490995,0.7418229407463223
1789484385583520000,10.27352001953125,-0.4659411029696464,0.8655471547663212,-1.4369576339453458
1789484385593492000,10.283491943359374,0.1257014323771,0.9536237898871303,-0.17789346497245132
1789484385603464200,10.293464111328126,0.19223112933933734,0.5824406994983553,0.15074512661024927
1789484385613435100,10.30343505859375,-1.0990192260324954,1.3934443631723523,0.8324190844073891
1789484385623407000,10.313406982421874,-1.7262053684473038,1.6211355129495262,1.2032055766940115
1789484385633378000,10.3233779296875,-0.5016308405101298,0.12821253841519356,2.085783068977296
1789484385643350000,10.33335009765625,-1.040048566147685,0.44109249291718006,-0.32468510471656914
1789484385653322000,10.343322021484376,-1.7286708817780017,-0.6473842963129282,0.508617740255408
1789484385663293200,10.353293212890625,-2.682426481351256,0.007527472895383834,1.2828618817329407
1789484385673265000,10.363264892578124,-0.25181787529587746,-0.9535743977874517,-0.06473689526133239
1789484385683236000,10.373236083984375,2.4815309840410946,-2.215625546681881,0.34721838703136887
1789484385693208000,10.3832080078125,0.6636708297252655,-0.2975184269800782,-0.182604638338089
1789484385703179000,10.393178955078126,-0.2927139493077993,0.5652367589801549,-0.3095857717948034
1789484385713151000,10.40315087890625,0.6514379556179046,-0.3559925355195999,-0.040941484056226905
1789484385723123200,10.413123291015625,1.2812152835696935,-1.4803481551215052,0.0032864012595266103
1789484385733094000,10.423093994140626,0.389333079585433,-1.1012705120906232,-0.7158591359935701
1789484385743066000,10.433066162109375,-0.8354162203967571,0.5470356241181492,0.70763915078938
1789484385753037000,10.443037109375,-0.9946966817706823,0.07755231849700212,0.8434653790786862
1789484385763009000,10.453009033203125,0.045831192326545714,-0.2398746317848563,0.021544052081741392
1789484385772981000,10.46298095703125,0.9861819514036178,-0.2250362513542175,-0.29866463787313546
1789484385782952200,10.4729521484375,-0.30165362708866594,0.7368655375346541,-0.48261137500256296
1789484385792924000,10.482923828125,-1.3775766396939753,0.8226695515483617,0.2966327301867306
1789484385802895000,10.49289501953125,-0.6932686801314354,0.3670373688861728,0.31702063450329004
1789484385812866800,10.50286669921875,-0.1361526837646961,-0.3943655207946896,0.10067110908217727
1789484385822838000,10.512838134765625,-1.2910142085283993,0.2444043841689825,0.04678776239901781
1789484385832810000,10.52281005859375,-0.28932313782572744,0.4149354306146502,0.9581168635226786
1789484385842782000,10.532781982421875,1.8574913229584693,-0.8781535383611917,0.9021746846135705
1789484385852753200,10.542753173828125,-0.4869143328934908,0.8617363643065095,1.1345532615546137
1789484385862725000,10.55272509765625,2.120196502971649,-0.3105605716437101,0.011429868895094841
1789484385872696000,10.562696044921875,2.5001935989350077,-1.6451958952337502,0.2881647798371501
1789484385882668000,10.57266796875,-0.023289105650782585,1.1359370440632104,1.333082248929143
1789484385892639200,10.58263916015625,-1.0605962641358375,1.58081665430367,1.2472425790801644
1789484385902611000,10.59261083984375,0.2949602669298649,-1.1365931698843836,1.69281470162943
1789484385912583200,10.602583251953124,-1.3064753970324992,-0.25500907255262134,1.9523015041179954
1789484385922554000,10.61255419921875,-0.6457663397222757,-0.10427841285914181,0.7663428303010761
1789484385932526000,10.622526123046875,0.4157201512515545,-0.013520283569395542,-0.3810883252661675
1789484385942497000,10.6324970703125,0.06207856277227401,0.6409019485563039,-0.5691518865972757
1789484385952469000,10.642468994140625,0.23102058646082876,-1.023603042781353,-0.08780488724103197
1789484385962441000,10.65244091796875,-1.5285340938806533,0.29701369232833386,0.5370378155864775
1789484385972412200,10.662412109375,0.8146183470398187,0.6629036447450518,-0.07872176413517445
1789484385982383900,10.6723837890625,-1.5121125359117984,1.3323422442167996,0.4125769943876192
1789484385992355000,10.68235498046875,0.6265811622589826,-0.03456540968567133,1.3695190054446458
1789484386002327600,10.69232763671875,-1.895164927792549,0.9958426369354129,-0.14647955985395236
1789484386012298200,10.70229833984375,1.2923399041742085,-1.4607865455612539,1.2061302319690586
1789484386022270500,10.7122705078125,0.8188187213391065,-0.4464522663846612,1.5262385302893817
1789484386032242200,10.7222421875,-0.43124505264163016,1.3717930878564715,-0.09124520042063668
1789484386042213400,10.73221337890625,0.14440262571573256,-0.6132806589201092,0.15526059474069626
1789484386052185300,10.742185302734375,-2.1360984209805727,1.3833195672601462,0.5812177335746586
1789484386062156500,10.752156494140625,-0.4503472279965877,0.1135749412536621,-0.5823388465590774
1789484386072128300,10.762128173828126,1.3784504999190568,-1.533089272966981,0.9296556889962404
1789484386082099500,10.772099365234375,-0.2751607569605112,1.6542060079023242,-0.6911060222048312
1789484386092071200,10.7820712890625,1.213479133427143,-0.7313362527191638,-0.3915954715594649
1789484386102043400,10.79204345703125,-3.908133228188753,0.2069923528805375,-0.39043716836981474
1789484386112014300,10.802014404296875,-7.186099252325296,1.5222878929674624,-0.2048047249094583
1789484386121986300,10.811986328125,-2.7492531154334543,0.3755857092618942,-0.330323768190667
1789484386131957200,10.821957275390625,7.573250896218418,-4.677140163132548,0.4632892002213746
1789484386141929500,10.831929443359375,11.372938362735509,-4.833012277367711,-0.14041545577570796
1789484386151900400,10.841900390625,15.304113443815707,-3.9212691886156796,-0.32537016437128186
1789484386161872400,10.851872314453125,4.018625400996208,3.093601098127663,-0.7112512038066983
1789484386171844600,10.8618447265625,-15.420608656430243,10.868107849401236,0.9500469543136656
1789484386181815300,10.871815185546875,-16.332670894134043,4.752352055983245,1.5426381686873734
1789484386191787500,10.88178759765625,-4.33798536516726,-3.6093586636677384,-0.963537061940506
1789484386201758500,10.891758544921874,5.057940392172337,-5.305650247627496,-2.622987034910917
1789484386211730400,10.90173046875,5.70730914030075,1.9180016135007143,2.146267786686867
1789484386221701400,10.911701416015624,2.699752879205346,3.3427427399516105,-0.7667939350694417
1789484386231673600,10.921673583984376,0.036781039908528324,-2.518330728650093,-0.49926699745561925
1789484386241645300,10.931645263671875,-1.8010569035530088,-2.646988088223338,2.110075506451726
1789484386251616500,10.941616455078124,-1.35520640245378,-0.2392217208340764,1.1255460714954881
1789484386261588200,10.951588134765625,1.6122762069284915,1.2617650254294275,-0.82276599766016
1789484386271559400,10.961559326171875,3.6023049457639456,1.2368749143227935,-1.841897594115883
1789484386281531400,10.971531494140624,3.2913293635785577,-1.579149013352394,0.185747009750735
1789484386291503400,10.98150341796875,0.5679144537568092,-2.1090882489800453,0.2579236448250711
1789484386301474300,10.991474365234374,-0.4664794476300478,-0.7685685435265303,0.7757886309731751
1789484386311446500,11.001446533203126,-2.0211025070130826,2.737103243434429,0.9028017304707318
1789484386321417200,11.011417236328125,1.324585054218769,-0.9841206349596381,-1.0347992673173547
1789484386331389400,11.021389404296874,2.2423183232963084,-0.6309811507835984,-0.2771208780523389
1789484386341360400,11.0313603515625,-3.896477277186513,5.261474421292543,-1.3819338119901716
1789484386351332400,11.041332275390625,-3.951153454747796,2.578443544307351,-0.2982421381447464
1789484386361304300,11.05130419921875,-0.6218792681783437,-1.1163722196325658,1.1000939425919205
1789484386371275500,11.061275634765625,0.823068195477128,-4.5738329333931205,1.322867436645925
1789484386381247200,11.071247314453124,-2.4378081621706484,-3.6625273592755194,2.143220527945459
1789484386391218400,11.081218505859376,-3.571516424268484,0.40382834566682574,1.6329979463092983
1789484386401190400,11.0911904296875,1.2264946823447942,-0.21107640732377767,1.1393827275376767
1789484386411161300,11.101161376953126,4.613102867507934,-2.2053569583848116,-0.7045749409131705
1789484386421133300,11.11113330078125,5.759964041167497,-2.820975704863667,1.466810628156364
1789484386431105300,11.121105224609375,2.9842805994480845,-0.01570405734926462,0.8806349799133837
1789484386441076200,11.131076171875,-2.547740363007784,3.9901825658440586,1.0546262498155237
1789484386451048400,11.14104833984375,-2.0807138028889893,3.1493799762338397,0.5446786126632243
1789484386461019400,11.151019287109374,1.1479583212465048,0.010836451312899589,1.3682780654728413
1789484386470991400,11.160991455078126,2.3098411229491234,-1.9484777080461382,0.4759410669257864
1789484386480963600,11.170963623046875,1.673391477626562,0.44619683031886814,1.614151353150606
1789484386490934300,11.180934326171876,0.555661705905199,1.5474971530258654,1.047871368727833
1789484386500906500,11.190906494140625,-0.3992214363932609,0.9151324389293789,2.706913856875896
1789484386510877400,11.20087744140625,-1.048854972937703,-0.40928047359287734,1.1833400157511234
1789484386520849400,11.210849365234376,0.36337972316145895,-0.825626940049231,0.9945485785368829
1789484386530820400,11.2208203125,0.8297007653594016,0.0947790553689003,1.0219210079785437
1789484386540792600,11.23079248046875,0.7177168926894665,0.20907032819837332,1.3161845978811382
1789484386550764300,11.240764404296876,-0.45439796469211574,0.91976506716609,0.3931212198220193
1789484386560735500,11.250735595703125,-0.08867489327490329,-0.27525574176758527,0.26685966934412714
1789484386570707200,11.260707275390626,1.4501023622006177,-2.5476605757698416,-0.018267405031248928
1789484386580678400,11.270678466796875,-0.7944687084585428,0.4028843428149819,-0.2711777152063325
1789484386590650400,11.280650390625,-0.5461000968337059,0.9473600533172488,0.03129683634378016
1789484386600621600,11.29062158203125,-2.1035615945130584,1.4802683678835629,0.22743925737533718
1789484386610593300,11.30059326171875,-2.2111294043064116,1.7168690925642847,0.37595304473694413
1789484386620565500,11.3105654296875,-0.15547814648151398,1.1066101195529103,1.3536486516177653
1789484386630536200,11.3205361328125,0.3594172492712736,1.405544843071699,1.302788817474246
1789484386640508400,11.33050830078125,-0.08472469434440136,-0.3989128088355064,0.7343683869566768
1789484386650479400,11.340479248046876,-2.560174312645197,0.9473717437550425,0.38540359464939683
1789484386660451300,11.350451416015625,-1.2649597298175095,-0.2310714398652315,0.521182001741603
1789484386670422300,11.36042236328125,1.5218015707552432,-1.0513324689671397,0.2717314400989562
1789484386680394500,11.37039453125,2.0862562394469975,-0.977154887600243,1.3555205829694867
1789484386690366200,11.3803662109375,0.8226122684031725,-1.3536325772657989,0.42750732741802927
1789484386700337400,11.39033740234375,1.1582231101512908,-0.8378376023247838,0.9812408417396247
1789484386710309400,11.400309326171875,2.508925771445036,-1.662179178738594,-2.136173532043397
1789484386720280300,11.4102802734375,1.1442232263714074,-0.01875146222114563,-0.6386001013547181
1789484386730252300,11.420252197265626,-1.8229653685003517,1.426356452693045,-0.245746482960321
1789484386740223500,11.430223388671875,-1.5987380954414605,0.4929302321821451,0.2936798351978883
1789484386750195200,11.4401953125,-2.469806643977761,0.839413181078434,0.6412938704833387
1789484386760167400,11.45016748046875,-0.9659300214916468,-0.5554945326447487,1.059151618285477
1789484386770138400,11.460138427734375,-0.4925485393881798,0.3884486979663372,-0.08620152543131261
1789484386780110300,11.4701103515625,1.6805629766911268,-1.133414539848268,0.9743670104473828
1789484386790081300,11.480081298828125,0.07735211974978447,-0.0734901836246252,1.9951494428500531
1789484386800053200,11.49005322265625,1.808707126045227,-0.7177592705264687,0.9948105174086987
1789484386810024200,11.500024169921875,1.297096743312478,-0.9969038364261388,2.4770751736760137
1789484386819996400,11.509996337890625,-0.9200304401040077,1.1228627506956457,-0.9782392487708479
1789484386829968400,11.519968505859374,-2.3486674049496647,1.5380027639716862,1.5531047637745736
1789484386839939300,11.529939208984375,-1.5492022033780812,0.07440320681631565,-0.511262774871476
1789484386849911600,11.53991162109375,-1.6004384696185587,-0.13874533060640096,0.707161231079325
1789484386859882200,11.54988232421875,-1.6160475421607494,0.1651794562846422,0.3251739476794377
1789484386869854500,11.5598544921875,-0.96336864657104,-0.08661416135281323,0.695425273643434
1789484386879825400,11.569825439453124,0.42639936617612834,-1.9567218047782777,0.6463891477957368
1789484386889797400,11.57979736328125,-0.10151859275698662,-0.08212941715419292,0.10303360042981803
1789484386899769300,11.589769287109375,-0.8184440428078175,0.3416702879175544,-0.20044863032549617
1789484386909740500,11.599740478515624,0.14776245753765105,0.45877457234114405,-0.797196306791529
1789484386919712300,11.609712158203125,-0.3866764275968075,0.964568085488677,-0.8457019790243356
1789484386929683500,11.619683349609375,0.34846506262421606,-0.16530951240509748,-0.6791874016784131
1789484386939655400,11.629655517578126,-0.32888124123215673,-0.14995587592869997,0.9066638857915997
1789484386949626400,11.63962646484375,1.816396511504054,-0.5631649211421609,0.19206527125313877
1789484386959598300,11.649598388671874,2.548189275819063,-0.6650546852990985,-0.5481293376389891
1789484386969570300,11.6595703125,-1.47542501950562,2.659584242685139,-0.5859127595230936
1789484386979541200,11.669541259765625,-1.2076257312238217,0.34173429306447506,1.24524132226035
1789484386989513500,11.679513427734374,-0.24682430479228495,0.043894379045069216,0.45348706039227543
1789484386999484200,11.689484130859375,1.0760434241145849,-0.9945029127642512,1.0085378678575156
1789484387009456000,11.6994560546875,3.0698943515866994,-1.5797890648216009,1.0421548907771705
1789484387019427000,11.709427001953125,-0.13723989447951315,1.2142901575490832,0.5342612270126119
1789484387029399000,11.71939892578125,-3.1007033313482997,0.36271366046816106,-0.05715582901518792
1789484387039371000,11.72937109375,-2.982483779159188,0.3129036276385188,0.6947394833363593
1789484387049342200,11.73934228515625,2.244118650716543,-2.406523966112733,0.028209428255073724
1789484387059314000,11.74931396484375,3.1364971137851474,-1.014373149882257,0.509542380819656
1789484387069285000,11.75928515625,0.35453415340483185,-0.018892039735615252,0.4562768737738952
1789484387079257000,11.769257080078125,-1.6854343821197748,0.7416174082368612,0.5932138032514601
1789484387089228000,11.77922802734375,-0.7753250320494175,-1.540780119730532,0.020433679687045514
1789484387099200000,11.789199951171875,-1.6060867046386003,0.8974871843844652,0.11383059651516378
1789484387109171200,11.799171142578125,1.3968646930098534,-1.5804878607407211,-1.8777355079554021
1789484387119143000,11.809142822265626,-1.1411638388007879,0.6570712853297591,-0.17874259261507539
1789484387129115100,11.819115234375,-2.0005220757991076,1.5211176801443098,-1.4381237551152706
1789484387139086000,11.829086181640625,-0.09156418497562407,-0.9567162029445171,-0.3113901543356478
1789484387149058000,11.83905810546875,1.0556021091103553,-0.7349795776575804,-0.4142022209692746
1789484387159029200,11.849029296875,1.5531220071703196,-0.9196478705272078,-0.2954472832618281
1789484387169001200,11.859001220703124,-0.04031272116601467,0.48350832384228704,0.21432134406175463
1789484387178972200,11.86897216796875,-0.31883798612356185,0.48843584337234497,0.580733347591199
1789484387188944100,11.878944091796875,1.2802777104586363,-0.8613970493495464,0.25445819720420987
1789484387198916000,11.888916015625,-0.41283670476973056,-0.3706245797231793,-0.5735047115119174
1789484387208887000,11.898886962890625,-1.581092548635602,1.1489993547320365,0.5980874371698126
1789484387218859300,11.908859375,-1.5558400339573621,0.015411796404421328,-0.10143697888813913
1789484387228830200,11.918830322265626,-0.22934593124687672,0.04295476010739803,-0.11639127731602639
1789484387238802200,11.92880224609375,2.091788739132881,-1.4334177693814039,0.8938238395713269
1789484387248773000,11.938773193359374,2.10952664039731,-0.12969517818838358,-0.4327049691263586
1789484387258745000,11.9487451171875,1.2578653876423835,0.9592729016900062,-0.9220576350826769
1789484387268717000,11.958717041015625,-0.04998538939654827,1.7733663480728863,1.268302902765572
1789484387278688300,11.968688232421876,1.40625153003633,-1.0653694698870182,0.28938246679753066
1789484387288660000,11.978659912109375,-0.988878350880742,-0.2849026910349727,0.3017767602779902
1789484387298631200,11.988631103515624,-1.747333496671915,0.4332376877635717,0.15699404920348897
1789484387308603100,11.99860302734375,-1.9527315660983322,0.454492657238245,0.24190610107984392
1789484387318574000,12.008573974609375,-1.4842968927472828,1.485667596578598,1.8598342328228055
1789484387328546000,12.018546142578124,-0.11163257501423358,-0.22002251484543084,0.4380100167319178
1789484387338517200,12.028517333984375,0.16143033288419245,-0.6075593586638569,0.014390764527302235
1789484387348489000,12.038489013671875,-1.0976169580191373,1.6095646098822354,0.6937017377864569
1789484387358461200,12.048461181640626,-0.6040285541892051,0.438136565721035,-0.12784514814121647
1789484387368432000,12.05843212890625,0.21332184816300867,-1.0356234431818128,1.2675745884910226
1789484387378404000,12.068404052734374,-0.511671757531166,-0.4239914282515645,0.10365512986164539
1789484387388375000,12.078375,2.0078882206529376,-1.7985861295253038,0.7971452341914177
1789484387398347300,12.08834716796875,2.3526035753548142,0.041624388286471366,1.6601786525711417
1789484387408318000,12.09831787109375,1.8233482303380966,-0.148601830971241,0.4374871984342113
1789484387418290200,12.108290283203125,0.026346155133843422,0.3038648733973503,1.6273730921648442
1789484387428261000,12.11826123046875,-3.335146877995133,2.478980422775447,1.69720709136948
1789484387438233000,12.128233154296876,-1.914061351442337,0.7122472291067242,1.2265849909767508
1789484387448205300,12.138205322265625,0.4219499855518341,-0.16616291436403988,1.1459136636763811
1789484387458176300,12.14817626953125,0.3844266028434038,-0.3763496793717146,1.1928834315788
1789484387468148200,12.158148193359375,1.0867618020057677,-0.08349544481039047,-0.02855246953908354
1789484387478119200,12.168119140625,2.8573779745876786,-1.394190797625482,-1.4620916368104517
1789484387488091100,12.178091064453126,0.12110650580227374,0.6979983390018344,-1.427112970148772
1789484387498062000,12.18806201171875,-1.122649692466855,-0.32683862948864695,-0.29271389450887214
1789484387508034300,12.198034423828124,-1.9105144726157188,1.795970978590846,-0.4382170836113393
1789484387518005200,12.208005126953125,-0.964430138322711,0.8784452147841453,-0.2478794581347145
1789484387527977200,12.217977294921875,-0.08431494449973106,-0.5974257949233055,-0.3480209721185267
1789484387537949200,12.22794921875,-1.5071902770787478,1.4965715601697562,-0.09276711275829001
1789484387547920100,12.237920166015625,-1.2305904272258281,0.777476364864409,0.17532175132092087
1789484387557892000,12.24789208984375,1.2286731954276562,-1.7257842204257845,-1.3907491327390074
1789484387567863300,12.25786328125,1.3360750010043383,-0.5743035702720284,-0.5475015611294657
1789484387577835000,12.2678349609375,-1.901192517518997,1.3693927487164734,-0.9113744746353477
1789484387587806200,12.27780615234375,-0.8803174383968114,1.126207969470322,-1.542373964793235
1789484387597778200,12.287778076171875,-0.7846621847152709,2.0224390163138506,-2.1946932332903146
1789484387607750100,12.297750244140625,0.1708265222609043,-0.7177960954055189,-1.3395036602787673
1789484387617721000,12.30772119140625,0.24462065726816654,-0.33727819043844937,-1.750618655822426
1789484387627693000,12.317693115234375,-0.95130236120224,1.3409087047711015,-0.1298009583841078
1789484387637664000,12.3276640625,0.22335341283380983,-0.6977630689412355,-0.37779819767959416
1789484387647636200,12.33763623046875,-0.3161211283802986,-0.006176935069262981,-1.1865108278069645
1789484387657607200,12.347607177734375,3.3896506215989586,-2.68312849214077,-1.057053111636266
1789484387667579100,12.3575791015625,2.662154093173146,-0.23329349982887504,-0.1835050760428421
1789484387677550000,12.367550048828125,2.6567478502154347,-0.584146042111516,-0.5647296497082337
1789484387687522000,12.37752197265625,1.2679793698996304,0.06650427026003598,0.7658633031558245
1789484387697494000,12.387493896484376,0.29931378596425057,0.5948565289571881,-0.060430220176512374
1789484387707465200,12.39746533203125,-0.49539633003473277,0.8646566356673836,-0.29948209173586215
1789484387717437000,12.40743701171875,1.0269330639868974,-0.2689285845726728,-0.6775768977418541
1789484387727408000,12.417408203125,-0.2127548619300127,0.12146364867687225,-0.209661827818118
1789484387737380000,12.427380126953125,-3.371382558980584,2.5963725842297074,0.2325674871092662
1789484387747351300,12.437351318359376,-4.197955547708273,1.3877911597162484,-0.15074102582386695
1789484387757323000,12.447322998046875,-2.530285370337963,1.0274009737595915,0.3187063956331461
1789484387767294200,12.457294189453124,1.8475182104766368,-1.29464029007107,-0.45605059073735027
1789484387777266000,12.467265869140626,2.178752736836672,-1.0882716220468283,0.9350540409084409
1789484387787238100,12.477238037109375,-0.8389864800989627,1.3643559235930443,2.1829680164441463
1789484387797209000,12.487208984375,-2.0439467915058134,0.6155448044598102,1.1849506658181548
1789484387807181000,12.49718115234375,-0.6937696153908968,0.15306640916466713,1.704784979277849
1789484387817152000,12.507152099609375,0.6914350349634886,-0.3558230241715908,1.1617676508903503
1789484387827124200,12.517124267578126,2.7869916021972894,-2.480974519202113,1.1820979798007756
1789484387837095000,12.527094970703125,1.0239870736628771,0.282466403798759,-0.19324290019776671
1789484387847067100,12.537067138671874,-0.8330600126594304,0.03484013497382402,-0.8480768183968961
1789484387857038000,12.5470380859375,-3.9961744997352358,0.6996233098551631,-0.9378161260329186
