time,seconds_elapsed,z,y,x
1789484375370178300,0.06017822265625,-0.7994537353515625,-0.2986602783203125,0.0410614013671875
1789484375380149200,0.070149169921875,-0.4930572509765625,-0.3836822509765625,0.11151123046875
1789484375390120200,0.0801201171875,-0.3767547607421875,-0.4010162353515625,0.1234893798828125
1789484375400092400,0.090092529296875,-0.6628875732421875,-0.1785888671875,-0.0302886962890625
1789484375410063400,0.1000634765625,-1.14990234375,0.0112457275390625,0.1060333251953125
1789484375420034300,0.110034423828125,-1.009613037109375,-0.279022216796875,0.0012664794921875
1789484375430005200,0.120005126953125,-1.4939117431640625,-0.074249267578125,-0.113037109375
1789484375439977500,0.1299775390625,-2.02508544921875,0.2440185546875,-0.2377777099609375
1789484375449948400,0.139948486328125,-1.16082763671875,-0.18853759765625,-0.4260406494140625
1789484375459919000,0.149919189453125,-0.609375,-0.626190185546875,-0.1169891357421875
1789484375469891300,0.159891357421875,-0.62371826171875,-0.5401458740234375,0.116241455078125
1789484375479862300,0.1698623046875,-0.793426513671875,-0.3604278564453125,0.166168212890625
1789484375489833500,0.17983349609375,-0.9232330322265625,-0.235504150390625,0.2010650634765625
1789484375499804200,0.18980419921875,-1.0816650390625,-0.4150390625,0.1530303955078125
1789484375509776400,0.1997763671875,-1.181365966796875,-0.29656982421875,-0.0976409912109375
1789484375519747300,0.209747314453125,-0.7281494140625,-0.4546051025390625,-0.16021728515625
1789484375529718300,0.21971826171875,-0.6837310791015625,-0.3365020751953125,0.0842742919921875
1789484375539690200,0.229690185546875,-1.1094970703125,-0.1894683837890625,0.1690826416015625
1789484375549661400,0.239661376953125,-1.3754425048828125,-0.0916900634765625,-0.26519775390625
1789484375559632400,0.24963232421875,-1.607635498046875,0.0072784423828125,-0.0168914794921875
1789484375569603300,0.259603271484375,-1.1858062744140625,-0.342620849609375,0.0828399658203125
1789484375579575300,0.2695751953125,-1.0290679931640625,-0.4520721435546875,0.0367584228515625
1789484375589546200,0.279546142578125,-1.470062255859375,0.0397796630859375,0.1396331787109375
1789484375599517400,0.289517333984375,-1.0446624755859375,-0.11376953125,0.25799560546875
1789484375609489200,0.2994892578125,-0.2658233642578125,-0.6739654541015625,0.137908935546875
1789484375619460400,0.30946044921875,0.152099609375,-0.8685150146484375,-0.0677032470703125
1789484375629431300,0.319431396484375,-0.25811767578125,-0.6858978271484375,0.1390228271484375
1789484375639403300,0.3294033203125,-0.5469970703125,-0.6103973388671875,0.392303466796875
1789484375649374200,0.339374267578125,-1.16119384765625,-0.1837615966796875,-0.0428009033203125
1789484375659345400,0.349345458984375,-1.21160888671875,-0.6715240478515625,-0.1654510498046875
1789484375669316400,0.35931640625,-1.4388580322265625,-0.11004638671875,0.1042327880859375
1789484375679288300,0.369288330078125,-1.0778350830078125,0.0264739990234375,-0.0321044921875
1789484375689259300,0.37925927734375,-0.82305908203125,-0.0321807861328125,0.13409423828125
1789484375699230200,0.389230224609375,-0.6577911376953125,-0.2191162109375,0.08941650390625
1789484375709202200,0.3992021484375,-0.663818359375,-0.3481292724609375,0.1514129638671875
1789484375719173000,0.409173095703125,-0.843231201171875,-0.3144683837890625,-0.011993408203125
1789484375729144300,0.419144287109375,-1.2901153564453125,0.125244140625,-0.046417236328125
1789484375739116300,0.4291162109375,-1.30810546875,0.008697509765625,0.2032928466796875
1789484375749087200,0.439087158203125,-1.38751220703125,0.0208587646484375,0.0106964111328125
1789484375759058200,0.44905810546875,-0.94439697265625,-0.5398406982421875,-0.3828582763671875
1789484375769030400,0.459030517578125,-0.7478485107421875,-0.4584808349609375,-0.17864990234375
1789484375779001300,0.46900146484375,-0.867645263671875,0.104461669921875,-0.1374664306640625
1789484375788972300,0.47897216796875,-0.6420135498046875,-0.4134368896484375,0.019317626953125
1789484375798944300,0.4889443359375,-0.6840362548828125,-0.5814666748046875,0.1128997802734375
1789484375808915500,0.49891552734375,-1.1974029541015625,-0.016265869140625,0.0579071044921875
1789484375818886400,0.508886474609375,-1.4763946533203125,0.193603515625,0.1441802978515625
1789484375828858400,0.5188583984375,-1.3287353515625,0.039306640625,-0.141448974609375
1789484375838829300,0.528829345703125,-1.200164794921875,0.0452117919921875,-0.437103271484375
1789484375848800300,0.53880029296875,-0.8304595947265625,-0.3011016845703125,-0.396392822265625
1789484375858772200,0.548772216796875,-0.753997802734375,-0.480194091796875,-0.1499176025390625
1789484375868743200,0.5587431640625,-0.726593017578125,-0.3914642333984375,-0.276702880859375
1789484375878714400,0.56871435546875,-0.8222198486328125,-0.373046875,-0.160064697265625
1789484375888685300,0.578685302734375,-0.882537841796875,-0.3937835693359375,0.058258056640625
1789484375898657300,0.5886572265625,-0.863311767578125,-0.4403839111328125,-0.14007568359375
1789484375908628200,0.598628173828125,-0.8002777099609375,-0.468658447265625,0.00531005859375
1789484375918599400,0.608599365234375,-0.867340087890625,-0.315216064453125,-0.040313720703125
1789484375928571100,0.618571044921875,-0.9530792236328125,-0.34881591796875,0.2210235595703125
1789484375938542300,0.628542236328125,-1.01519775390625,-0.345703125,0.338043212890625
1789484375948514300,0.638514404296875,-0.914276123046875,-0.396636962890625,0.1349029541015625
1789484375958485200,0.6484853515625,-0.7220458984375,-0.5736083984375,0.2508392333984375
1789484375968456200,0.658456298828125,-0.9598388671875,-0.3707122802734375,0.125152587890625
1789484375978428400,0.668428466796875,-0.7877197265625,-0.420989990234375,0.1240386962890625
1789484375988400000,0.678400146484375,-0.94049072265625,-0.3486175537109375,-0.067840576171875
1789484375998371300,0.688371337890625,-1.0190582275390625,-0.247222900390625,0.0155181884765625
1789484376008343300,0.69834326171875,-1.121246337890625,-0.118255615234375,-0.044097900390625
1789484376018314200,0.708314208984375,-0.9950103759765625,-0.1899871826171875,-0.207275390625
1789484376028285200,0.71828515625,-0.862396240234375,-0.3401947021484375,0.05657958984375
1789484376038257400,0.72825732421875,-0.8613739013671875,-0.3678131103515625,0.1790771484375
1789484376048228400,0.738228271484375,-1.0586395263671875,-0.277587890625,-0.062225341796875
1789484376058199300,0.74819921875,-1.1712799072265625,-0.25323486328125,-0.09332275390625
1789484376068171300,0.758171142578125,-1.03369140625,-0.3159637451171875,-0.066925048828125
1789484376078142500,0.768142578125,-0.7608184814453125,-0.5056610107421875,-0.023406982421875
1789484376088113400,0.778113525390625,-0.8567657470703125,-0.3939056396484375,0.0947723388671875
1789484376098085400,0.78808544921875,-0.942535400390625,-0.3430938720703125,-0.0009765625
1789484376108056300,0.798056396484375,-0.9744720458984375,-0.3833160400390625,-0.147705078125
1789484376118027300,0.80802734375,-0.89459228515625,-0.410614013671875,-0.1598663330078125
1789484376127999200,0.817999267578125,-0.9071502685546875,-0.351104736328125,0.0601654052734375
1789484376137970200,0.82797021484375,-0.7682952880859375,-0.5133819580078125,0.0701751708984375
1789484376147942400,0.8379423828125,-0.88897705078125,-0.3704681396484375,-0.069915771484375
1789484376157913000,0.8479130859375,-1.097015380859375,-0.14776611328125,-0.06524658203125
1789484376167884300,0.85788427734375,-1.00762939453125,-0.4043731689453125,-0.022125244140625
1789484376177856300,0.867856201171875,-1.091796875,-0.2840423583984375,0.049407958984375
1789484376187827500,0.877827392578125,-1.051544189453125,-0.14202880859375,-0.3118133544921875
1789484376197798100,0.887798095703125,-0.8626556396484375,-0.21563720703125,-0.2412567138671875
1789484376207770400,0.897770263671875,-0.8875732421875,-0.0691986083984375,-0.0841522216796875
1789484376217741300,0.9077412109375,-1.0597381591796875,0.0224456787109375,-0.1103973388671875
1789484376227712500,0.91771240234375,-0.98333740234375,-0.1185455322265625,0.05279541015625
1789484376237684200,0.927684326171875,-0.9027862548828125,-0.2164459228515625,-0.0448455810546875
1789484376247655400,0.937655517578125,-0.9203338623046875,-0.1121673583984375,-0.1142425537109375
1789484376257627100,0.947627197265625,-1.0005340576171875,-0.1528167724609375,-0.05291748046875
1789484376267598300,0.957598388671875,-1.0582427978515625,-0.189208984375,0.1253204345703125
1789484376277569300,0.9675693359375,-0.959228515625,-0.30828857421875,-0.08294677734375
1789484376287541500,0.97754150390625,-0.8661346435546875,-0.293212890625,-0.0216064453125
1789484376297512200,0.98751220703125,-1.0338287353515625,-0.1269073486328125,0.148162841796875
1789484376307483100,0.997483154296875,-0.9929351806640625,-0.1663055419921875,0.2037811279296875
1789484376317455400,1.007455322265625,-0.8242950439453125,-0.3097381591796875,0.012420654296875
1789484376327426300,1.01742626953125,-0.9334716796875,-0.301727294921875,-0.139068603515625
1789484376337398300,1.027398193359375,-0.9676971435546875,-0.2530670166015625,-0.00634765625
1789484376347369200,1.037369140625,-1.005859375,-0.3810577392578125,0.0623779296875
1789484376357340400,1.04734033203125,-1.0516357421875,-0.3206787109375,0.0883331298828125
1789484376367312100,1.05731201171875,-0.882049560546875,-0.3903961181640625,-0.03955078125
1789484376377283300,1.067283447265625,-0.6758575439453125,-0.50067138671875,-0.0290069580078125
1789484376387255300,1.07725537109375,-0.8313446044921875,-0.375579833984375,0.1544952392578125
1789484376397226200,1.087226318359375,-0.965301513671875,-0.320953369140625,0.043853759765625
1789484376407197200,1.097197265625,-0.96258544921875,-0.4089508056640625,0.0582733154296875
1789484376417169400,1.10716943359375,-0.853302001953125,-0.4673004150390625,0.02374267578125
1789484376427140400,1.117140380859375,-0.828826904296875,-0.439208984375,0.069244384765625
1789484376437112300,1.1271123046875,-0.9321746826171875,-0.2287750244140625,0.0977325439453125
1789484376447083300,1.137083251953125,-0.972747802734375,-0.2441253662109375,0.2206268310546875
1789484376457054500,1.147054443359375,-0.9712371826171875,-0.3512725830078125,0.2419891357421875
1789484376467026200,1.157026123046875,-0.9725494384765625,-0.3372344970703125,0.27410888671875
1789484376476997400,1.166997314453125,-1.0746002197265625,-0.243133544921875,0.1283111572265625
1789484376486968300,1.17696826171875,-1.047393798828125,-0.1848907470703125,0.1223602294921875
1789484376496940300,1.186940185546875,-0.9549407958984375,-0.2536468505859375,0.1680145263671875
1789484376506911200,1.1969111328125,-0.987945556640625,-0.21978759765625,0.0684051513671875
1789484376516883500,1.206883544921875,-0.8925323486328125,-0.303253173828125,0.066558837890625
1789484376526854400,1.2168544921875,-0.9043121337890625,-0.3966217041015625,0.058685302734375
1789484376536826400,1.226826416015625,-0.980560302734375,-0.255096435546875,0.03558349609375
1789484376546797300,1.23679736328125,-1.011322021484375,-0.173736572265625,0.058013916015625
1789484376556768300,1.246768310546875,-0.9665985107421875,-0.36395263671875,0.090240478515625
1789484376566740200,1.256740234375,-1.0305938720703125,-0.3415679931640625,0.17169189453125
1789484376576711200,1.266711181640625,-0.9810028076171875,-0.2647857666015625,0
1789484376586683400,1.276683349609375,-0.83056640625,-0.3728790283203125,0.04534912109375
1789484376596654000,1.286654052734375,-1.0211334228515625,-0.246429443359375,0.177459716796875
1789484376606625300,1.296625244140625,-1.1764984130859375,-0.28399658203125,0.003448486328125
1789484376616597200,1.30659716796875,-1.06048583984375,-0.384552001953125,0.14227294921875
1789484376626568200,1.316568115234375,-0.935516357421875,-0.3363189697265625,0.1269378662109375
1789484376636540400,1.32654052734375,-0.772430419921875,-0.3463897705078125,0.1733551025390625
1789484376646511400,1.336511474609375,-0.712432861328125,-0.3405914306640625,0.1169891357421875
1789484376656482300,1.346482421875,-0.881195068359375,-0.3282318115234375,0.212432861328125
1789484376666454300,1.356454345703125,-1.1237945556640625,-0.245147705078125,0.1224365234375
1789484376676425200,1.36642529296875,-1.147369384765625,-0.326080322265625,0.0362396240234375
1789484376686397400,1.3763974609375,-1.126312255859375,-0.2092437744140625,0.0317840576171875
1789484376696368000,1.3863681640625,-0.813262939453125,-0.3177642822265625,-0.123077392578125
1789484376706340400,1.39634033203125,-0.665740966796875,-0.3881378173828125,0.092864990234375
1789484376716311300,1.406311279296875,-0.76434326171875,-0.23760986328125,-0.0886077880859375
1789484376726282200,1.4162822265625,-0.9175262451171875,-0.1706390380859375,-0.0860595703125
1789484376736254200,1.426254150390625,-0.9766845703125,-0.19683837890625,-0.09716796875
1789484376746225400,1.436225341796875,-1.118438720703125,-0.2007598876953125,-0.1626434326171875
1789484376756197000,1.446197021484375,-1.1640777587890625,-0.2160797119140625,-0.2517242431640625
1789484376766168300,1.456168212890625,-1.113525390625,-0.29815673828125,-0.194488525390625
1789484376776140300,1.466140380859375,-1.092529296875,-0.2319793701171875,-0.116241455078125
1789484376786111200,1.476111328125,-1.0083770751953125,-0.31524658203125,-0.0989837646484375
1789484376796082200,1.486082275390625,-0.8890838623046875,-0.3464508056640625,-0.053314208984375
1789484376806054400,1.496054443359375,-0.83984375,-0.4138031005859375,-0.1866455078125
1789484376816025300,1.506025390625,-0.9051971435546875,-0.2879486083984375,-0.076141357421875
1789484376825997300,1.515997314453125,-0.9674224853515625,-0.2740936279296875,0.0814361572265625
1789484376835968300,1.52596826171875,-1.096221923828125,-0.193572998046875,-0.0382843017578125
1789484376845940200,1.535940185546875,-0.96649169921875,-0.29010009765625,0.0724639892578125
1789484376855911200,1.5459111328125,-0.8404388427734375,-0.3923187255859375,-0.0263214111328125
1789484376865883400,1.55588330078125,-0.8040771484375,-0.4828948974609375,0.0143585205078125
1789484376875854300,1.565854248046875,-0.884307861328125,-0.35552978515625,0.0419158935546875
1789484376885825300,1.5758251953125,-0.9865875244140625,-0.3125762939453125,-0.0599517822265625
1789484376895797200,1.58579736328125,-1.1589202880859375,-0.1604156494140625,-0.045013427734375
1789484376905768400,1.5957685546875,-1.0619659423828125,-0.222198486328125,-0.0347442626953125
1789484376915740200,1.605740234375,-0.9264373779296875,-0.2473907470703125,-0.101898193359375
1789484376925711400,1.61571142578125,-0.7573699951171875,-0.355499267578125,-0.142913818359375
1789484376935683300,1.625683349609375,-0.8411102294921875,-0.366607666015625,-0.06024169921875
1789484376945654300,1.635654296875,-0.994140625,-0.314453125,-0.0861358642578125
1789484376955626200,1.645626220703125,-1.105438232421875,-0.2294464111328125,-0.013153076171875
1789484376965597400,1.655597412109375,-1.0401611328125,-0.3608245849609375,0.049407958984375
1789484376975568400,1.665568359375,-0.8908843994140625,-0.45751953125,-0.088836669921875
1789484376985540400,1.675540283203125,-0.8906097412109375,-0.3319091796875,-0.0998077392578125
1789484376995510500,1.685510498046875,-0.8311920166015625,-0.3656463623046875,-0.134765625
1789484377005482500,1.695482421875,-1.00140380859375,-0.22088623046875,0.1010589599609375
1789484377015453700,1.70545361328125,-0.9291229248046875,-0.386505126953125,-0.1991729736328125
1789484377025425400,1.71542529296875,-0.948089599609375,-0.3813629150390625,-0.0601806640625
1789484377035396600,1.725396728515625,-1.1043548583984375,-0.087921142578125,-0.0501251220703125
1789484377045368300,1.735368408203125,-0.919403076171875,-0.268951416015625,-0.083709716796875
1789484377055339500,1.745339599609375,-0.7725982666015625,-0.365447998046875,0.01904296875
1789484377065311500,1.7553115234375,-0.923828125,-0.2397003173828125,-0.0494537353515625
1789484377075282700,1.76528271484375,-1.13873291015625,-0.1443328857421875,0.0350494384765625
1789484377085253400,1.77525341796875,-1.2069854736328125,-0.152923583984375,-0.1384429931640625
1789484377095225600,1.7852255859375,-0.9456024169921875,-0.2517242431640625,-0.017822265625
1789484377105196500,1.795196533203125,-0.8526458740234375,-0.354156494140625,-0.19195556640625
1789484377115168500,1.80516845703125,-0.8839111328125,-0.273468017578125,-0.0613250732421875
1789484377125139500,1.815139404296875,-0.9799652099609375,-0.127838134765625,0.032684326171875
1789484377135111700,1.825111572265625,-0.9080047607421875,-0.17572021484375,-0.084503173828125
1789484377145082400,1.835082275390625,-0.8824615478515625,-0.2736663818359375,0.029815673828125
1789484377155054600,1.8450546875,-0.8616180419921875,-0.4462127685546875,-0.1558380126953125
1789484377165025500,1.855025634765625,-1.0365447998046875,-0.267913818359375,-0.014556884765625
1789484377174997500,1.86499755859375,-1.1727752685546875,-0.1910858154296875,-0.071807861328125
1789484377184968400,1.874968505859375,-1.090240478515625,-0.2858123779296875,-0.0422821044921875
1789484377194940700,1.884940673828125,-1.052947998046875,-0.4410552978515625,-0.1798858642578125
1789484377204911400,1.894911376953125,-0.9308013916015625,-0.3907470703125,-0.0928955078125
1789484377214883600,1.904883544921875,-0.8780517578125,-0.3442840576171875,-0.10107421875
1789484377224854500,1.9148544921875,-0.9296875,-0.2711334228515625,-0.13275146484375
1789484377234825700,1.92482568359375,-0.9283294677734375,-0.3849945068359375,-0.1740875244140625
1789484377244797400,1.93479736328125,-0.9333953857421875,-0.3437042236328125,-0.1996002197265625
1789484377254768600,1.9447685546875,-0.8128204345703125,-0.44354248046875,-0.158477783203125
1789484377264740400,1.954740234375,-0.8356475830078125,-0.3195343017578125,-0.22088623046875
1789484377274711600,1.964711669921875,-0.9177398681640625,-0.2892303466796875,-0.1453857421875
1789484377284683500,1.97468359375,-0.9174652099609375,-0.3339691162109375,-0.1498870849609375
1789484377294654700,1.98465478515625,-1.033477783203125,-0.282745361328125,-0.009063720703125
1789484377304626400,1.99462646484375,-1.07861328125,-0.2545013427734375,-0.0566253662109375
1789484377314597600,2.00459765625,-1.078643798828125,-0.1926422119140625,-0.021575927734375
1789484377324569300,2.0145693359375,-0.9786224365234375,-0.240142822265625,-0.005615234375
1789484377334540500,2.02454052734375,-0.9500732421875,-0.329345703125,0.0377655029296875
1789484377344512500,2.034512451171875,-0.8406524658203125,-0.3535308837890625,0.0505218505859375
1789484377354483700,2.044483642578125,-0.7280426025390625,-0.2986297607421875,0.0001678466796875
1789484377364455400,2.054455322265625,-0.847808837890625,-0.232818603515625,-0.0068817138671875
1789484377374426600,2.064426513671875,-0.9946136474609375,-0.3091583251953125,0.0389862060546875
1789484377384398300,2.0743984375,-1.066986083984375,-0.3440704345703125,-0.0643310546875
1789484377394369500,2.08436962890625,-0.9893646240234375,-0.382080078125,-0.1568603515625
1789484377404341500,2.094341552734375,-0.9881439208984375,-0.269927978515625,-0.15411376953125
1789484377414312700,2.104312744140625,-0.8871307373046875,-0.217041015625,-0.0634765625
1789484377424284400,2.114284423828125,-0.690216064453125,-0.3511810302734375,-0.13751220703125
1789484377434255600,2.124255615234375,-0.772705078125,-0.27178955078125,0.0845947265625
1789484377444227600,2.1342275390625,-0.9990081787109375,-0.1646728515625,0.006805419921875
1789484377454198500,2.144198486328125,-1.0493621826171875,-0.110260009765625,0.054290771484375
1789484377464170500,2.15417041015625,-1.021209716796875,-0.183624267578125,0.186370849609375
1789484377474141700,2.1641416015625,-0.9250946044921875,-0.26361083984375,0.0845489501953125
1789484377484113400,2.174113525390625,-0.8904876708984375,-0.2440338134765625,0.1374969482421875
1789484377494084600,2.184084716796875,-0.9516754150390625,-0.1199798583984375,0.036834716796875
1789484377504056600,2.194056640625,-0.9947357177734375,-0.1758575439453125,0.031036376953125
1789484377514027500,2.204027587890625,-1.1329193115234375,-0.138214111328125,0.035491943359375
1789484377523999500,2.21399951171875,-1.030303955078125,-0.248687744140625,-0.0012969970703125
1789484377533970700,2.223970703125,-0.9071502685546875,-0.3141021728515625,0.0019989013671875
1789484377543942400,2.2339423828125,-0.90020751953125,-0.209228515625,-0.01806640625
1789484377553913600,2.24391357421875,-0.9003448486328125,-0.24365234375,0.0557708740234375
1789484377563885600,2.253885498046875,-0.8592681884765625,-0.3330535888671875,-0.0587615966796875
1789484377573856500,2.2638564453125,-0.9503631591796875,-0.3416748046875,-0.0143280029296875
1789484377583828500,2.273828369140625,-0.8504791259765625,-0.403289794921875,-0.1457977294921875
1789484377593799700,2.283799560546875,-1.117889404296875,-0.3162384033203125,0.009185791015625
1789484377603771400,2.293771484375,-1.0796966552734375,-0.4095306396484375,-0.0035400390625
1789484377613742600,2.30374267578125,-1.0202484130859375,-0.3572998046875,-0.0852508544921875
1789484377623714600,2.313714599609375,-0.963470458984375,-0.348358154296875,-0.0639801025390625
1789484377633685500,2.323685546875,-0.9918060302734375,-0.26556396484375,-0.108184814453125
1789484377643657500,2.333657470703125,-0.8016815185546875,-0.3916473388671875,0.06768798828125
1789484377653628700,2.343628662109375,-0.8861236572265625,-0.3459930419921875,-0.016510009765625
1789484377663600400,2.353600341796875,-0.89569091796875,-0.417022705078125,0.1276397705078125
1789484377673571600,2.363571533203125,-0.9770965576171875,-0.3730316162109375,0.230010986328125
1789484377683543600,2.37354345703125,-0.909912109375,-0.2849578857421875,0.247222900390625
1789484377693514500,2.383514404296875,-0.8127593994140625,-0.3234100341796875,0.22161865234375
1789484377703486500,2.393486572265625,-0.891387939453125,-0.296630859375,0.150238037109375
1789484377713457700,2.403457763671875,-0.9539031982421875,-0.2216796875,0.067901611328125
1789484377723429400,2.413429443359375,-0.93988037109375,-0.24969482421875,0.0653228759765625
1789484377733400600,2.423400634765625,-0.9780120849609375,-0.2391815185546875,0.0176849365234375
1789484377743372500,2.43337255859375,-1.02044677734375,-0.30010986328125,-0.0266571044921875
1789484377753343500,2.443343505859375,-0.9132843017578125,-0.2479095458984375,0.027618408203125
1789484377763315500,2.4533154296875,-0.8944244384765625,-0.2117462158203125,0.022125244140625
1789484377773286700,2.46328662109375,-0.883026123046875,-0.268890380859375,-0.0206756591796875
1789484377783258400,2.47325830078125,-0.9326934814453125,-0.285247802734375,0.0932159423828125
1789484377793229600,2.4832294921875,-1.1119384765625,-0.2070159912109375,-0.0701446533203125
1789484377803201500,2.493201416015625,-1.060699462890625,-0.3140106201171875,-0.140655517578125
1789484377813172500,2.50317236328125,-1.044830322265625,-0.27105712890625,0.07635498046875
1789484377823144400,2.51314453125,-0.8560638427734375,-0.50701904296875,-0.192169189453125
1789484377833115600,2.52311572265625,-0.828155517578125,-0.5211944580078125,-0.3072509765625
1789484377843087400,2.53308740234375,-1.045501708984375,-0.25897216796875,-0.1410980224609375
1789484377853059600,2.5430595703125,-0.9500885009765625,-0.43243408203125,0.0558319091796875
1789484377863030500,2.553030517578125,-0.817962646484375,-0.5824737548828125,-0.0089263916015625
1789484377873002500,2.56300244140625,-0.837249755859375,-0.4385223388671875,0.1316070556640625
1789484377882973400,2.572973388671875,-0.8592376708984375,-0.4310760498046875,0.0784454345703125
1789484377892945400,2.5829453125,-1.018524169921875,-0.350738525390625,0.3499603271484375
1789484377902916400,2.592916259765625,-1.108489990234375,-0.170166015625,0.0747528076171875
1789484377912888600,2.602888671875,-1.1513671875,-0.311248779296875,0.106292724609375
1789484377922859500,2.612859619140625,-1.171234130859375,-0.156768798828125,0.1814727783203125
1789484377932831500,2.62283154296875,-0.93597412109375,-0.1842193603515625,-0.091552734375
1789484377942802400,2.632802490234375,-0.68133544921875,-0.26214599609375,-0.0531005859375
1789484377952774400,2.6427744140625,-0.7628326416015625,-0.2566375732421875,0.00750732421875
1789484377962745300,2.652745361328125,-0.9267578125,-0.16668701171875,0.0324554443359375
1789484377972717600,2.662717529296875,-1.0439300537109375,-0.1792755126953125,-0.11126708984375
1789484377982688500,2.6726884765625,-1.0781402587890625,-0.099853515625,-0.166778564453125
1789484377992661000,2.682660888671875,-1.0307159423828125,-0.172943115234375,-0.196929931640625
1789484378002632000,2.6926318359375,-0.9469757080078125,-0.3067779541015625,-0.0866241455078125
1789484378012604000,2.70260400390625,-0.9880828857421875,-0.230987548828125,-0.1294097900390625
1789484378022576000,2.712576171875,-1.0576019287109375,-0.1910400390625,0.038238525390625
1789484378032547000,2.722547119140625,-1.1969757080078125,-0.1044921875,0.0586090087890625
1789484378042519000,2.73251904296875,-1.1082916259765625,-0.2491912841796875,0.0263671875
1789484378052490000,2.742489990234375,-0.958770751953125,-0.40740966796875,-0.0003662109375
1789484378062462200,2.752462158203125,-0.8925323486328125,-0.434112548828125,0.043121337890625
1789484378072433000,2.762432861328125,-0.772857666015625,-0.40045166015625,0.0451812744140625
1789484378082405000,2.772405029296875,-0.9224700927734375,-0.2649688720703125,0.0164031982421875
1789484378092376000,2.7823759765625,-0.9388427734375,-0.3041229248046875,-0.0201568603515625
1789484378102348000,2.79234814453125,-0.990081787109375,-0.3441009521484375,-0.023193359375
1789484378112319000,2.802319091796875,-0.9943389892578125,-0.2804107666015625,-0.1935577392578125
1789484378122291200,2.812291259765625,-1.050048828125,-0.11993408203125,-0.1475830078125
1789484378132262000,2.822261962890625,-1.048675537109375,-0.12689208984375,0.027435302734375
1789484378142234000,2.832234130859375,-1.01446533203125,-0.30712890625,-0.001800537109375
1789484378152205000,2.842205078125,-0.938079833984375,-0.239776611328125,-0.0248260498046875
1789484378162177000,2.852177001953125,-0.747650146484375,-0.3128662109375,-0.033233642578125
1789484378172149000,2.86214892578125,-0.7776336669921875,-0.31298828125,0.2332763671875
1789484378182120200,2.8721201171875,-1.015167236328125,-0.1880645751953125,0.1786346435546875
1789484378192092000,2.882091796875,-1.0861053466796875,-0.2184600830078125,0.1038970947265625
1789484378202063000,2.89206298828125,-0.970733642578125,-0.28717041015625,0.0732574462890625
1789484378212034800,2.902034912109375,-0.8680877685546875,-0.3813323974609375,0.1768341064453125
1789484378222006000,2.912006103515625,-0.94354248046875,-0.34893798828125,0.0852508544921875
1789484378231978000,2.92197802734375,-0.8682861328125,-0.4250030517578125,0.1364593505859375
1789484378241949200,2.93194921875,-1.0383453369140625,-0.2646331787109375,0.083526611328125
1789484378251921000,2.9419208984375,-0.9273529052734375,-0.4475555419921875,0.1143035888671875
1789484378261892000,2.95189208984375,-0.7999420166015625,-0.4559478759765625,0.197418212890625
1789484378271864000,2.961864013671875,-0.833648681640625,-0.46563720703125,0.2289886474609375
1789484378281836000,2.9718359375,-0.93328857421875,-0.2920074462890625,0.25042724609375
1789484378291807000,2.981806884765625,-0.84893798828125,-0.4300537109375,0.082550048828125
1789484378301779000,2.991779052734375,-1.1303253173828125,-0.1556396484375,-0.0680389404296875
1789484378311750000,3.00175,-1.2627410888671875,-0.178558349609375,0.0533447265625
1789484378321722000,3.01172216796875,-1.1176910400390625,-0.1829986572265625,0.1073455810546875
1789484378331693000,3.021693115234375,-0.8392181396484375,-0.1734619140625,-0.126922607421875
1789484378341665000,3.0316650390625,-0.567626953125,-0.3824920654296875,-0.00634765625
1789484378351636000,3.041635986328125,-0.8636932373046875,-0.0928955078125,0.1427764892578125
1789484378361608000,3.05160791015625,-1.0828704833984375,-0.0452117919921875,0.0455322265625
1789484378371580000,3.061579833984375,-1.125274658203125,-0.0984344482421875,0.0647735595703125
1789484378381551000,3.071551025390625,-1.0338592529296875,-0.17822265625,0.0128326416015625
1789484378391522800,3.081522705078125,-1.0342254638671875,-0.1419219970703125,-0.07275390625
1789484378401494000,3.091493896484375,-0.8963623046875,-0.22393798828125,-0.1189727783203125
1789484378411466000,3.101466064453125,-0.8973846435546875,-0.1615142822265625,-0.092681884765625
1789484378421437000,3.11143701171875,-1.08551025390625,-0.0940399169921875,0.0136260986328125
1789484378431409200,3.1214091796875,-1.157928466796875,-0.1705322265625,0.0251922607421875
1789484378441380000,3.131380126953125,-1.1002655029296875,-0.1878662109375,-0.208770751953125
1789484378451352000,3.14135205078125,-0.9893646240234375,-0.2122802734375,-0.1850128173828125
1789484378461324000,3.151323974609375,-0.9008941650390625,-0.296295166015625,-0.181884765625
1789484378471295200,3.161295166015625,-0.8155670166015625,-0.387847900390625,0.0507049560546875
1789484378481267000,3.171266845703125,-0.9090118408203125,-0.3022308349609375,-0.021759033203125
1789484378491238100,3.181238037109375,-0.9078826904296875,-0.281646728515625,-0.1862945556640625
1789484378501209900,3.1912099609375,-0.9797210693359375,-0.2299346923828125,-0.0316009521484375
1789484378511181000,3.20118115234375,-0.96978759765625,-0.3244476318359375,0.0057220458984375
1789484378521153000,3.211153076171875,-1.0219879150390625,-0.219207763671875,0.0052490234375
1789484378531124200,3.221124267578125,-1.0186004638671875,-0.209442138671875,-0.039825439453125
1789484378541096000,3.231095947265625,-0.92742919921875,-0.3314056396484375,-0.05413818359375
1789484378551068200,3.241068115234375,-0.8563690185546875,-0.342620849609375,-0.1050872802734375
1789484378561038800,3.251038818359375,-0.919677734375,-0.269317626953125,0.0350189208984375
1789484378571011000,3.261010986328125,-0.80718994140625,-0.4207000732421875,0.068328857421875
1789484378580982000,3.27098193359375,-0.9113616943359375,-0.2852020263671875,0.0250701904296875
1789484378590954000,3.2809541015625,-0.9741058349609375,-0.287200927734375,-0.01025390625
1789484378600925000,3.290925048828125,-0.941436767578125,-0.2843475341796875,-0.0088348388671875
1789484378610897200,3.300897216796875,-1.035186767578125,-0.2027130126953125,0.047760009765625
1789484378620868900,3.310868896484375,-1.080047607421875,-0.18017578125,0.0300140380859375
1789484378630840000,3.320840087890625,-1.023712158203125,-0.305206298828125,-0.072265625
1789484378640812000,3.33081201171875,-0.99224853515625,-0.2591400146484375,-0.017486572265625
1789484378650783000,3.340782958984375,-1.053375244140625,-0.2859344482421875,0.0975341796875
1789484378660755000,3.3507548828125,-0.8342437744140625,-0.4541473388671875,0.102264404296875
1789484378670726100,3.36072607421875,-0.78948974609375,-0.4455718994140625,-0.1001739501953125
1789484378680697900,3.37069775390625,-0.6599273681640625,-0.551300048828125,0.0888824462890625
1789484378690669000,3.3806689453125,-0.890380859375,-0.325042724609375,0.1749267578125
1789484378700641000,3.39064111328125,-1.03399658203125,-0.28643798828125,-0.0083160400390625
1789484378710613000,3.400613037109375,-1.1887359619140625,-0.2333831787109375,-0.033782958984375
1789484378720584000,3.410583984375,-1.20953369140625,-0.2366943359375,0.166595458984375
1789484378730556000,3.420555908203125,-1.1784515380859375,-0.1500091552734375,0.0579986572265625
1789484378740526800,3.43052685546875,-0.854400634765625,-0.3279571533203125,-0.02288818359375
1789484378750499000,3.4404990234375,-0.75091552734375,-0.322723388671875,0.02392578125
1789484378760471000,3.450470947265625,-0.7307891845703125,-0.3750457763671875,-0.04229736328125
1789484378770442000,3.46044189453125,-0.8172760009765625,-0.3218536376953125,0.0562591552734375
1789484378780414200,3.470414306640625,-0.9263763427734375,-0.169342041015625,-0.1723480224609375
1789484378790385000,3.480385009765625,-0.9591827392578125,-0.1728057861328125,-0.087066650390625
1789484378800357000,3.490357177734375,-1.0979156494140625,-0.1236724853515625,-0.2462921142578125
1789484378810328000,3.500328125,-1.044647216796875,-0.199066162109375,-0.251861572265625
1789484378820300000,3.510300048828125,-1.12982177734375,-0.1557769775390625,-0.2062530517578125
1789484378830272000,3.52027197265625,-1.088958740234375,-0.1237335205078125,-0.2097015380859375
1789484378840243200,3.5302431640625,-0.8735809326171875,-0.30902099609375,-0.188446044921875
1789484378850215000,3.54021484375,-0.6648712158203125,-0.386383056640625,-0.175537109375
1789484378860186000,3.55018603515625,-0.9043731689453125,-0.273406982421875,0.0174102783203125
1789484378870158000,3.560157958984375,-1.163421630859375,-0.2705078125,-0.012603759765625
1789484378880129000,3.57012890625,-1.2151641845703125,-0.2027130126953125,-0.0882415771484375
1789484378890101000,3.58010107421875,-1.18011474609375,-0.2010498046875,-0.2133636474609375
1789484378900073000,3.590072998046875,-0.8593292236328125,-0.4225311279296875,-0.2092132568359375
1789484378910044000,3.6000439453125,-0.73028564453125,-0.4413604736328125,0.003204345703125
1789484378920016100,3.61001611328125,-0.831939697265625,-0.2695770263671875,0.015869140625
1789484378929987000,3.619987060546875,-0.9691619873046875,-0.2299652099609375,-0.038970947265625
1789484378939959000,3.629958984375,-1.15069580078125,-0.1376800537109375,-0.1738739013671875
1789484378949930000,3.639929931640625,-1.060333251953125,-0.315582275390625,-0.2214202880859375
1789484378959902000,3.64990185546875,-1.006683349609375,-0.2615203857421875,-0.1118621826171875
1789484378969874000,3.6598740234375,-0.9299468994140625,-0.225830078125,-0.1476898193359375
1789484378979845000,3.66984521484375,-0.761962890625,-0.3443756103515625,-0.117340087890625
1789484378989816600,3.679816650390625,-0.739990234375,-0.3655548095703125,0.047393798828125
1789484378999787500,3.68978759765625,-0.89520263671875,-0.315582275390625,-0.01751708984375
1789484379009759700,3.699759765625,-0.990325927734375,-0.2617645263671875,0.1137542724609375
1789484379019731500,3.7097314453125,-1.03216552734375,-0.236419677734375,0.1554107666015625
1789484379029702700,3.71970263671875,-1.1443634033203125,-0.2304840087890625,0.253570556640625
1789484379039674600,3.729674560546875,-1.1862335205078125,-0.182037353515625,0.197509765625
1789484379049645600,3.7396455078125,-1.02093505859375,-0.198638916015625,0.0433197021484375
1789484379059617500,3.749617431640625,-0.873260498046875,-0.270721435546875,-0.03680419921875
1789484379069588700,3.759588623046875,-0.6662750244140625,-0.4614105224609375,0.154205322265625
1789484379079560400,3.769560546875,-0.6454315185546875,-0.5622100830078125,0.219635009765625
1789484379089532700,3.77953271484375,-0.750274658203125,-0.434906005859375,0.05413818359375
1789484379099503600,3.789503662109375,-0.7838897705078125,-0.317352294921875,-0.087066650390625
1789484379109475600,3.7994755859375,-1.053619384765625,-0.2325592041015625,-0.1266632080078125
1789484379119446500,3.809446533203125,-1.441131591796875,-0.117767333984375,0.092193603515625
1789484379129418500,3.81941845703125,-1.53094482421875,-0.014190673828125,-0.024993896484375
1789484379139390700,3.829390625,-1.0910186767578125,-0.2155609130859375,-0.2639007568359375
1789484379149361700,3.839361572265625,-0.6641998291015625,-0.51446533203125,-0.09722900390625
1789484379159333600,3.849333740234375,-0.6498565673828125,-0.403472900390625,0.153106689453125
1789484379169304600,3.8593046875,-0.724151611328125,-0.2996063232421875,0.1499481201171875
1789484379179276800,3.86927685546875,-0.92572021484375,-0.178741455078125,0.1173858642578125
1789484379189247500,3.87924755859375,-1.0687255859375,-0.10748291015625,-0.072906494140625
1789484379199219700,3.8892197265625,-1.03155517578125,-0.202362060546875,0.0678558349609375
1789484379209191700,3.899191650390625,-0.9629058837890625,-0.184234619140625,0.0130462646484375
1789484379219162600,3.90916259765625,-0.91064453125,-0.12249755859375,-0.086883544921875
1789484379229134600,3.919134521484375,-0.9135894775390625,-0.1823577880859375,-0.0797576904296875
1789484379239105800,3.929105712890625,-1.08673095703125,-0.1163330078125,-0.040771484375
1789484379249077500,3.939077392578125,-1.249298095703125,-0.1127471923828125,-0.1080780029296875
1789484379259049700,3.9490498046875,-1.08941650390625,-0.2344970703125,-0.074462890625
1789484379269020700,3.959020751953125,-0.99285888671875,-0.277130126953125,-0.0186309814453125
1789484379278992600,3.96899267578125,-0.8607635498046875,-0.4232330322265625,0.009490966796875
1789484379288963600,3.978963623046875,-0.826385498046875,-0.3889923095703125,0.028778076171875
1789484379298935600,3.988935546875,-1.01348876953125,-0.240814208984375,0.0100250244140625
1789484379308907500,3.998907470703125,-1.125732421875,-0.223968505859375,0.1411590576171875
1789484379318878700,4.008878662109375,-0.9671630859375,-0.38134765625,0.1299285888671875
1789484379328850700,4.0188505859375,-1.0203094482421875,-0.312469482421875,0.1399993896484375
1789484379338821600,4.028821533203125,-0.860137939453125,-0.3332366943359375,0.197540283203125
1789484379348793900,4.0387939453125,-0.8612060546875,-0.268402099609375,0.14501953125
1789484379358765600,4.048765625,-0.9221954345703125,-0.26751708984375,0.1577301025390625
1789484379368736800,4.05873681640625,-1.0883026123046875,-0.124664306640625,0.2012786865234375
1789484379378708500,4.06870849609375,-1.123077392578125,-0.1767578125,0.2503814697265625
1789484379388679700,4.0786796875,-0.8719024658203125,-0.2855987548828125,0.1710968017578125
1789484379398651600,4.088651611328125,-0.846038818359375,-0.2643280029296875,0.0921630859375
1789484379408623600,4.09862353515625,-0.766845703125,-0.3966827392578125,0.2037200927734375
1789484379418594600,4.108594482421875,-0.9402923583984375,-0.2817230224609375,0.2003326416015625
1789484379428566800,4.11856689453125,-1.0665435791015625,-0.2142181396484375,0.1334075927734375
1789484379438537500,4.128537353515625,-1.07122802734375,-0.3158416748046875,0.015228271484375
1789484379448509700,4.138509765625,-1.0742034912109375,-0.2004547119140625,-0.002838134765625
1789484379458481700,4.148481689453125,-1.02825927734375,-0.2724609375,-0.0320281982421875
1789484379468452600,4.15845263671875,-0.8897705078125,-0.2928619384765625,0.0264129638671875
1789484379478424600,4.168424560546875,-0.7469940185546875,-0.4953765869140625,0.0086669921875
1789484379488395800,4.178395751953125,-0.77740478515625,-0.4287567138671875,0.19940185546875
1789484379498367500,4.188367431640625,-0.889068603515625,-0.341339111328125,0.1279754638671875
1789484379508338700,4.198338623046875,-0.8541412353515625,-0.415863037109375,0.152618408203125
1789484379518310700,4.208310546875,-0.898406982421875,-0.40313720703125,-0.0027923583984375
1789484379528282600,4.21828271484375,-0.9662628173828125,-0.3784637451171875,0.026947021484375
1789484379538253600,4.228253662109375,-1.231201171875,-0.1304473876953125,-0.051025390625
1789484379548225500,4.2382255859375,-1.211639404296875,-0.1830902099609375,-0.1013336181640625
1789484379558196500,4.248196533203125,-0.9596405029296875,-0.389739990234375,-0.0056610107421875
1789484379568168700,4.258168701171875,-0.7808074951171875,-0.365814208984375,0.0201416015625
1789484379578140700,4.268140625,-0.706634521484375,-0.4326934814453125,0.009765625
1789484379588111600,4.278111572265625,-0.7052764892578125,-0.391754150390625,0.072509765625
1789484379598083800,4.288083740234375,-0.852386474609375,-0.246124267578125,-0.026153564453125
1789484379608054500,4.298054443359375,-0.9843292236328125,-0.243194580078125,-0.0220184326171875
1789484379618026800,4.30802685546875,-1.1735076904296875,-0.103485107421875,-0.1078643798828125
1789484379627998500,4.31799853515625,-1.141265869140625,-0.059844970703125,-0.164581298828125
1789484379637969700,4.3279697265625,-1.106414794921875,-0.0815887451171875,-0.19610595703125
1789484379647941600,4.337941650390625,-0.9967803955078125,-0.2755889892578125,-0.199432373046875
1789484379657912800,4.347912841796875,-0.95947265625,-0.27618408203125,-0.0038604736328125
1789484379667884500,4.357884521484375,-0.908447265625,-0.1950531005859375,-0.060760498046875
1789484379677856800,4.367856689453125,-0.9481048583984375,-0.3248138427734375,0.1505279541015625
1789484379687827700,4.37782763671875,-0.9503021240234375,-0.275634765625,0.079345703125
1789484379697799700,4.387799560546875,-1.1590576171875,-0.1397705078125,-0.0619659423828125
1789484379707770600,4.3977705078125,-0.8803558349609375,-0.3941192626953125,-0.1077423095703125
1789484379717742600,4.40774267578125,-0.7760772705078125,-0.4022369384765625,0.10906982421875
1789484379727714600,4.417714599609375,-0.7036590576171875,-0.382354736328125,0.1777801513671875
1789484379737685800,4.427685791015625,-1.0408172607421875,-0.1763153076171875,0.1996917724609375
1789484379747657500,4.437657470703125,-1.3812713623046875,0.04168701171875,0.031524658203125
1789484379757628700,4.447628662109375,-1.1853485107421875,-0.2280120849609375,-0.127777099609375
1789484379767600600,4.4576005859375,-0.730499267578125,-0.5368804931640625,-0.0716094970703125
1789484379777572600,4.467572509765625,-0.6549530029296875,-0.3629302978515625,-0.093231201171875
1789484379787543600,4.47754345703125,-0.714752197265625,-0.345550537109375,-0.0654296875
1789484379797515500,4.487515625,-0.9409637451171875,-0.1609039306640625,0.1080322265625
1789484379807486500,4.497486572265625,-0.991241455078125,-0.2777099609375,-0.048248291015625
1789484379817458700,4.507458740234375,-1.00457763671875,-0.36016845703125,-0.049072265625
1789484379827430700,4.5174306640625,-1.0746002197265625,-0.2509307861328125,-0.1626434326171875
1789484379837401600,4.527401611328125,-1.057464599609375,-0.1855316162109375,-0.0474395751953125
1789484379847373800,4.537373779296875,-0.9962921142578125,-0.3824462890625,0.08984375
1789484379857344500,4.547344482421875,-1.09906005859375,-0.26385498046875,0.0521240234375
1789484379867316700,4.557316650390625,-0.9304351806640625,-0.39910888671875,0.04327392578125
1789484379877288700,4.567288818359375,-0.7918243408203125,-0.3780975341796875,0.1317596435546875
1789484379887259600,4.577259765625,-0.8134307861328125,-0.377960205078125,0.146453857421875
1789484379897231600,4.587231689453125,-0.93389892578125,-0.3702850341796875,0.1933746337890625
1789484379907202800,4.597202880859375,-0.8805694580078125,-0.4397430419921875,0.24639892578125
1789484379917174500,4.607174560546875,-0.8460693359375,-0.28314208984375,0.042022705078125
1789484379927146800,4.617146728515625,-0.7652435302734375,-0.4305877685546875,-0.12713623046875
1789484379937117700,4.62711767578125,-0.9789276123046875,-0.3108673095703125,0.1869964599609375
1789484379947089700,4.637089599609375,-1.2221527099609375,-0.0639190673828125,0.0516815185546875
1789484379957060600,4.647060546875,-1.242584228515625,-0.198150634765625,-0.025299072265625
1789484379967032600,4.657032470703125,-0.9761199951171875,-0.3321533203125,-0.036773681640625
1789484379977004500,4.667004638671875,-0.9166259765625,-0.2366790771484375,-0.018890380859375
1789484379986975700,4.676975830078125,-0.8404693603515625,-0.2527923583984375,0.038299560546875
1789484379996947700,4.68694775390625,-0.8847808837890625,-0.185516357421875,-0.0742645263671875
1789484380006919000,4.6969189453125,-0.771514892578125,-0.273406982421875,-0.14288330078125
1789484380016891000,4.706890869140625,-0.8877410888671875,-0.2687225341796875,-0.0179901123046875
1789484380026862800,4.71686279296875,-0.99041748046875,-0.198974609375,-0.044036865234375
1789484380036833800,4.726833740234375,-1.140716552734375,0.02935791015625,-0.0496063232421875
1789484380046805800,4.7368056640625,-1.223876953125,0.034149169921875,-0.021575927734375
1789484380056776700,4.746776611328125,-1.13958740234375,-0.1437530517578125,-0.0334625244140625
1789484380066749000,4.7567490234375,-0.9750518798828125,-0.1704559326171875,-0.118133544921875
1789484380076721000,4.766720947265625,-0.8877410888671875,-0.1385498046875,-0.1267852783203125
1789484380086691800,4.77669189453125,-0.882080078125,-0.19207763671875,0.131805419921875
1789484380096664000,4.7866640625,-0.9296112060546875,-0.2920989990234375,0.030120849609375
1789484380106634800,4.796634765625,-0.9426116943359375,-0.3535614013671875,-0.146636962890625
1789484380116607000,4.80660693359375,-1.0402374267578125,-0.3148193359375,-0.139556884765625
1789484380126578700,4.81657861328125,-1.041778564453125,-0.3007049560546875,-0.2719879150390625
1789484380136550000,4.8265498046875,-0.98492431640625,-0.3187713623046875,-0.0403289794921875
1789484380146521900,4.83652197265625,-0.8787994384765625,-0.40423583984375,-0.07598876953125
1789484380156493000,4.8464931640625,-1.0087890625,-0.3462066650390625,-0.1538848876953125
1789484380166464800,4.85646484375,-1.0416717529296875,-0.31292724609375,-0.0800323486328125
1789484380176437000,4.86643701171875,-0.8716583251953125,-0.45123291015625,-0.0470428466796875
1789484380186407700,4.87640771484375,-0.95513916015625,-0.3508148193359375,0.222076416015625
1789484380196380000,4.8863798828125,-0.8670501708984375,-0.4102783203125,0.1955413818359375
1789484380206350800,4.896350830078125,-0.898834228515625,-0.30389404296875,0.2747039794921875
1789484380216322800,4.90632275390625,-0.9745941162109375,-0.1670684814453125,0.189208984375
1789484380226293800,4.916293701171875,-0.816680908203125,-0.3222198486328125,0.2679443359375
1789484380236266000,4.926265869140625,-0.8572540283203125,-0.32952880859375,0.3365936279296875
1789484380246238000,4.936238037109375,-1.0092315673828125,-0.211517333984375,0.2015228271484375
1789484380256209000,4.946208984375,-1.0254364013671875,-0.3209075927734375,0.1501922607421875
1789484380266181000,4.95618115234375,-1.018341064453125,-0.253631591796875,0.0879974365234375
1789484380276151800,4.96615185546875,-1.0332183837890625,-0.27960205078125,0.0637664794921875
1789484380286124000,4.9761240234375,-0.977630615234375,-0.292816162109375,-0.0359649658203125
1789484380296095700,4.986095703125,-0.849151611328125,-0.3981781005859375,-0.0720367431640625
1789484380306067000,4.99606689453125,-0.8239288330078125,-0.3597869873046875,-0.076812744140625
1789484380316039000,5.006038818359375,-0.7358856201171875,-0.4319305419921875,0.003936767578125
1789484380326010000,5.016010009765625,-0.9197998046875,-0.302459716796875,0.1104736328125
1789484380335981800,5.02598193359375,-1.0016021728515625,-0.216339111328125,0.024169921875
1789484380345954000,5.0359541015625,-0.97747802734375,-0.2734832763671875,0.0286865234375
1789484380355924700,5.0459248046875,-1.066680908203125,-0.18499755859375,-0.0785369873046875
1789484380365897000,5.05589697265625,-1.2254638671875,-0.242828369140625,-0.0326385498046875
1789484380375868000,5.065867919921875,-1.2180328369140625,-0.2882080078125,0.1281585693359375
1789484380385839900,5.07583984375,-0.87738037109375,-0.3856201171875,-0.0210723876953125
1789484380395811800,5.085811767578125,-0.4728546142578125,-0.6354217529296875,-0.0919647216796875
1789484380405783000,5.095782958984375,-0.544403076171875,-0.5816192626953125,0.018951416015625
1789484380415754800,5.105754638671875,-0.964752197265625,-0.304962158203125,0.1415557861328125
1789484380425726000,5.115725830078125,-1.150482177734375,-0.2712249755859375,-0.006439208984375
1789484380435698000,5.125697998046875,-1.0582275390625,-0.432159423828125,-0.0424346923828125
1789484380445668900,5.1356689453125,-1.0404052734375,-0.287017822265625,-0.1650390625
1789484380455640800,5.145640869140625,-0.9170379638671875,-0.2662506103515625,-0.112762451171875
1789484380465612800,5.15561279296875,-0.9079437255859375,-0.230712890625,-0.0329742431640625
1789484380475583700,5.165583740234375,-0.9092254638671875,-0.2934112548828125,-0.146636962890625
1789484380485556000,5.175555908203125,-0.822235107421875,-0.3199920654296875,0.0337371826171875
1789484380495527000,5.18552685546875,-0.7670440673828125,-0.3630828857421875,-0.11834716796875
1789484380505499000,5.195498779296875,-0.878021240234375,-0.2101898193359375,0.1622161865234375
1789484380515471000,5.20547119140625,-1.269012451171875,0.0424346923828125,0.020965576171875
1789484380525441800,5.21544189453125,-1.4162445068359375,0.037445068359375,-0.101959228515625
1789484380535414000,5.2254140625,-1.0458984375,-0.3251953125,-0.2662811279296875
1789484380545385000,5.235385009765625,-0.891448974609375,-0.4126434326171875,-0.048309326171875
1789484380555357000,5.24535693359375,-0.8170623779296875,-0.307403564453125,-0.0052642822265625
1789484380565328000,5.255327880859375,-1.0374603271484375,-0.07501220703125,0.00042724609375
1789484380575300000,5.265300048828125,-1.07415771484375,-0.1588897705078125,-0.126007080078125
1789484380585271800,5.275271728515625,-0.8856201171875,-0.4351348876953125,-0.21917724609375
1789484380595243000,5.285242919921875,-0.90826416015625,-0.320159912109375,-0.1381988525390625
1789484380605214700,5.295214599609375,-1.0567169189453125,-0.2801055908203125,-0.0559539794921875
1789484380615186000,5.30518603515625,-0.8902740478515625,-0.328369140625,-0.0518798828125
1789484380625158000,5.315157958984375,-0.83740234375,-0.468994140625,-0.111083984375
1789484380635129000,5.325129150390625,-1.08465576171875,-0.3701934814453125,-0.171966552734375
1789484380645100800,5.335100830078125,-0.8992462158203125,-0.46990966796875,-0.1195831298828125
1789484380655073000,5.345072998046875,-0.897003173828125,-0.33648681640625,-0.230712890625
1789484380665043700,5.355043701171875,-0.8314208984375,-0.4156951904296875,-0.02362060546875
1789484380675016000,5.365015869140625,-1.0000457763671875,-0.3423919677734375,-0.0065155029296875
1789484380684987000,5.37498681640625,-1.058441162109375,-0.1865692138671875,-0.1424560546875
1789484380694958800,5.384958740234375,-0.9991455078125,-0.1956787109375,-0.073272705078125
1789484380704930800,5.394930908203125,-1.0142669677734375,-0.2742919921875,-0.0312042236328125
1789484380714902000,5.404902099609375,-0.819580078125,-0.423858642578125,-0.0540618896484375
1789484380724873700,5.414873779296875,-0.6255340576171875,-0.5704803466796875,-0.0017852783203125
1789484380734845000,5.424844970703125,-0.7528076171875,-0.40020751953125,-0.0273590087890625
1789484380744817000,5.43481689453125,-1.0585174560546875,-0.1375732421875,-0.0232391357421875
1789484380754787800,5.444787841796875,-1.122161865234375,-0.0036773681640625,-0.00811767578125
1789484380764759800,5.454759765625,-1.0148162841796875,-0.140472412109375,-0.1351318359375
1789484380774731800,5.464731689453125,-1.0495758056640625,-0.2702484130859375,0.076690673828125
1789484380784702700,5.47470263671875,-1.0337066650390625,-0.233856201171875,-0.0121307373046875
1789484380794675000,5.484675048828125,-0.82379150390625,-0.332000732421875,-0.1026611328125
1789484380804646000,5.49464599609375,-0.6073150634765625,-0.5035858154296875,-0.2235260009765625
1789484380814617900,5.504617919921875,-0.8447418212890625,-0.3525390625,-0.2104644775390625
1789484380824588800,5.5145888671875,-1.023529052734375,-0.333343505859375,-0.106842041015625
1789484380834560800,5.524560791015625,-0.908905029296875,-0.50653076171875,-0.2623138427734375
1789484380844533000,5.534532958984375,-0.9907379150390625,-0.3287353515625,-0.3672332763671875
1789484380854504000,5.54450390625,-0.93353271484375,-0.30938720703125,-0.412994384765625
1789484380864476000,5.554475830078125,-0.8527069091796875,-0.2220611572265625,-0.2997894287109375
1789484380874446800,5.56444677734375,-0.980865478515625,-0.127227783203125,-0.2077178955078125
1789484380884419000,5.574419189453125,-1.0601959228515625,-0.2035064697265625,-0.069549560546875
1789484380894389800,5.5843896484375,-1.1075286865234375,-0.170318603515625,-0.0284576416015625
1789484380904362000,5.594362060546875,-0.8703155517578125,-0.29376220703125,-0.0136260986328125
1789484380914333700,5.604333740234375,-0.7366790771484375,-0.2767486572265625,0.0240936279296875
1789484380924305000,5.614304931640625,-0.854156494140625,-0.1995391845703125,0.158416748046875
1789484380934276900,5.62427685546875,-1.2462310791015625,0.0192718505859375,0.1642913818359375
1789484380944248000,5.634248046875,-1.3027801513671875,-0.043914794921875,-0.0018463134765625
1789484380954219800,5.6442197265625,-1.0852508544921875,-0.1798095703125,0.01629638671875
1789484380964191000,5.65419091796875,-0.8318634033203125,-0.305572509765625,0.0267791748046875
1789484380974163000,5.664162841796875,-0.9158935546875,-0.2650146484375,0.195037841796875
1789484380984135000,5.674135009765625,-1.0052032470703125,-0.1702880859375,0.1612548828125
1789484380994105600,5.684105712890625,-1.1360931396484375,-0.16680908203125,0.0976104736328125
1789484381004077300,5.694077392578125,-1.0030975341796875,-0.345947265625,0.210296630859375
1789484381014048500,5.704048583984375,-0.9719696044921875,-0.31451416015625,0.1001129150390625
1789484381024020500,5.7140205078125,-0.7858123779296875,-0.2832183837890625,0.0478668212890625
1789484381033991700,5.72399169921875,-0.7489013671875,-0.39520263671875,0.312957763671875
1789484381043963400,5.73396337890625,-0.9851531982421875,-0.231903076171875,0.4381561279296875
1789484381053935600,5.743935546875,-1.109100341796875,-0.0913848876953125,0.341644287109375
1789484381063906300,5.75390625,-1.0129852294921875,-0.2072906494140625,0.1714935302734375
1789484381073878500,5.76387841796875,-0.97027587890625,-0.1908416748046875,0.2247161865234375
1789484381083849500,5.773849365234375,-0.8785247802734375,-0.2682037353515625,0.22576904296875
1789484381093821400,5.783821533203125,-0.8649444580078125,-0.275604248046875,0.357635498046875
1789484381103792400,5.79379248046875,-0.858154296875,-0.3191680908203125,0.3246612548828125
1789484381113764600,5.8037646484375,-0.979095458984375,-0.2869110107421875,0.1468963623046875
1789484381123736600,5.813736572265625,-0.97808837890625,-0.313629150390625,0.1479949951171875
1789484381133707500,5.82370751953125,-0.863067626953125,-0.359619140625,0.1811065673828125
1789484381143679700,5.8336796875,-0.6910858154296875,-0.4534759521484375,-0.0006866455078125
1789484381153650400,5.843650390625,-0.78973388671875,-0.356231689453125,0.131500244140625
1789484381163622700,5.85362255859375,-1.014862060546875,-0.1874237060546875,0.1647491455078125
1789484381173593600,5.863593505859375,-1.34033203125,0.0524139404296875,-0.0039215087890625
1789484381183565600,5.873565673828125,-1.1655731201171875,-0.182098388671875,0.0663909912109375
1789484381193537500,5.88353759765625,-1.0370635986328125,-0.297332763671875,-0.00299072265625
1789484381203508700,5.8935087890625,-0.8267364501953125,-0.3820037841796875,-0.0689697265625
1789484381213480400,5.90348046875,-0.70660400390625,-0.3270416259765625,0.0092620849609375
1789484381223451600,5.91345166015625,-0.7960052490234375,-0.368865966796875,0.10137939453125
1789484381233423400,5.92342333984375,-1.0589141845703125,-0.29241943359375,0.071868896484375
1789484381243394600,5.93339453125,-0.959869384765625,-0.5077362060546875,-0.0674896240234375
1789484381253366500,5.943366455078125,-0.989532470703125,-0.291259765625,0.03338623046875
1789484381263338500,5.95333837890625,-0.9044952392578125,-0.2823333740234375,-0.0912017822265625
1789484381273309400,5.963309326171875,-0.84954833984375,-0.358734130859375,-0.08148193359375
1789484381283281700,5.97328173828125,-0.9626922607421875,-0.2555084228515625,-0.1447296142578125
1789484381293252400,5.98325244140625,-0.989532470703125,-0.2967071533203125,-0.077178955078125
1789484381303224600,5.993224609375,-1.0574493408203125,-0.2366790771484375,0.0147552490234375
1789484381313195500,6.003195556640625,-1.0004119873046875,-0.267669677734375,0.0305633544921875
1789484381323167500,6.01316748046875,-0.960174560546875,-0.3108062744140625,0.0124969482421875
1789484381333138400,6.023138427734375,-1.0574493408203125,-0.19512939453125,-0.0732574462890625
1789484381343110700,6.033110595703125,-1.089508056640625,-0.2210235595703125,-0.052642822265625
1789484381353082400,6.043082275390625,-0.959686279296875,-0.35028076171875,-0.1682891845703125
1789484381363053600,6.053053466796875,-0.8500823974609375,-0.31219482421875,-0.165771484375
1789484381373025500,6.063025634765625,-0.8495635986328125,-0.31585693359375,0.00299072265625
1789484381382996500,6.07299658203125,-0.987335205078125,-0.173248291015625,0.0869598388671875
1789484381392968400,6.082968505859375,-1.0380401611328125,-0.308380126953125,-0.0889892578125
1789484381402939600,6.092939697265625,-1.1666107177734375,-0.1417999267578125,0.0839080810546875
1789484381412911400,6.102911376953125,-1.147705078125,-0.179718017578125,0.11273193359375
1789484381422883600,6.112883544921875,-1.0605316162109375,-0.25933837890625,0.0531005859375
1789484381432854500,6.1228544921875,-1.010650634765625,-0.228118896484375,0.032318115234375
1789484381442826500,6.132826416015625,-0.9035797119140625,-0.332244873046875,0.0545196533203125
1789484381452797400,6.14279736328125,-0.85345458984375,-0.3548736572265625,0.004547119140625
1789484381462769400,6.152769287109375,-1.050079345703125,-0.2793731689453125,0.0433197021484375
1789484381472740400,6.162740234375,-1.0728759765625,-0.236297607421875,-0.01629638671875
1789484381482712600,6.172712646484375,-1.0186309814453125,-0.25518798828125,-0.0724029541015625
1789484381492684500,6.1826845703125,-0.9495086669921875,-0.306640625,-0.112518310546875
1789484381502655500,6.192655517578125,-0.907440185546875,-0.29345703125,-0.0151519775390625
1789484381512627700,6.202627685546875,-0.900482177734375,-0.3144683837890625,-0.0980224609375
1789484381522598400,6.212598388671875,-1.0509490966796875,-0.3084869384765625,-0.0334014892578125
1789484381532570600,6.222570556640625,-0.9687347412109375,-0.344451904296875,-0.0353240966796875
1789484381542541600,6.23254150390625,-0.6142730712890625,-0.5191497802734375,-0.1531829833984375
1789484381552513500,6.242513427734375,-0.5177764892578125,-0.468780517578125,0.0042266845703125
1789484381562485500,6.252485595703125,-0.7039947509765625,-0.2645111083984375,0.1450042724609375
1789484381572456700,6.262456787109375,-0.9639434814453125,-0.028564453125,0.1436614990234375
1789484381582428400,6.272428466796875,-1.2563629150390625,-0.0639801025390625,0.2295989990234375
1789484381592399600,6.282399658203125,-1.4292755126953125,-0.0294189453125,0.25537109375
1789484381602371300,6.292371337890625,-1.2192535400390625,-0.261749267578125,0.1673431396484375
1789484381612342500,6.302342529296875,-0.7008819580078125,-0.4586029052734375,0.05010986328125
1789484381622314500,6.312314453125,-0.5567169189453125,-0.4617462158203125,0.057861328125
1789484381632285700,6.32228564453125,-0.6867828369140625,-0.3895263671875,0.154083251953125
1789484381642257400,6.33225732421875,-0.984100341796875,-0.3235015869140625,0.2404937744140625
1789484381652229600,6.342229736328125,-0.8416748046875,-0.5458831787109375,0.10772705078125
1789484381662200600,6.35220068359375,-0.866973876953125,-0.4098358154296875,-0.2210693359375
1789484381672172500,6.362172607421875,-1.075653076171875,-0.171051025390625,-0.1775054931640625
1789484381682143500,6.3721435546875,-1.2343597412109375,-0.1207427978515625,0.0300140380859375
1789484381692115500,6.382115478515625,-1.0714569091796875,-0.3248748779296875,0.0537567138671875
1789484381702086400,6.39208642578125,-0.8273468017578125,-0.3997344970703125,-0.12957763671875
1789484381712058600,6.40205859375,-0.8064117431640625,-0.3277435302734375,0.0340423583984375
1789484381722030300,6.4120302734375,-0.797882080078125,-0.3287200927734375,0.1752471923828125
1789484381732001500,6.42200146484375,-1.083343505859375,-0.0727691650390625,0.1602630615234375
1789484381741973500,6.431973388671875,-1.1047515869140625,-0.137359619140625,0.0653533935546875
1789484381751944400,6.4419443359375,-1.1418914794921875,-0.0867767333984375,-0.077850341796875
1789484381761916400,6.45191650390625,-1.1232147216796875,-0.0881500244140625,-0.0172271728515625
1789484381771887600,6.4618876953125,-1.2733917236328125,0.127655029296875,-0.05352783203125
1789484381781859300,6.471859375,-1.07073974609375,-0.084442138671875,0.00543212890625
1789484381791831600,6.48183154296875,-0.8044586181640625,-0.402496337890625,-0.0774383544921875
1789484381801802500,6.491802490234375,-0.8720703125,-0.2853546142578125,-0.1608428955078125
1789484381811774500,6.5017744140625,-0.996978759765625,-0.2025604248046875,-0.030487060546875
1789484381821745400,6.511745361328125,-0.930999755859375,-0.2772674560546875,0.0102996826171875
1789484381831717400,6.52171728515625,-0.9546966552734375,-0.265869140625,-0.27691650390625
1789484381841688300,6.531688232421875,-0.95782470703125,-0.4183807373046875,-0.0505218505859375
1789484381851660500,6.54166064453125,-0.936431884765625,-0.424713134765625,0.0344085693359375
1789484381861632500,6.551632568359375,-0.878173828125,-0.3106536865234375,-0.0835418701171875
1789484381871603500,6.561603515625,-1.00762939453125,-0.2572784423828125,-0.020904541015625
1789484381881575700,6.57157568359375,-1.0425567626953125,-0.285400390625,-0.0412750244140625
1789484381891546400,6.58154638671875,-0.9639892578125,-0.3628082275390625,-0.052276611328125
1789484381901518600,6.5915185546875,-0.840179443359375,-0.3900299072265625,-0.0263824462890625
1789484381911489500,6.601489501953125,-0.81011962890625,-0.3509063720703125,0.1083831787109375
1789484381921461500,6.61146142578125,-0.96038818359375,-0.16473388671875,0.062957763671875
1789484381931433500,6.62143359375,-0.95849609375,-0.30224609375,-0.0702667236328125
1789484381941404700,6.63140478515625,-1.134307861328125,-0.2769622802734375,0.0246429443359375
1789484381951376400,6.64137646484375,-1.01214599609375,-0.2866058349609375,0.0541534423828125
1789484381961347600,6.65134765625,-0.699371337890625,-0.3431243896484375,0.010406494140625
1789484381971319600,6.661319580078125,-0.7138214111328125,-0.3298797607421875,0.142333984375
1789484381981290500,6.67129052734375,-0.9736785888671875,-0.217254638671875,0.264007568359375
1789484381991262700,6.6812626953125,-1.4255218505859375,-0.1048736572265625,0.54583740234375
1789484382001234700,6.691234619140625,-1.4730682373046875,-0.101226806640625,0.210052490234375
1789484382011205600,6.70120556640625,-1.1742401123046875,-0.276947021484375,0.1497344970703125
1789484382021177900,6.711177734375,-0.6454010009765625,-0.499542236328125,0.0363311767578125
1789484382031148800,6.721148681640625,-0.4681854248046875,-0.54205322265625,0.108245849609375
1789484382041120800,6.731120849609375,-0.5927734375,-0.4427490234375,0.19451904296875
1789484382051091700,6.741091796875,-0.8961639404296875,-0.4797821044921875,0.184356689453125
1789484382061063700,6.751063720703125,-1.194061279296875,-0.3108978271484375,0.0898895263671875
1789484382071036000,6.761035888671875,-1.2730255126953125,-0.1739654541015625,-0.045562744140625
1789484382081006800,6.7710068359375,-0.94744873046875,-0.3656768798828125,0.10467529296875
1789484382090978800,6.780978759765625,-0.7358856201171875,-0.406707763671875,-0.07574462890625
1789484382100949800,6.79094970703125,-0.6130828857421875,-0.4748687744140625,-0.0310821533203125
1789484382110922000,6.800921875,-0.71966552734375,-0.36199951171875,0.1312408447265625
1789484382120893700,6.810893798828125,-0.7900238037109375,-0.4333953857421875,0.1236572265625
1789484382130865000,6.820864990234375,-0.932281494140625,-0.4129638671875,0.0723114013671875
1789484382140836600,6.830836669921875,-1.119354248046875,-0.2536468505859375,-0.049591064453125
1789484382150807800,6.840807861328125,-1.14715576171875,-0.2344512939453125,-0.021514892578125
1789484382160779800,6.85077978515625,-1.177490234375,-0.2025909423828125,-0.2718658447265625
1789484382170751000,6.8607509765625,-1.2796630859375,-0.1514739990234375,-0.129058837890625
1789484382180722700,6.87072265625,-1.2820587158203125,-0.1828460693359375,-0.2098236083984375
1789484382190695000,6.88069482421875,-1.1248321533203125,-0.2783355712890625,-0.151031494140625
1789484382200665600,6.89066552734375,-0.7483978271484375,-0.4355926513671875,-0.0229034423828125
1789484382210637800,6.900637939453125,-0.552459716796875,-0.45465087890625,-0.0439300537109375
1789484382220608800,6.91060888671875,-0.6635894775390625,-0.3158416748046875,0.18743896484375
1789484382230580700,6.920580810546875,-1.032867431640625,-0.128753662109375,0.0243682861328125
1789484382240551700,6.9305517578125,-1.1861114501953125,-0.0143890380859375,0.084503173828125
1789484382250524000,6.94052392578125,-0.88922119140625,-0.31390380859375,-0.16094970703125
1789484382260495600,6.95049560546875,-0.6101226806640625,-0.36309814453125,0.0090484619140625
1789484382270466800,6.960466796875,-0.524444580078125,-0.396331787109375,-0.05572509765625
1789484382280438800,6.970438720703125,-0.658416748046875,-0.35943603515625,-0.058624267578125
1789484382290409700,6.98040966796875,-1.178497314453125,-0.0191497802734375,0.1724700927734375
1789484382300381700,6.990381591796875,-1.4317169189453125,-0.0097503662109375,-0.0416717529296875
1789484382310353000,7.000352783203125,-1.2890625,-0.183013916015625,-0.295806884765625
1789484382320324600,7.01032470703125,-1.051177978515625,-0.29498291015625,-0.222900390625
1789484382330296800,7.020296875,-0.89385986328125,-0.4268035888671875,-0.0328369140625
1789484382340267800,7.030267822265625,-0.818328857421875,-0.516754150390625,-0.1721038818359375
1789484382350239700,7.04023974609375,-0.8403778076171875,-0.5243377685546875,-0.2022552490234375
1789484382360210700,7.050210693359375,-0.787353515625,-0.5680999755859375,-0.2577056884765625
1789484382370182700,7.0601826171875,-0.73980712890625,-0.519287109375,-0.219757080078125
1789484382380153600,7.070153564453125,-0.7454833984375,-0.4476776123046875,-0.134765625
1789484382390125800,7.080125732421875,-1.02392578125,-0.1986541748046875,-0.0728607177734375
1789484382400097800,7.090097900390625,-1.2276763916015625,-0.09381103515625,-0.0144805908203125
1789484382410068700,7.10006884765625,-1.3023681640625,-0.0283050537109375,-0.1130523681640625
1789484382420041000,7.110041015625,-1.244140625,-0.127166748046875,0.04150390625
1789484382430011600,7.12001171875,-1.106842041015625,-0.214813232421875,-0.0634918212890625
1789484382439983900,7.12998388671875,-0.890045166015625,-0.3031005859375,-0.037200927734375
1789484382449954800,7.139954833984375,-0.913970947265625,-0.34716796875,0.0455780029296875
1789484382459926800,7.1499267578125,-0.9402618408203125,-0.3758544921875,0.0373382568359375
1789484382469898800,7.159898681640625,-0.970977783203125,-0.3278350830078125,0.0105133056640625
1789484382479870000,7.169869873046875,-0.8743743896484375,-0.435272216796875,-0.051025390625
1789484382489841700,7.179841552734375,-0.743804931640625,-0.491424560546875,-0.158843994140625
1789484382499812900,7.189812744140625,-0.663299560546875,-0.5148773193359375,-0.19769287109375
1789484382509784600,7.19978466796875,-0.7036895751953125,-0.44683837890625,-0.2215118408203125
1789484382519755800,7.209755859375,-0.8883056640625,-0.3243865966796875,-0.158782958984375
1789484382529727700,7.219727783203125,-1.0719757080078125,-0.23822021484375,-0.190093994140625
1789484382539699700,7.22969970703125,-1.1648101806640625,-0.2056121826171875,-0.0850982666015625
1789484382549670700,7.239670654296875,-1.16485595703125,-0.1515350341796875,-0.079376220703125
1789484382559643000,7.249642822265625,-0.94012451171875,-0.236785888671875,0.0645904541015625
1789484382569613600,7.259613525390625,-0.822967529296875,-0.1654815673828125,0.020721435546875
1789484382579585800,7.269585693359375,-0.7744598388671875,-0.0621490478515625,-0.000457763671875
1789484382589556700,7.279556640625,-0.9434814453125,-0.1295166015625,-0.0994415283203125
1789484382599528700,7.28952880859375,-0.9554443359375,-0.1806793212890625,0.074066162109375
1789484382609500700,7.299500732421875,-1.0391693115234375,-0.162841796875,0.0225372314453125
1789484382619472000,7.309471923828125,-0.985260009765625,-0.1377410888671875,0.183929443359375
1789484382629443600,7.319443603515625,-1.23419189453125,-0.03961181640625,0.10107421875
1789484382639414800,7.329414794921875,-1.2503509521484375,-0.1546783447265625,0.0775299072265625
1789484382649386800,7.33938671875,-1.264739990234375,-0.2035980224609375,0.0337371826171875
1789484382659357700,7.349357666015625,-1.0598907470703125,-0.31781005859375,0.0966949462890625
1789484382669329700,7.35932958984375,-0.9008331298828125,-0.3236541748046875,0.0889434814453125
1789484382679301600,7.369301513671875,-1.005828857421875,-0.2818145751953125,-0.026214599609375
1789484382689272600,7.3792724609375,-1.1871490478515625,-0.174530029296875,0.13519287109375
1789484382699244800,7.389244873046875,-1.24066162109375,-0.2483673095703125,-0.00225830078125
1789484382709215700,7.3992158203125,-0.811279296875,-0.5006866455078125,0.032012939453125
1789484382719187700,7.409187744140625,-0.3725738525390625,-0.654144287109375,-0.035064697265625
1789484382729158700,7.41915869140625,-0.3121490478515625,-0.6267547607421875,-0.014739990234375
1789484382739130600,7.429130615234375,-0.6821746826171875,-0.462432861328125,-0.06451416015625
1789484382749101600,7.4391015625,-1.19195556640625,-0.2181854248046875,-0.0720977783203125
1789484382759073800,7.44907373046875,-1.5155029296875,-0.14495849609375,-0.0188446044921875
1789484382769045800,7.459045654296875,-1.2692108154296875,-0.3453369140625,0.1086578369140625
1789484382779016700,7.4690166015625,-0.8355712890625,-0.441162109375,0.1486663818359375
1789484382788989000,7.478989013671875,-0.5136871337890625,-0.3815460205078125,0.08319091796875
1789484382798959600,7.488959716796875,-0.5072784423828125,-0.2543487548828125,0.26739501953125
1789484382808931800,7.498931884765625,-0.728759765625,-0.22784423828125,0.1821136474609375
1789484382818902800,7.50890283203125,-0.9915313720703125,-0.350982666015625,0.181549072265625
1789484382828874800,7.518874755859375,-1.2025604248046875,-0.331817626953125,0.20428466796875
1789484382838846700,7.5288466796875,-0.97125244140625,-0.4545440673828125,0.110626220703125
1789484382848818000,7.53881787109375,-0.761444091796875,-0.4813385009765625,0.02435302734375
1789484382858789600,7.54878955078125,-0.8977508544921875,-0.3844451904296875,-0.0945587158203125
1789484382868760800,7.5587607421875,-0.985076904296875,-0.1990814208984375,-0.06878662109375
1789484382878732800,7.56873291015625,-0.959197998046875,-0.1898193359375,-0.11444091796875
1789484382888703700,7.578703857421875,-0.9393768310546875,-0.260711669921875,0.085784912109375
1789484382898675700,7.58867578125,-1.02099609375,-0.158599853515625,-0.0210113525390625
1789484382908647000,7.59864697265625,-1.1576995849609375,-0.033355712890625,-0.117584228515625
1789484382918618600,7.60861865234375,-1.0577392578125,-0.1097259521484375,0.0275421142578125
1789484382928590800,7.6185908203125,-0.9551544189453125,-0.2668304443359375,-0.0124053955078125
1789484382938561800,7.628561767578125,-0.99444580078125,-0.2503814697265625,-0.168701171875
1789484382948533800,7.63853369140625,-0.93328857421875,-0.4062042236328125,-0.135040283203125
1789484382958504700,7.648504638671875,-0.8320465087890625,-0.61083984375,0.019622802734375
1789484382968476700,7.6584765625,-0.9564056396484375,-0.536865234375,-0.115936279296875
1789484382978447600,7.668447509765625,-1.000701904296875,-0.3359375,-0.0502777099609375
1789484382988419800,7.678419921875,-1.002532958984375,-0.3161773681640625,-0.0514373779296875
1789484382998391800,7.688391845703125,-1.0663604736328125,-0.279510498046875,-0.15472412109375
1789484383008362800,7.69836279296875,-0.978118896484375,-0.2955322265625,-0.0594482421875
1789484383018335000,7.7083349609375,-0.9705657958984375,-0.2461090087890625,0.1881561279296875
1789484383028305700,7.7183056640625,-0.975677490234375,-0.2291717529296875,0.0262451171875
1789484383038278000,7.72827783203125,-0.9405059814453125,-0.221282958984375,-0.047393798828125
1789484383048248800,7.738248779296875,-0.8651275634765625,-0.2508392333984375,-0.0271759033203125
1789484383058220800,7.748220703125,-0.8384857177734375,-0.352508544921875,0.01507568359375
1789484383068191700,7.758191650390625,-0.8287200927734375,-0.281341552734375,-0.0194854736328125
1789484383078164000,7.7681640625,-1.086181640625,-0.1676177978515625,-0.024932861328125
1789484383088135700,7.7781357421875,-1.0978851318359375,-0.2357177734375,0.020111083984375
1789484383098107000,7.78810693359375,-1.0364227294921875,-0.213134765625,0.0747833251953125
1789484383108078600,7.79807861328125,-0.8668975830078125,-0.313385009765625,0.0395660400390625
1789484383118049800,7.8080498046875,-0.883941650390625,-0.225738525390625,0.154083251953125
1789484383128021800,7.818021728515625,-0.8875885009765625,-0.276580810546875,0.016876220703125
1789484383137993000,7.827992919921875,-1.0146942138671875,-0.3104705810546875,0.122344970703125
1789484383147964700,7.837964599609375,-1.0009613037109375,-0.431396484375,0.0319061279296875
1789484383157935900,7.847935791015625,-1.0304107666015625,-0.336029052734375,-0.007476806640625
1789484383167907800,7.857907958984375,-1.0001678466796875,-0.376922607421875,-0.0533447265625
1789484383177879800,7.8678798828125,-0.9061431884765625,-0.2561187744140625,0.0908660888671875
1789484383187850800,7.877850830078125,-0.852081298828125,-0.30633544921875,0.0808868408203125
1789484383197822700,7.88782275390625,-0.9116668701171875,-0.301025390625,0.088653564453125
1789484383207793700,7.897793701171875,-0.873931884765625,-0.351043701171875,-0.081207275390625
1789484383217766000,7.907765869140625,-0.935333251953125,-0.3469696044921875,-0.15643310546875
1789484383227736800,7.91773681640625,-1.057708740234375,-0.299652099609375,-0.1140594482421875
1789484383237708800,7.927708740234375,-1.1875,-0.19244384765625,-0.093353271484375
1789484383247679700,7.9376796875,-0.9663543701171875,-0.355865478515625,-0.136138916015625
1789484383257651700,7.947651611328125,-0.7890472412109375,-0.4033355712890625,-0.0460052490234375
1789484383267624000,7.9576240234375,-0.814300537109375,-0.3576812744140625,0.0115966796875
1789484383277595000,7.967594970703125,-0.7274627685546875,-0.3804931640625,-0.0009002685546875
1789484383287566800,7.97756689453125,-0.816162109375,-0.29974365234375,0.0057373046875
1789484383297537800,7.987537841796875,-0.9276123046875,-0.3136749267578125,-0.0283355712890625
1789484383307510000,7.997510009765625,-1.037445068359375,-0.2342376708984375,-0.0676727294921875
1789484383317480700,8.007480712890626,-1.2307586669921875,-0.0022125244140625,0.0669403076171875
1789484383327453000,8.017452880859375,-1.041259765625,-0.3100738525390625,0.0447998046875
1789484383337424000,8.027423828125,-0.9064178466796875,-0.384368896484375,-0.0019378662109375
1789484383347395800,8.037395751953126,-0.769317626953125,-0.3665924072265625,0.10455322265625
1789484383357367800,8.047367919921875,-0.838470458984375,-0.229888916015625,-0.079010009765625
1789484383367339000,8.057339111328124,-0.918121337890625,-0.2389068603515625,-0.005889892578125
1789484383377310700,8.067310791015625,-1.0701751708984375,-0.2413330078125,0.0366973876953125
1789484383387282000,8.077281982421875,-1.1391448974609375,-0.251129150390625,-0.0760955810546875
1789484383397253600,8.087253662109376,-1.0349273681640625,-0.328582763671875,-0.086517333984375
1789484383407224800,8.097224853515625,-0.8641204833984375,-0.3629302978515625,0.0505523681640625
1789484383417196800,8.10719677734375,-0.979522705078125,-0.195892333984375,0.157562255859375
1789484383427168800,8.117168701171876,-0.9965667724609375,-0.2115020751953125,0.05450439453125
1789484383437139700,8.1271396484375,-1.0107269287109375,-0.2921295166015625,0.0891265869140625
1789484383447112000,8.13711181640625,-1.1062469482421875,-0.20947265625,-0.0374908447265625
1789484383457082600,8.14708251953125,-0.9587554931640625,-0.288421630859375,0.1058502197265625
1789484383467054800,8.157054931640625,-0.971954345703125,-0.19354248046875,0.1579437255859375
1789484383477025800,8.16702587890625,-0.8460845947265625,-0.213043212890625,0.21893310546875
1789484383486997800,8.176997802734375,-0.8669891357421875,-0.2408447265625,0.001129150390625
1789484383496968700,8.18696875,-1.0676422119140625,-0.167724609375,0.0778045654296875
1789484383506941000,8.19694091796875,-1.0279388427734375,-0.2066497802734375,0.012908935546875
1789484383516912600,8.20691259765625,-0.927459716796875,-0.344390869140625,-0.0006103515625
1789484383526883800,8.2168837890625,-0.8495025634765625,-0.360382080078125,0.027191162109375
1789484383536855800,8.226855712890625,-0.9645538330078125,-0.305206298828125,-0.0749664306640625
1789484383546826800,8.23682666015625,-1.0210418701171875,-0.3283538818359375,0.00054931640625
1789484383556798700,8.246798828125,-1.0887908935546875,-0.25714111328125,-0.2385406494140625
1789484383566770000,8.25677001953125,-1.088348388671875,-0.3052978515625,-0.171722412109375
1789484383576741600,8.26674169921875,-0.9671478271484375,-0.436859130859375,-0.1790924072265625
1789484383586712800,8.276712890625,-0.8990478515625,-0.4282684326171875,-0.21441650390625
1789484383596684800,8.286684814453125,-0.89703369140625,-0.2790985107421875,-0.1089935302734375
1789484383606656800,8.29665673828125,-0.7711639404296875,-0.322998046875,-0.1521148681640625
1789484383616627700,8.306627685546875,-0.738800048828125,-0.3656463623046875,-0.158447265625
1789484383626599700,8.316599609375,-0.980621337890625,-0.27838134765625,-0.204376220703125
1789484383636570600,8.326570556640625,-1.074493408203125,-0.29931640625,-0.079315185546875
1789484383646542800,8.33654296875,-1.176788330078125,-0.2526702880859375,-0.0943756103515625
1789484383656513800,8.346513671875,-0.9571685791015625,-0.31439208984375,-0.02960205078125
1789484383666485800,8.35648583984375,-0.783447265625,-0.392913818359375,-0.0152435302734375
1789484383676456700,8.366456787109374,-0.870361328125,-0.23712158203125,-0.0902862548828125
1789484383686428700,8.3764287109375,-0.78887939453125,-0.315643310546875,-0.0673828125
1789484383696401000,8.38640087890625,-0.8451385498046875,-0.2807464599609375,-0.080352783203125
1789484383706371800,8.396371826171874,-0.8774261474609375,-0.3765716552734375,-0.0754241943359375
1789484383716343800,8.40634375,-1.0977783203125,-0.271026611328125,-0.074005126953125
1789484383726314800,8.416314697265625,-1.1590576171875,-0.1830902099609375,-0.003082275390625
1789484383736287000,8.426286865234376,-0.9302978515625,-0.3347625732421875,0.0561370849609375
1789484383746257700,8.436257568359375,-0.6292724609375,-0.4840240478515625,0.0152435302734375
1789484383756230000,8.44622998046875,-0.60589599609375,-0.4713134765625,0.0364837646484375
1789484383766200800,8.456200927734375,-0.9108734130859375,-0.26483154296875,0.005401611328125
1789484383776172800,8.4661728515625,-1.018524169921875,-0.258941650390625,0.0509185791015625
1789484383786144800,8.476144775390624,-1.07550048828125,-0.3389739990234375,-0.008880615234375
1789484383796116000,8.486115966796875,-1.2209014892578125,-0.250152587890625,-0.0637359619140625
1789484383806087700,8.496087646484375,-1.120849609375,-0.2227325439453125,-0.0150909423828125
1789484383816059000,8.506058837890626,-0.8995208740234375,-0.3107147216796875,-0.1139984130859375
1789484383826030800,8.51603076171875,-0.963043212890625,-0.205322265625,0.114471435546875
1789484383836001800,8.526001708984374,-0.9113922119140625,-0.3067626953125,0.032989501953125
1789484383845973800,8.535973876953125,-0.8978271484375,-0.3004302978515625,0.1155242919921875
1789484383855945700,8.54594580078125,-0.9740142822265625,-0.190887451171875,-0.0664825439453125
1789484383865916700,8.555916748046876,-1.045989990234375,-0.157257080078125,0.1395721435546875
1789484383875889000,8.565888916015625,-1.0866546630859375,-0.0839080810546875,0.098419189453125
1789484383885859800,8.57585986328125,-0.893890380859375,-0.2871856689453125,-0.041015625
1789484383895831800,8.585831787109376,-0.8842620849609375,-0.2120208740234375,0.056884765625
1789484383905802800,8.595802734375,-0.9530792236328125,-0.12139892578125,-0.0327301025390625
1789484383915774700,8.605774658203124,-1.0574951171875,-0.1293487548828125,0.099884033203125
1789484383925745700,8.61574560546875,-0.9697418212890625,-0.28900146484375,0.0343780517578125
1789484383935718000,8.6257177734375,-0.919677734375,-0.3069305419921875,0.217437744140625
1789484383945689600,8.635689697265626,-1.0016326904296875,-0.257110595703125,0.0246429443359375
1789484383955660800,8.645660888671875,-0.85205078125,-0.379638671875,0.224517822265625
1789484383965632800,8.6556328125,-0.851593017578125,-0.26031494140625,0.150054931640625
1789484383975603700,8.665603759765625,-0.929840087890625,-0.3659210205078125,0.2385406494140625
1789484383985575700,8.67557568359375,-1.0465545654296875,-0.4960479736328125,0.2053985595703125
1789484383995547000,8.685546875,-1.059967041015625,-0.419830322265625,0.1544189453125
1789484384005518600,8.6955185546875,-0.974609375,-0.4448089599609375,0.2236785888671875
1789484384015489800,8.70548974609375,-0.8814544677734375,-0.536712646484375,0.1034393310546875
1789484384025461800,8.715461669921876,-0.8389434814453125,-0.5540924072265625,-0.018280029296875
1789484384035433700,8.725433837890625,-0.90985107421875,-0.4916534423828125,-0.1692657470703125
1789484384045404700,8.73540478515625,-0.962005615234375,-0.4074249267578125,-0.1224212646484375
1789484384055377000,8.745376953125,-1.11187744140625,-0.2697906494140625,-0.212310791015625
1789484384065347600,8.75534765625,-0.874114990234375,-0.37933349609375,-0.202117919921875
1789484384075319800,8.76531982421875,-0.7826080322265625,-0.4430389404296875,-0.1083526611328125
1789484384085290800,8.775290771484375,-0.726654052734375,-0.34039306640625,-0.21929931640625
1789484384095262700,8.7852626953125,-0.725982666015625,-0.2856903076171875,-0.047210693359375
1789484384105235000,8.79523486328125,-0.77825927734375,-0.147674560546875,-0.0985870361328125
1789484384115206000,8.805205810546875,-1.020721435546875,-0.1245880126953125,-0.0577392578125
1789484384125177900,8.815177734375,-1.1488189697265625,-0.1558074951171875,0.071014404296875
1789484384135148800,8.825148681640625,-1.1973419189453125,-0.1713409423828125,0.1816864013671875
1789484384145120800,8.835120849609375,-1.0740966796875,-0.176055908203125,0.1141357421875
1789484384155091700,8.845091796875,-1.015289306640625,-0.131591796875,0.0738983154296875
1789484384165064000,8.85506396484375,-0.8158721923828125,-0.2747039794921875,0.1171417236328125
1789484384175035600,8.86503564453125,-0.71661376953125,-0.364898681640625,-0.021881103515625
1789484384185006800,8.8750068359375,-0.848907470703125,-0.2553253173828125,-0.0298919677734375
1789484384194978800,8.884978759765625,-0.928009033203125,-0.2830810546875,-0.058197021484375
1789484384204949800,8.89494970703125,-1.01861572265625,-0.3538360595703125,-0.0388946533203125
1789484384214921700,8.904921630859375,-0.98773193359375,-0.338409423828125,-0.0172119140625
1789484384224893000,8.914892822265625,-0.941986083984375,-0.32696533203125,-0.1456146240234375
1789484384234864600,8.92486474609375,-0.92547607421875,-0.3361968994140625,0.0233001708984375
1789484384244836900,8.9348369140625,-0.9891815185546875,-0.28167724609375,-0.055816650390625
1789484384254807800,8.944807861328124,-1.0580291748046875,-0.297210693359375,-0.0753631591796875
1789484384264779800,8.95477978515625,-1.0836029052734375,-0.367523193359375,-0.11309814453125
1789484384274750700,8.964750732421875,-0.937835693359375,-0.373931884765625,0.06622314453125
1789484384284722700,8.97472265625,-0.8444671630859375,-0.3690338134765625,0.063385009765625
1789484384294693600,8.984693603515625,-0.88726806640625,-0.2574005126953125,0.1552734375
1789484384304665900,8.994665771484375,-0.8554534912109375,-0.2261962890625,0.1240081787109375
1789484384314636800,9.00463671875,-0.8795623779296875,-0.273040771484375,0.072906494140625
1789484384324608800,9.01460888671875,-0.7979278564453125,-0.4172210693359375,0.11907958984375
1789484384334580700,9.024580810546874,-0.985931396484375,-0.25201416015625,0.1610260009765625
1789484384344551700,9.0345517578125,-1.0278778076171875,-0.2235870361328125,0.2154083251953125
1789484384354523600,9.044523681640625,-0.990234375,-0.2648162841796875,0.1048736572265625
1789484384364494800,9.054494873046876,-1.0491180419921875,-0.2786865234375,-0.00927734375
1789484384374466600,9.064466552734375,-1.1449737548828125,-0.2524566650390625,-0.007232666015625
1789484384384437800,9.074437744140624,-1.1810302734375,-0.1222686767578125,0.010711669921875
1789484384394409700,9.08440966796875,-0.9928741455078125,-0.2530364990234375,0.0277252197265625
1789484384404381700,9.094381591796875,-0.811737060546875,-0.4196014404296875,0.024566650390625
1789484384414352600,9.1043525390625,-0.9476318359375,-0.273712158203125,-0.109100341796875
1789484384424324900,9.114324951171875,-0.987274169921875,-0.2259521484375,-0.1318511962890625
1789484384434295600,9.124295654296875,-0.930938720703125,-0.3621673583984375,-0.09967041015625
1789484384444267800,9.134267822265626,-0.922637939453125,-0.3572998046875,-0.183135986328125
1789484384454238700,9.14423876953125,-1.0031585693359375,-0.3058624267578125,-0.1269683837890625
1789484384464210700,9.154210693359374,-0.9051361083984375,-0.3551025390625,-0.0589752197265625
1789484384474183000,9.164182861328126,-0.9226531982421875,-0.2993621826171875,-0.084991455078125
1789484384484153900,9.17415380859375,-0.8754730224609375,-0.28680419921875,-0.0830230712890625
1789484384494125800,9.184125732421874,-0.8563232421875,-0.2881317138671875,0.05718994140625
1789484384504096800,9.1940966796875,-0.8194580078125,-0.321868896484375,0.0754852294921875
1789484384514068700,9.20406884765625,-0.9078826904296875,-0.3059539794921875,0.0399017333984375
1789484384524039700,9.214039794921876,-0.92254638671875,-0.2454376220703125,0.1565399169921875
1789484384534012000,9.224011962890625,-0.82110595703125,-0.3785552978515625,0.1333465576171875
1789484384543983600,9.233983642578124,-0.8198394775390625,-0.2879791259765625,0.0535125732421875
1789484384553954800,9.243954833984375,-0.90380859375,-0.248626708984375,0.0161285400390625
1789484384563926800,9.2539267578125,-0.9921112060546875,-0.2388458251953125,0.1050262451171875
1789484384573897700,9.263897705078126,-1.128662109375,-0.1783905029296875,-0.0718994140625
1789484384583869700,9.27386962890625,-0.9723968505859375,-0.193206787109375,0.0584869384765625
1789484384593841000,9.2838408203125,-0.8529510498046875,-0.29144287109375,-0.04864501953125
1789484384603812600,9.2938125,-1.018341064453125,-0.2532196044921875,-0.1278839111328125
1789484384613784800,9.303784912109375,-1.1478424072265625,-0.1895904541015625,-0.066925048828125
1789484384623755800,9.313755859375,-1.2091217041015625,-0.2144622802734375,-0.01824951171875
1789484384633727700,9.323727783203125,-1.0831146240234375,-0.3957061767578125,-0.0123138427734375
1789484384643698700,9.33369873046875,-0.9764251708984375,-0.4361572265625,0.0269622802734375
1789484384653671000,9.3436708984375,-0.9467315673828125,-0.381683349609375,-0.181793212890625
1789484384663641600,9.3536416015625,-1.07647705078125,-0.3600921630859375,-0.1013031005859375
1789484384673613800,9.36361376953125,-0.9799957275390625,-0.4459228515625,0.0143585205078125
1789484384683585500,9.37358544921875,-0.9337921142578125,-0.568511962890625,-0.091339111328125
1789484384693556700,9.383556640625,-0.9055633544921875,-0.4703369140625,-0.069793701171875
1789484384703528700,9.39352880859375,-0.942047119140625,-0.3083343505859375,-0.0283203125
1789484384713500000,9.4035,-0.91119384765625,-0.3267669677734375,-0.0618743896484375
1789484384723471600,9.4134716796875,-0.9144744873046875,-0.4046783447265625,-0.01495361328125
1789484384733442800,9.42344287109375,-1.1565399169921875,-0.2189178466796875,-0.1477813720703125
1789484384743414500,9.43341455078125,-1.0124053955078125,-0.2503662109375,-0.0462799072265625
1789484384753386800,9.44338671875,-0.950927734375,-0.17926025390625,-0.1681365966796875
1789484384763357700,9.453357666015625,-0.8600616455078125,-0.2528076171875,-0.177398681640625
1789484384773329700,9.46332958984375,-0.8970489501953125,-0.3072357177734375,-0.11175537109375
1789484384783300600,9.473300537109376,-0.9917144775390625,-0.1700286865234375,-0.036651611328125
1789484384793272800,9.48327294921875,-0.9515228271484375,-0.152252197265625,0.079315185546875
1789484384803243500,9.493243408203124,-0.780364990234375,-0.26824951171875,0.043731689453125
1789484384813215700,9.5032158203125,-0.7662506103515625,-0.3375396728515625,0.0709228515625
1789484384823187700,9.513187744140625,-0.8545989990234375,-0.308990478515625,0.17266845703125
1789484384833158700,9.52315869140625,-0.9647979736328125,-0.2769012451171875,0.2219085693359375
1789484384843131000,9.533130859375,-1.0312652587890625,-0.25408935546875,0.02490234375
1789484384853101800,9.543101806640625,-1.126922607421875,-0.226806640625,-0.0035400390625
1789484384863073800,9.55307373046875,-1.1237335205078125,-0.3133544921875,0.0225372314453125
1789484384873044700,9.563044677734375,-1.040863037109375,-0.3186798095703125,0.113189697265625
1789484384883016700,9.5730166015625,-0.8615570068359375,-0.3656158447265625,-0.0384674072265625
1789484384892988700,9.58298876953125,-0.7207489013671875,-0.3420562744140625,-0.0358123779296875
1789484384902959900,9.5929599609375,-0.6129608154296875,-0.3332061767578125,-0.108184814453125
1789484384912931600,9.602931640625,-0.8011474609375,-0.2644500732421875,-0.0196685791015625
1789484384922902800,9.61290283203125,-1.1138153076171875,-0.2016754150390625,-0.0117340087890625
1789484384932874800,9.622874755859375,-1.232086181640625,-0.3361663818359375,0.029022216796875
1789484384942845700,9.632845703125,-1.162933349609375,-0.307830810546875,0.0178070068359375
1789484384952817700,9.642817626953125,-0.8834228515625,-0.4756317138671875,-0.0057220458984375
1789484384962790000,9.652789794921874,-0.8623809814453125,-0.3378143310546875,0.1298675537109375
1789484384972760600,9.662760498046875,-0.847564697265625,-0.278289794921875,0.0688629150390625
1789484384982732800,9.67273291015625,-0.854156494140625,-0.278045654296875,0.127655029296875
1789484384992704300,9.682704345703126,-0.7521820068359375,-0.4124298095703125,0.2012481689453125
1789484385002676000,9.692676025390625,-0.7274322509765625,-0.4576263427734375,0.0634918212890625
1789484385012648200,9.702648193359375,-0.7654266357421875,-0.3016357421875,0.197174072265625
1789484385022619100,9.712619140625,-0.83026123046875,-0.2012939453125,-0.0130615234375
1789484385032591000,9.722591064453125,-0.8404083251953125,-0.2703704833984375,0.02496337890625
1789484385042562000,9.73256201171875,-0.8744659423828125,-0.2725982666015625,0.18414306640625
1789484385052534000,9.742533935546875,-0.86468505859375,-0.313140869140625,-0.0527801513671875
1789484385062505000,9.7525048828125,-0.8832855224609375,-0.2808074951171875,0.0438690185546875
1789484385072477200,9.762477294921876,-0.90216064453125,-0.23101806640625,0.09149169921875
1789484385082449000,9.772448974609375,-0.877288818359375,-0.2529296875,0.0771026611328125
1789484385092420000,9.782420166015624,-0.8947601318359375,-0.1986083984375,0.086883544921875
1789484385102392000,9.79239208984375,-1.0236663818359375,-0.11712646484375,0.0992431640625
1789484385112363000,9.802363037109375,-0.96258544921875,-0.186279296875,0.121368408203125
1789484385122335000,9.8123349609375,-0.857330322265625,-0.3927459716796875,0.180450439453125
1789484385132306200,9.82230615234375,-1.0157470703125,-0.3152008056640625,0.1346893310546875
1789484385142278000,9.83227783203125,-1.0552215576171875,-0.2264404296875,0.201751708984375
1789484385152250000,9.84225,-1.0145416259765625,-0.137908935546875,0.108673095703125
1789484385162221000,9.852220947265625,-1.04937744140625,-0.05084228515625,0.0234222412109375
1789484385172193000,9.862193115234374,-1.0453338623046875,-0.13739013671875,-0.0079498291015625
1789484385182164000,9.8721640625,-1.0341033935546875,-0.1911163330078125,-0.02789306640625
1789484385192136000,9.882135986328125,-1.0622406005859375,-0.12591552734375,-0.0908203125
1789484385202107000,9.89210693359375,-0.9656829833984375,-0.1820526123046875,-0.159515380859375
1789484385212079000,9.9020791015625,-0.93743896484375,-0.2525634765625,-0.0543975830078125
1789484385222051000,9.912051025390625,-0.8946685791015625,-0.2683258056640625,-0.1216888427734375
1789484385232022000,9.92202197265625,-0.8597564697265625,-0.3557891845703125,-0.0982513427734375
1789484385241994200,9.931994140625,-0.9394378662109375,-0.291778564453125,-0.1622161865234375
1789484385251965000,9.94196484375,-0.9951934814453125,-0.3235321044921875,-0.1328887939453125
1789484385261937200,9.951937255859375,-1.1016845703125,-0.354522705078125,-0.0574493408203125
1789484385271909000,9.9619091796875,-1.0436859130859375,-0.3961181640625,-0.126068115234375
1789484385281880000,9.971880126953126,-0.8861846923828125,-0.41070556640625,-0.095977783203125
1789484385291852000,9.98185205078125,-0.887420654296875,-0.362457275390625,-0.1352386474609375
1789484385301823200,9.9918232421875,-0.791229248046875,-0.3906402587890625,-0.0805816650390625
1789484385311795000,10.001794921875,-0.81103515625,-0.38470458984375,-0.2052154541015625
1789484385321766100,10.01176611328125,-0.9764862060546875,-0.372589111328125,-0.0011444091796875
1789484385331738000,10.021738037109374,-1.0983734130859375,-0.311065673828125,0.03314208984375
1789484385341710000,10.0317099609375,-0.929443359375,-0.33477783203125,0.1534423828125
1789484385351681000,10.041680908203125,-0.8030548095703125,-0.3825531005859375,0.0158538818359375
1789484385361653000,10.051653076171876,-0.8784332275390625,-0.2895355224609375,-0.0389556884765625
1789484385371624000,10.0616240234375,-1.17181396484375,-0.19830322265625,0.0629119873046875
1789484385381596200,10.07159619140625,-1.2236480712890625,-0.109375,0.13299560546875
1789484385391567000,10.081567138671875,-0.9461517333984375,-0.3477325439453125,0.06011962890625
1789484385401539000,10.0915390625,-0.6629486083984375,-0.505462646484375,-0.068878173828125
1789484385411511000,10.101510986328124,-0.7070770263671875,-0.2497100830078125,0.008636474609375
1789484385421482000,10.11148193359375,-0.737640380859375,-0.14752197265625,-0.0513458251953125
1789484385431454000,10.121453857421875,-0.9091644287109375,-0.2380523681640625,-0.2197723388671875
1789484385441425200,10.131425048828126,-1.1282501220703125,-0.1717681884765625,-0.0577850341796875
1789484385451396900,10.14139697265625,-1.078826904296875,-0.2205657958984375,-0.1545562744140625
1789484385461369000,10.151369140625,-1.0121002197265625,-0.2287750244140625,-0.0812225341796875
1789484385471340000,10.161340087890625,-0.94415283203125,-0.2741851806640625,-0.124969482421875
1789484385481312000,10.17131201171875,-1.0337371826171875,-0.368408203125,-0.136383056640625
1789484385491283000,10.181282958984376,-1.012298583984375,-0.3639068603515625,-0.1169891357421875
1789484385501255000,10.1912548828125,-0.9555511474609375,-0.39874267578125,0.089080810546875
1789484385511225900,10.201225830078124,-0.8670196533203125,-0.4661712646484375,-0.0449066162109375
1789484385521198000,10.211197998046876,-0.9124908447265625,-0.4202423095703125,0.0760498046875
1789484385531170000,10.221170166015625,-1.0407257080078125,-0.353485107421875,-0.070709228515625
1789484385541141000,10.23114111328125,-0.993560791015625,-0.41375732421875,-0.1001434326171875
1789484385551113200,10.24111328125,-0.8751068115234375,-0.381927490234375,-0.0091705322265625
1789484385561084200,10.251084228515625,-0.911895751953125,-0.3454437255859375,-0.28216552734375
1789484385571056000,10.26105615234375,-0.9259185791015625,-0.3316802978515625,0.0256805419921875
1789484385581027000,10.271027099609375,-1.0077972412109375,-0.1864013671875,-0.1956634521484375
1789484385590999000,10.2809990234375,-0.9476318359375,-0.176971435546875,-0.0665435791015625
1789484385600971000,10.290970947265626,-0.941009521484375,-0.21441650390625,-0.0321044921875
1789484385610942200,10.300942138671875,-1.0727691650390625,-0.1315460205078125,0.0382232666015625
1789484385620914000,10.310913818359374,-1.13665771484375,-0.1086883544921875,0.0767822265625
1789484385630885000,10.320885009765625,-1.011688232421875,-0.2612762451171875,0.166839599609375
1789484385640857000,10.330857177734375,-1.066436767578125,-0.22998046875,-0.07855224609375
1789484385650829000,10.3408291015625,-1.136505126953125,-0.3415985107421875,0.0070037841796875
1789484385660800000,10.350800048828125,-1.233489990234375,-0.27581787109375,0.0863189697265625
1789484385670772000,10.36077197265625,-0.985260009765625,-0.37518310546875,-0.050750732421875
1789484385680743000,10.370742919921875,-0.7063140869140625,-0.504730224609375,-0.0081787109375
1789484385690715100,10.380715087890625,-0.891448974609375,-0.31005859375,-0.0614776611328125
1789484385700686000,10.39068603515625,-0.988677978515625,-0.2231903076171875,-0.0737762451171875
1789484385710658000,10.400657958984375,-0.89208984375,-0.3182830810546875,-0.0457611083984375
1789484385720630000,10.410630126953125,-0.8276214599609375,-0.4338836669921875,-0.0405426025390625
1789484385730601000,10.42060107421875,-0.9184112548828125,-0.395904541015625,-0.11285400390625
1789484385740573000,10.430572998046875,-1.043121337890625,-0.2285614013671875,0.0332489013671875
1789484385750544100,10.440544189453124,-1.0591278076171875,-0.27734375,0.0479583740234375
1789484385760515800,10.450515869140625,-0.952789306640625,-0.310577392578125,-0.035247802734375
1789484385770488000,10.460488037109375,-0.8567047119140625,-0.3098297119140625,-0.0670318603515625
1789484385780459000,10.470458984375,-0.987823486328125,-0.212554931640625,-0.0847320556640625
1789484385790431000,10.480430908203125,-1.0973052978515625,-0.2046966552734375,-0.0042724609375
1789484385800402000,10.49040185546875,-1.0272674560546875,-0.2521209716796875,-0.0012664794921875
1789484385810374100,10.5003740234375,-0.970245361328125,-0.3305816650390625,-0.02227783203125
1789484385820344800,10.5103447265625,-1.0878143310546875,-0.266204833984375,-0.02667236328125
1789484385830317000,10.520317138671874,-0.9854583740234375,-0.2496185302734375,0.0672760009765625
1789484385840289000,10.5302890625,-0.7664794921875,-0.3817901611328125,0.06256103515625
1789484385850260000,10.540260009765625,-1.00537109375,-0.204986572265625,0.086822509765625
1789484385860232200,10.550232177734374,-0.7394866943359375,-0.3247222900390625,-0.0268096923828125
1789484385870203100,10.560203125,-0.7009124755859375,-0.4603424072265625,0.0024261474609375
1789484385880175000,10.570175048828125,-0.9582977294921875,-0.1766204833984375,0.1098175048828125
1789484385890146000,10.58014599609375,-1.06414794921875,-0.1310882568359375,0.1019287109375
1789484385900118000,10.590117919921875,-0.9261016845703125,-0.40765380859375,0.148101806640625
1789484385910090000,10.600090087890624,-1.0894927978515625,-0.317474365234375,0.174713134765625
1789484385920061200,10.610061279296875,-1.022216796875,-0.301788330078125,0.0538330078125
1789484385930033000,10.620032958984375,-0.9141387939453125,-0.292022705078125,-0.0628509521484375
1789484385940004000,10.630004150390626,-0.9502716064453125,-0.2250823974609375,-0.081695556640625
1789484385949976000,10.63997607421875,-0.9332122802734375,-0.394287109375,-0.03228759765625
1789484385959948000,10.649947998046875,-1.1127471923828125,-0.259246826171875,0.0312957763671875
1789484385969919000,10.6599189453125,-0.873992919921875,-0.2213592529296875,-0.0312347412109375
1789484385979891000,10.669890869140625,-1.1112518310546875,-0.153106689453125,0.0189361572265625
1789484385989862000,10.67986181640625,-0.8932952880859375,-0.29205322265625,0.11639404296875
1789484385999834400,10.68983447265625,-1.1503448486328125,-0.187286376953125,-0.03839111328125
1789484386009805600,10.6998056640625,-0.8253326416015625,-0.4376983642578125,0.09930419921875
1789484386019777300,10.70977734375,-0.87371826171875,-0.333892822265625,0.1314544677734375
1789484386029749500,10.71974951171875,-1.00115966796875,-0.148529052734375,-0.0341033935546875
1789484386039720200,10.72972021484375,-0.94256591796875,-0.350555419921875,-0.00946044921875
1789484386049692400,10.7396923828125,-1.1750030517578125,-0.1472625732421875,0.0333099365234375
1789484386059663400,10.749663330078125,-1.0029754638671875,-0.277130126953125,-0.08575439453125
1789484386069635300,10.75963525390625,-0.81646728515625,-0.4450531005859375,0.067718505859375
1789484386079606300,10.769606201171875,-0.9848480224609375,-0.120758056640625,-0.0983734130859375
1789484386089578500,10.77957861328125,-0.8328857421875,-0.364501953125,-0.0683746337890625
1789484386099550500,10.789550537109376,-1.355010986328125,-0.2692413330078125,-0.068450927734375
1789484386109521400,10.799521484375,-1.688995361328125,-0.135986328125,-0.049896240234375
1789484386119493400,10.809493408203124,-1.235809326171875,-0.25531005859375,-0.0634002685546875
1789484386129464300,10.81946435546875,-0.1827239990234375,-0.772064208984375,0.017059326171875
1789484386139436500,10.8294365234375,0.204803466796875,-0.78814697265625,-0.0447845458984375
1789484386149407500,10.839407470703126,0.6050567626953125,-0.6931915283203125,-0.0635223388671875
1789484386159379500,10.84937939453125,-0.5465545654296875,0.02471923828125,-0.1022491455078125
1789484386169351400,10.859351318359375,-2.5288543701171875,0.8176727294921875,0.067047119140625
1789484386179322400,10.869322265625,-2.621368408203125,0.1924896240234375,0.12689208984375
1789484386189294300,10.87929443359375,-1.3979034423828125,-0.6613006591796875,-0.1286773681640625
1789484386199265500,10.889265625,-0.439788818359375,-0.834320068359375,-0.2973480224609375
1789484386209237200,10.8992373046875,-0.37347412109375,-0.0980224609375,0.18890380859375
1789484386219208400,10.90920849609375,-0.679901123046875,0.04638671875,-0.1078033447265625
1789484386229180400,10.919180419921876,-0.951385498046875,-0.551513671875,-0.0802001953125
1789484386239152400,10.92915234375,-1.1387481689453125,-0.56475830078125,0.1856842041015625
1789484386249123300,10.939123291015624,-1.0932464599609375,-0.31927490234375,0.0844879150390625
1789484386259095600,10.949095458984376,-0.7906036376953125,-0.1662750244140625,-0.114990234375
1789484386269066200,10.959066162109375,-0.5876617431640625,-0.1688690185546875,-0.2188568115234375
1789484386279038500,10.96903857421875,-0.619537353515625,-0.4554901123046875,-0.0120849609375
1789484386289010200,10.97901025390625,-0.8975677490234375,-0.50848388671875,-0.004791259765625
1789484386298981400,10.9889814453125,-1.0035552978515625,-0.370086669921875,0.047637939453125
1789484386308953300,10.998953369140626,-1.1623992919921875,-0.011474609375,0.0597381591796875
1789484386318924500,11.008924560546875,-0.8216400146484375,-0.3895111083984375,-0.138580322265625
1789484386328896300,11.018896240234374,-0.728607177734375,-0.351593017578125,-0.0620269775390625
1789484386338867500,11.028867431640625,-1.3547821044921875,0.2499847412109375,-0.1753082275390625
1789484386348839200,11.038839111328125,-1.3602142333984375,-0.0240478515625,-0.06512451171875
1789484386358811400,11.048811279296874,-1.02044677734375,-0.40167236328125,0.07696533203125
1789484386368782300,11.0587822265625,-0.873077392578125,-0.7542724609375,0.0992889404296875
1789484386378754300,11.06875439453125,-1.2055206298828125,-0.6614532470703125,0.181854248046875
1789484386388725200,11.078725341796876,-1.320892333984375,-0.24737548828125,0.128265380859375
1789484386398697500,11.088697509765625,-0.8314361572265625,-0.3105621337890625,0.07672119140625
1789484386408668200,11.098668212890624,-0.4859771728515625,-0.51422119140625,-0.1120452880859375
1789484386418640400,11.108640380859375,-0.369171142578125,-0.5764007568359375,0.10845947265625
1789484386428612400,11.1186123046875,-0.6525421142578125,-0.289093017578125,0.0476226806640625
1789484386438583300,11.128583251953126,-1.2168121337890625,0.1201019287109375,0.064208984375
1789484386448555500,11.138555419921875,-1.1692047119140625,0.034576416015625,0.01116943359375
1789484386458526500,11.1485263671875,-0.8399200439453125,-0.2854156494140625,0.0937347412109375
1789484386468498400,11.15849853515625,-0.721466064453125,-0.4849090576171875,0.00140380859375
1789484386478470400,11.168470458984375,-0.7864837646484375,-0.240081787109375,0.1160125732421875
1789484386488441300,11.17844140625,-0.900543212890625,-0.1273040771484375,0.0571136474609375
1789484386498413300,11.188413330078125,-0.9979400634765625,-0.1914215087890625,0.2247161865234375
1789484386508384500,11.198384521484375,-1.064239501953125,-0.326019287109375,0.0678863525390625
1789484386518356200,11.208356201171876,-0.9203033447265625,-0.367950439453125,0.0471343994140625
1789484386528327400,11.218327392578125,-0.872833251953125,-0.273590087890625,0.048736572265625
1789484386538299400,11.22829931640625,-0.884368896484375,-0.261260986328125,0.07733154296875
1789484386548271400,11.238271240234376,-1.00384521484375,-0.18865966796875,-0.0182037353515625
1789484386558242300,11.2482421875,-0.966552734375,-0.310272216796875,-0.0322418212890625
1789484386568214500,11.258214599609374,-0.8099517822265625,-0.5407562255859375,-0.062164306640625
1789484386578185200,11.268185302734375,-1.0390625,-0.2389373779296875,-0.0887298583984375
1789484386588157400,11.278157470703125,-1.01397705078125,-0.182464599609375,-0.0584564208984375
1789484386598128400,11.28812841796875,-1.1730804443359375,-0.1270599365234375,-0.0388031005859375
1789484386608100400,11.298100341796875,-1.1842803955078125,-0.1021270751953125,-0.0236968994140625
1789484386618072300,11.308072265625,-0.974822998046875,-0.1637420654296875,0.07574462890625
1789484386628043500,11.31804345703125,-0.92236328125,-0.1330718994140625,0.0704193115234375
1789484386638015200,11.32801513671875,-0.9678192138671875,-0.3165283203125,0.0125885009765625
1789484386647986400,11.337986328125,-1.220245361328125,-0.1793365478515625,-0.0225830078125
1789484386657958100,11.347958251953125,-1.08807373046875,-0.299957275390625,-0.008209228515625
1789484386667929300,11.357929443359374,-0.8038482666015625,-0.384002685546875,-0.032684326171875
1789484386677901300,11.3679013671875,-0.74627685546875,-0.3766632080078125,0.0786590576171875
1789484386687873300,11.377873291015625,-0.8751678466796875,-0.41510009765625,-0.0151824951171875
1789484386697844200,11.38784423828125,-0.840911865234375,-0.3626556396484375,0.0414581298828125
1789484386707816400,11.39781640625,-0.703338623046875,-0.44635009765625,-0.2755279541015625
1789484386717787400,11.407787353515625,-0.8426971435546875,-0.2782745361328125,-0.12188720703125
1789484386727759400,11.41775927734375,-1.1453704833984375,-0.130706787109375,-0.0810699462890625
1789484386737730300,11.427730224609375,-1.122589111328125,-0.2257537841796875,-0.025299072265625
1789484386747702300,11.437702392578124,-1.2113037109375,-0.1909637451171875,0.010955810546875
1789484386757674500,11.447674560546876,-1.0577392578125,-0.3339996337890625,0.0538787841796875
1789484386767645400,11.4576455078125,-1.00921630859375,-0.2387542724609375,-0.0621795654296875
1789484386777617400,11.467617431640624,-0.787445068359375,-0.39471435546875,0.0468597412109375
1789484386787588400,11.47758837890625,-0.9506378173828125,-0.2877044677734375,0.1513824462890625
1789484386797560600,11.487560546875,-0.7739715576171875,-0.35394287109375,0.050140380859375
1789484386807531300,11.49753125,-0.8261871337890625,-0.38226318359375,0.20135498046875
1789484386817503500,11.50750341796875,-1.05230712890625,-0.166046142578125,-0.1506500244140625
1789484386827475200,11.51747509765625,-1.19793701171875,-0.123870849609375,0.107391357421875
1789484386837446400,11.5274462890625,-1.1163330078125,-0.2734375,-0.102874755859375
1789484386847418400,11.53741845703125,-1.1214141845703125,-0.295654296875,0.021331787109375
1789484386857389600,11.5473896484375,-1.1227874755859375,-0.2653961181640625,-0.017669677734375
1789484386867361300,11.557361328125,-1.0558929443359375,-0.29217529296875,0.0198211669921875
1789484386877332500,11.56733251953125,-0.913970947265625,-0.4835205078125,0.0145721435546875
1789484386887304200,11.57730419921875,-0.9676361083984375,-0.292877197265625,-0.0411224365234375
1789484386897276400,11.5872763671875,-1.040557861328125,-0.2502593994140625,-0.0721893310546875
1789484386907247400,11.597247314453124,-0.941864013671875,-0.2389068603515625,-0.132904052734375
1789484386917219300,11.60721923828125,-0.9961395263671875,-0.1881256103515625,-0.1375579833984375
1789484386927190300,11.617190185546875,-0.921051025390625,-0.3038482666015625,-0.1200714111328125
1789484386937162500,11.62716259765625,-0.9899444580078125,-0.302886962890625,0.0417327880859375
1789484386947133200,11.63713330078125,-0.77105712890625,-0.3454742431640625,-0.0310211181640625
1789484386957105400,11.64710546875,-0.6965179443359375,-0.35565185546875,-0.10614013671875
1789484386967077400,11.657077392578126,-1.1067047119140625,-0.01708984375,-0.1094207763671875
1789484386977048300,11.66704833984375,-1.0793609619140625,-0.253662109375,0.077880859375
1789484386987020500,11.6770205078125,-0.98126220703125,-0.2845611572265625,-0.002166748046875
1789484386996991200,11.6869912109375,-0.846221923828125,-0.3910064697265625,0.054901123046875
1789484387006963000,11.696962890625,-0.6429443359375,-0.4506378173828125,0.0587921142578125
1789484387016934100,11.70693408203125,-0.9699554443359375,-0.165863037109375,0.007354736328125
1789484387026906000,11.716906005859375,-1.27203369140625,-0.2531280517578125,-0.0525665283203125
1789484387036878000,11.726878173828124,-1.259674072265625,-0.2592315673828125,0.0242462158203125
1789484387046849000,11.73684912109375,-0.7265777587890625,-0.537017822265625,-0.04339599609375
1789484387056821000,11.746821044921875,-0.63555908203125,-0.3952178955078125,0.006256103515625
1789484387066792000,11.7567919921875,-0.9192352294921875,-0.293792724609375,0.0012664794921875
1789484387076764200,11.76676416015625,-1.127197265625,-0.21649169921875,0.0156402587890625
1789484387086735000,11.776735107421874,-1.034454345703125,-0.4490966796875,-0.0423126220703125
1789484387096707000,11.78670703125,-1.11907958984375,-0.2007598876953125,-0.032745361328125
1789484387106678000,11.796677978515625,-0.8130340576171875,-0.4529876708984375,-0.2351531982421875
1789484387116650000,11.80664990234375,-1.0718841552734375,-0.2247467041015625,-0.0614471435546875
1789484387126622200,11.816622314453125,-1.1594696044921875,-0.13690185546875,-0.1890716552734375
1789484387136593200,11.82659326171875,-0.9647979736328125,-0.38970947265625,-0.073486328125
1789484387146565000,11.836565185546876,-0.8477935791015625,-0.367279052734375,-0.0832977294921875
1789484387156536000,11.8465361328125,-0.797149658203125,-0.3859405517578125,-0.0703125
1789484387166508300,11.85650830078125,-0.9597015380859375,-0.242767333984375,-0.01739501953125
1789484387176479000,11.86647900390625,-0.9880828857421875,-0.242431640625,0.020721435546875
1789484387186451200,11.876451171875,-0.82513427734375,-0.3797760009765625,-0.0119476318359375
1789484387196423200,11.886423095703124,-0.997894287109375,-0.3294677734375,-0.095611572265625
1789484387206394000,11.89639404296875,-1.117034912109375,-0.174560546875,0.024566650390625
1789484387216366000,11.906365966796875,-1.1144561767578125,-0.290252685546875,-0.0460662841796875
1789484387226337300,11.916337158203126,-0.979095458984375,-0.287872314453125,-0.0466461181640625
1789484387236309000,11.92630908203125,-0.742340087890625,-0.438690185546875,0.0568389892578125
1789484387246280200,11.9362802734375,-0.74053955078125,-0.3057861328125,-0.0778656005859375
1789484387256252200,11.946252197265625,-0.827484130859375,-0.1945343017578125,-0.126739501953125
1789484387266224000,11.95622412109375,-0.9608001708984375,-0.11175537109375,0.0973358154296875
1789484387276195000,11.966195068359376,-0.812469482421875,-0.4007568359375,-0.001861572265625
1789484387286167000,11.9761669921875,-1.056854248046875,-0.3207244873046875,-0.0001983642578125
1789484387296138000,11.986137939453124,-1.1343536376953125,-0.24700927734375,-0.0146331787109375
1789484387306110200,11.996110107421876,-1.1554412841796875,-0.2444305419921875,-0.0054168701171875
1789484387316081200,12.0060810546875,-1.107635498046875,-0.1394195556640625,0.1596832275390625
1789484387326053000,12.01605322265625,-0.9676361083984375,-0.3134307861328125,0.014617919921875
1789484387336024000,12.026024169921875,-0.9398040771484375,-0.3529052734375,-0.028594970703125
1789484387345996000,12.03599609375,-1.0680084228515625,-0.127410888671875,0.0405731201171875
1789484387355968300,12.04596826171875,-1.0174713134765625,-0.2475433349609375,-0.043121337890625
1789484387365939200,12.055939208984375,-0.9339752197265625,-0.398284912109375,0.0988922119140625
1789484387375911200,12.0659111328125,-1.0076904296875,-0.3365936279296875,-0.0199737548828125
1789484387385882000,12.075882080078125,-0.7506561279296875,-0.477081298828125,0.0503387451171875
1789484387395854300,12.085854248046875,-0.715484619140625,-0.2894439697265625,0.1378326416015625
1789484387405825000,12.095824951171876,-0.76953125,-0.3085479736328125,0.0127716064453125
1789484387415797200,12.10579736328125,-0.9528961181640625,-0.2619781494140625,0.1337890625
1789484387425768200,12.115768310546875,-1.2956695556640625,-0.0401611328125,0.140655517578125
1789484387435740200,12.125740234375,-1.150726318359375,-0.22039794921875,0.0924224853515625
1789484387445712100,12.135712158203125,-0.91241455078125,-0.3102874755859375,0.0839691162109375
1789484387455683300,12.145683349609374,-0.9161224365234375,-0.3320770263671875,0.0885009765625
1789484387465655000,12.155655029296875,-0.844390869140625,-0.302581787109375,-0.0360565185546875
1789484387475626200,12.165626220703125,-0.663970947265625,-0.4358978271484375,-0.181396484375
1789484387485598200,12.17559814453125,-0.9430389404296875,-0.2225494384765625,-0.176483154296875
1789484387495569200,12.185569091796875,-1.070037841796875,-0.3266448974609375,-0.0593719482421875
1789484387505541000,12.195541015625,-1.1504364013671875,-0.1101531982421875,-0.072509765625
1789484387515512300,12.20551220703125,-1.0539398193359375,-0.203948974609375,-0.051361083984375
1789484387525484000,12.215484130859375,-0.9642333984375,-0.3544769287109375,-0.0596771240234375
1789484387535456300,12.225456298828124,-1.1092376708984375,-0.141387939453125,-0.03173828125
1789484387545427200,12.23542724609375,-1.080841064453125,-0.2154693603515625,-0.0025634765625
1789484387555399200,12.245399169921875,-0.83001708984375,-0.471038818359375,-0.15997314453125
1789484387565370000,12.2553701171875,-0.8191070556640625,-0.3536224365234375,-0.07159423828125
1789484387575342000,12.265342041015625,-1.149200439453125,-0.15557861328125,-0.1065673828125
1789484387585313000,12.27531298828125,-1.0451202392578125,-0.1804046630859375,-0.1687164306640625
1789484387595285200,12.28528515625,-1.0352630615234375,-0.0894317626953125,-0.2328033447265625
1789484387605257000,12.295257080078125,-0.937774658203125,-0.3690948486328125,-0.1434783935546875
1789484387615228200,12.305228271484374,-0.9302215576171875,-0.3304290771484375,-0.1830596923828125
1789484387625200000,12.3152001953125,-1.0519561767578125,-0.1600189208984375,-0.01593017578125
1789484387635171000,12.325171142578125,-0.9320831298828125,-0.3682098388671875,-0.0396881103515625
1789484387645143000,12.33514306640625,-0.98687744140625,-0.2983856201171875,-0.1207427978515625
1789484387655114200,12.3451142578125,-0.60894775390625,-0.571502685546875,-0.106231689453125
1789484387665086000,12.3550859375,-0.6831207275390625,-0.32171630859375,-0.0160369873046875
1789484387675057200,12.36505712890625,-0.683837890625,-0.3569488525390625,-0.0537567138671875
1789484387685029000,12.375029052734375,-0.825653076171875,-0.289947509765625,0.0826263427734375
1789484387695001000,12.3850009765625,-0.92462158203125,-0.235443115234375,-0.0011138916015625
1789484387704972000,12.394971923828125,-1.0058135986328125,-0.207427978515625,-0.025177001953125
1789484387714944000,12.404944091796875,-0.850799560546875,-0.322296142578125,-0.0630950927734375
1789484387724915000,12.4149150390625,-0.9774627685546875,-0.2816619873046875,-0.0147552490234375
1789484387734887200,12.42488720703125,-1.299713134765625,-0.0287628173828125,0.0306854248046875
1789484387744858000,12.434858154296874,-1.3840484619140625,-0.1518402099609375,-0.008148193359375
1789484387754830000,12.444830078125,-1.2138214111328125,-0.18914794921875,0.039794921875
1789484387764801000,12.454801025390625,-0.7673492431640625,-0.426116943359375,-0.038818359375
1789484387774773200,12.464773193359376,-0.7336578369140625,-0.40478515625,0.10345458984375
1789484387784745200,12.4747451171875,-1.0413818359375,-0.154693603515625,0.2304229736328125
1789484387794716200,12.484716064453124,-1.164215087890625,-0.2311859130859375,0.1282806396484375
1789484387804688100,12.494688232421876,-1.0264892578125,-0.27850341796875,0.18096923828125
1789484387814659000,12.5046591796875,-0.8851165771484375,-0.3307952880859375,0.125335693359375
1789484387824631300,12.51463134765625,-0.6714630126953125,-0.5474090576171875,0.1265716552734375
1789484387834602200,12.524602294921875,-0.8513031005859375,-0.2654266357421875,-0.014556884765625
1789484387844574200,12.53457421875,-1.0408172607421875,-0.2902069091796875,-0.0819854736328125
1789484387854545200,12.544545166015626,-1.3633880615234375,-0.22235107421875,-0.0916748046875
1789484387864517000,12.55451708984375,-1.5306549072265625,-0.05279541015625,-0.0994720458984375
1789484387874488000,12.564488037109374,-1.3939361572265625,-0.1883697509765625,-0.1917724609375
1789484387884460300,12.574460205078125,-1.1177825927734375,-0.38714599609375,0.013092041015625
1789484387894432000,12.584431884765625,-0.929229736328125,-0.3453826904296875,-0.0289459228515625
1789484387904403200,12.5944033203125,-0.830841064453125,-0.440887451171875,0.0672607421875
1789484387914375200,12.604375244140625,-0.787933349609375,-0.44281005859375,0.0030975341796875
1789484387924346000,12.61434619140625,-0.8232421875,-0.5369720458984375,-0.0223846435546875
1789484387934318000,12.624318115234376,-0.9124755859375,-0.4532928466796875,-0.063568115234375
1789484387944289300,12.634289306640625,-0.70404052734375,-0.5216217041015625,0.0074920654296875
1789484387954261000,12.644260986328124,-0.7074432373046875,-0.5419769287109375,-0.0355987548828125
1789484387964232200,12.654232177734375,-0.6844482421875,-0.401336669921875,-0.05914306640625
1789484387974204200,12.6642041015625,-0.60565185546875,-0.2876434326171875,-0.1081390380859375
1789484387984176000,12.674176025390626,-0.6211395263671875,-0.3342437744140625,-0.2159423828125
1789484387994147000,12.68414697265625,-0.965118408203125,-0.1848907470703125,0.043182373046875
1789484388004118500,12.694118408203124,-1.2578125,-0.0122833251953125,-0.0155029296875
1789484388014089500,12.70408935546875,-0.8788909912109375,-0.205047607421875,0.0262908935546875
1789484388024061400,12.7140615234375,-0.6679840087890625,-0.2327728271484375,0.1290740966796875
1789484388034032600,12.72403271484375,-0.759033203125,-0.2506103515625,-0.0673065185546875
1789484388044004400,12.73400439453125,-0.9681549072265625,-0.2130279541015625,0.06158447265625
1789484388053975600,12.7439755859375,-1.0474700927734375,-0.333953857421875,0.022369384765625
1789484388063947500,12.753947509765625,-0.99188232421875,-0.3368988037109375,0.09619140625
1789484388073918500,12.76391845703125,-1.214141845703125,-0.133941650390625,-0.069183349609375
1789484388083890400,12.773890380859376,-1.1025848388671875,-0.1663818359375,0.103912353515625
1789484388093862700,12.783862548828125,-1.1244659423828125,-0.1808319091796875,0.101165771484375
1789484388103833300,12.793833251953124,-1.04705810546875,-0.2212677001953125,0.2820281982421875
1789484388113805600,12.8038056640625,-1.03411865234375,-0.2600555419921875,0.2410888671875
1789484388123776500,12.813776611328125,-0.8272705078125,-0.2692413330078125,0.1574554443359375
