time,seconds_elapsed,z,y,x
1789484375363946200,0.0539462890625,-0.03037841245532036,-0.04939444735646248,0.05355430394411087
1789484375373917400,0.06391748046875,-0.014650048688054085,-0.11475667357444763,0.03170839324593544
1789484375383888100,0.07388818359375,0.08222562819719315,-0.050941210240125656,-0.09908317029476166
1789484375393860400,0.0838603515625,0.052627526223659515,-0.02281024120748043,-0.1534004807472229
1789484375403831300,0.093831298828125,0.15315093100070953,-0.06041727215051651,-0.06193101033568382
1789484375413802500,0.103802490234375,0.22654739022254944,-0.041131723672151566,-0.11425893008708954
1789484375423773200,0.113773193359375,0.22188739478588104,-0.05439293384552002,-0.11203039437532425
1789484375433745400,0.123745361328125,0.2041664570569992,-0.011804727837443352,-0.06169186159968376
1789484375443716400,0.13371630859375,-0.012077169492840767,0.0686858519911766,0.062366969883441925
1789484375453687300,0.143687255859375,-0.139271080493927,0.011343201622366905,0.10841488838195801
1789484375463659300,0.1536591796875,-0.3110809028148651,-0.016390424221754074,0.0887727439403534
1789484375473630200,0.163630126953125,-0.3306431770324707,-0.010029997676610947,-0.011816978454589844
1789484375483601400,0.173601318359375,-0.1728077232837677,-0.08112041652202606,0.09141060709953308
1789484375493572400,0.183572265625,0.007318100426346064,-0.06869491189718246,0.027782095596194267
1789484375503544300,0.19354443359375,0.21596239507198334,-0.027104854583740234,0.02250237949192524
1789484375513515300,0.203515380859375,0.096637062728405,0.0413261353969574,0.06161675974726677
1789484375523486500,0.213486572265625,0.11645683646202087,-0.0137240681797266,0.07791396975517273
1789484375533457200,0.22345703125,0.18816085159778595,0.0928332656621933,-0.3119317889213562
1789484375543429400,0.233429443359375,0.034501250833272934,-0.015590145252645016,-0.032104406505823135
1789484375553400300,0.243400390625,-0.032276980578899384,-0.1367085725069046,0.19315427541732788
1789484375563371300,0.253371337890625,-0.11704326421022415,-0.032174449414014816,0.11814182251691818
1789484375573343200,0.26334326171875,-0.0969153642654419,0.03422561287879944,0.02117585949599743
1789484375583314200,0.273314208984375,-0.07792888581752777,-0.09112325310707092,0.1945985108613968
1789484375593285400,0.283285400390625,-0.11702435463666916,-0.044547226279973984,0.28252464532852173
1789484375603257000,0.293257080078125,0.021211545914411545,-0.10272558033466339,0.306300550699234
1789484375613228300,0.303228271484375,0.05763320252299309,-0.007157511543482542,0.12409637868404388
1789484375623199200,0.31319921875,0.0801965668797493,-0.015974972397089005,0.07965993881225586
1789484375633170400,0.32317041015625,0.40419700741767883,0.022410234436392784,-0.18029068410396576
1789484375643142100,0.33314208984375,0.5519334673881531,-0.08680733293294907,-0.009513343684375286
1789484375653113300,0.34311328125,0.5497494339942932,-0.06550763547420502,0.18393947184085846
1789484375663084300,0.353084228515625,0.8192666172981262,0.07367182523012161,-0.22821666300296783
1789484375673056300,0.36305615234375,0.5356090664863586,0.20889542996883392,-0.3561229705810547
1789484375683027200,0.373027099609375,0.13931554555892944,0.0001994707708945498,0.1575520783662796
1789484375692998400,0.382998291015625,0.21764178574085236,-0.09176720678806305,0.15347957611083984
1789484375702970400,0.392970458984375,0.11161893606185913,0.04005660489201546,-0.11416652053594589
1789484375712941300,0.40294140625,-0.11904649436473846,0.1453785002231598,-0.13292290270328522
1789484375722912300,0.412912353515625,-0.027477163821458817,0.010366087779402733,0.0434018038213253
1789484375732884500,0.422884521484375,0.1663181334733963,-0.03202637657523155,-0.04145076870918274
1789484375742855400,0.43285546875,0.17399150133132935,0.07354505360126495,-0.1439901888370514
1789484375752826000,0.442826171875,-0.06622402369976044,0.005717007908970118,-0.03999615088105202
1789484375762798300,0.45279833984375,-0.060271330177783966,-0.07473602145910263,0.11274199187755585
1789484375772769300,0.462769287109375,-0.06646957248449326,0.020924722775816917,0.05992831289768219
1789484375782740500,0.472740478515625,-0.09765678644180298,0.1569850891828537,-0.12710681557655334
1789484375792711200,0.482711181640625,-0.039390549063682556,0.10923807322978973,-0.1329820156097412
1789484375802683400,0.492683349609375,0.005456018261611462,0.04367504268884659,-0.11764567345380783
1789484375812654300,0.502654296875,0.04424522444605827,0.018495919182896614,-0.11709786206483841
1789484375822625300,0.512625244140625,-0.051000867038965225,0.07882876694202423,-0.08505763858556747
1789484375832597200,0.52259716796875,-0.16599403321743011,0.06019756197929382,-0.04705645889043808
1789484375842568400,0.532568359375,-0.33664005994796753,0.14876390993595123,-0.08588375151157379
1789484375852539400,0.542539306640625,-0.421779990196228,0.04875635355710983,-0.0022210762836039066
1789484375862511400,0.552511474609375,-0.3422287106513977,0.06775161623954773,-0.0857391357421875
1789484375872482300,0.562482421875,-0.3050680160522461,0.06860861927270889,-0.02177480421960354
1789484375882453200,0.572453369140625,-0.11391352117061615,0.04926102235913277,-0.013655624352395535
1789484375892425200,0.58242529296875,-0.07387422025203705,0.10217083990573883,0.015033544041216373
1789484375902396200,0.592396240234375,-0.04910522699356079,0.13382863998413086,-0.04886873811483383
1789484375912367400,0.602367431640625,-0.02539057843387127,0.24363157153129578,-0.1184036061167717
1789484375922339300,0.61233935546875,-0.15134957432746887,0.24919597804546356,-0.0644114762544632
1789484375932310300,0.622310302734375,-0.12794305384159088,0.01549214031547308,0.14003300666809082
1789484375942281200,0.63228125,-0.28921130299568176,0.044992510229349136,0.09763068705797195
1789484375952253400,0.64225341796875,-0.31998786330223083,-0.017908426001667976,0.07655469328165054
1789484375962224000,0.65222412109375,-0.21583162248134613,-0.016405338421463966,0.03599874675273895
1789484375972195300,0.6621953125,-0.1816403716802597,-0.07093089818954468,0.020359866321086884
1789484375982167300,0.672167236328125,-0.16150100529193878,0.010919226333498955,0.091790109872818
1789484375992139300,0.68213916015625,-0.030843133106827736,-0.029288912191987038,-0.053458698093891144
1789484376002110200,0.692110107421875,0.025422003120183945,-0.0475909560918808,-0.052622199058532715
1789484376012082400,0.70208251953125,-0.26799097657203674,-0.0463416650891304,0.14242345094680786
1789484376022053000,0.71205322265625,-0.1632174253463745,-0.022584671154618263,0.07062783092260361
1789484376032025300,0.722025390625,-0.10804497450590134,-0.06778969615697861,-0.07995075732469559
1789484376041996300,0.731996337890625,-0.22172626852989197,-0.0012450277572497725,0.032825056463479996
1789484376051967500,0.741967529296875,-0.10731740295886993,-0.10392426699399948,0.07641115039587021
1789484376061939200,0.751939208984375,-0.04753529280424118,0.062253255397081375,-0.06627542525529861
1789484376071910400,0.761910400390625,-0.1592961847782135,0.034209635108709335,-0.042265698313713074
1789484376081881300,0.77188134765625,-0.10424810647964478,-0.04139324650168419,0.05008314177393913
1789484376091853300,0.781853271484375,0.0056893108412623405,-0.0992024838924408,-0.05638444796204567
1789484376101824300,0.79182421875,-0.014049772173166275,-0.07400019466876984,-0.0003091930120717734
1789484376111795200,0.801795166015625,-0.10006268322467804,0.03449006751179695,0.00737376045435667
1789484376121767200,0.81176708984375,-0.036548156291246414,0.037162281572818756,-0.02840660698711872
1789484376131738000,0.821738037109375,-0.03916497901082039,0.017830928787589073,-0.06454570591449738
1789484376141709300,0.831709228515625,-0.11325119435787201,0.01913880743086338,0.010551177896559238
1789484376151681300,0.841681396484375,-0.13666516542434692,-0.02514503337442875,0.01654648594558239
1789484376161652200,0.85165234375,-0.1805010735988617,0.06040288880467415,-0.04741758108139038
1789484376171623200,0.861623046875,-0.24089676141738892,-0.13398922979831696,0.05480359494686127
1789484376181595400,0.871595458984375,-0.28626105189323425,-0.057551708072423935,0.05837276205420494
1789484376191566300,0.88156640625,-0.27937012910842896,-0.010638529434800148,-0.041505366563797
1789484376201538300,0.891538330078125,-0.30157342553138733,0.010264888405799866,-0.04259060323238373
1789484376211509200,0.90150927734375,-0.4424477219581604,-0.0027425233274698257,-0.03539340943098068
1789484376221480400,0.91148046875,-0.44988274574279785,-0.09666768461465836,0.006517820525914431
1789484376231452200,0.9214521484375,-0.4951404929161072,-0.15444283187389374,0.039209187030792236
1789484376241423400,0.93142333984375,-0.523018479347229,-0.1396806687116623,-0.03273717314004898
1789484376251394300,0.941394287109375,-0.5943320393562317,-0.10685134679079056,-0.07649450749158859
1789484376261366300,0.9513662109375,-0.4886844754219055,-0.16520893573760986,-0.05566725507378578
1789484376271337200,0.961337158203125,-0.3290279507637024,-0.2363845705986023,-0.0234075877815485
1789484376281309400,0.971309326171875,-0.2783125936985016,-0.10615652799606323,-0.11885873973369598
1789484376291280400,0.9812802734375,-0.20267561078071594,-0.17738516628742218,-0.03346261754631996
1789484376301251300,0.991251220703125,-0.008867260999977589,-0.1885584592819214,-0.024778850376605988
1789484376311223300,1.001223388671875,0.0501188263297081,-0.19515565037727356,-0.004157460760325193
1789484376321194500,1.011194580078125,-0.0033931334037333727,-0.15588626265525818,0.0333947092294693
1789484376331166200,1.021166259765625,0.005194495897740126,-0.07590408623218536,-0.06668794900178909
1789484376341137400,1.031137451171875,0.05543449521064758,-0.11880841106176376,-0.00890640914440155
1789484376351108400,1.0411083984375,0.08759722858667374,-0.21514879167079926,0.12761494517326355
1789484376361080300,1.051080322265625,0.17030967772006989,-0.14447754621505737,0.053345512598752975
1789484376371051300,1.06105126953125,0.15353550016880035,-0.08307944238185883,0.03593190014362335
1789484376381022200,1.071022216796875,0.21163980662822723,-0.09412756562232971,-0.01449904777109623
1789484376390994400,1.080994384765625,0.2097279280424118,-0.14258430898189545,-0.026036927476525307
1789484376400965000,1.090965087890625,0.17672443389892578,-0.1433078944683075,0.04622288793325424
1789484376410937300,1.100937255859375,0.19353698194026947,-0.21812674403190613,0.024930916726589203
1789484376420908300,1.110908203125,0.1788634955883026,-0.04780081287026405,-0.10468699783086777
1789484376430879200,1.120879150390625,0.22560010850429535,-0.14674443006515503,-0.08765475451946259
1789484376440851200,1.130851318359375,0.1309196650981903,-0.12217677384614944,0.022344453260302544
1789484376450822400,1.140822509765625,0.10889185965061188,-0.1417214423418045,0.057982075959444046
1789484376460794000,1.150794189453125,0.28180184960365295,-0.2313258945941925,-0.0019659455865621567
1789484376470765300,1.160765380859375,0.2731550931930542,-0.19842228293418884,0.02876640111207962
1789484376480736300,1.170736328125,0.28230199217796326,-0.15652595460414886,-0.02929637022316456
1789484376490708200,1.180708251953125,0.2791655957698822,-0.18583084642887115,-0.07979176938533783
1789484376500679200,1.19067919921875,0.25000476837158203,-0.20672841370105743,0.010301106609404087
1789484376510651400,1.2006513671875,0.23014052212238312,-0.2265511155128479,-0.002267149044200778
1789484376520622300,1.210622314453125,0.24580763280391693,-0.16864468157291412,-0.04634592682123184
1789484376530593300,1.22059326171875,0.26533767580986023,-0.18570488691329956,-0.017538513988256454
1789484376540565200,1.230565185546875,0.28106603026390076,-0.16394206881523132,0.03951971232891083
1789484376550536400,1.240536376953125,0.27228638529777527,-0.1529245674610138,-0.03618090599775314
1789484376560508200,1.250508056640625,0.23784957826137543,-0.15031945705413818,-0.083310067653656
1789484376570479400,1.260479248046875,0.24059157073497772,-0.19288316369056702,-0.05138755589723587
1789484376580450300,1.2704501953125,0.21724283695220947,-0.1831815391778946,-0.011363175697624683
1789484376590422300,1.28042236328125,0.2863372266292572,-0.21125179529190063,-0.039544478058815
1789484376600393200,1.290393310546875,0.29467132687568665,-0.12475311756134033,-0.04911880940198898
1789484376610365400,1.300365478515625,0.3531271815299988,-0.2012779861688614,0.00008362325752386823
1789484376620336400,1.31033642578125,0.327412486076355,-0.18931426107883453,0.0754590705037117
1789484376630308400,1.320308349609375,0.3288271427154541,-0.1723826825618744,0.013597833923995495
1789484376640279300,1.330279296875,0.3469795286655426,-0.1592639535665512,0.010418286547064781
1789484376650250200,1.340250244140625,0.3591296672821045,-0.18019719421863556,0.041317880153656006
1789484376660222200,1.35022216796875,0.4011705815792084,-0.20072218775749207,0.01587616838514805
1789484376670193200,1.360193115234375,0.31317204236984253,-0.11621662229299545,0.01148914359509945
1789484376680165400,1.370165283203125,0.3604024052619934,-0.1820763349533081,-0.0010780475568026304
1789484376690136300,1.38013623046875,0.30588749051094055,-0.1459723860025406,0.0916881114244461
1789484376700107300,1.390107177734375,0.32782182097435,-0.1732969582080841,0.05043627694249153
1789484376710079200,1.400079345703125,0.3005446493625641,-0.14430418610572815,0.030530212447047234
1789484376720050400,1.410050537109375,0.2889319360256195,-0.12447614967823029,0.011946141719818115
1789484376730022100,1.420022216796875,0.3121989071369171,-0.09879182279109955,0.001320927869528532
1789484376739993300,1.429993408203125,0.25032463669776917,-0.08655566722154617,0.042638007551431656
1789484376749965300,1.43996533203125,0.2676120102405548,-0.06628687679767609,0.02918771281838417
1789484376759936300,1.449936279296875,0.18227793276309967,-0.024275245144963264,0.05194335803389549
1789484376769907200,1.4599072265625,0.17441387474536896,-0.027355192229151726,0.08496815711259842
1789484376779879400,1.46987939453125,0.22878417372703552,-0.021738318726420403,0.062427159398794174
1789484376789850000,1.47985009765625,0.23994575440883636,-0.04644419625401497,0.07366196811199188
1789484376799822300,1.489822265625,0.18834887444972992,-0.007784952409565449,0.08600811660289764
1789484376809793300,1.499793212890625,0.17518965899944305,-0.0018748653819784522,0.05577005445957184
1789484376819765200,1.50976513671875,0.14443068206310272,0.04999339208006859,-0.06391027569770813
1789484376829736200,1.519736083984375,0.06698489189147949,0.022721823304891586,0.05901484936475754
1789484376839708400,1.52970849609375,0.12325402349233627,-0.06246151402592659,0.10073087364435196
1789484376849679000,1.53967919921875,0.09272194653749466,-0.0041550640016794205,0.15002837777137756
1789484376859650300,1.549650390625,0.10403025895357132,0.09441252052783966,-0.013079316355288029
1789484376869622300,1.559622314453125,0.17884431779384613,0.032759811729192734,0.016530506312847137
1789484376879593500,1.569593505859375,0.1833341419696808,-0.0026181535795331,0.07687560468912125
1789484376889565200,1.579565185546875,0.15835101902484894,0.06429509818553925,-0.06909091770648956
1789484376899536400,1.589536376953125,0.05724038556218147,0.02599325031042099,-0.055154863744974136
1789484376909508400,1.59950830078125,0.04821253567934036,-0.04685405641794205,0.09057623893022537
1789484376919479300,1.609479248046875,0.05790244787931442,-0.015661783516407013,-0.007245928514748812
1789484376929451300,1.619451171875,0.024583639577031136,0.07833901047706604,-0.06948746740818024
1789484376939422500,1.62942236328125,0.0778263583779335,0.012616192921996117,0.06337285041809082
1789484376949393200,1.63939306640625,0.2099795937538147,0.05222698673605919,0.04701171815395355
1789484376959365400,1.649365478515625,0.2446262538433075,0.10308963060379028,-0.03295528516173363
1789484376969336300,1.65933642578125,0.1785774677991867,0.07694591581821442,0.0517665259540081
1789484376979308300,1.669308349609375,0.23108434677124023,0.02972833439707756,0.09714359045028687
1789484376989278500,1.679278564453125,0.2799943685531616,0.12771748006343842,-0.039131954312324524
1789484376999250400,1.68925048828125,0.2511054575443268,0.05841910094022751,0.00478410255163908
1789484377009221600,1.6992216796875,0.2616960406303406,0.06533639878034592,0.039563655853271484
1789484377019193300,1.709193359375,0.3361383378505707,0.07240469008684158,-0.009243831969797611
1789484377029164500,1.71916455078125,0.37435123324394226,0.1497306376695633,-0.012820723466575146
1789484377039135500,1.729135498046875,0.35606756806373596,0.2211025506258011,0.0032834112644195557
1789484377049107500,1.739107421875,0.36665257811546326,0.17356432974338531,0.043108321726322174
1789484377059078400,1.749078369140625,0.3435017168521881,0.2027192860841751,0.012754411436617374
1789484377069050600,1.759050537109375,0.32806628942489624,0.18071171641349792,-0.020418988540768623
1789484377079021600,1.769021484375,0.27559855580329895,0.22882172465324402,-0.012012987397611141
1789484377088993500,1.77899365234375,0.24367710947990417,0.20652733743190765,-0.029319539666175842
1789484377098964500,1.788964599609375,0.18681861460208893,0.21041102707386017,0.00472657848149538
1789484377108936400,1.7989365234375,0.14797347784042358,0.24688409268856049,-0.03526371344923973
1789484377118907400,1.808907470703125,0.14971093833446503,0.20387482643127441,-0.06809250265359879
1789484377128879600,1.818879638671875,0.05649683251976967,0.2368287891149521,0.0083085298538208
1789484377138850600,1.8288505859375,0.034202709794044495,0.18805591762065887,0.007241401355713606
1789484377148822500,1.838822509765625,-0.019224029034376144,0.258110374212265,-0.03374411538243294
1789484377158793500,1.84879345703125,-0.04042172431945801,0.2193690985441208,-0.049493517726659775
1789484377168764700,1.8587646484375,-0.07426038384437561,0.24414102733135223,-0.019166503101587296
1789484377178736400,1.868736328125,-0.09974124282598495,0.22353509068489075,0.04669932648539543
1789484377188707600,1.87870751953125,-0.10098493844270706,0.2140883207321167,0.0503569133579731
1789484377198679600,1.888679443359375,-0.13932940363883972,0.2523244023323059,0.017782459035515785
1789484377208650500,1.898650390625,-0.15388357639312744,0.249871626496315,-0.0021646174136549234
1789484377218622500,1.90862255859375,-0.16640521585941315,0.20974470674991608,0.08489518612623215
1789484377228593700,1.91859375,-0.11578811705112457,0.21895338594913483,0.05952617898583412
1789484377238565400,1.9285654296875,-0.14558303356170654,0.2658524513244629,0.032760608941316605
1789484377248536600,1.93853662109375,-0.15002119541168213,0.24619512259960175,0.031612787395715714
1789484377258508500,1.948508544921875,-0.14449194073677063,0.2376442551612854,0.08972509205341339
1789484377268479500,1.9584794921875,-0.09002256393432617,0.2534399926662445,-0.00341603672131896
1789484377278451500,1.968451416015625,-0.1408015936613083,0.30504512786865234,0.052087169140577316
1789484377288422700,1.978422607421875,-0.10202649980783463,0.2630627751350403,0.0852736160159111
1789484377298394400,1.988394287109375,-0.07522337883710861,0.3244822025299072,-0.0029079054947942495
1789484377308365600,1.998365478515625,-0.10959599912166595,0.31353235244750977,0.022610237821936607
1789484377318337500,2.008337646484375,-0.14247725903987885,0.26693129539489746,0.09787756204605103
1789484377328308500,2.01830859375,-0.1781873106956482,0.25488635897636414,0.06708768755197525
1789484377338280400,2.028280517578125,-0.18697547912597656,0.2478787750005722,-0.024809209629893303
1789484377348251600,2.038251708984375,-0.24667716026306152,0.1866351217031479,0.04229579120874405
1789484377358223400,2.048223388671875,-0.27930355072021484,0.19131803512573242,0.05385151505470276
1789484377368194600,2.058194580078125,-0.27511945366859436,0.23310941457748413,-0.03924141079187393
1789484377378166500,2.06816650390625,-0.256733775138855,0.2029174268245697,-0.010046242736279964
1789484377388137500,2.078137451171875,-0.2578858733177185,0.16398067772388458,0.05976053699851036
1789484377398109400,2.088109375,-0.256134569644928,0.21632564067840576,0.002972087822854519
1789484377408080600,2.09808056640625,-0.22789867222309113,0.1853911578655243,0.01312112808227539
1789484377418051600,2.108051513671875,-0.2641698718070984,0.17910237610340118,0.07046964019536972
1789484377428023600,2.1180234375,-0.2105306088924408,0.1614123284816742,-0.04917553439736366
1789484377437994500,2.127994384765625,-0.3044981062412262,0.18018893897533417,-0.07587932050228119
1789484377447966500,2.137966552734375,-0.36595720052719116,0.17385248839855194,-0.008444084785878658
1789484377457937400,2.1479375,-0.3114335238933563,0.11551567912101746,-0.05270129442214966
1789484377467909600,2.15790966796875,-0.34700536727905273,0.13361531496047974,-0.09037410467863083
1789484377477880600,2.167880615234375,-0.325316846370697,0.08095131069421768,-0.11597800254821777
1789484377487852500,2.1778525390625,-0.3339332342147827,0.052506618201732635,-0.11440673470497131
1789484377497823500,2.187823486328125,-0.3786937892436981,0.08295693248510361,-0.12433580309152603
1789484377507795500,2.19779541015625,-0.3715898096561432,0.03305009379982948,-0.12171018868684769
1789484377517766400,2.207766357421875,-0.44461554288864136,0.007649397477507591,0.0032583775464445353
1789484377527738600,2.217738525390625,-0.3963838219642639,-0.005920473486185074,-0.029498770833015442
1789484377537709600,2.22770947265625,-0.34973323345184326,0.032818932086229324,-0.06181623041629791
1789484377547681500,2.237681640625,-0.3381250500679016,0.016988836228847504,-0.03495771810412407
1789484377557652500,2.247652587890625,-0.282955527305603,0.008599880151450634,-0.021463213488459587
1789484377567624400,2.25762451171875,-0.2526319921016693,-0.07035832107067108,0.005342833697795868
1789484377577595400,2.267595458984375,-0.26142653822898865,0.033845581114292145,-0.11275291442871094
1789484377587567600,2.277567626953125,-0.27325204014778137,-0.026501381769776344,-0.06978414207696915
1789484377597538600,2.28753857421875,-0.23738352954387665,-0.07887431234121323,-0.03303118795156479
1789484377607510500,2.297510498046875,-0.2584017217159271,-0.10360761731863022,0.10983461886644363
1789484377617481500,2.3074814453125,-0.12737900018692017,-0.04192934185266495,-0.0019225359428673983
1789484377627453400,2.317453369140625,-0.13259905576705933,0.055692024528980255,0.030059365555644035
1789484377637425400,2.32742529296875,-0.08710480481386185,0.0366554819047451,0.06421094387769699
1789484377647396600,2.337396728515625,-0.12676885724067688,0.021380655467510223,0.06581869721412659
1789484377657368300,2.347368408203125,-0.1627012938261032,0.010876616463065147,0.07403188198804855
1789484377667339500,2.357339599609375,-0.1618027538061142,-0.059430304914712906,0.05861004814505577
1789484377677311500,2.3673115234375,-0.20837077498435974,-0.04099537059664726,-0.06119544804096222
1789484377687282700,2.37728271484375,-0.21873953938484192,-0.11652075499296188,-0.025651300325989723
1789484377697254400,2.38725439453125,-0.20568178594112396,-0.16559721529483795,0.04940669611096382
1789484377707225600,2.3972255859375,-0.12901444733142853,-0.1361759454011917,-0.006845122668892145
1789484377717197300,2.407197265625,-0.11467225104570389,-0.09406284987926483,-0.05608776956796646
1789484377727168500,2.41716845703125,-0.12843520939350128,-0.13705052435398102,0.09573104977607727
1789484377737140500,2.427140380859375,-0.07835312932729721,-0.1476387232542038,0.07100892812013626
1789484377747111700,2.437111572265625,-0.05494340881705284,-0.09695317596197128,-0.07755817472934723
1789484377757083400,2.44708349609375,-0.1776520162820816,-0.1344773769378662,0.001237571006640792
1789484377767054600,2.4570546875,-0.15895742177963257,-0.1786874532699585,0.059426307678222656
1789484377777026300,2.4670263671875,-0.08522914350032806,-0.19017073512077332,0.02215110883116722
1789484377786997500,2.47699755859375,-0.06491455435752869,-0.09509509056806564,-0.0020564929582178593
1789484377796969500,2.486969482421875,-0.037512488663196564,-0.08850163966417313,0.02496287412941456
1789484377806940700,2.496940673828125,-0.00024288028362207115,-0.1584807187318802,0.000015446334145963192
1789484377816912400,2.506912353515625,-0.042999666184186935,-0.12082921713590622,-0.018459700047969818
1789484377826883600,2.516883544921875,0.03682858869433403,-0.22275690734386444,0.04284973070025444
1789484377836855300,2.526855224609375,0.12818913161754608,-0.10107255727052689,-0.03714950010180473
1789484377846826500,2.536826416015625,0.16772668063640594,-0.014119547791779041,-0.10823885351419449
1789484377856798500,2.546798583984375,0.14893008768558502,-0.0941946730017662,0.0950748473405838
1789484377866769700,2.556769775390625,0.21853101253509521,-0.0671824961900711,0.00632074661552906
1789484377876741400,2.566741455078125,0.14185486733913422,0.04100123047828674,-0.06859184056520462
1789484377886712600,2.576712646484375,0.16657593846321106,-0.07892890274524689,0.01619121991097927
1789484377896684300,2.586684326171875,0.19102054834365845,-0.10485557466745377,0.004258661065250635
1789484377906655500,2.596655517578125,0.0831311047077179,-0.029211681336164474,-0.07951586693525314
1789484377916627500,2.60662744140625,0.09432490170001984,-0.10111330449581146,0.005193696822971106
1789484377926599400,2.616599365234375,0.09643971920013428,-0.08068978786468506,0.02436153218150139
1789484377936570400,2.6265703125,0.0056392434053123,-0.0533742755651474,0.0007137271459214389
1789484377946542600,2.63654248046875,-0.07057829201221466,-0.03148442134261131,0.008929844945669174
1789484377956513300,2.64651318359375,0.03539953753352165,-0.10363451391458511,-0.03785763308405876
1789484377966485500,2.656485595703125,0.13364407420158386,-0.07513895630836487,-0.08278489112854004
1789484377976456400,2.66645654296875,0.13075987994670868,-0.08876289427280426,-0.06458618491888046
1789484377986428400,2.676428466796875,-0.01667644828557968,-0.06504158675670624,0.03339231014251709
1789484377996400000,2.686400146484375,0.014202105812728405,-0.06973407417535782,0.044200751930475235
1789484378006372000,2.6963720703125,-0.009675264358520508,-0.04410301148891449,0.028966670855879784
1789484378016343000,2.706343017578125,-0.020492492243647575,-0.01667911186814308,0.021340176463127136
1789484378026315000,2.71631494140625,-0.02094842493534088,-0.032404012978076935,0.03381255641579628
1789484378036286200,2.7262861328125,-0.11795540153980255,-0.030709177255630493,0.02281397022306919
1789484378046258000,2.7362578125,-0.15757471323013306,0.0017454357584938407,0.07185634970664978
1789484378056229000,2.74622900390625,-0.050332412123680115,-0.10843992233276367,0.1231970340013504
1789484378066201000,2.756201171875,-0.10900557786226273,-0.0007321029552258551,0.07031197845935822
1789484378076173000,2.766173095703125,-0.04237835109233856,-0.009796704165637493,0.024594558402895927
1789484378086144000,2.77614404296875,-0.07247207313776016,-0.03468234837055206,0.037408892065286636
1789484378096116000,2.786115966796875,-0.059895824640989304,-0.1316421777009964,0.12030297517776489
1789484378106087000,2.7960869140625,-0.04263987019658089,-0.036751888692379,0.014212758280336857
1789484378116059100,2.80605908203125,-0.07305317372083664,-0.05613677203655243,0.05325922742486
1789484378126030000,2.816030029296875,-0.13947081565856934,-0.027784759178757668,0.05549255385994911
1789484378136002000,2.826001953125,-0.16572345793247223,-0.0938095822930336,0.10111729800701141
1789484378145973000,2.835972900390625,-0.15865355730056763,-0.07239137589931488,0.03205700218677521
1789484378155945000,2.845945068359375,-0.18282414972782135,-0.050158243626356125,0.017225325107574463
1789484378165916000,2.855916015625,-0.1651013344526291,-0.029570674523711205,-0.026509903371334076
1789484378175888100,2.86588818359375,-0.004818190820515156,-0.11486027389764786,0.030879618600010872
1789484378185859000,2.875859130859375,0.110694020986557,-0.12135758996009827,-0.011737615801393986
1789484378195831000,2.8858310546875,0.06395234912633896,-0.05952617898583412,0.0194887463003397
1789484378205803000,2.895802978515625,0.17159625887870789,-0.07858109474182129,-0.014099041000008583
1789484378215774000,2.90577392578125,0.21177296340465546,-0.10939493030309677,0.02689473144710064
1789484378225746000,2.915745849609375,0.23590946197509766,-0.12192218005657196,-0.026098977774381638
1789484378235717000,2.925717041015625,0.20531533658504486,-0.08649814128875732,0.03512869402766228
1789484378245688800,2.935688720703125,0.25787070393562317,-0.08234521001577377,-0.03099493309855461
1789484378255660000,2.945659912109375,0.2606576979160309,-0.08463366329669952,-0.08007406443357468
1789484378265632000,2.955632080078125,0.23037168383598328,-0.08633648604154587,-0.06005321815609932
1789484378275603000,2.96560302734375,0.3007870018482208,-0.14259842038154602,-0.09775958210229874
1789484378285575000,2.975574951171875,0.4065406024456024,-0.12348678708076477,-0.13023310899734497
1789484378295546000,2.985546142578125,0.3789198696613312,-0.1258535385131836,-0.02875415049493313
1789484378305517800,2.995517822265625,0.4227278232574463,-0.05182617902755737,-0.0952381044626236
1789484378315490000,3.005489990234375,0.4569065570831299,-0.09098716080188751,-0.05921698361635208
1789484378325461000,3.0154609375,0.3638535737991333,-0.09565754979848862,0.09587220102548599
1789484378335433000,3.025432861328125,0.2946641147136688,0.08624327182769775,-0.08009003847837448
1789484378345404000,3.03540380859375,0.33801719546318054,-0.011562380008399487,-0.06410867720842361
1789484378355376000,3.045376220703125,0.30404937267303467,0.01944134198129177,-0.03099413402378559
1789484378365346800,3.055346923828125,0.2766726016998291,0.019110044464468956,-0.057919759303331375
1789484378375319000,3.065319091796875,0.28448179364204407,0.03674549609422684,-0.12029764801263809
1789484378385290000,3.0752900390625,0.21025310456752777,-0.017614945769309998,-0.012486763298511505
1789484378395262000,3.085261962890625,0.18817256391048431,0.05337773635983467,-0.022178538143634796
1789484378405234200,3.095234130859375,0.1649029403924942,0.03609568625688553,-0.02496553771197796
1789484378415205000,3.105205078125,0.04368329793214798,0.04673714563250542,0.0002109223569277674
1789484378425177000,3.115177001953125,0.04487506300210953,0.034204576164484024,0.020794227719306946
1789484378435148000,3.12514794921875,0.10642977058887482,0.012807940132915974,0.07103955745697021
1789484378445120000,3.1351201171875,0.016050605103373528,0.05497563257813454,0.05445551872253418
1789484378455091000,3.145091064453125,-0.0926753431558609,0.10348644107580185,0.06552521139383316
1789484378465063200,3.155063232421875,-0.1273619532585144,0.053105030208826065,0.041063547134399414
1789484378475034000,3.1650341796875,-0.045107558369636536,0.04682982340455055,-0.014342187903821468
1789484378485006000,3.175006103515625,-0.08385282009840012,0.03942889720201492,0.00993359088897705
1789484378494978000,3.18497802734375,-0.11188605427742004,0.06828238815069199,0.038054708391427994
1789484378504949000,3.194948974609375,-0.13546061515808105,0.11880574375391006,-0.0828472152352333
1789484378514921000,3.2049208984375,-0.15168459713459015,0.00430047232657671,-0.004599545616656542
1789484378524892200,3.21489208984375,-0.21740742027759552,0.012313657440245152,0.019566776230931282
1789484378534864000,3.22486376953125,-0.2213776558637619,0.02299586310982704,0.007327953819185495
1789484378544835000,3.2348349609375,-0.2211933732032776,0.04318155720829964,0.03699450194835663
1789484378554807000,3.24480712890625,-0.18354080617427826,0.02027704194188118,0.04838031530380249
1789484378564778000,3.254778076171875,-0.14164048433303833,0.06029343232512474,-0.018268220126628876
1789484378574750000,3.26475,-0.06759129464626312,0.03646586462855339,-0.01571185141801834
1789484378584722000,3.274721923828125,0.013186641968786716,0.016284430399537086,0.005727127660065889
1789484378594692900,3.28469287109375,0.04332190752029419,0.0602811835706234,-0.0560358390212059
1789484378604665000,3.2946650390625,-0.0012237224727869034,0.04487985745072365,-0.024950090795755386
1789484378614636000,3.304635986328125,-0.026853717863559723,-0.005398493725806475,-0.0013052152935415506
1789484378624608000,3.31460791015625,-0.020708739757537842,0.04939338192343712,0.020009394735097885
1789484378634579000,3.324578857421875,0.012002600356936455,0.06181516498327255,-0.0014149374328553677
1789484378644551000,3.334551025390625,-0.038546059280633926,0.056478191167116165,0.09909356385469437
1789484378654523000,3.34452294921875,0.13101154565811157,0.00495134899392724,0.05078328400850296
1789484378664494000,3.354494140625,0.14643044769763947,0.06709355115890503,0.04465508460998535
1789484378674465800,3.3644658203125,0.25056031346321106,0.06909012049436569,-0.0459832027554512
1789484378684437000,3.37443701171875,0.26201191544532776,0.03827974572777748,0.009489907883107662
1789484378694409000,3.384408935546875,0.3739323019981384,0.07263798266649246,-0.06743337213993073
1789484378704380200,3.394380126953125,0.3517940044403076,0.0829944834113121,-0.012341887690126896
1789484378714351900,3.404351806640625,0.26584818959236145,0.1307324469089508,-0.059974122792482376
1789484378724324000,3.414323974609375,0.2459847331047058,0.06924937665462494,0.00341603672131896
1789484378734294800,3.424294677734375,0.07012981921434402,0.078425832092762,0.04494483768939972
1789484378744267000,3.43426708984375,0.06871487945318222,0.14737321436405182,-0.05203044414520264
1789484378754238000,3.444238037109375,-0.02586675062775612,0.17710500955581665,-0.07519727945327759
1789484378764210000,3.4542099609375,0.09079648554325104,0.08577802032232285,-0.03888854384422302
1789484378774180900,3.464180908203125,0.15235811471939087,0.1499282419681549,-0.02238466776907444
1789484378784153000,3.474153076171875,0.15614885091781616,0.15629266202449799,-0.06724508106708527
1789484378794125000,3.484125,0.12864959239959717,0.18862050771713257,-0.04674380272626877
1789484378804096000,3.494095947265625,-0.012509133666753769,0.22311803698539734,-0.046964578330516815
1789484378814068000,3.50406787109375,-0.07853075861930847,0.20473450422286987,-0.04019615426659584
1789484378824039000,3.514038818359375,-0.27273672819137573,0.18184250593185425,0.07535015046596527
1789484378834011100,3.52401123046875,-0.2925543785095215,0.20371291041374207,0.006098372396081686
1789484378843982000,3.533982177734375,-0.372801274061203,0.28100237250328064,-0.06503625959157944
1789484378853954000,3.5439541015625,-0.3938487768173218,0.13036200404167175,-0.00039281626231968403
1789484378863926000,3.553926025390625,-0.3648991286754608,0.18266035616397858,-0.03232571482658386
1789484378873897000,3.56389697265625,-0.33866700530052185,0.16947078704833984,-0.06604160368442535
1789484378883869000,3.573868896484375,-0.403366357088089,0.08723822981119156,0.08173161745071411
1789484378893840100,3.583840087890625,-0.5317813158035278,0.17998015880584717,0.08569226413965225
1789484378903811800,3.593811767578125,-0.5006375312805176,0.18308407068252563,-0.01870684139430523
1789484378913783000,3.603782958984375,-0.469189316034317,0.14150786399841309,-0.0044352286495268345
1789484378923755000,3.613755126953125,-0.41696739196777344,0.058577291667461395,0.041245974600315094
1789484378933727000,3.62372705078125,-0.3275453746318817,0.13025547564029694,0.01715901307761669
1789484378943698000,3.633697998046875,-0.3230054974555969,0.1087629646062851,-0.0018767296569421887
1789484378953670100,3.643670166015625,-0.3109419047832489,0.12935079634189606,0.04259246587753296
1789484378963640800,3.653640869140625,-0.3163891136646271,0.11340751498937607,0.07472243905067444
1789484378973613000,3.663613037109375,-0.2718815803527832,0.1561342030763626,0.040638770908117294
1789484378983585000,3.6735849609375,-0.22102825343608856,0.12458240985870361,-0.019145997241139412
1789484378993555500,3.683555419921875,-0.16147491335868835,0.14032861590385437,0.002400839701294899
1789484379003527700,3.693527587890625,-0.1237214058637619,0.17832180857658386,-0.03753272816538811
1789484379013498600,3.70349853515625,-0.07072103768587112,0.10448619723320007,-0.03635188192129135
1789484379023470600,3.713470703125,-0.16527578234672546,0.10654748231172562,0.02371118776500225
1789484379033441500,3.723441650390625,-0.1363905966281891,0.07141106575727463,0.027341876178979874
1789484379043413800,3.733413818359375,-0.11980283260345459,0.029693713411688805,-0.004052798729389906
1789484379053385700,3.7433857421875,-0.28101277351379395,0.04908871650695801,0.12251180410385132
1789484379063356700,3.753356689453125,-0.27122190594673157,0.07370670884847641,0.08956130594015121
1789484379073328600,3.76332861328125,-0.18513496220111847,0.0690230131149292,-0.06794389337301254
1789484379083299600,3.773299560546875,-0.12521225214004517,-0.016048207879066467,-0.030784277245402336
1789484379093271800,3.783271728515625,-0.10878986120223999,0.02635597437620163,-0.03417208418250084
1789484379103243500,3.793243408203125,-0.11066845804452896,0.07101824879646301,-0.06857559829950333
1789484379113214700,3.803214599609375,-0.11417371034622192,0.06722936779260635,-0.10681646317243576
1789484379123186700,3.813186767578125,-0.1874828040599823,0.004430967383086681,-0.02082725055515766
1789484379133157600,3.82315771484375,-0.3492027223110199,0.034986481070518494,0.04598666727542877
1789484379143129600,3.833129638671875,-0.5052085518836975,0.05398919805884361,0.07627266645431519
1789484379153100800,3.843100830078125,-0.45411691069602966,0.04309900104999542,0.01588122919201851
1789484379163072500,3.853072509765625,-0.47918736934661865,0.07761010527610779,-0.10349070280790329
1789484379173044700,3.863044677734375,-0.3872204124927521,-0.03247937932610512,-0.05001815780997276
1789484379183015700,3.873015625,-0.3622799217700958,-0.010268616490066051,-0.08111535757780075
1789484379192987600,3.882987548828125,-0.42247721552848816,-0.047390684485435486,-0.032641299068927765
1789484379202958600,3.89295849609375,-0.44173187017440796,-0.06825175881385803,-0.018269019201397896
1789484379212930600,3.9029306640625,-0.49626460671424866,-0.08698470145463943,-0.04466946795582771
1789484379222902500,3.912902587890625,-0.5177392959594727,-0.08051082491874695,-0.02696077711880207
1789484379232873700,3.922873779296875,-0.4944206476211548,-0.09171394258737564,-0.04731291905045509
1789484379242845400,3.932845458984375,-0.5155967473983765,-0.1099667176604271,-0.022396652027964592
1789484379252816600,3.942816650390625,-0.5273080468177795,-0.1146586686372757,-0.01185186579823494
1789484379262788600,3.95278857421875,-0.4950227737426758,-0.14866244792938232,0.05427176132798195
1789484379272760600,3.962760498046875,-0.3718337416648865,-0.1751052439212799,0.04970363900065422
1789484379282731500,3.9727314453125,-0.26333311200141907,-0.17472413182258606,-0.04252828657627106
1789484379292703700,3.982703857421875,-0.2929200232028961,-0.113617904484272,-0.0660964623093605
1789484379302674400,3.99267431640625,-0.23639708757400513,-0.191572368144989,0.07734032720327377
1789484379312646700,4.002646728515625,-0.10697518289089203,-0.1762397438287735,0.02804415114223957
1789484379322618600,4.01261865234375,-0.1052960604429245,-0.1841123104095459,0.04922773316502571
1789484379332589600,4.022589599609375,-0.09671695530414581,-0.16228210926055908,0.016437828540802002
1789484379342561800,4.032561767578125,-0.024339694529771805,-0.23980434238910675,0.016230102628469467
1789484379352532700,4.04253271484375,-0.010146910324692726,-0.20332249999046326,-0.027717914432287216
1789484379362504700,4.052504638671875,-0.02503291517496109,-0.1916772872209549,0.007839813828468323
1789484379372476700,4.0624765625,-0.014035924337804317,-0.247726172208786,0.058577027171850204
1789484379382447600,4.072447509765625,0.0448329858481884,-0.22786565124988556,0.019466908648610115
1789484379392419600,4.082419677734375,0.0073175677098333836,-0.2580097019672394,0.10835204273462296
1789484379402390800,4.092390869140625,0.08297770470380783,-0.19947901368141174,-0.012956811115145683
1789484379412362500,4.102362548828125,0.15471820533275604,-0.21431149542331696,-0.04815900698304176
1789484379422333700,4.112333740234375,0.24939864873886108,-0.26955610513687134,0.01889565959572792
1789484379432305700,4.1223056640625,0.30795595049858093,-0.25598251819610596,0.016048740595579147
1789484379442277600,4.132277587890625,0.2758667469024658,-0.21604788303375244,0.03696760535240173
1789484379452248600,4.14224853515625,0.28404849767684937,-0.2316526621580124,0.017300426959991455
1789484379462220500,4.152220458984375,0.19998182356357574,-0.20456857979297638,0.031989891082048416
1789484379472191500,4.16219140625,0.14703498780727386,-0.15434536337852478,0.04784475266933441
1789484379485902600,4.175902587890625,0.15332750976085663,-0.19338278472423553,0.036737240850925446
1789484379495874600,4.18587451171875,0.19942229986190796,-0.1895022839307785,0.03646879643201828
1789484379505846800,4.1958466796875,0.29569265246391296,-0.16526831686496735,0.006028331350535154
1789484379515817700,4.205817626953125,0.3642410635948181,-0.1527722328901291,0.012057461775839329
1789484379525789700,4.215789794921875,0.4130445718765259,-0.13077159225940704,-0.04038044437766075
1789484379535760600,4.2257607421875,0.3636615574359894,-0.14964275062084198,0.003719637170433998
1789484379545732900,4.23573291015625,0.25262027978897095,-0.07550807297229767,0.005654423497617245
1789484379555704600,4.24570458984375,0.1840265542268753,-0.10347925126552582,0.021458687260746956
1789484379565675800,4.25567578125,0.12119273841381073,-0.10546250641345978,0.029093969613313675
1789484379575647500,4.2656474609375,0.10480204969644547,-0.06788504123687744,-0.030708111822605133
1789484379585618700,4.27561865234375,0.19563500583171844,-0.123256154358387,-0.0376104936003685
1789484379595590700,4.285590576171875,0.2552829086780548,-0.09092883765697479,-0.011094196699559689
1789484379605562600,4.295562744140625,0.31727543473243713,-0.0667010024189949,-0.08699561655521393
1789484379615533600,4.305533447265625,0.2255905121564865,-0.045352302491664886,-0.06471002101898193
1789484379625505800,4.315505859375,0.1259283721446991,-0.0004623247659765184,-0.04892626404762268
1789484379635476500,4.3254765625,0.051290083676576614,-0.017414676025509834,0.016047408804297447
1789484379645448700,4.33544873046875,-0.10707132518291473,0.03899666666984558,0.0353420116007328
1789484379655420400,4.34542041015625,-0.06480909138917923,0.05090685561299324,-0.009802030399441719
1789484379665391600,4.3553916015625,-0.18743008375167847,0.02798289805650711,-0.017430389299988747
1789484379675363600,4.365363525390625,-0.14773060381412506,-0.04426386579871178,-0.01769297756254673
1789484379685334800,4.375334716796875,-0.08761560171842575,-0.062002383172512054,-0.04611583054065704
1789484379695306500,4.385306396484375,-0.045099299401044846,-0.13951848447322845,0.06656491011381149
1789484379705278700,4.39527880859375,-0.10632830113172531,-0.0008111988427117467,-0.009052084758877754
1789484379715249700,4.405249755859375,-0.08707684278488159,-0.06594492495059967,0.019845077767968178
1789484379725221600,4.4152216796875,-0.052613142877817154,-0.04989778622984886,-0.0947645902633667
1789484379735192600,4.425192626953125,0.002947852946817875,-0.08265147358179092,-0.08966650068759918
1789484379745164500,4.43516455078125,-0.01023000106215477,-0.09292115271091461,0.021885590627789497
1789484379755136800,4.44513671875,-0.05279477313160896,-0.0788135901093483,0.07370218634605408
1789484379765107700,4.455107666015625,-0.018510833382606506,-0.027570374310016632,-0.011946674436330795
1789484379775079700,4.46507958984375,-0.0465235598385334,-0.0418771430850029,0.0008767126128077507
1789484379785050600,4.475050537109375,-0.024805214256048203,-0.013639645650982857,-0.060196761041879654
1789484379795022800,4.48502294921875,0.09816838055849075,-0.06978573650121689,-0.019302058964967728
1789484379804994600,4.49499462890625,0.18063528835773468,-0.024713868275284767,-0.05902497097849846
1789484379814965800,4.5049658203125,0.18199430406093597,-0.07651421427726746,0.026801520958542824
1789484379824937500,4.5149375,0.11095927655696869,-0.02780899405479431,0.07012369483709335
1789484379834908700,4.52490869140625,0.08719988167285919,0.032770462334156036,0.028795961290597916
1789484379844880600,4.534880615234375,0.11398409307003021,0.02749021351337433,-0.03536944091320038
1789484379854852600,4.5448525390625,0.012025769799947739,-0.018490593880414963,0.1336107850074768
1789484379864823600,4.554823486328125,0.08442327380180359,-0.024217188358306885,0.09564156830310822
1789484379874795800,4.564795654296875,0.1448461413383484,-0.002510828198865056,0.058276090770959854
1789484379884766500,4.574766357421875,0.17826268076896667,0.03961319103837013,-0.06377871334552765
1789484379894738700,4.58473876953125,0.13850754499435425,0.00950908288359642,-0.031010646373033524
1789484379904710700,4.594710693359375,0.22525948286056519,-0.09841179102659225,0.06059650331735611
1789484379914681600,4.604681640625,0.30814293026924133,-0.060085441917181015,-0.01101749762892723
1789484379924653600,4.614653564453125,0.21848706901073456,0.06065908446907997,-0.09809141606092453
1789484379934624800,4.624624755859375,0.2583710849285126,-0.03889600187540054,-0.05452795699238777
1789484379944596500,4.634596435546875,0.25539901852607727,-0.011352523230016232,-0.03563842177391052
1789484379954568700,4.644568603515625,0.19828805327415466,-0.008666991256177425,0.012173575349152088
1789484379964539600,4.65453955078125,0.10293649882078171,0.0604015588760376,-0.012229235842823982
1789484379974511600,4.66451171875,-0.002002697205170989,-0.009839847683906555,0.04261856526136398
1789484379984482600,4.674482666015625,-0.016706807538866997,-0.005025917664170265,0.00629091914743185
1789484379994454800,4.684454833984375,-0.09473130106925964,-0.0018024274613708258,0.007769505959004164
1789484380004427000,4.694427001953125,-0.14072568714618683,0.009380985051393509,-0.004767324775457382
1789484380014398000,4.70439794921875,-0.10674828290939331,-0.030487867072224617,0.007699731271713972
1789484380024370000,4.714369873046875,-0.14359897375106812,0.000300404557492584,-0.07487690448760986
1789484380034340900,4.7243408203125,-0.26716646552085876,-0.0013683321885764599,-0.007640076335519552
1789484380044312800,4.734312744140625,-0.33623048663139343,-0.06899025291204453,0.06335127353668213
1789484380054284800,4.744284912109375,-0.4465615153312683,-0.02804495021700859,0.003229881636798382
1789484380064256000,4.754256103515625,-0.5716099739074707,-0.03452282398939133,-0.010893394239246845
1789484380074227700,4.764227783203125,-0.6502315402030945,-0.01864905096590519,-0.02574451081454754
1789484380084199000,4.774198974609375,-0.6040225028991699,-0.15483325719833374,-0.003528422210365534
1789484380094171000,4.7841708984375,-0.566663920879364,-0.16912829875946045,-0.009181248024106026
1789484380104142800,4.794142822265625,-0.48597097396850586,-0.15807992219924927,-0.0428534559905529
1789484380114113800,4.80411376953125,-0.28770050406455994,-0.2146150916814804,0.004367318004369736
1789484380124086000,4.8140859375,-0.2660202383995056,-0.11256702244281769,0.019537216052412987
1789484380134056700,4.824056640625,-0.16332954168319702,-0.08138486742973328,0.0369364470243454
1789484380144029000,4.83402880859375,-0.054554589092731476,-0.09335791319608688,-0.04597281664609909
1789484380154000600,4.844000732421875,-0.02809794805943966,-0.0730355978012085,-0.0009025452891364694
1789484380163971800,4.853971923828125,0.05420544743537903,-0.1067754477262497,0.035346005111932755
1789484380173943800,4.86394384765625,0.06545943021774292,-0.016925986856222153,-0.06708023697137833
1789484380183915000,4.8739150390625,0.12596485018730164,-0.14804619550704956,0.04644020274281502
1789484380193887000,4.883886962890625,0.18302175402641296,-0.1453462690114975,-0.023683225736021996
1789484380203859000,4.89385888671875,0.25918787717819214,-0.12232831120491028,-0.045226335525512695
1789484380213830000,4.903829833984375,0.16372448205947876,-0.1590770035982132,0.0634591355919838
1789484380223801900,4.9138017578125,0.1862550973892212,-0.14246633648872375,0.06657955795526505
1789484380233773000,4.92377294921875,0.22345252335071564,-0.16404566168785095,-0.029799440875649452
1789484380243744800,4.933744873046875,0.14479553699493408,-0.12977264821529388,0.007844074629247189
1789484380253716000,4.943716064453125,0.20552785694599152,-0.18842236697673798,0.04547560587525368
1789484380263688000,4.95368798828125,0.21235540509223938,-0.1502789855003357,0.0681348443031311
1789484380273660000,4.963659912109375,0.21503613889217377,-0.15311551094055176,-0.011462511494755745
1789484380283630800,4.973630859375,0.22593699395656586,-0.1273941695690155,0.019452793523669243
1789484380293602800,4.983602783203125,0.26939818263053894,-0.17061755061149597,0.013706224970519543
1789484380303573800,4.99357373046875,0.2610616981983185,-0.13497300446033478,0.04563406482338905
1789484380313546000,5.0035458984375,0.3007052540779114,-0.10777945816516876,-0.06186283379793167
1789484380323517700,5.013517578125,0.4011620581150055,-0.14041197299957275,-0.057008955627679825
1789484380333489000,5.023489013671875,0.3854382336139679,-0.14286953210830688,0.015874037519097328
1789484380343460900,5.0334609375,0.4138815999031067,-0.1265837699174881,0.04587028548121452
1789484380353432000,5.04343212890625,0.38300010561943054,-0.010039318352937698,-0.03189747780561447
1789484380363403800,5.05340380859375,0.3195870518684387,0.026076341047883034,-0.03224369138479233
1789484380373376000,5.0633759765625,0.2843094766139984,-0.058511778712272644,0.11731916666030884
1789484380383346700,5.0733466796875,0.23853400349617004,-0.10393305867910385,0.14890505373477936
1789484380393319000,5.08331884765625,0.20282554626464844,0.04194345697760582,-0.034213628619909286
1789484380403289900,5.093289794921875,0.22554470598697662,0.0034527883399277925,-0.07247845828533173
1789484380413261800,5.10326171875,0.3560476005077362,-0.08038618415594101,0.02701590396463871
1789484380423232800,5.113232666015625,0.366747111082077,-0.0726504996418953,0.02827797643840313
1789484380433205000,5.123205078125,0.33855968713760376,-0.012660933658480644,-0.07468515634536743
1789484380443177000,5.133177001953125,0.27193617820739746,0.01411501970142126,-0.02454662136733532
1789484380453148000,5.14314794921875,0.2570357918739319,0.02942286990582943,0.011936288326978683
1789484380463120000,5.153119873046875,0.24119530618190765,0.05937570706009865,0.010486196726560593
1789484380473090800,5.1630908203125,0.1642206311225891,0.15552620589733124,-0.0799395740032196
1789484380483063000,5.17306298828125,0.21577516198158264,0.07576240599155426,-0.07006031274795532
1789484380493034800,5.18303466796875,0.09261941909790039,0.06192621961236,-0.0024517059791833162
1789484380503006000,5.193005859375,0.15204332768917084,0.10461269319057465,-0.07960614562034607
1789484380512978000,5.20297802734375,0.2540551722049713,0.12185772508382797,-0.1271883100271225
1789484380522948900,5.212948974609375,0.23524793982505798,0.0416284017264843,0.08620891720056534
1789484380532920800,5.2229208984375,0.15558692812919617,0.16438068449497223,0.06425940990447998
1789484380542893000,5.23289306640625,0.17360907793045044,0.14273957908153534,-0.018732408061623573
1789484380552863700,5.24286376953125,0.15985970199108124,0.15689800679683685,-0.09677048772573471
1789484380562836000,5.2528359375,0.1334265023469925,0.03129986673593521,0.05801057070493698
1789484380572807000,5.262806884765625,0.05793653801083565,0.054596930742263794,0.13829262554645538
1789484380582779000,5.27277880859375,0.07877710461616516,0.18485985696315765,-0.026606310158967972
1789484380592749800,5.282749755859375,0.040874727070331573,0.2141120284795761,-0.07525747269392014
1789484380602722000,5.29272216796875,-0.023258984088897705,0.1566023975610733,0.09751617163419724
1789484380612693800,5.30269384765625,0.03587410971522331,0.14548076689243317,0.1001385822892189
1789484380622665000,5.3126650390625,0.20265378057956696,0.17753563821315765,-0.024320784956216812
1789484380632636700,5.32263671875,0.06663522124290466,0.13659167289733887,0.16655568778514862
1789484380642607900,5.33260791015625,0.17288576066493988,0.25647759437561035,0.02749207802116871
1789484380652579800,5.342579833984375,0.18532511591911316,0.2685856521129608,0.052923135459423065
1789484380662551000,5.352551025390625,0.2051190584897995,0.2698541283607483,0.0689268708229065
1789484380672522800,5.362522705078125,0.23987065255641937,0.32681965827941895,0.08091855049133301
1789484380682495000,5.372494873046875,0.21485212445259094,0.305409699678421,0.08327757567167282
1789484380692465700,5.382465576171875,0.22409887611865997,0.30768299102783203,0.14821024239063263
1789484380702438000,5.39243798828125,0.15115809440612793,0.32773950695991516,0.19330714643001556
1789484380712408800,5.402408935546875,0.0813654288649559,0.34970685839653015,0.10018572211265564
1789484380722380800,5.412380859375,0.07262413948774338,0.33104875683784485,0.02297908440232277
1789484380732351700,5.422351806640625,0.12047474831342697,0.38126906752586365,-0.09747995436191559
1789484380742324000,5.432323974609375,0.12363512068986893,0.3400726318359375,-0.04604845121502876
1789484380752296000,5.4422958984375,0.06986723095178604,0.2939586639404297,0.11570289731025696
1789484380762267000,5.452266845703125,-0.034331075847148895,0.3508187532424927,0.09388840943574905
1789484380772238800,5.46223876953125,-0.07080812752246857,0.34842854738235474,0.01702292636036873
1789484380782209800,5.472209716796875,-0.21468913555145264,0.3745664060115814,-0.0027233485598117113
1789484380792182000,5.48218212890625,-0.3618372976779938,0.2819533944129944,0.09392169862985611
1789484380802153700,5.49215380859375,-0.459367573261261,0.3686597943305969,-0.054608117789030075
1789484380812125000,5.502125,-0.5865159630775452,0.32047948241233826,-0.07092610746622086
1789484380822097000,5.512096923828125,-0.4494057595729828,0.304808646440506,0.021517276763916016
1789484380832067800,5.52206787109375,-0.3362794816493988,0.3410119116306305,-0.09770125895738602
1789484380842039800,5.532039794921875,-0.49008581042289734,0.4089134633541107,-0.11939696967601776
1789484380852011000,5.542010986328125,-0.6701450943946838,0.35545769333839417,0.0023989754263311625
1789484380861982700,5.551982666015625,-0.6856116652488708,0.35244831442832947,-0.050761979073286057
1789484380871955000,5.561954833984375,-0.8454700112342834,0.3966112732887268,-0.14696654677391052
1789484380881926000,5.57192578125,-0.9873706698417664,0.3479233384132385,-0.05608590692281723
1789484380891897900,5.58189794921875,-1.0426781177520752,0.2310609072446823,0.036681849509477615
1789484380901868800,5.591868896484375,-1.1022884845733643,0.17868852615356445,-0.00040320257539860904
1789484380911841000,5.601841064453125,-1.1040669679641724,0.22996768355369568,-0.0836794525384903
1789484380921811700,5.611811767578125,-1.0038529634475708,0.14155447483062744,-0.14464692771434784
1789484380931784000,5.621783935546875,-0.9691402912139893,0.03243756666779518,-0.03110865131020546
1789484380941755600,5.631755615234375,-0.9564995765686035,0.043721117079257965,-0.012545352801680565
1789484380951726800,5.641726806640625,-0.9420631527900696,-0.02449202723801136,0.03473427891731262
1789484380961698800,5.65169873046875,-0.9000035524368286,0.018425345420837402,-0.0051596080884337425
1789484380971670000,5.661669921875,-0.7236341238021851,-0.04554431512951851,-0.0013438310706987977
1789484380981641700,5.671641845703125,-0.5879114270210266,-0.0810844674706459,0.026875022798776627
1789484380991612400,5.6816123046875,-0.5159035921096802,-0.07351602613925934,0.028725653886795044
1789484381001584600,5.691584716796875,-0.38653919100761414,-0.10116816312074661,-0.0740760937333107
1789484381011556400,5.701556396484375,-0.33609890937805176,-0.1758301556110382,0.052915677428245544
1789484381021527600,5.711527587890625,-0.2551995515823364,-0.10352718830108643,0.08894664794206619
1789484381031499300,5.721499267578125,-0.07431204617023468,-0.1131443977355957,-0.04032984748482704
1789484381041470500,5.731470458984375,-0.001660480978898704,-0.13633334636688232,-0.05463501438498497
1789484381051442400,5.7414423828125,0.02894882671535015,-0.22601741552352905,0.015323828905820847
1789484381061413600,5.75141357421875,0.054539941251277924,-0.16655755043029785,-0.0360991470515728
1789484381071385300,5.76138525390625,0.01332592498511076,-0.24409443140029907,0.027531759813427925
1789484381081357600,5.771357666015625,-0.03698411583900452,-0.2056650072336197,0.04790787026286125
1789484381091328500,5.78132861328125,0.0017281252657994628,-0.25471031665802,0.014762966893613338
1789484381101300500,5.791300537109375,0.11845873296260834,-0.28266099095344543,0.009621468372642994
1789484381111271700,5.801271728515625,0.07014499604701996,-0.2691473066806793,0.016635434702038765
1789484381121243400,5.811243408203125,0.09172326326370239,-0.20337548851966858,0.00657614367082715
1789484381131214600,5.821214599609375,0.2394637167453766,-0.2861079275608063,0.01720854826271534
1789484381141186600,5.8311865234375,0.23350676894187927,-0.1950773447751999,-0.059418585151433945
1789484381151158500,5.841158447265625,0.2989984154701233,-0.19815808534622192,-0.11414468288421631
1789484381161129500,5.85112939453125,0.4077768325805664,-0.28262877464294434,-0.09892471879720688
1789484381171101700,5.861101806640625,0.28784269094467163,-0.2706509232521057,0.11364533752202988
1789484381181072400,5.871072265625,0.2685270607471466,-0.2299272119998932,0.01871722936630249
1789484381191044600,5.881044677734375,0.2082141935825348,-0.15606310963630676,-0.01417467463761568
1789484381201015600,5.891015625,0.10676852613687515,-0.2153692990541458,0.13273248076438904
1789484381210987500,5.900987548828125,0.12117116898298264,-0.1540689319372177,0.07730304449796677
1789484381220958500,5.91095849609375,0.22660145163536072,-0.12612198293209076,-0.059540823101997375
1789484381230930700,5.9209306640625,0.23594222962856293,-0.1733129322528839,0.04126754403114319
1789484381240902400,5.93090234375,0.25526106357574463,-0.0860094502568245,-0.05851098150014877
1789484381250873600,5.94087353515625,0.2862679660320282,-0.13872405886650085,0.017482852563261986
1789484381260845300,5.95084521484375,0.278435081243515,-0.10021182149648666,0.0392850860953331
1789484381270816500,5.96081640625,0.24751952290534973,-0.031097199767827988,-0.08247969299554825
1789484381280788500,5.97078857421875,0.1817370355129242,-0.019756926223635674,-0.06847093999385834
1789484381290759700,5.980759765625,0.09750445187091827,-0.056419335305690765,0.01781574822962284
1789484381300731400,5.9907314453125,0.0812932550907135,-0.043114446103572845,0.04163506254553795
1789484381310703600,6.00070361328125,0.011117632500827312,-0.03409911319613457,-0.0057534934021532536
1789484381320674300,6.01067431640625,0.030013825744390488,-0.029039375483989716,0.009442769922316074
1789484381330646500,6.020646484375,-0.03773938864469528,-0.04755047336220741,0.09092990309000015
1789484381340617500,6.030617431640625,-0.02442171983420849,-0.054482150822877884,0.09085587412118912
1789484381350589400,6.04058935546875,-0.07583484053611755,0.012782374396920204,-0.011804994195699692
1789484381360560400,6.050560302734375,-0.16274045407772064,0.03831649571657181,-0.006445382256060839
1789484381370532600,6.06053271484375,-0.12287691980600357,0.005450691562145948,-0.006097041070461273
1789484381380504600,6.070504638671875,-0.03552071005105972,-0.05549388378858566,0.09088889509439468
1789484381390475500,6.0804755859375,-0.02894403412938118,0.01888846978545189,-0.0006056028068996966
1789484381400447500,6.090447509765625,-0.09610948711633682,0.007370031904429197,-0.02666649781167507
1789484381410418400,6.10041845703125,-0.16571839153766632,-0.04331551492214203,0.002591521944850683
1789484381420390700,6.110390625,-0.20186415314674377,-0.0863649845123291,0.0722036212682724
1789484381430361600,6.120361572265625,-0.21997177600860596,-0.08358383923768997,0.08234760165214539
1789484381440333600,6.13033349609375,-0.18060173094272614,-0.055519718676805496,0.0428507924079895
1789484381450305500,6.140305419921875,-0.1939026266336441,-0.01486203633248806,0.005376123357564211
1789484381460276500,6.1502763671875,-0.12721388041973114,-0.10100597888231277,0.07975821197032928
1789484381470248400,6.16024853515625,-0.12987837195396423,-0.10178522020578384,0.09023961424827576
1789484381480219600,6.1702197265625,-0.1361599713563919,-0.0770346000790596,0.09920407831668854
1789484381490191400,6.18019140625,-0.1904519647359848,-0.07326356321573257,0.11297768354415894
1789484381500162600,6.19016259765625,-0.17826694250106812,-0.08269035071134567,0.07761756330728531
1789484381510134500,6.200134521484375,-0.20332062244415283,-0.018275942653417587,-0.003230680711567402
1789484381520105700,6.210105712890625,-0.18607160449028015,-0.08704568445682526,0.05077369883656502
1789484381530077400,6.220077392578125,-0.16945907473564148,-0.19323097169399261,0.208234965801239
1789484381540049700,6.230049560546875,-0.0909445509314537,-0.06477206945419312,0.07209603488445282
1789484381550020400,6.240020263671875,-0.019537216052412987,-0.0359734483063221,-0.10615786164999008
1789484381559992600,6.24999267578125,0.07501006126403809,-0.0905139222741127,-0.024993233382701874
1789484381569963500,6.259963623046875,0.15769003331661224,-0.11680278182029724,0.09286655485630035
1789484381579935500,6.269935546875,0.26183027029037476,-0.06637369841337204,-0.003959587775170803
1789484381589906400,6.279906494140625,0.2100594937801361,-0.0793432891368866,-0.01593662239611149
1789484381599878700,6.289878662109375,0.10146909952163696,-0.07647985965013504,0.09395605325698853
1789484381609850400,6.299850341796875,0.03164208307862282,-0.15843677520751953,0.08758950233459473
1789484381619821600,6.309821533203125,0.07994809746742249,-0.03478407859802246,-0.07657946646213531
1789484381629793300,6.319793212890625,0.0723106786608696,-0.07014766335487366,-0.13692349195480347
1789484381639764500,6.329764404296875,0.17096854746341705,-0.18955367803573608,0.061516888439655304
1789484381649736400,6.339736328125,0.3414878249168396,-0.20112858712673187,-0.050033338367938995
1789484381659707600,6.349707763671875,0.3039740025997162,-0.03969654440879822,-0.1869262158870697
1789484381669679400,6.359679443359375,0.20927944779396057,-0.03840517997741699,-0.057728543877601624
1789484381679651600,6.369651611328125,0.17253023386001587,-0.07199110090732574,0.04265718162059784
1789484381689622500,6.37962255859375,0.19410209357738495,-0.05540493503212929,0.0083071980625391
1789484381699594500,6.389594482421875,0.039805468171834946,0.009601494297385216,-0.051479969173669815
1789484381709565400,6.3995654296875,-0.0703202337026596,-0.010099772363901138,0.01357333268970251
1789484381719537400,6.409537353515625,0.045650310814380646,-0.01972843147814274,-0.12744849920272827
1789484381729508400,6.41950830078125,-0.021343104541301727,-0.046121157705783844,-0.13121074438095093
1789484381739480600,6.42948046875,-0.06880436092615128,-0.12109260261058807,-0.04800880327820778
1789484381749452500,6.43945263671875,-0.09271316230297089,-0.08862147480249405,0.004340420011430979
1789484381759423500,6.449423583984375,-0.08430556207895279,-0.06261570751667023,-0.09061884880065918
1789484381769395700,6.459395751953125,-0.2886973023414612,-0.04520609229803085,0.018210696056485176
1789484381779366400,6.469366455078125,-0.35131487250328064,-0.11945502460002899,0.09604424238204956
1789484381789338600,6.479338623046875,-0.30555352568626404,-0.0874137356877327,-0.054498396813869476
1789484381799309600,6.4893095703125,-0.39264553785324097,-0.07657919824123383,-0.07390538603067398
1789484381809281500,6.499281494140625,-0.3784983158111572,-0.1431632786989212,0.02112152986228466
1789484381819253500,6.50925341796875,-0.17700406908988953,-0.1592719405889511,-0.05149621516466141
1789484381829224700,6.519224609375,-0.18781544268131256,-0.12644049525260925,-0.04942214488983154
1789484381839196400,6.529196533203125,-0.22818949818611145,-0.13992728292942047,0.04807165637612343
1789484381849167600,6.539167724609375,-0.12759017944335938,-0.2562751770019531,0.09234830737113953
1789484381859139300,6.549139404296875,-0.0677042156457901,-0.13337776064872742,-0.014491857029497623
1789484381869110500,6.559110595703125,-0.09734359383583069,-0.12853027880191803,0.008701079525053501
1789484381879082500,6.56908251953125,-0.11696922779083252,-0.10742206126451492,0.07949934899806976
1789484381889054500,6.579054443359375,-0.09888210892677307,-0.10679435729980469,0.037633396685123444
1789484381899025400,6.589025390625,-0.13363662362098694,-0.06904910504817963,0.03393186628818512
1789484381908997600,6.59899755859375,-0.10695760697126389,-0.11595296859741211,0.014915832318365574
1789484381918968300,6.60896826171875,-0.04471580684185028,-0.19027912616729736,0.049610961228609085
1789484381928940500,6.6189404296875,-0.10341960191726685,-0.1645234376192093,0.00848403200507164
1789484381938911500,6.628911376953125,-0.09531480073928833,-0.2084810435771942,0.08601291477680206
1789484381948883500,6.638883544921875,-0.0693947896361351,-0.19341740012168884,0.10027706623077393
1789484381958855400,6.64885546875,-0.06429296731948853,-0.13045121729373932,0.01575419493019581
1789484381968826600,6.65882666015625,-0.0002825613773893565,-0.15046700835227966,0.03792980685830116
1789484381978798300,6.66879833984375,0.00869229156523943,-0.21054498851299286,0.058279018849134445
1789484381988769500,6.67876953125,0.15764501690864563,-0.2211611419916153,0.006170011591166258
1789484381998741800,6.68874169921875,0.11467544734477997,-0.27585768699645996,0.042939476668834686
1789484382008712700,6.698712646484375,0.12857314944267273,-0.2996056079864502,0.19405469298362732
1789484382018685000,6.708684814453125,0.1512739360332489,-0.22031505405902863,0.032286033034324646
1789484382028656600,6.71865673828125,0.2175256609916687,-0.21548141539096832,-0.033246103674173355
1789484382038627800,6.7286279296875,0.3353705406188965,-0.28169745206832886,0.0291802566498518
1789484382048599800,6.738599853515625,0.5904965996742249,-0.2554685175418854,-0.08070043474435806
1789484382058570800,6.74857080078125,0.6295648813247681,-0.23283298313617706,-0.003977697342634201
1789484382068542700,6.758542724609375,0.5262014865875244,-0.1729254424571991,0.1160336583852768
1789484382078514000,6.768513916015625,0.5829595923423767,-0.19324882328510284,0.021385449916124344
1789484382088485600,6.778485595703125,0.4028497040271759,-0.09429321438074112,-0.0013462279457598925
1789484382098457900,6.788457763671875,0.3029122054576874,-0.04783090576529503,-0.0012058793799951673
1789484382108428800,6.7984287109375,0.41241365671157837,-0.12511131167411804,0.05016090348362923
1789484382118400800,6.80840087890625,0.5398701429367065,-0.06956682354211807,-0.050994474440813065
1789484382128371700,6.818371826171875,0.59690922498703,-0.02245311066508293,-0.06757451593875885
1789484382138344000,6.828343994140625,0.6093464493751526,-0.06202395632863045,-0.02329626865684986
1789484382148314600,6.838314697265625,0.6620072722434998,-0.10695946961641312,0.008249141275882721
1789484382158286800,6.848286865234375,0.5200831294059753,0.013845774345099926,0.009794574230909348
1789484382168258600,6.858258544921875,0.44436386227607727,-0.0324130654335022,0.009110141545534134
1789484382178229800,6.868229736328125,0.3706004321575165,0.0025449167005717754,0.018099375069141388
1789484382188201700,6.87820166015625,0.2243231236934662,0.03875591605901718,0.0955696627497673
1789484382198173000,6.8881728515625,0.21908468008041382,0.10376980155706406,0.029917418956756592
1789484382208144600,6.89814453125,0.19796447455883026,0.06548260152339935,0.0022716764360666275
1789484382218115800,6.90811572265625,0.2945581376552582,0.09644824266433716,-0.06106521934270859
1789484382228087600,6.918087646484375,0.32238176465034485,0.08417719602584839,-0.05805771052837372
1789484382238059800,6.928059814453125,0.3422633409500122,0.043905939906835556,0.012651879340410233
1789484382248030700,6.93803076171875,0.15781307220458984,0.11027750372886658,0.024102672934532166
1789484382258002700,6.948002685546875,0.09478083997964859,0.12193016707897186,-0.0288859773427248
1789484382267973600,6.9579736328125,0.09153151512145996,0.13453064858913422,-0.1517101675271988
1789484382277945900,6.96794580078125,0.03754524514079094,0.15430274605751038,-0.18294718861579895
1789484382287917800,6.977917724609375,0.054492801427841187,0.038961514830589294,-0.08518599718809128
1789484382297888800,6.987888671875,0.08131136745214462,0.04749135300517082,-0.036185167729854584
1789484382307860700,6.99786083984375,0.054845139384269714,0.10479725152254105,-0.025624137371778488
1789484382317831700,7.007831787109375,-0.040645163506269455,0.15727537870407104,0.05423740670084953
1789484382327804000,7.017803955078125,0.009719738736748695,0.09145162254571915,0.05121844634413719
1789484382337774800,7.02777490234375,0.060210876166820526,0.15397092700004578,-0.008222510106861591
1789484382347746800,7.037746826171875,0.10254155844449997,0.13067279756069183,0.021530592814087868
1789484382357718800,7.04771875,0.1482858806848526,0.1601683646440506,0.06353796273469925
1789484382367689700,7.057689697265625,0.1638621687889099,0.20833510160446167,0.0036019254475831985
1789484382377661700,7.06766162109375,0.22582674026489258,0.2625482678413391,-0.0943203791975975
1789484382387633000,7.0776328125,0.1992683708667755,0.21673470735549927,-0.017224526032805443
1789484382397604600,7.0876044921875,0.1568623185157776,0.24930277466773987,-0.02069702185690403
1789484382407575800,7.097575927734375,0.011137872003018856,0.25550419092178345,0.0015731292078271508
1789484382417547800,7.1075478515625,0.023496272042393684,0.21836456656455994,0.05367201566696167
1789484382427519700,7.117519775390625,-0.02690378576517105,0.2586084008216858,-0.007791876792907715
1789484382437490700,7.12749072265625,-0.14086496829986572,0.22768588364124298,0.05657193437218666
1789484382447463000,7.137462890625,-0.16422542929649353,0.19491569697856903,0.09434141218662262
1789484382457433600,7.14743359375,-0.16587604582309723,0.1847730427980423,0.06081754341721535
1789484382467405800,7.15740576171875,-0.19460570812225342,0.18784819543361664,0.11874635517597198
1789484382477376800,7.167376708984375,-0.16020645201206207,0.18703806400299072,0.09335977584123611
1789484382487348700,7.1773486328125,-0.1753118932247162,0.22254012525081635,0.06796573102474213
1789484382497320700,7.18732080078125,-0.2480209916830063,0.22854822874069214,0.06836627423763275
1789484382507292000,7.1972919921875,-0.24567314982414246,0.21119186282157898,0.04758269712328911
1789484382517263600,7.207263671875,-0.2962239384651184,0.16057875752449036,0.027604462578892708
1789484382527234800,7.21723486328125,-0.35411253571510315,0.26263880729675293,0.03647971525788307
1789484382537206500,7.22720654296875,-0.305857390165329,0.1701914370059967,0.06097493693232536
1789484382547177700,7.237177734375,-0.3699519634246826,0.22627495229244232,0.09108703583478928
1789484382557149700,7.247149658203125,-0.3820464313030243,0.2730693519115448,0.005181712564080954
1789484382567121700,7.25712158203125,-0.3353537619113922,0.20426365733146667,0.012222844175994396
1789484382577092600,7.267092529296875,-0.342276930809021,0.09425033628940582,0.08829071372747421
1789484382587064800,7.27706494140625,-0.4286336302757263,0.177510604262352,-0.01787859946489334
1789484382597035500,7.287035400390625,-0.42162713408470154,0.13199850916862488,-0.13812537491321564
1789484382607007700,7.2970078125,-0.5228962302207947,0.07784020155668259,-0.02484889142215252
1789484382616978700,7.306978759765625,-0.46577543020248413,0.00044581317342817783,-0.036249082535505295
1789484382626950700,7.31695068359375,-0.37858086824417114,0.0458681546151638,-0.04059616103768349
1789484382636923000,7.3269228515625,-0.27730804681777954,0.05059313774108887,-0.06622163206338882
1789484382646893800,7.336893798828125,-0.2648351192474365,0.0818818137049675,0.01269795186817646
1789484382656865800,7.34686572265625,-0.24884018301963806,0.015689214691519737,0.04716165363788605
1789484382666836700,7.356836669921875,-0.18566280603408813,-0.011633486486971378,-0.0036972665693610907
1789484382676809000,7.36680908203125,-0.219855397939682,-0.008221444673836231,0.009128783829510212
1789484382686779600,7.376779541015625,-0.169795423746109,-0.05344991013407707,0.049367550760507584
1789484382696751900,7.386751953125,-0.15519091486930847,-0.061585068702697754,0.12866663932800293
1789484382706722800,7.396722900390625,-0.09819953888654709,-0.06904857605695724,0.13954298198223114
1789484382716694800,7.40669482421875,-0.07605774700641632,-0.03935353085398674,0.09509402513504028
1789484382726666800,7.416666748046875,-0.05793680250644684,-0.00026498452643863857,-0.015732357278466225
1789484382736638000,7.426637939453125,-0.05723718926310539,0.012269449420273304,-0.12012401223182678
1789484382746609700,7.436609619140625,-0.03754391148686409,-0.0046759783290326595,-0.07814513891935349
1789484382756580900,7.446580810546875,-0.08305200934410095,-0.0193161740899086,-0.007220895029604435
1789484382766552600,7.456552490234375,-0.08088739216327667,-0.006139385048300028,-0.007183876819908619
1789484382776523800,7.466523681640625,-0.05540280416607857,-0.07174982130527496,0.0218520350754261
1789484382786495700,7.476495849609375,-0.10682445019483566,-0.03622032329440117,0.053283460438251495
1789484382796467700,7.4864677734375,-0.11522592604160309,-0.0826333612203598,0.032712671905756
1789484382806438700,7.496438720703125,-0.12244841456413269,-0.012073174118995667,-0.005297826137393713
1789484382816411000,7.506410888671875,-0.14953409135341644,-0.0747288316488266,-0.007522098254412413
1789484382826381600,7.516381591796875,-0.16293805837631226,-0.11966194957494736,0.15580131113529205
1789484382836353800,7.526353759765625,-0.06777878105640411,-0.10961304605007172,0.029632193967700005
1789484382846324700,7.53632470703125,0.01889565959572792,-0.14550180733203888,-0.015629559755325317
1789484382856296700,7.546296630859375,-0.0033417344093322754,-0.105892613530159,-0.03676706925034523
1789484382866267600,7.556267578125,-0.010352239944040775,-0.15326838195323944,-0.07575201988220215
1789484382876240000,7.566239990234375,-0.04856753721833229,-0.105959452688694,-0.016333432868123055
1789484382886211600,7.576211669921875,-0.02172393724322319,-0.14715296030044556,-0.11858310550451279
1789484382896182800,7.586182861328125,-0.049371276050806046,-0.14721181988716125,-0.11174890398979187
1789484382906154800,7.59615478515625,-0.15701252222061157,-0.1241733506321907,0.06018797308206558
1789484382916125700,7.606125732421875,-0.007522897329181433,-0.0695686936378479,-0.023692013695836067
1789484382926098000,7.616097900390625,0.07154768705368042,-0.07014766335487366,-0.06601017713546753
1789484382936068900,7.62606884765625,-0.033901240676641464,-0.03370390087366104,0.10086110234260559
1789484382946040800,7.636040771484375,0.0337451808154583,0.01016768254339695,0.03375769779086113
1789484382956012800,7.6460126953125,0.1398838609457016,-0.03736042231321335,-0.15133439004421234
1789484382965983700,7.655983642578125,-0.027718180790543556,-0.04134344682097435,-0.04735846072435379
1789484382975955700,7.665955810546875,-0.07393867522478104,-0.11828536540269852,0.05211193859577179
1789484382985927000,7.675927001953125,0.08943746984004974,-0.0966503769159317,-0.06136029586195946
1789484382995898600,7.685898681640625,-0.036663737148046494,-0.04665432125329971,-0.04344441369175911
1789484383005869800,7.695869873046875,-0.12744344770908356,0.06742271780967712,-0.007865379564464092
1789484383015841800,7.705841796875,0.0333411805331707,-0.06983447819948196,-0.006878678686916828
1789484383025813000,7.71581298828125,0.04183106869459152,-0.05591253563761711,0.023031283169984818
1789484383035784700,7.72578466796875,0.0001816275907913223,-0.00956607423722744,0.06386633217334747
1789484383045757000,7.7357568359375,0.04818191006779671,-0.002138784620910883,0.03232012316584587
1789484383055727600,7.7457275390625,0.11918871104717255,-0.0409061536192894,0.03478514403104782
1789484383065699800,7.755699951171875,0.06125669926404953,-0.008363657630980015,-0.01450171135365963
1789484383075670800,7.7656708984375,0.039021436125040054,-0.03507782518863678,0.02441985532641411
1789484383085642800,7.775642822265625,0.06627622246742249,-0.040837179869413376,0.03303438425064087
1789484383095613700,7.78561376953125,0.058332547545433044,0.009317069314420223,-0.01503940299153328
1789484383105586000,7.7955859375,-0.002672215923666954,0.0046940878964960575,-0.040470995008945465
1789484383115556600,7.805556640625,-0.0016791230300441384,-0.09608285874128342,0.04387903958559036
1789484383125528800,7.81552880859375,0.04171895235776901,-0.07004246860742569,0.03904300555586815
1789484383135500800,7.825500732421875,0.08321952074766159,-0.05656580626964569,0.03732633218169212
1789484383145471700,7.8354716796875,0.057321347296237946,-0.012044944800436497,-0.007589742541313171
1789484383155444000,7.84544384765625,0.04105555638670921,-0.03430577740073204,0.005392901133745909
1789484383165415000,7.855414794921875,0.006234460044652224,-0.036730051040649414,0.06940250843763351
1789484383175387000,7.865386962890625,0.06150996685028076,-0.042942408472299576,0.014621553011238575
1789484383185357800,7.87535791015625,0.10216151922941208,0.016703080385923386,-0.09127318859100342
1789484383195329800,7.885329833984375,0.1252593845129013,-0.08349090069532394,0.04061001166701317
1789484383205300700,7.89530078125,0.12463993579149246,-0.05533995479345322,0.03766535222530365
1789484383215273000,7.90527294921875,0.13735200464725494,0.004597947467118502,-0.04358662664890289
1789484383225244700,7.91524462890625,0.09930634498596191,0.04526148736476898,-0.07063049077987671
1789484383235216000,7.9252158203125,0.0888289362192154,0.0030120352748781443,0.08139099925756454
1789484383245187800,7.935187744140625,0.10321799665689468,-0.012326973490417004,0.06827892363071442
1789484383255158800,7.94515869140625,0.07997046411037445,0.06629140675067902,0.015005581080913544
1789484383265130800,7.955130859375,0.04427425563335419,0.04757390916347504,0.02311543934047222
1789484383275102000,7.96510205078125,0.055512528866529465,0.05175347626209259,-0.06397978216409683
1789484383285073700,7.97507373046875,-0.010003631934523582,0.028507009148597717,-0.06885922700166702
1789484383295044900,7.985044921875,-0.11157659441232681,-0.016340358182787895,-0.018014686182141304
1789484383305016800,7.995016845703125,-0.12934839725494385,0.04861573874950409,-0.048173122107982635
1789484383314988800,8.00498876953125,-0.06073285639286041,0.015800800174474716,-0.0030799456872045994
1789484383324959700,8.014959716796875,-0.07034020870923996,0.011985822580754757,-0.012111524119973183
1789484383334932000,8.024931884765625,-0.1263030767440796,0.06886322051286697,0.036669597029685974
1789484383344902700,8.034902587890626,0.018269285559654236,-0.03194728121161461,-0.014602644369006157
1789484383354875000,8.044875,-0.05982498452067375,0.024032631888985634,-0.014243916608393192
1789484383364845800,8.054845703125,-0.12684503197669983,0.045160818845033646,0.02160809002816677
1789484383374817800,8.06481787109375,-0.027648938819766045,-0.01810523495078087,-0.024582307785749435
1789484383384788700,8.074788818359375,-0.03411243110895157,0.00446798512712121,-0.02346724271774292
1789484383394761000,8.084760986328124,-0.09223192930221558,0.05273032188415527,0.04584471881389618
1789484383404732700,8.094732666015625,-0.018124142661690712,0.060805294662714005,-0.052448295056819916
1789484383414703900,8.104703857421875,0.03263464197516441,0.017845043912529945,-0.04285425692796707
1789484383424675600,8.114675537109376,0.006173473782837391,0.014481470920145512,0.02635117992758751
1789484383434646800,8.124646728515625,0.03516038507223129,-0.05108528956770897,0.016767261549830437
1789484383444618800,8.13461865234375,0.008825182914733887,0.03749784082174301,-0.025072064250707626
1789484383454590000,8.14458984375,-0.020928185433149338,0.029762955382466316,-0.054903462529182434
1789484383464561700,8.154561767578125,-0.023727433755993843,-0.002805640222504735,0.02971874736249447
1789484383474534000,8.164533935546874,0.04147074371576309,-0.07938750088214874,0.004151601810008287
1789484383484504600,8.174504638671875,0.023518109694123268,0.0038059235084801912,-0.04716458171606064
1789484383494476800,8.184476806640625,0.05209382623434067,-0.023131685331463814,-0.0455392561852932
1789484383504447700,8.19444775390625,0.023375630378723145,0.0003880225704051554,-0.003930559381842613
1789484383514419700,8.204419677734375,-0.015798138454556465,-0.036371856927871704,0.027298731729388237
1789484383524390700,8.214390625,0.012419384904205799,-0.04454030469059944,0.008378304541110992
1789484383534363000,8.22436279296875,0.013190103694796562,-0.01576218567788601,-0.027411118149757385
1789484383544333800,8.234333740234375,0.034805383533239365,-0.02455833926796913,-0.04963226616382599
1789484383554305800,8.244305908203126,-0.022490661591291428,-0.01019537914544344,0.010685667395591736
1789484383564277800,8.25427783203125,-0.023146597668528557,-0.003971838392317295,0.05654636770486832
1789484383574248700,8.264248779296874,-0.05968410149216652,0.0499931275844574,0.030001042410731316
1789484383584221000,8.274220947265626,-0.08870723098516464,0.0872049406170845,0.008156729862093925
1789484383594192000,8.28419189453125,-0.09492038935422897,0.0419011116027832,0.07970388233661652
1789484383604163800,8.294163818359374,-0.16528935730457306,0.07318286597728729,0.03470684587955475
1789484383614134800,8.304134765625,-0.2156209647655487,0.07230908423662186,-0.009987386874854565
1789484383624107000,8.31410693359375,-0.3074086904525757,0.04213041067123413,0.07923969626426697
1789484383634077700,8.32407763671875,-0.32107308506965637,0.06684400886297226,0.018682075664401054
1789484383644050000,8.3340498046875,-0.336300790309906,0.08606750518083572,0.039870716631412506
1789484383654021600,8.344021728515624,-0.3361031711101532,0.022247515618801117,0.10617543756961823
1789484383663992800,8.353992919921875,-0.31148090958595276,0.06576649844646454,0.04025048390030861
1789484383673964800,8.36396484375,-0.33366265892982483,0.03573030233383179,0.053528737276792526
1789484383683936000,8.37393603515625,-0.3488336205482483,0.04213893041014671,-0.02455008402466774
1789484383693907700,8.38390771484375,-0.3944509029388428,0.010126936249434948,0.017788849771022797
1789484383703879000,8.39387890625,-0.3446178436279297,-0.020719924941658974,0.04248913750052452
1789484383713850600,8.4038505859375,-0.33717110753059387,0.012114985845983028,-0.022179070860147476
1789484383723821800,8.41382177734375,-0.35802313685417175,0.027522969990968704,-0.04231123626232147
1789484383733793800,8.423793701171874,-0.37567535042762756,-0.038845401257276535,0.06407325714826584
1789484383743765800,8.433765869140625,-0.31080928444862366,-0.04721757769584656,0.049194443970918655
1789484383753736700,8.44373681640625,-0.26596295833587646,-0.042399920523166656,-0.14286580681800842
1789484383763709000,8.453708984375,-0.3317241370677948,-0.02219664864242077,-0.046487607061862946
1789484383773679600,8.4636796875,-0.181188702583313,-0.07711608707904816,-0.012749616988003254
1789484383783651800,8.47365185546875,-0.018858909606933594,-0.0672868937253952,-0.13233619928359985
1789484383793622800,8.483622802734375,-0.10905111581087112,-0.005309544038027525,-0.06636863946914673
1789484383803594800,8.4935947265625,-0.0762644112110138,-0.06671484559774399,0.05723399296402931
1789484383813565700,8.503565673828126,-0.03871410712599754,0.023064039647579193,-0.09091951698064804
1789484383823538000,8.513537841796875,-0.09232806414365768,-0.03093527816236019,-0.04366545379161835
1789484383833509600,8.523509521484375,-0.09442583471536636,-0.030651653185486794,0.03293424844741821
1789484383843480800,8.533480712890626,0.0015305186389014125,-0.1411595195531845,-0.06801021099090576
1789484383853452800,8.543452880859375,-0.037513554096221924,-0.012517389841377735,-0.10977150499820709
1789484383863423700,8.553423828125,-0.032578982412815094,-0.084599569439888,-0.06729301810264587
1789484383873395700,8.563395751953125,0.020667195320129395,-0.09083855897188187,-0.01375469472259283
1789484383883367000,8.573366943359375,0.06165936961770058,-0.028250547125935555,-0.07493602484464645
1789484383893338600,8.583338623046876,0.1257118582725525,-0.05488322302699089,-0.008895223960280418
1789484383903310800,8.593310791015625,0.14290602505207062,-0.010065416805446148,-0.03413799777626991
1789484383913281800,8.60328173828125,0.13250797986984253,-0.046966444700956345,0.01299196481704712
1789484383923253800,8.613253662109376,0.06839290261268616,-0.00019467707898002118,0.02528218738734722
1789484383933224700,8.623224609375,0.1566449999809265,-0.06798943877220154,-0.06582295894622803
1789484383943196700,8.63319677734375,0.058408450335264206,-0.06429456919431686,-0.016579242423176765
1789484383953167600,8.643167724609375,-0.00044314999831840396,-0.13437165319919586,0.009724265895783901
1789484383963139800,8.653139892578125,-0.002299639629200101,-0.0644700676202774,0.002284459536895156
1789484383973110800,8.66311083984375,0.10193222016096115,-0.12865011394023895,-0.008562861941754818
1789484383983082800,8.673082763671875,0.04988207295536995,-0.12306680530309677,0.026501914486289024
1789484383993055000,8.683054931640624,-0.04740266874432564,-0.11087218672037125,0.08447972685098648
1789484384003025700,8.693025634765625,0.04045954346656799,-0.13897866010665894,0.07530194520950317
1789484384012998000,8.702997802734375,0.0908510759472847,-0.11213825643062592,0.03633270785212517
1789484384022968800,8.71296875,0.1067352369427681,-0.10182516276836395,0.0179987084120512
1789484384032940800,8.72294091796875,0.10203582048416138,-0.08080616593360901,-0.013937919400632381
1789484384042911700,8.732911865234374,0.13845694065093994,-0.12001535296440125,0.012476110830903053
1789484384052884000,8.742884033203126,0.169218048453331,-0.10737119615077972,0.09770738333463669
1789484384062855700,8.752855712890625,0.22092226147651672,-0.0038775624707341194,-0.04084942862391472
1789484384072827000,8.762826904296874,0.28103381395339966,-0.029134182259440422,-0.07421351224184036
1789484384082798600,8.772798583984375,0.19566990435123444,-0.029256422072649002,0.07375811040401459
1789484384092769800,8.782769775390625,0.25678226351737976,-0.03873541206121445,-0.007714911364018917
1789484384102741800,8.79274169921875,0.23221805691719055,0.025726402178406715,-0.10434078425168991
1789484384112713000,8.802712890625,0.12187850475311279,0.08150151371955872,-0.08546163886785507
1789484384122684700,8.8126845703125,0.0909445509314537,0.04277782514691353,-0.018379539251327515
1789484384132655900,8.82265576171875,0.10658103972673416,0.03212837502360344,-0.027755465358495712
1789484384142627800,8.8326279296875,0.07594136893749237,0.054781489074230194,-0.06257390230894089
1789484384152599800,8.842599853515624,0.0401143953204155,0.05077369883656502,0.014759771525859833
1789484384162570800,8.85257080078125,0.09419813752174377,-0.020846692845225334,-0.011884355917572975
1789484384172542700,8.862542724609375,0.0003938815207220614,0.053519949316978455,-0.12102016061544418
1789484384182513700,8.872513671875,-0.1251499354839325,0.028296353295445442,-0.08015581965446472
1789484384192486000,8.88248583984375,-0.17152248322963715,-0.01570306345820427,-0.03785177320241928
1789484384202456800,8.892456787109374,-0.17780354619026184,-0.007003581151366234,-0.030528347939252853
1789484384212428800,8.9024287109375,-0.1683402806520462,0.00034354778472334146,-0.0536925233900547
1789484384222400800,8.91240087890625,-0.1774751842021942,0.06774362921714783,-0.05114307999610901
1789484384232371700,8.922371826171876,-0.10382120311260223,-0.0009725864510983229,0.01085797417908907
1789484384242343700,8.93234375,-0.08378544449806213,0.038974564522504807,0.028112061321735382
1789484384252315000,8.94231494140625,-0.039795882999897,0.022313028573989868,-0.03935912251472473
1789484384262286600,8.95228662109375,-0.1355639547109604,0.031005319207906723,-0.0005984122981317341
1789484384272257800,8.9622578125,-0.14941638708114624,-0.011745605617761612,0.048703357577323914
1789484384282229800,8.972229736328124,-0.11518491059541702,-0.01581598073244095,-0.052976399660110474
1789484384292201700,8.98220166015625,-0.08963241428136826,-0.045217279344797134,-0.024642495438456535
1789484384302172700,8.992172607421875,-0.11720997840166092,-0.05501771345734596,0.012911004945635796
1789484384312144600,9.00214453125,-0.07316821813583374,-0.05125626176595688,0.004564658273011446
1789484384322115600,9.012115478515625,-0.0520288459956646,-0.042451586574316025,-0.10135937482118607
1789484384332087800,9.022087890625,-0.11726590245962143,-0.03328844904899597,-0.07794326543807983
1789484384342058800,9.032058837890625,-0.0890052393078804,-0.10116177052259445,-0.08828964829444885
1789484384352030700,9.04203076171875,-0.06686371564865112,-0.12469346076250076,-0.10346727073192596
1789484384362003000,9.0520029296875,-0.04002544656395912,-0.12208276242017746,-0.08188527822494507
1789484384371973600,9.0619736328125,-0.034999530762434006,-0.10327073186635971,-0.06638994067907333
1789484384381945900,9.07194580078125,-0.06757185608148575,-0.0961582213640213,0.028666531667113304
1789484384391916800,9.081916748046876,-0.012518721632659435,-0.061896923929452896,0.04037831723690033
1789484384401888800,9.091888671875,0.07462923228740692,-0.08452101051807404,-0.010573814623057842
1789484384411859700,9.101859619140624,0.036849893629550934,-0.06082313507795334,0.03701527416706085
1789484384421832000,9.11183203125,0.01781095564365387,-0.053288523107767105,0.0406733937561512
1789484384431802600,9.121802734375,0.026494724676012993,-0.03814632073044777,-0.032874591648578644
1789484384441774800,9.13177490234375,-0.05163070186972618,-0.039677370339632034,-0.003920971881598234
1789484384451746800,9.141746826171875,-0.08980312198400497,-0.07327447831630707,0.08076275885105133
1789484384461717800,9.1517177734375,-0.01635926589369774,-0.050756655633449554,-0.009101885370910168
1789484384471689700,9.161689697265626,-0.04026087000966072,-0.031773641705513,0.05326694995164871
1789484384481661000,9.171660888671875,-0.09388335049152374,-0.00207673292607069,0.09272514283657074
1789484384491632600,9.181632568359374,-0.1029847040772438,-0.021381987258791924,0.025835325941443443
1789484384501603800,9.191603759765625,-0.11891653388738632,-0.03568928688764572,0.03227431699633598
1789484384511575800,9.201575927734375,-0.17365221679210663,-0.05691415071487427,0.017132380977272987
1789484384521547800,9.2115478515625,-0.15176981687545776,-0.06016240641474724,0.051416851580142975
1789484384531518700,9.221518798828125,-0.07890919595956802,-0.0921190083026886,-0.023309582844376564
1789484384541490700,9.23149072265625,-0.12446390092372894,-0.08092893660068512,-0.0399484820663929
1789484384551461600,9.241461669921875,-0.13753709197044373,-0.053098905831575394,0.001258876291103661
1789484384561433900,9.251433837890625,-0.02911554090678692,-0.14078374207019806,-0.06360827386379242
1789484384571404800,9.26140478515625,-0.11298194527626038,-0.05980234593153,-0.02262914553284645
1789484384581376800,9.271376708984375,-0.07945141941308975,-0.15250538289546967,0.041851043701171875
1789484384591348700,9.2813486328125,0.04379994422197342,-0.10455384105443954,-0.09929303079843521
1789484384601319700,9.291319580078126,-0.028505677357316017,-0.08456894755363464,-0.07984263449907303
1789484384611291600,9.301291748046875,-0.040103476494550705,-0.061173610389232635,-0.029377596452832222
1789484384621262800,9.311262939453124,0.022422218695282936,-0.08380408585071564,-0.05537963658571243
1789484384631234600,9.321234619140625,0.03460245206952095,-0.052375055849552155,-0.009184709750115871
1789484384641205800,9.331205810546875,0.05555646866559982,-0.1286325454711914,0.032575253397226334
1789484384651177700,9.341177734375,0.06567514687776566,-0.0084864292293787,-0.06538619846105576
1789484384661149700,9.351149658203125,0.08702518045902252,-0.018614962697029114,0.008390288800001144
1789484384671120600,9.36112060546875,0.08056967705488205,-0.04295359179377556,0.08944333344697952
1789484384681092900,9.3710927734375,0.06276191771030426,0.009130647405982018,0.01125212199985981
1789484384691063600,9.3810634765625,0.03531857579946518,0.00006231796578504145,-0.023326627910137177
1789484384701035800,9.391035888671874,-0.003994475118815899,-0.07118949294090271,0.12906211614608765
1789484384711006700,9.4010068359375,-0.016320915892720222,-0.043057456612586975,0.06548792868852615
1789484384720978700,9.410978759765625,0.023251792415976524,-0.04765833169221878,-0.03854765743017197
1789484384730951000,9.420950927734374,-0.05491677671670914,-0.010480604134500027,0.03175340220332146
1789484384740921900,9.430921875,0.0010599381057545543,-0.06465542316436768,-0.01398532371968031
1789484384750893800,9.440893798828125,0.007631820626556873,-0.0056799896992743015,0.02208852395415306
1789484384760864800,9.45086474609375,0.0296095572412014,-0.018502844497561455,0.08540970832109451
1789484384770836700,9.460836669921875,0.0364522822201252,0.02292528934776783,0.07308220118284225
1789484384780808700,9.47080859375,-0.020371850579977036,0.0580047145485878,0.04099323973059654
1789484384790780000,9.48077978515625,-0.020115921273827553,-0.0052115400321781635,0.11625896394252777
1789484384800751600,9.490751708984375,-0.03471403941512108,-0.0007672567153349519,0.0961259976029396
1789484384810722800,9.500722900390626,-0.06425701826810837,0.04671051353216171,0.01968076080083847
1789484384820694800,9.51069482421875,-0.05092230439186096,0.002061286708340049,0.0108872689306736
1789484384830665700,9.520665771484374,0.009306682273745537,-0.053827546536922455,0.02853257581591606
1789484384840637700,9.5306376953125,-0.014902250841259956,-0.05649123713374138,0.01902029663324356
1789484384850609000,9.54060888671875,-0.08170658349990845,-0.05439373478293419,0.0004308994684834033
1789484384860580600,9.55058056640625,-0.08281179517507553,-0.03243863210082054,-0.021988390013575554
1789484384870552800,9.560552734375,-0.02016572281718254,-0.13592827320098877,0.03362081199884415
1789484384880523800,9.570523681640625,-0.03959401324391365,-0.08465602993965149,0.0441802442073822
1789484384890495700,9.580495849609376,-0.009308280423283577,-0.10021155327558517,0.037576138973236084
1789484384900466700,9.590466796875,0.013937386684119701,-0.041611626744270325,-0.031092138960957527
1789484384910438700,9.600438720703124,0.03206392750144005,-0.033546242862939835,-0.10284941643476486
1789484384920410600,9.61041064453125,0.03374757617712021,-0.044260140508413315,-0.05540759861469269
1789484384930381800,9.6203818359375,0.06654787063598633,-0.10425742715597153,-0.05572211742401123
1789484384940353800,9.630353759765624,0.06677450239658356,-0.11718787252902985,0.02220437116920948
1789484384950324700,9.64032470703125,0.10993342101573944,-0.03111237846314907,-0.06288548558950424
1789484384960297000,9.650296875,0.14299842715263367,-0.08091535419225693,-0.06131315976381302
1789484384970267600,9.660267578125,0.11465680599212646,-0.03567490726709366,-0.03111823834478855
1789484384980240000,9.670239990234375,0.1642288863658905,-0.05835039168596268,-0.02299666218459606
1789484384990211800,9.6802119140625,0.21795816719532013,-0.11234118789434433,-0.06423624604940414
1789484385000183000,9.69018310546875,0.10730248689651489,-0.042745064944028854,-0.13025467097759247
1789484385010155000,9.700155029296875,0.16109967231750488,-0.1095171719789505,-0.12662531435489655
1789484385020126200,9.710126220703126,0.17352890968322754,-0.09061778336763382,-0.1486925333738327
1789484385030098000,9.720097900390625,0.1324256807565689,-0.0131496237590909,-0.17472679913043976
1789484385040069000,9.730069091796874,0.2732320725917816,-0.12081456929445267,-0.0988386943936348
1789484385050041000,9.740041015625,0.33258354663848877,-0.07273945212364197,-0.06986776739358902
1789484385060013000,9.750012939453125,0.39428046345710754,-0.017365939915180206,-0.12179408222436905
1789484385069984000,9.75998388671875,0.3782447576522827,-0.019335614517331123,-0.13331171870231628
1789484385079956000,9.7699560546875,0.36999908089637756,-0.011873170733451843,-0.11460940539836884
1789484385089927000,9.779927001953125,0.3151611387729645,-0.06040022522211075,-0.1382012814283371
1789484385099899100,9.789899169921876,0.21227364242076874,-0.020792629569768906,-0.12195733189582825
1789484385109871000,9.79987109375,0.1430698037147522,-0.04589212313294411,-0.134993776679039
1789484385119842000,9.809842041015624,0.11867444962263107,-0.05499933660030365,-0.1966342329978943
1789484385129814300,9.819814208984376,0.0563863106071949,-0.07703299820423126,-0.11627068370580673
1789484385139785000,9.829784912109375,0.06480722874403,-0.10721833258867264,-0.13398896157741547
1789484385149757200,9.839757080078124,0.09512971341609955,-0.04164544865489006,-0.21375170350074768
1789484385159728000,9.84972802734375,0.017045296728610992,-0.09292568266391754,-0.13075348734855652
1789484385169700000,9.8597001953125,-0.0057473680935800076,-0.09770924597978592,-0.09855906665325165
1789484385179672000,9.869672119140626,-0.005936452187597752,-0.10915258526802063,-0.12872682511806488
1789484385189643300,9.879643310546875,-0.039270974695682526,-0.10438579320907593,-0.08729974925518036
1789484385199615000,9.889614990234374,-0.0639725923538208,-0.09259970486164093,-0.029646309092640877
1789484385209586200,9.899586181640625,0.022548185661435127,-0.11585523188114166,0.008742624893784523
1789484385219558000,9.909557861328125,0.04230298101902008,-0.03449299558997154,-0.04134850576519966
1789484385229529000,9.919529052734376,0.10796668380498886,-0.029832463711500168,-0.05536631867289543
1789484385239501000,9.9295009765625,0.1206747516989708,-0.06193367391824722,0.037389449775218964
1789484385249473000,9.93947314453125,0.08886915445327759,-0.017599234357476234,-0.01672571711242199
1789484385259444000,9.94944384765625,0.08680413663387299,-0.04244066774845123,-0.005483714863657951
1789484385269416200,9.959416259765625,0.07109681516885757,-0.05746036395430565,0.03538675233721733
1789484385279387000,9.969386962890624,0.09051338583230972,-0.030546456575393677,0.04482606053352356
1789484385289359000,9.979359130859375,0.09296216815710068,0.02112872153520584,0.039502136409282684
1789484385299330000,9.989330078125,0.13528458774089813,0.02039342187345028,0.017042100429534912
1789484385309302000,9.999302001953126,0.09012749791145325,0.05144934356212616,0.07151120156049728
1789484385319274000,10.00927392578125,0.08584033697843552,0.03844805806875229,0.01804770901799202
1789484385329245200,10.0192451171875,0.0038812910206615925,0.01756967231631279,0.10204567760229111
1789484385339217000,10.029216796875,0.03287592530250549,-0.04381086304783821,0.1436903178691864
1789484385349188000,10.03918798828125,0.05938476324081421,0.0682552233338356,-0.08304588496685028
1789484385359160000,10.04916015625,-0.06463944911956787,0.016232233494520187,-0.009955961257219315
1789484385369132000,10.059132080078125,-0.09083536267280579,-0.00447011599317193,0.019824039191007614
1789484385379103000,10.06910302734375,-0.025526132434606552,-0.046910252422094345,0.11759907007217407
1789484385389075000,10.079074951171876,0.058337610214948654,-0.03868348151445389,0.08402406424283981
1789484385399046000,10.0890458984375,0.017584320157766342,0.0714062750339508,-0.0367303192615509
1789484385409018000,10.09901806640625,0.06325380504131317,0.036249615252017975,0.04328249394893646
1789484385418989000,10.108989013671875,0.13724547624588013,-0.025130653753876686,0.002103098202496767
1789484385428961000,10.1189609375,0.058093130588531494,0.08631385117769241,-0.04956861957907677
1789484385438933200,10.128933349609374,0.05343446135520935,0.004262122791260481,0.06652522832155228
1789484385448904000,10.138904052734375,0.0921000987291336,0.0419226810336113,0.010030263103544712
1789484385458876200,10.148876220703125,0.06551509350538254,0.08871841430664062,-0.05020378157496452
1789484385468847000,10.15884716796875,0.0009089368977583945,0.09481945633888245,-0.04602554813027382
1789484385478819000,10.168819091796875,-0.003915645647794008,0.04098391905426979,0.00875940266996622
1789484385488790000,10.1787900390625,-0.013320066034793854,0.09825918823480606,-0.054058972746133804
1789484385498762200,10.18876220703125,-0.014730476774275303,-0.0018967032665386796,-0.04488252103328705
1789484385508734000,10.19873388671875,-0.08697298169136047,0.06139038875699043,-0.00344559783115983
1789484385518705200,10.208705078125,0.040113598108291626,0.0414651520550251,-0.07130081206560135
1789484385528676900,10.2186767578125,-0.01996864750981331,0.0669633224606514,-0.062124092131853104
1789484385538648000,10.22864794921875,-0.08120644092559814,0.12435630708932877,0.014407169073820114
1789484385548620000,10.2386201171875,0.04416479915380478,-0.008747418411076069,0.012830311432480812
1789484385558592000,10.248592041015625,-0.020671989768743515,0.11133797466754913,-0.052387841045856476
1789484385568563000,10.25856298828125,-0.0004751079250127077,0.06917773932218552,-0.11212094873189926
1789484385578535200,10.26853515625,-0.025741050019860268,0.08869205415248871,-0.06746985763311386
1789484385588505900,10.278505859375,0.0019004317000508308,0.06544797867536545,-0.026571689173579216
1789484385598478000,10.28847802734375,0.0657971203327179,0.11320831626653671,-0.06596836447715759
1789484385608449000,10.298448974609375,0.036132436245679855,0.08597242832183838,-0.08230952173471451
1789484385618421000,10.3084208984375,-0.06999612599611282,0.07488968968391418,0.05483235418796539
1789484385628393000,10.31839306640625,0.08447840064764023,-0.02431013248860836,0.0432145819067955
1789484385638364200,10.3283642578125,0.061597585678100586,0.038604382425546646,0.06263009458780289
1789484385648336000,10.3383359375,0.027088342234492302,0.07960907369852066,0.04544924199581146
1789484385658307000,10.34830712890625,0.04213760048151016,0.03031929023563862,0.11467837542295456
1789484385668279000,10.358279052734375,0.05614529550075531,0.022072279825806618,0.18897071480751038
1789484385678250000,10.36825,0.053108491003513336,0.08436281979084015,0.047628507018089294
1789484385688222000,10.378221923828125,0.017555557191371918,0.08949712663888931,0.03699423745274544
1789484385698194000,10.38819384765625,0.011755192652344704,0.05722707137465477,0.08440010249614716
1789484385708164900,10.398164794921875,0.002484462922438979,0.03852715343236923,0.11821292340755463
1789484385718137000,10.40813720703125,0.003010969841852784,0.050227485597133636,0.10929426550865173
1789484385728108000,10.41810791015625,0.008984173648059368,0.11366531252861023,0.0657648965716362
1789484385738080000,10.428080078125,0.05343259871006012,0.10509392619132996,0.06639580428600311
1789484385748052200,10.43805224609375,0.07791983336210251,0.12388412654399872,0.07161133736371994
1789484385758023000,10.44802294921875,0.02665211632847786,0.07610222697257996,0.07519514858722687
1789484385767995100,10.4579951171875,-0.005270129535347223,0.07590674608945847,0.09883257001638412
1789484385777966000,10.467966064453124,-0.014448980800807476,0.09465993195772171,0.0937933400273323
1789484385787938000,10.47793798828125,0.042284075170755386,0.11630130559206009,0.07176606357097626
1789484385797909000,10.487908935546875,0.03987710922956467,0.10156098008155823,0.09326523542404175
1789484385807881200,10.497881103515626,-0.0012282498646527529,0.1091936007142067,0.09826478362083435
1789484385817853000,10.50785302734375,-0.02106373943388462,0.10567476600408554,0.07972732186317444
1789484385827824000,10.51782421875,-0.027779966592788696,0.09968451410531998,0.08194226771593094
1789484385837796000,10.527796142578126,-0.01794011890888214,0.09405672550201416,0.038838475942611694
1789484385847767000,10.53776708984375,-0.03185140714049339,0.0036844832357019186,0.12441383302211761
1789484385857739000,10.547739013671874,-0.03912263363599777,0.11564137786626816,-0.09839794039726257
1789484385867710200,10.557710205078125,-0.12079699337482452,0.1186656653881073,-0.1948738843202591
1789484385877682000,10.567681884765625,-0.1429334580898285,-0.005391569808125496,0.02315911464393139
1789484385887654100,10.577654052734376,-0.14101970195770264,-0.002885801251977682,-0.03975753113627434
1789484385897625000,10.587625,-0.14505332708358765,0.047034621238708496,-0.14176538586616516
1789484385907597000,10.59759716796875,-0.1383136659860611,-0.03886883705854416,-0.024533305317163467
1789484385917568000,10.607568115234375,-0.09403514862060547,-0.04126328229904175,-0.033543046563863754
1789484385927540000,10.6175400390625,-0.1238391175866127,0.0032477248460054398,-0.11940415948629379
1789484385937512200,10.62751220703125,-0.18221960961818695,-0.02286563441157341,-0.02695891261100769
1789484385947483100,10.637483154296875,-0.1279427856206894,-0.026743730530142784,-0.06121222302317619
1789484385957455000,10.647455078125,-0.11496493220329285,-0.07950414717197418,-0.06857506930828094
1789484385967426000,10.657426025390626,-0.13643454015254974,0.000621848099399358,-0.12036769092082977
1789484385977398300,10.667398193359375,-0.1658046841621399,-0.07315357029438019,0.005121258553117514
1789484385987369000,10.677368896484374,-0.06356140226125717,-0.03218643367290497,-0.13254232704639435
1789484385997341400,10.687341552734376,-0.10052820295095444,-0.06508739292621613,0.08911469578742981
1789484386007313400,10.6973134765625,-0.032644230872392654,-0.04436453431844711,0.03460538014769554
1789484386017284400,10.707284423828124,0.003935087006539106,-0.017533453181385994,-0.08208075165748596
1789484386027256600,10.717256591796875,-0.033069003373384476,-0.0462881363928318,0.013365873135626316
1789484386037227500,10.7272275390625,-0.027278492227196693,-0.0696677640080452,-0.016586167737841606
1789484386047199500,10.737199462890626,-0.04228167608380318,-0.15709614753723145,0.14701154828071594
1789484386057170400,10.74717041015625,-0.04114850237965584,-0.04944611340761185,0.04217781499028206
1789484386067142400,10.757142333984374,0.06757238507270813,-0.0036605149507522583,-0.1614954173564911
1789484386077114400,10.7671142578125,-0.008257663808763027,-0.10188295692205429,0.07857950031757355
1789484386087085600,10.77708544921875,-0.0035366779193282127,-0.13904550671577454,0.19306400418281555
1789484386097057300,10.787057373046874,0.06713029742240906,0.01625780016183853,0.007732754573225975
1789484386107028500,10.797028564453125,0.08789283782243729,0.058346930891275406,-0.05168449878692627
1789484386117000400,10.80700048828125,0.003936151973903179,-0.10268616676330566,0.3702385127544403
1789484386126972400,10.816972412109376,0.06610605120658875,-0.059835903346538544,0.18696455657482147
1789484386136943400,10.826943359375,-0.009364207275211811,-0.04406945779919624,-0.002828276949003339
1789484386146915300,10.836915283203124,-0.014668957330286503,0.012226305902004242,-0.1790807992219925
1789484386156886300,10.84688623046875,0.029163477942347527,0.08895809948444366,-0.30942124128341675
1789484386166858500,10.8568583984375,0.02233060635626316,-0.038181472569704056,-0.001166198286227882
1789484386176829400,10.866829345703126,-0.042789276689291,-0.03200240805745125,0.19676925241947174
1789484386186801400,10.876801513671875,-0.07855286449193954,0.03800756856799126,0.02339746803045273
1789484386196773400,10.8867734375,-0.1645660400390625,0.009271528571844101,-0.048641838133335114
1789484386206744300,10.896744384765626,-0.22592288255691528,-0.11000692844390869,0.19502249360084534
1789484386216716300,10.90671630859375,-0.24609525501728058,-0.01227717287838459,0.22207167744636536
1789484386226687500,10.9166875,0.023841416463255882,0.054003845900297165,-0.031621575355529785
1789484386236659200,10.9266591796875,-0.008053132332861423,0.027032682672142982,-0.006678675301373005
1789484386246630400,10.93663037109375,-0.07131652534008026,-0.09130781143903732,0.03395051136612892
1789484386256602400,10.946602294921876,-0.05378812924027443,-0.1672193557024002,0.02564144693315029
1789484386266574300,10.95657421875,-0.1317353993654251,-0.029325131326913834,-0.021098626777529716
1789484386276545300,10.966545166015624,-0.13151727616786957,-0.04019322618842125,-0.10136603564023972
1789484386286517500,10.976517578125,-0.10998109728097916,-0.0603640079498291,-0.09973511844873428
1789484386296488200,10.98648828125,-0.03833353891968727,-0.05034945532679558,-0.24206775426864624
1789484386306460400,10.99646044921875,0.015861520543694496,-0.08251378685235977,-0.19776181876659393
1789484386316432400,11.006432373046875,-0.053936999291181564,-0.07862317562103271,-0.181266188621521
1789484386326403300,11.0164033203125,0.11084982007741928,-0.05729151889681816,-0.2631722390651703
1789484386336375600,11.02637548828125,-0.016767261549830437,-0.08472873270511627,-0.13822151720523834
1789484386346346500,11.036346435546875,-0.07228751480579376,-0.07347235083580017,0.14512230455875397
1789484386356318500,11.046318359375,0.07464973628520966,-0.08273376524448395,0.13505315780639648
1789484386366289400,11.056289306640625,0.1060582622885704,0.05711335316300392,-0.17553001642227173
1789484386376261400,11.066261474609375,0.059899818152189255,-0.08090363442897797,0.02310025878250599
1789484386386233300,11.0762333984375,0.14445997774600983,-0.1791231483221054,0.17142634093761444
1789484386396204500,11.08620458984375,0.19300700724124908,-0.08622916042804718,0.01776168681681156
1789484386406176300,11.09617626953125,0.05525659769773483,-0.0013036173768341541,-0.01763811521232128
1789484386416147500,11.1061474609375,0.11449488997459412,-0.047558195888996124,-0.08689282089471817
1789484386426119400,11.116119384765625,0.14295288920402527,-0.11115635186433792,-0.14560434222221375
1789484386436090400,11.12609033203125,0.10893047600984573,-0.10781807452440262,-0.07616320997476578
1789484386446062300,11.136062255859375,0.10539592802524567,-0.06399069726467133,-0.03020557202398777
1789484386456034300,11.146034423828125,0.18897125124931335,-0.12277331948280334,0.05392475053668022
1789484386466005200,11.156005126953126,0.2345256805419922,-0.04739414528012276,0.01034531556069851
1789484386475977500,11.1659775390625,0.2847664952278137,-0.020540695637464523,-0.07056764513254166
1789484386485948400,11.175948486328124,0.2525651454925537,-0.02906707115471363,0.01667032390832901
1789484386495920400,11.18592041015625,0.3076938986778259,-0.09875986725091934,-0.0016000272007659078
1789484386505891300,11.195891357421875,0.27015799283981323,-0.0529007650911808,-0.08041121810674667
1789484386515863300,11.20586328125,0.2349347472190857,-0.11050546914339066,-0.06058052182197571
1789484386525835300,11.215835205078125,0.24299933016300201,-0.07381723076105118,-0.08987023681402206
1789484386535806500,11.225806396484375,0.28341493010520935,-0.11048762500286102,-0.08715221285820007
1789484386545778200,11.235778076171876,0.28693562746047974,-0.1260889619588852,0.15804661810398102
1789484386555749400,11.245749267578125,0.41761747002601624,-0.022426478564739227,0.06397499144077301
1789484386565721300,11.255721435546874,0.5226328372955322,0.1266396939754486,-0.30676472187042236
1789484386575692300,11.2656923828125,0.36082130670547485,0.0739131048321724,-0.16037902235984802
1789484386585664300,11.275664306640625,0.28501787781715393,-0.0293728020042181,-0.0038211036007851362
1789484386595636500,11.285636474609374,0.31700271368026733,-0.03429858386516571,-0.07172425091266632
1789484386605607200,11.295607177734375,0.2893284857273102,0.07529901713132858,-0.09167692065238953
1789484386615579400,11.305579345703125,0.332304984331131,0.08575298637151718,-0.03255687654018402
1789484386625550300,11.31555029296875,0.3436407148838043,0.09012137353420258,0.03218483552336693
1789484386635522300,11.325522216796875,0.29645588994026184,0.12802241742610931,-0.12197783589363098
1789484386645493200,11.3354931640625,0.07569316029548645,0.1075349822640419,0.017896175384521484
1789484386655465500,11.345465576171875,0.03930506110191345,0.023930899798870087,0.10891476273536682
1789484386665437400,11.3554375,-0.02135482244193554,0.06940969824790955,0.05349278450012207
1789484386675408400,11.365408447265626,0.000018375811123405583,0.10817307233810425,-0.055516522377729416
1789484386685380400,11.37538037109375,-0.04975264146924019,0.10753657668828964,-0.08069990575313568
1789484386695351300,11.385351318359374,-0.02395806275308132,-0.039449937641620636,0.031374167650938034
1789484386705323500,11.395323486328126,-0.08652370423078537,0.06646238267421722,-0.033785395324230194
1789484386715294500,11.40529443359375,-0.05157983675599098,0.07827376574277878,-0.048222921788692474
1789484386725266400,11.415266357421874,0.004962800536304712,0.07503056526184082,-0.03220747038722038
1789484386735238400,11.42523828125,-0.026370353996753693,0.10198681801557541,-0.09917265921831131
1789484386745209300,11.435209228515625,-0.09035040438175201,0.04049043357372284,0.08008844405412674
1789484386755181300,11.445181396484376,-0.02702602557837963,-0.078965924680233,0.15863971412181854
1789484386765152500,11.455152587890625,-0.08184479922056198,0.07295356690883636,0.04771532490849495
1789484386775124200,11.465124267578124,-0.09116107225418091,0.10797759890556335,-0.019342537969350815
1789484386785096400,11.475096435546876,-0.08198035508394241,-0.04037352278828621,0.18021637201309204
1789484386795067400,11.4850673828125,-0.13374394178390503,0.07002915441989899,0.10049012303352356
1789484386805039400,11.495039306640624,-0.037627268582582474,0.007768174633383751,-0.04906022176146507
1789484386815010300,11.50501025390625,-0.1105068027973175,0.02720632031559944,-0.004519384354352951
1789484386824982500,11.514982421875,-0.04441327229142189,-0.06503652036190033,0.05055558681488037
1789484386834953200,11.524953125,-0.06350414454936981,-0.0033939324785023928,0.05693705379962921
1789484386844925400,11.534925537109375,-0.013129117898643017,0.006921821739524603,0.028956018388271332
1789484386854896400,11.544896484375,0.02558046020567417,0.004291950259357691,0.043235622346401215
1789484386864868400,11.554868408203125,0.006927414797246456,-0.050635747611522675,0.15756912529468536
1789484386874840300,11.56484033203125,0.056534647941589355,-0.023730097338557243,0.10892142355442047
1789484386884811500,11.5748115234375,0.08778524398803711,-0.006111688446253538,0.04615870490670204
1789484386894783200,11.584783203125,0.03678144887089729,0.027535753324627876,0.034139327704906464
1789484386904754400,11.59475439453125,0.0264169592410326,-0.002490588231012225,0.0813441276550293
1789484386914726400,11.604726318359376,0.014385330490767956,-0.026216955855488777,0.15051786601543427
1789484386924697300,11.614697265625,0.04297223314642906,0.07200468331575394,0.04103292152285576
1789484386934669600,11.624669677734374,0.0987047404050827,0.01170539204031229,0.050992876291275024
1789484386944641300,11.634641357421875,0.07210801541805267,0.005194761790335178,0.06981556862592697
1789484386954612500,11.644612548828125,0.047030624002218246,0.03671567142009735,0.004492752719670534
1789484386964584400,11.65458447265625,0.017961690202355385,0.025121064856648445,0.1408250331878662
1789484386974555400,11.664555419921875,0.07196713238954544,0.07800904661417007,0.009735718369483948
1789484386984527400,11.67452734375,-0.023671507835388184,0.11022504419088364,0.03786668926477432
1789484386994498000,11.684498046875,0.009220396168529987,0.04331285133957863,0.06199705973267555
1789484387004470000,11.694469970703125,0.03520325943827629,0.055031560361385345,-0.07721170037984848
1789484387014442200,11.704442138671874,-0.05080139636993408,0.01467801257967949,-0.03960280120372772
1789484387024413200,11.7144130859375,-0.11075527966022491,-0.02220703475177288,0.06259067356586456
1789484387034385200,11.72438525390625,-0.027224164456129074,-0.06738463044166565,0.19519372284412384
1789484387044356000,11.734356201171876,0.048641569912433624,0.051066379994153976,0.014461496844887733
1789484387054328300,11.744328369140625,0.030248450115323067,0.12799738347530365,-0.02203552797436714
1789484387064299000,11.754299072265624,0.006561496295034885,0.04857898876070976,0.04495042935013771
1789484387074271200,11.764271240234375,-0.04992974177002907,0.022189725190401077,0.07780957967042923
1789484387084243000,11.774242919921875,-0.06189399212598801,0.05134414881467819,0.02375726029276848
1789484387094214100,11.784214111328126,0.019786221906542778,-0.010425742715597153,0.10290028154850006
1789484387104186000,11.79418603515625,0.05913549289107323,0.10813099890947342,-0.033666085451841354
1789484387114157300,11.8041572265625,0.027790352702140808,0.03720356151461601,0.10219507664442062
1789484387124129000,11.81412890625,-0.0460796095430851,0.07777096331119537,0.1336725801229477
1789484387134100200,11.824100341796875,0.008741294033825397,0.05603343993425369,0.08198115229606628
1789484387144072000,11.834072021484374,0.029347501695156097,0.06918120384216309,0.09961766749620438
1789484387154044200,11.844044189453125,0.02496527135372162,0.146950826048851,-0.040051545947790146
1789484387164015000,11.85401513671875,-0.046907853335142136,0.09458243101835251,-0.03495026007294655
1789484387173987000,11.863987060546876,-0.07870413362979889,0.008139685727655888,0.057014551013708115
1789484387183958000,11.8739580078125,-0.06544452160596848,0.005657352972775698,-0.07201986759901047
1789484387193930200,11.88393017578125,-0.11871599406003952,0.03214382007718086,-0.05826810002326965
1789484387203901000,11.89390087890625,-0.08457400649785995,-0.002091646660119295,0.024050740525126457
1789484387213873200,11.903873046875,-0.05379744991660118,0.051298074424266815,-0.023028619587421417
1789484387223844000,11.913843994140626,-0.09795559197664261,0.12417814135551453,0.02925136312842369
1789484387233816000,11.923816162109375,-0.0510416142642498,-0.008796154521405697,0.0954090803861618
1789484387243788300,11.933788330078125,-0.07190960645675659,0.019604859873652458,0.04482632875442505
1789484387253759200,11.94375927734375,-0.1326933354139328,0.1075589507818222,-0.060325659811496735
1789484387263731200,11.953731201171875,-0.11198219656944275,0.021413413807749748,0.037643514573574066
1789484387273702100,11.9637021484375,-0.09042444080114365,0.021861888468265533,-0.08848938345909119
1789484387283674400,11.97367431640625,-0.16341662406921387,-0.015837818384170532,-0.02334340661764145
1789484387293645000,11.98364501953125,-0.1262141317129135,-0.016398681327700615,-0.021881863474845886
1789484387303617300,11.9936171875,-0.06123778969049454,0.03905579075217247,-0.03602777421474457
1789484387313589000,12.003589111328125,-0.010587130673229694,-0.0016642092959955335,0.03413000702857971
1789484387323560200,12.013560302734374,0.04669133946299553,0.042765840888023376,-0.051665857434272766
1789484387333532200,12.0235322265625,0.08313164114952087,0.04181509092450142,-0.07311815023422241
1789484387343503400,12.03350341796875,0.03340163081884384,-0.022792397066950798,0.11089695990085602
1789484387353475000,12.04347509765625,0.11240004748106003,0.010272344574332237,0.11912399530410767
1789484387363446300,12.0534462890625,0.23541465401649475,0.00001304948909819359,0.0044168527238070965
1789484387373418000,12.06341796875,0.1979045569896698,0.055448345839977264,0.08487467467784882
1789484387383389200,12.07338916015625,0.27726462483406067,0.007816910743713379,0.08176543563604355
1789484387393361200,12.083361083984375,0.3802139163017273,0.030534207820892334,-0.004975850228220224
1789484387403333000,12.0933330078125,0.32794538140296936,0.06063511595129967,-0.022600650787353516
1789484387413304000,12.103303955078125,0.3244827389717102,0.055878978222608566,0.01745622232556343
1789484387423276300,12.1132763671875,0.3693926930427551,0.06535051017999649,0.06016426905989647
1789484387433247000,12.1232470703125,0.4020041525363922,0.08280247449874878,0.03666933253407478
