time,seconds_elapsed,z,y,x
1788772937715854000,0.08285400390625,-0.8614408884912729,-0.03631166883111,-1.6473672479234636
1788772937725823200,0.0928232421875,-0.2113917568832636,-0.1664309176504612,-1.2281326588101684
1788772937735792000,0.102792236328125,0.9948094944953918,-0.3487549854815006,-1.0307245652243495
1788772937745760300,0.11276025390625,0.9515992983222007,-0.29671792425215243,-1.0567550785377622
1788772937755729200,0.122729248046875,1.5213631793379783,-0.32677637790739533,-1.029693030219525
1788772937765698300,0.1326982421875,1.989554691582918,-0.4203595014899969,-1.007571068651974
1788772937775666200,0.142666259765625,1.9870289724975823,-0.44158933652341364,-1.0008652874030173
1788772937785635300,0.15263525390625,1.5013409665286541,-0.32845395573079583,-1.0829361062377691
1788772937795604200,0.162604248046875,0.9534504791468381,-0.12428162870705127,-1.1174965474873781
1788772937805573000,0.172572998046875,0.5251975940585136,-0.19197043257653712,-1.0738669568583368
1788772937815541200,0.182541259765625,0.33662732531428335,-0.37333062381148335,-0.9657195936113595
1788772937825510100,0.19251025390625,0.4237526510596275,-0.515552982878685,-0.9846436359204351
1788772937835479300,0.202479248046875,0.556307018071413,-0.6705161655753851,-1.0317042239114642
1788772937845448200,0.2124482421875,0.6619891602486372,-0.7830500733435154,-1.0094805555351078
1788772937855416300,0.222416259765625,0.8036381033420562,-0.7591781993687152,-0.9148097828462719
1788772937865385200,0.23238525390625,0.8179606432050466,-0.6222632990598678,-0.8339648525446652
1788772937875354400,0.242354248046875,0.5122334830671549,-0.40242753895819183,-0.8044350989386438
1788772937885323300,0.2523232421875,-0.4009872770220041,-0.16332067667543887,-1.048190225418657
1788772937895291400,0.26229150390625,-0.38280338555574417,-0.18912264192998407,-1.0477873437061904
1788772937905260300,0.27226025390625,-0.9223767109692096,-0.20444412970244882,-1.365625651267916
1788772937915229400,0.2822294921875,-0.9124491911947726,-0.2229980235248804,-1.375274938622862
1788772937925198300,0.2921982421875,-0.979254782488942,-0.07963350868523121,-1.5133743725411593
1788772937935166200,0.302166259765625,-0.864585031735897,0.08738719155192375,-1.640748268175125
1788772937945135000,0.312135009765625,-0.803465084862709,0.20395137774944305,-1.7499721746124326
1788772937955104000,0.32210400390625,-0.8592010006099939,0.2962672578752041,-1.7538450705230235
1788772937965073200,0.3320732421875,-0.8433025897324085,0.32677111721038815,-1.6885079443462192
1788772937975040800,0.342040771484375,-0.5612707779586315,0.28266426445841786,-1.6031071043059228
1788772937985009700,0.352009765625,-0.03618599662482738,0.03119827134013176,-1.4379557050719856
1788772937994978600,0.361978515625,-0.06775368579924106,0.07779694090783595,-1.4327091827206313
1788772938004947700,0.37194775390625,0.13154606675207614,0.004000467813014984,-1.5148568661838768
1788772938014915600,0.38191552734375,0.22946926536560058,-0.18560440467596054,-1.6848028062179683
1788772938024884700,0.391884765625,0.11412614539563655,-0.40506256363689896,-1.803168635009974
1788772938034853600,0.401853515625,0.05731821650266647,-0.5363514407575131,-1.8996344744220375
1788772938044822800,0.41182275390625,0.16636252858936787,-0.6015910979092121,-1.9945413939543066
1788772938054790700,0.421790771484375,0.3080775226563215,-0.6922732393532991,-1.973447460260242
1788772938064759800,0.431759765625,0.5762912369579076,-0.8571832310467958,-1.8119002229981123
1788772938074728700,0.441728759765625,0.9092126934915781,-1.0563906291395426,-1.6366643598623574
1788772938084697600,0.451697509765625,1.110692712691426,-1.3193120822519062,-1.5724186821840702
1788772938094665700,0.461665771484375,1.126870525032282,-1.6095716241449116,-1.5674804951295256
1788772938104635000,0.471634765625,1.0764724631816147,-1.8674936615347861,-1.5649977384030818
1788772938114603800,0.481603759765625,0.8134960650116205,-2.048047212561965,-1.6015554909497498
1788772938124572700,0.49157275390625,0.43263913734853265,-2.0262591591238976,-1.6633862164407966
1788772938134540800,0.501540771484375,0.10014905796945095,-1.720036908945441,-1.7106810515791178
1788772938144509700,0.511509765625,-0.19354221193790436,-1.3487088571280241,-1.7885963581696152
1788772938154478800,0.521478759765625,-0.7530337052643299,-1.104573937550187,-1.9428974236957728
1788772938164446700,0.53144677734375,-1.5485960541784762,-0.8791554088801145,-2.0233426871553064
1788772938174416000,0.541415771484375,-2.3160943381249903,-0.5929156240224838,-2.1191268279135227
1788772938184384800,0.551384765625,-2.8407798910081383,-0.3392740404307842,-2.2135355886653065
1788772938194354000,0.56135400390625,-2.9675428151369094,-0.22583529277741907,-2.142773953221738
1788772938204322800,0.57132275390625,-2.6315947042584416,-0.2859188823401928,-1.9840236532017588
1788772938214290700,0.581290771484375,-1.8238111716747283,-0.4687175819456577,-1.8503896742597221
1788772938224259600,0.591259521484375,-0.9561585690617561,-0.5476508334070443,-1.7517548202455042
1788772938234228700,0.601228759765625,-0.5040776491403579,-0.4194517389953136,-1.7884850067496298
1788772938244197600,0.61119775390625,-0.47064708870351313,-0.23138357455432412,-1.8667482499949632
1788772938254165800,0.621165771484375,-0.6927291664272547,-0.13063070547282696,-1.892834585148841
1788772938264134700,0.631134765625,-0.7425538123041391,-0.16987433610260486,-1.9230172497056424
1788772938274103600,0.641103515625,-0.4235772944927215,-0.2780629081428051,-1.8954571887373923
1788772938284071700,0.65107177734375,0.03309679843783379,-0.37871757754683494,-1.7116754694439469
1788772938294040600,0.66104052734375,0.488515922871232,-0.329427184677124,-1.5190525643080472
1788772938304009700,0.671009765625,0.9804185655713081,-0.18882862741947173,-1.3791703386262057
1788772938313978600,0.680978515625,1.33924194060266,-0.05530746120214462,-1.2882390447266399
1788772938323947800,0.69094775390625,1.5678642337501048,0.03499357196986675,-1.178617225012928
1788772938333915600,0.70091552734375,1.6270207715958356,-0.05426759676039219,-0.9865485927589237
1788772938343884800,0.710884765625,1.6997539993733166,-0.2145049204677343,-0.7972235601246357
1788772938353853700,0.720853759765625,1.8226064720600843,-0.42118426187634467,-0.6198363641738891
1788772938363821800,0.73082177734375,1.8618553633868693,-0.7148702710866928,-0.5462035572081804
1788772938373790700,0.740790771484375,2.0343477730333803,-1.0002852955579757,-0.5983813420824706
1788772938383759600,0.750759521484375,2.2595073585063217,-1.2329483885288237,-0.7078988246388733
1788772938393728800,0.760728759765625,2.3638024302393195,-1.3330366562217473,-0.8283040503039956
1788772938403697000,0.77069677734375,2.2224837420135737,-1.3444237271547317,-1.07838384976089
1788772938413665800,0.780665771484375,1.789251314947009,-1.3219652271091937,-1.3232685647927225
1788772938423634700,0.790634765625,1.3244050214767455,-1.182523438671231,-1.5333029157176612
1788772938433603800,0.800603759765625,0.894947436773777,-1.000728363150358,-1.6829771982260047
1788772938443571700,0.81057177734375,0.34496669911444183,-0.8359773614108562,-1.8512258328229187
1788772938453540900,0.820540771484375,-0.05446574968099594,-0.6244973417222499,-2.0134259810358284
1788772938463509800,0.830509765625,-0.32553836054503915,-0.4310632663339376,-2.112069018356502
1788772938473479000,0.84047900390625,-0.5129986222207545,-0.31362229730188845,-2.1391168920189143
1788772938483446800,0.85044677734375,-0.6686831049293279,-0.2852852606117725,-2.1413465507671234
1788772938493416000,0.860416015625,-0.6561141307353973,-0.30944296579062935,-2.115934023221582
1788772938503384800,0.870384765625,-0.5374298836439848,-0.4548749345541,-2.204267701843381
1788772938513353700,0.880353759765625,-0.3697264618396759,-0.6627309185266494,-2.3403965663410724
1788772938523321600,0.890321533203125,-0.0915454802751541,-0.790413880109787,-2.3737528924979268
1788772938533290800,0.900290771484375,0.26990648969411846,-0.7464975814938545,-2.2780074763149023
1788772938543259600,0.910259765625,0.7079694056570529,-0.6827274123728275,-2.0429729780375956
1788772938553228500,0.920228515625,1.1360159545183182,-0.5848831242144108,-1.7819662725053727
1788772938563196700,0.93019677734375,1.4675930107057094,-0.49625733077824113,-1.5774423555649817
1788772938573165600,0.94016552734375,1.6313783822834491,-0.4720633852422237,-1.5837693666294217
1788772938583134700,0.950134765625,1.446618027216196,-0.49161739601790905,-1.8033254330068826
1788772938593103600,0.960103515625,0.9266793765991925,-0.5414829584270715,-2.1813569279856977
1788772938603071700,0.97007177734375,0.3332476197481155,-0.5504390028208493,-2.56884043418169
1788772938613040600,0.98004052734375,-0.1643482661575079,-0.4515525121331215,-2.7869208750486374
1788772938623009800,0.990009765625,-0.5212877271384,-0.34251755239665505,-2.8531203171432016
1788772938632978700,0.999978759765625,-0.6167682087749242,-0.19364099613726138,-2.631692903935909
1788772938642946800,1.00994677734375,-0.5666302591651677,-0.05147942734658718,-2.269592406930029
1788772938652915700,1.019915771484375,-0.37940322172343727,0.1100455980837345,-1.7931909924834966
1788772938662884600,1.029884521484375,-0.0166962832570076,0.19309329912662504,-1.3736723257318137
1788772938672853800,1.039853759765625,0.3343669791668653,0.18253683379888533,-1.127628211531788
1788772938682821600,1.049821533203125,0.49939445976018904,0.1376256789267063,-1.0997327811293303
1788772938692790800,1.059790771484375,0.5476245299220085,0.015067805272340773,-1.344521634571254
1788772938702759700,1.069759765625,0.5355126518458128,-0.16252806499302386,-1.6708498303197323
1788772938712728800,1.079728759765625,0.506468343669176,-0.36287820338010784,-1.909100221903622
1788772938722696700,1.08969677734375,0.44030397288799283,-0.5674778159052133,-2.1077321581959723
1788772938732665900,1.099665771484375,0.377184376630187,-0.7755448122799397,-2.3427790775634345
1788772938742634800,1.109634765625,0.3531523436576128,-0.8605243581682444,-2.3735361810073257
1788772938752603600,1.119603759765625,0.42077042037844653,-0.8523480659753083,-2.2191958063840866
1788772938762571800,1.12957177734375,0.5564847127258777,-0.8509674252718686,-1.9603135456599294
1788772938772541000,1.139541015625,0.7474865925312042,-0.7624474302977323,-1.6368252495124935
1788772938782509800,1.149509765625,0.9430991810023784,-0.7088076100468635,-1.3897998691901563
1788772938792478700,1.159478759765625,1.3347872992813585,-0.6133510938078165,-1.3071537346854805
1788772938802446600,1.169446533203125,1.7143161932110786,-0.53587213280797,-1.3684231730319558
1788772938812415500,1.17941552734375,1.6286100866138935,-0.5563923582673073,-1.460182149927318
1788772938822385000,1.189385009765625,1.1815443645060062,-0.6083581078261137,-1.585095062275231
1788772938832353800,1.199353759765625,0.6512970858424901,-0.6846621798276901,-1.7583122790649532
1788772938842321700,1.20932177734375,0.28867256496250626,-0.7731921116739511,-1.8039508714288472
1788772938852290600,1.21929052734375,0.2717494872123003,-0.8223018872797488,-1.6322823453858495
1788772938862259700,1.229259765625,0.3871504748493433,-0.9838941327273845,-1.2687070996522902
1788772938872228600,1.239228515625,0.5468213968455791,-1.1313158140033484,-0.8940257188189774
1788772938882196700,1.24919677734375,0.7720318357229232,-1.1670043825000525,-0.7199940438412129
1788772938892165600,1.25916552734375,1.0087830747902393,-1.2002256841003893,-0.6909122531984001
1788772938902134800,1.269134765625,1.0521762263149022,-1.2879220877319573,-0.7035524659976363
1788772938912103700,1.279103759765625,0.8434615796864032,-1.2471084313064813,-0.7178115852355956
1788772938922071800,1.28907177734375,0.5167138433516025,-1.0346610278904438,-0.8219814962189644
1788772938932040700,1.299040771484375,0.13889116881787777,-0.7026718837708235,-1.0036452735103667
1788772938942009600,1.309009521484375,-0.28622517181038853,-0.5606657978028059,-1.1117146030850709
1788772938951978800,1.318978759765625,-0.8718295960366725,-0.3406599418312311,-1.1993966859303413
1788772938961946600,1.328946533203125,-1.5123112733542918,-0.008812836530804634,-1.3465186536073683
1788772938971916800,1.338916748046875,-2.068712983971834,0.32200901737511156,-1.4069091171622274
1788772938981885700,1.3488857421875,-2.5973721166610715,0.6087047293066978,-1.2985311600297689
1788772938991854600,1.3588544921875,-2.7980992716670037,0.9322942938715219,-1.0466641118299216
1788772939001822700,1.36882275390625,-2.4969921725451947,1.2820838830977677,-0.6753717158477753
1788772939011791600,1.37879150390625,-1.8986510163426398,1.5587708267122506,-0.2224234385073185
1788772939021760800,1.3887607421875,-1.3511667716741562,1.6273773299485443,0.1906497053667903
1788772939031729700,1.398729736328125,-0.8983277268618345,1.5060785164445638,0.48755036577470595
1788772939041697500,1.408697509765625,-0.5465671298235655,1.2942138813525437,0.5470413962718099
1788772939051666400,1.41866650390625,-0.3131716309249401,0.9935440046042203,0.630848610445112
1788772939061635600,1.428635498046875,-0.1985328598320484,0.7377151401013136,0.7777692833963781
1788772939071604500,1.4386044921875,-0.12354922277927398,0.5382020370602607,0.8804492480829358
1788772939081572600,1.448572509765625,0.020388123512268066,0.42931554588377474,0.9459642881099134
1788772939091541500,1.45854150390625,0.26243162376880647,0.23092589391469953,0.9348110989980399
1788772939101510400,1.468510498046875,0.49852586023211476,-0.1628752709954977,0.8356161268830299
1788772939111479600,1.4784794921875,0.7626116809487342,-0.5504401718646288,0.7597098220273852
1788772939121447700,1.48844775390625,1.0497639044761657,-0.9202344382435083,0.6638954322613775
1788772939131416600,1.49841650390625,1.3620833024859427,-1.2469833436220883,0.5521928607508539
1788772939141385500,1.508385498046875,1.639858625859022,-1.5071376701086758,0.5215098454564809
1788772939151354600,1.518354736328125,1.6329495771229265,-1.6623089425981044,0.48405119854733347
1788772939161322500,1.528322509765625,1.5009674570411442,-1.617567883595824,0.37771599928885696
1788772939171291600,1.538291748046875,1.239402679234743,-1.5265654241561888,0.22167320466190577
1788772939181260500,1.548260498046875,0.8579355107188225,-1.4621189632087945,0.16003040295839308
1788772939191229700,1.558229736328125,0.5694575915455817,-1.378131350967288,0.17031287365034223
1788772939201197600,1.568197509765625,0.314029709059,-1.212432839244604,0.17382774990350006
1788772939211166700,1.578166748046875,0.048103228911757466,-0.9503139346867799,0.13409779706150293
1788772939221135600,1.588135498046875,-0.16541268051862715,-0.7096686107903718,0.031902035695314405
1788772939231104500,1.5981044921875,-0.20082535468339918,-0.5746697732359171,-0.04406739752441644
1788772939241072600,1.60807275390625,-0.03375497008562088,-0.5637269389390945,-0.09038008975759149
1788772939251041500,1.61804150390625,0.17795827383697033,-0.6617699645400047,-0.19969751969724892
1788772939261010700,1.6280107421875,0.447058707845211,-0.7690010897248983,-0.20995894760116934
1788772939270979600,1.6379794921875,0.5237649309068918,-0.899428966102004,-0.19032076567336917
1788772939280947700,1.64794775390625,0.366932447206974,-0.9302736016988754,-0.32881716301999986
1788772939290916600,1.65791650390625,0.12889584450423716,-0.8424661389082669,-0.5732078839898109
1788772939300885800,1.6678857421875,-0.09320786052942276,-0.7155489010006189,-0.8230951565492898
1788772939310854700,1.677854736328125,-0.35125030942857266,-0.6876607771217823,-1.124786996756494
1788772939320822500,1.687822509765625,-0.644659839785099,-0.8211959718644618,-1.4979823037505149
1788772939330791700,1.697791748046875,-0.6651268737524747,-0.9064473204314708,-1.8030976156003773
1788772939340760800,1.7077607421875,-0.4861819269657135,-0.8489572544932364,-1.5703583886533974
1788772939350729700,1.717729736328125,-0.3662514792054891,-0.7011234852850436,-1.2141685039307921
1788772939360697600,1.727697509765625,-0.15959727223813533,-0.4651671959877014,-0.9106094816122203
1788772939370666500,1.73766650390625,-0.1823819354981184,-0.4365156865209341,-0.897301744814962
1788772939380635400,1.747635498046875,0.10045476291775703,0.0773807613223791,-0.6851373961240053
1788772939390604500,1.7576044921875,0.11570026284456253,0.2433013913631439,-0.6444722082585096
1788772939400572400,1.767572509765625,0.16992168237566946,0.30532384003400803,-0.6000347353126854
1788772939410541600,1.77754150390625,0.3556874150931835,0.3035468934893608,-0.534931198696047
1788772939420510500,1.787510498046875,0.3166203100740909,0.3509440199583769,-0.5042631617750972
1788772939430479600,1.797479736328125,1.3107926757097244,0.3421843749195337,-0.15053155692480505
1788772939440448500,1.807448486328125,1.6989023509800434,0.2634054372370243,-0.04359503077231347
1788772939450416600,1.817416748046875,1.9574825600177048,0.17370353900194166,-0.26359664896018803
1788772939460385500,1.827385498046875,1.9539058705747125,0.1496253288000822,-0.7034042166333645
1788772939470354400,1.8373544921875,1.9301047237485647,0.18172434837222098,-0.6125221687030047
1788772939480323600,1.847323486328125,1.5030337419211863,-0.032706337815523144,-1.7856284482747316
1788772939490291700,1.857291748046875,1.1145376976817845,-0.1922720458716154,-2.029473737256229
1788772939500260600,1.867260498046875,0.7563467753350734,-0.31354689397811886,-2.056091548938304
1788772939510229500,1.8772294921875,0.4210691110640764,-0.3313409093439579,-1.9082967965662478
1788772939520198700,1.88719873046875,0.41446518275439737,-0.32378128774464127,-1.8776884539432823
1788772939530166500,1.89716650390625,0.624760376572609,-0.0020966800183057784,-1.2671909960009158
1788772939540135700,1.9071357421875,1.0512725554734468,0.10577274307012557,-1.019459513235837
1788772939550104600,1.9171044921875,1.2968085740208626,0.04870996263325214,-0.9016247956458479
1788772939560073700,1.92707373046875,1.301966395175457,0.043728667089343067,-0.8748999433927237
1788772939570041600,1.93704150390625,1.380996092748642,-0.09981997214555739,-0.8726678734917193
1788772939580010800,1.9470107421875,1.2540472906589508,-0.17007950328588484,-0.9121271926987916
1788772939589979600,1.956979736328125,1.2863099763602017,-0.2039005243450403,-0.87024904884696
1788772939599948500,1.966948486328125,0.5688333221673965,-0.19003508059978483,-1.407162215140462
1788772939609916700,1.976916748046875,0.1472159295707941,-0.16761749708652496,-1.7140386914439498
1788772939619885600,1.986885498046875,0.18707564627230167,-0.21164543938338756,-1.673342962309718
1788772939629854700,1.996854736328125,-0.6136129596143961,-0.1611065077573061,-1.9671110968455672
1788772939639823600,2.00682373046875,-0.7127168924450874,-0.1393213769286871,-1.9097247835427522
1788772939649791500,2.01679150390625,-0.616311697179079,-0.08123743675053119,-1.7386013241618872
1788772939659760400,2.026760498046875,-0.3332359293103218,-0.04278700232505798,-1.4709953664951025
1788772939669729800,2.036729736328125,-0.3409258992910385,-0.0350479325056076,-1.4523751294381915
1788772939679698700,2.04669873046875,0.43979426980018616,-0.08331190493702888,-1.1090316476114093
1788772939689666600,2.05666650390625,0.6510106701165437,-0.08953004879951476,-1.235661739140749
1788772939699635500,2.066635498046875,0.7262263623595238,-0.11920564061701297,-1.62376732275784
1788772939709604600,2.0766044921875,0.6124678812325001,-0.23356676381230354,-2.0969535745501515
1788772939719573500,2.086573486328125,0.6042717152953148,-0.22626491636633872,-2.0715582904003558
1788772939729541600,2.096541748046875,0.24067221190333365,-0.5532108056217432,-2.6943691403403878
1788772939739510500,2.106510498046875,0.23896540798544882,-0.5508797323256731,-2.701411167806387
1788772939749479400,2.1164794921875,0.3424082468032837,-0.6449760661274194,-2.2496868062376976
1788772939759448600,2.126448486328125,0.5028092366397381,-0.5081815773278474,-1.8709230514615773
1788772939769416400,2.13641650390625,0.7009592346340418,-0.29568448955118654,-1.4246874965675174
1788772939779385600,2.146385498046875,0.6962970880419016,-0.28899288295805453,-1.4567361011266708
1788772939789354500,2.1563544921875,0.8136036170393228,-0.1969341924637556,-1.014759957242757
1788772939799323600,2.16632373046875,1.2292454423576593,-0.12250351311862467,-0.416910457014665
1788772939809291500,2.17629150390625,1.3086679386407136,-0.11665303352475166,-0.5252040603319182
1788772939819260700,2.1862607421875,1.3040946393758057,-0.11265022762417792,-0.5055532015856355
1788772939829229600,2.1962294921875,0.8951754003107547,-0.18654548491835593,-1.1582767400346696
1788772939839198500,2.206198486328125,0.9032382952570914,-0.19624445663392542,-1.1390167437694967
1788772939849166600,2.21616650390625,0.43267713127136226,-0.2968734070748091,-1.5470152147278189
1788772939859135700,2.2261357421875,0.2902460978895426,-0.3684498660326004,-1.6301945793263612
1788772939869104600,2.236104736328125,0.31892098823189735,-0.3992974242389202,-1.6397602800510822
1788772939879073500,2.246073486328125,-0.029569793355464932,-0.2766249842941761,-1.7308046789363025
1788772939889041700,2.256041748046875,0.006985036581754684,-0.3159446027696132,-1.7602936621405183
1788772939899010600,2.266010498046875,-0.0910842925041914,0.06397299821674823,-1.427017693080753
1788772939908979700,2.275979736328125,-0.11814005721211433,0.0944517231106758,-1.1746041169140486
1788772939918948600,2.285948486328125,-0.08346621871590613,0.05529284815490246,-1.198196662490815
1788772939928917800,2.295917724609375,-0.15518705458045004,0.03544248478114605,-1.043258175843954
1788772939938885600,2.3058857421875,-0.13329261815845966,0.009923428121209143,-1.0501461817920208
1788772939948854800,2.315854736328125,-0.07440905203521252,-0.1639338401377201,-1.103073615989834
1788772939958823700,2.32582373046875,-0.07800386165678501,-0.42290041814446444,-1.068151647951454
1788772939968792600,2.33579248046875,-0.08026888397932053,-0.6603261954724788,-0.991773926191777
1788772939978760400,2.345760498046875,0.01741173804998398,-0.7914706956863403,-0.9013986587397753
1788772939988729600,2.3557294921875,0.020835282757878302,-0.7952548904001713,-0.9103382634554058
1788772939998698800,2.36569873046875,0.27164661135971546,-0.594105126067996,-0.5986353168435394
1788772940008667600,2.375667724609375,0.38134909509420395,-0.2801186716288328,-0.4886306718247011
1788772940018635500,2.385635498046875,0.3674462419480085,0.09162322168648242,-0.3079547365268692
1788772940028604400,2.3956044921875,0.224287478813529,0.3779138599485159,-0.10331741320672444
1788772940038573600,2.405573486328125,0.24054946230649946,0.3584972118169069,-0.11859294294561258
1788772940048542500,2.41554248046875,-0.08219488360583782,0.7351233700424432,0.2463574544655159
1788772940058510600,2.425510498046875,-0.16774784546792507,0.6818085439622402,0.4278111326701939
1788772940068479500,2.4354794921875,-0.1397819801777601,0.6100421153903007,0.5925393745886162
1788772940078448600,2.44544873046875,-0.09909048882722854,0.6629752486765385,0.7220329292576759
1788772940088417500,2.45541748046875,-0.07718962266445159,0.6357838748902082,0.6873181742291897
1788772940098385700,2.4653857421875,-0.05216039534807205,0.6775345199048519,0.7348811587844044
1788772940108354600,2.4753544921875,0.07026654540300369,0.8907593374341726,1.2017821928273886
1788772940118323500,2.485323486328125,-0.029212065958976744,0.8252303419470787,1.4096452641278505
1788772940128292600,2.495292724609375,-0.22139701806902884,0.6079968732982873,1.3939293702103197
1788772940138260500,2.505260498046875,-0.19296762692034244,0.5705851342707872,1.3853978348389266
1788772940148229600,2.515229736328125,-0.5232879610449075,0.1898462800294161,0.9981403194185345
1788772940158198500,2.525198486328125,-0.492829694417119,0.04096446307301521,0.9467898522138595
1788772940168167700,2.535167724609375,-0.40050621550679205,0.007801029139757156,1.0061966384936123
1788772940178135600,2.545135498046875,-0.37234628894925115,0.09032675213515758,1.0753396597594023
1788772940188104700,2.555104736328125,-0.3596124795824289,0.0730284113317728,1.0734844603467733
1788772940198073600,2.565073486328125,-0.6171078159928322,0.3284866889566183,1.3034534188628195
1788772940208042500,2.57504248046875,-0.7461772634983063,0.4123661646485328,1.390205235120654
1788772940218011600,2.58501171875,-0.7308294722408056,0.39801732130050654,1.389357824511081
1788772940227979800,2.594979736328125,-0.5498235012710094,0.32181378706395625,1.4327259877249598
1788772940237948700,2.60494873046875,-0.5457943918853998,0.31637247279286385,1.4365196809194982
1788772940247917600,2.61491748046875,-0.1675853483825922,0.26272797636687756,1.2841601048499345
1788772940257886700,2.62488671875,-0.07382336110174656,0.2254986081689596,1.290548929104209
1788772940267854600,2.6348544921875,-0.15591419981122015,0.1245288814663887,1.3224785834588109
1788772940277823700,2.64482373046875,-0.27890052801072596,-0.024473346999287604,1.2773977711081503
1788772940287792600,2.654792724609375,-0.272837282449007,-0.03270692233741283,1.2888212285287677
1788772940297761800,2.66476171875,-0.24993863742053507,-0.14555354931652545,1.4176862395033238
1788772940307729400,2.6747294921875,-0.36100481072366236,-0.0322597630918026,1.4615461317569016
1788772940317698600,2.684698486328125,-0.5360299537181854,0.12573007394969463,1.4505387077912688
1788772940327667500,2.69466748046875,-0.6756435915917157,0.20812954021692276,1.4598841898940502
1788772940337636600,2.70463671875,-0.6747779146730899,0.2069423762589693,1.4797813150189816
1788772940347604500,2.7146044921875,-0.841246241724491,0.10871581078469753,1.5266178849957883
1788772940357573600,2.72457373046875,-0.8251087613940239,0.09617781625092028,1.4754112832412123
1788772940367542500,2.73454248046875,-0.859780846324563,0.05688040960729122,1.3256727033250033
1788772940377511400,2.744511474609375,-0.8906032700896263,-0.057789925667643544,1.1243156529176979
1788772940387479600,2.7544794921875,-0.8861573965966701,-0.06411269894838333,1.1315765107661484
1788772940397448400,2.764448486328125,-0.8820213197052478,-0.38576574249267576,0.8270863450773059
1788772940407417600,2.77441748046875,-0.719534171244502,-0.4359761728167534,0.8064552065894007
1788772940417386500,2.784386474609375,-0.5490051706254482,-0.5012690214604139,0.8243342698901891
1788772940427354600,2.794354736328125,-0.5139326882004738,-0.5294289480179548,0.894349251684919
1788772940437323500,2.804323486328125,-0.5035100783854722,-0.5442296267867088,0.8920838640362023
1788772940447292700,2.814292724609375,-0.7901958534449338,-0.538395513805747,0.8773113153833896
1788772940457261600,2.824261474609375,-1.0831512102931737,-0.5665916807204484,0.7597323261201381
1788772940467229700,2.834229736328125,-1.266378364443779,-0.6429442680388688,0.6414796023137868
1788772940477198600,2.844198486328125,-1.285892043209076,-0.7451964357674121,0.620740181145817
1788772940487167500,2.85416748046875,-1.1272826129645108,-0.7918792764872312,0.5826858333658427
1788772940497136600,2.86413671875,-0.9497042783558368,-0.6913777518182993,0.5312352302549407
1788772940507105500,2.87410546875,-0.8390805881232023,-0.5919780509114265,0.5778253877226263
1788772940517073700,2.88407373046875,-0.8042103502720594,-0.4761129528939724,0.6957946914777159
1788772940527042600,2.89404248046875,-0.7609680053949356,-0.3442068206578493,0.8970034194555133
1788772940537011700,2.90401171875,-0.7560083371609448,-0.2390320434808731,1.0821708940189332
1788772940546980600,2.913980712890625,-0.963413654756546,-0.10786825404465197,1.1817976086147128
1788772940556948700,2.92394873046875,-1.305793259987235,0.09801438402831554,1.2018436406910418
1788772940566917600,2.933917724609375,-1.3665373592853545,0.2650432675719261,1.1163156671397387
1788772940576886500,2.943886474609375,-1.1107663624495268,0.3356400678426027,1.1330963407445698
1788772940586855700,2.953855712890625,-0.650804918411374,0.4279395813554525,1.0844123162701724
1788772940596823800,2.96382373046875,-0.26309505611360073,0.64301674875319,1.0251527564413845
1788772940606792700,2.973792724609375,-0.13736790477335453,0.8309878825604915,0.89693503039442
1788772940616761600,2.98376171875,-0.11273673686385154,0.9643272624701261,0.6549847613792866
1788772940626730800,2.993730712890625,-0.04330722680687904,1.045714336824417,0.481511012545228
1788772940636698400,3.003698486328125,-0.07752046205401421,1.0884878951460122,0.5203223161723465
1788772940646667500,3.01366748046875,0.24882044704556464,1.0436930601298808,0.39097101951818913
1788772940656636400,3.023636474609375,0.3946791167885065,1.0245651658117771,0.42100185451414435
1788772940666605800,3.033605712890625,0.5023801975727081,1.0084212557405232,0.5470551325362175
1788772940676573400,3.043573486328125,0.47751346734166145,0.996519221022725,0.6230082722082734
1788772940686542600,3.05354248046875,0.436875752004981,1.0438614024341106,0.656438759579882
1788772940696511500,3.063511474609375,0.6187111595362424,1.0705132625162601,0.6303042744353413
1788772940706480400,3.07348046875,0.7750327711045741,1.0826935296535491,0.7204640725057572
1788772940716448500,3.083448486328125,0.7862666973024606,1.0886024614363907,0.6976490871727467
1788772940726417700,3.093417724609375,0.7677776854097843,1.0463643251657486,0.500679896460846
1788772940736386600,3.103386474609375,0.7526958516120911,0.9121493314653635,0.2390314589589834
1788772940746355500,3.11335546875,0.8305512447088956,0.7195370938539505,0.042852980233356354
1788772940756323600,3.123323486328125,0.7912111679673195,0.7601105117827653,0.07434124749600887
1788772940766292500,3.13329248046875,0.9543722701668739,0.5647574510306119,-0.08862696247994899
1788772940776261600,3.14326171875,1.3060019343018532,0.3512818736106157,-0.30746275175884363
1788772940786230500,3.15323046875,1.2901263197779655,0.367969389039278,-0.3015687983494252
1788772940796199700,3.16319970703125,1.6117489681839943,0.16610592347979544,0.10362440592981874
1788772940806167600,3.17316748046875,1.5903636503279208,0.15482289744317532,0.4016716060243547
1788772940816136700,3.18313671875,1.4709095879077911,0.2639846984297037,0.5922378708913922
1788772940826105600,3.193105712890625,1.1043430514037609,0.360328518897295,0.7402479465145617
1788772940836074500,3.203074462890625,0.4942237791240215,0.31848376585841176,0.7700052983313799
1788772940846042600,3.213042724609375,-0.007450900527834892,0.21120997057557106,0.7215493835244328
1788772940856011500,3.223011474609375,-0.46675475744009015,0.10498130043148994,0.6323268663041294
1788772940865980700,3.232980712890625,-0.8748030588895082,0.10834580842852592,0.5272624906990677
1788772940875949600,3.242949462890625,-1.0554168156713246,0.1759025103509426,0.4139950810246169
1788772940885917700,3.252917724609375,-1.026004843226075,0.14123100994229315,0.41160760136619207
1788772940895886600,3.262886474609375,-1.2618582566708325,0.25122166296839715,0.3852915491096675
1788772940905855700,3.272855712890625,-1.240569969448447,0.22707973988056182,0.37329146084487436
1788772940915824600,3.28282470703125,-1.0084972435861825,0.23797347433865068,0.4948800510756671
1788772940925792800,3.292792724609375,-0.7274696404188871,0.2137047100007534,0.6335420142475515
1788772940935761700,3.30276171875,-0.45370004555583,0.15112345840334893,0.8172722225494682
1788772940945730600,3.31273046875,-0.2734393399953842,0.13370412156879902,1.014749216653034
1788772940955699700,3.32269970703125,-0.2731651992291212,0.1338619424790144,1.0107852083928883
1788772940965667600,3.33266748046875,-0.20917817248702048,0.25417525207698344,1.1894976615980266
1788772940975635700,3.3426357421875,-0.2659276491910219,0.2651823837816715,1.09973818795681
1788772940985604900,3.35260498046875,-0.4065326361894607,0.38101182596385474,0.836362342140451
1788772940995573800,3.36257373046875,-0.6405301926344633,0.44387189450263975,0.4848658759310841
1788772941005542000,3.3725419921875,-0.859407921358943,0.4443061942666769,0.2344854130271822
1788772941015510800,3.3825107421875,-0.9915823491424322,0.4155950635671615,0.2375921468708664
1788772941025479700,3.392479736328125,-0.9365770857572555,0.3885433905124664,0.3063939534835517
1788772941035448800,3.40244873046875,-0.706003658542037,0.4255219988197088,0.4116029982563108
1788772941045416700,3.412416748046875,-0.4362281017512083,0.4198369389206171,0.6363423855558037
1788772941055385900,3.4223857421875,-0.15944412750303744,0.34041736524701116,0.74243559275195
1788772941065354800,3.432354736328125,0.0849754542350769,0.35458676037490366,0.7671938211072236
1788772941075324000,3.442323974609375,0.2305582296460867,0.4187275163739919,0.6395255456365645
1788772941085291800,3.452291748046875,0.12397592375874518,0.5098702610671519,0.4728108426086604
1788772941095261000,3.462260986328125,-0.1340133336484432,0.6100462070435285,0.36288423126209524
1788772941105229800,3.472229736328125,-0.4206862492263317,0.7400380300909281,0.3337624739350751
1788772941115199000,3.482198974609375,-0.6824819131791591,0.778395525535941,0.37753074238244444
1788772941125166800,3.492166748046875,-0.7591688470184803,0.7711059530496597,0.5095896174948662
1788772941135136000,3.502135986328125,-0.5435574266135692,0.727859516519308,0.6842270032808184
1788772941145105000,3.51210498046875,-0.10108195490539074,0.5634253256440163,0.9752162476878613
1788772941155073800,3.52207373046875,0.36917408865392204,0.34437282487452026,1.1446220164306462
1788772941165042000,3.5320419921875,0.5901391450464725,0.21156594440639018,1.1451417294558137
1788772941175010800,3.5420107421875,0.9062012367159128,0.18253157310187815,0.9873102978464215
1788772941184980000,3.55197998046875,1.0908990479409695,0.0921902079194784,0.7856018036529422
1788772941194948900,3.561948974609375,1.2268424728691578,-0.007567804905772209,0.6335141763925553
1788772941204917000,3.5719169921875,1.3474158947080372,-0.14290624967813492,0.5391770195722579
1788772941214886000,3.581885986328125,1.3391209445714949,-0.13318915778398513,0.5544993841275573
1788772941224855000,3.59185498046875,1.221561902117729,-0.5018243172556162,0.6215164262153208
1788772941234824000,3.601823974609375,0.9840198049336671,-0.5618570534139872,0.7012756071068346
1788772941244791800,3.611791748046875,0.9304536344408988,-0.46756899643242356,0.890412569823116
1788772941254760700,3.6217607421875,0.9337743032962084,-0.329798356077075,1.1244384755797683
1788772941264729900,3.631729736328125,0.95029522998631,-0.3510726147741079,1.1168970472242683
1788772941274698800,3.64169873046875,0.845440770804882,-0.1984282304137945,1.2887100232392548
1788772941284667600,3.651667724609375,0.5607961461842059,-0.036682255709171295,1.3516608388014137
1788772941294635800,3.6616357421875,0.14744798476099968,0.10821019935011864,1.39015671980381
1788772941304604700,3.671604736328125,-0.28198855715394017,0.24647242261469363,1.3322918292038142
1788772941314573800,3.68157373046875,-0.5152870254188776,0.33067981508672234,1.3511350613616406
1788772941324542700,3.691542724609375,-0.6771884829461574,0.40204292355477805,1.4827017325103282
1788772941334510800,3.7015107421875,-0.8939613483458757,0.46787060972750183,1.599389837348461
1788772941344479700,3.711479736328125,-0.9913520475178956,0.6293196473121643,1.6158771540299057
1788772941354449000,3.721448974609375,-1.058774893927574,0.7460206116318703,1.538464682395011
1788772941364417800,3.731417724609375,-1.1759504900217055,0.7542319751381874,1.4787404276639222
1788772941374386000,3.741385986328125,-1.3746259731948376,0.6959282547295094,1.2909697848647832
1788772941384354800,3.751354736328125,-1.6562281613796948,0.5625760153383016,0.9342647171616554
1788772941394323700,3.76132373046875,-1.856037032496929,0.4845294835835695,0.5847482457883656
1788772941404292900,3.77129296875,-1.9415408945202826,0.3545610414117574,0.38397674018405376
1788772941414261000,3.781260986328125,-1.942043583345413,0.2110550722748041,0.21782905992176382
1788772941424230000,3.79122998046875,-1.7443220398962496,0.24931962873935698,0.19628676140569148
1788772941434198800,3.80119873046875,-1.3585907841950655,0.3621083880513906,0.3100986897530034
1788772941444168000,3.81116796875,-1.0031161350697277,0.574464606052637,0.4684582368897274
1788772941454135800,3.8211357421875,-0.6967343104153871,0.7794143471896648,0.5079245338268578
1788772941464105000,3.83110498046875,-0.43445933851301666,1.0593535705983639,0.6256554987814277
1788772941474073900,3.841073974609375,-0.1845639557123184,1.4005653010934591,0.8878221880037337
1788772941484043000,3.85104296875,0.12995499816834927,1.6108493889957665,1.1495160720825195
1788772941494011000,3.861010986328125,0.5085948343038559,1.5709861651629209,1.373092918408662
1788772941503980000,3.87097998046875,0.908701821359992,1.4777940867245196,1.6022643698714674
1788772941513949000,3.880948974609375,1.5265256766676902,1.4153963750004768,1.8345538072243333
1788772941523917800,3.890917724609375,2.1718115393966437,1.392163383451104,2.06439336720705
1788772941533886000,3.900885986328125,2.629372352033853,1.2897732685565948,2.290746984770149
1788772941543854800,3.910854736328125,2.7602625852257012,1.1311357812613247,2.382229336681217
1788772941553824000,3.920823974609375,2.531238141018152,1.0033680640041827,2.3236476761139926
1788772941563793000,3.93079296875,1.9532325013577936,1.0928770700156687,2.3914910860233007
1788772941573760800,3.9407607421875,1.5828595583081244,1.1706336789131164,2.6815482372120023
1788772941583729700,3.950729736328125,1.401320503374934,1.1156833605855703,3.1563129903674123
1788772941593698800,3.96069873046875,1.1546312231391667,1.219762743741274,3.6383559178322553
1788772941603667700,3.970667724609375,0.5929705690801144,1.9051485616683959,3.5900785013973713
1788772941613635800,3.9806357421875,-0.1483095700263977,4.141632187461853,0.548954865210317
1788772941623604700,3.990604736328125,-1.1165513755917549,3.7728970747470854,-0.1319056207794696
1788772941633574000,4.000573974609375,-1.8368752359092235,1.606387148889899,-0.22736275807302445
1788772941643542800,4.010542724609375,-2.463060676848888,-0.9674556236237287,-0.4198337240502238
1788772941653511000,4.020510986328125,-2.819357163751125,-2.60828514034152,0.391928904764913
1788772941663479800,4.030479736328125,-2.705778715366125,-1.2291273689359425,2.255810111423582
1788772941673448700,4.04044873046875,-0.7461456993162632,-1.6425743145585059,2.671982828748226
1788772941683417900,4.05041796875,-0.2565741299122572,-3.081028324541449,2.7845129371240733
1788772941693385700,4.0603857421875,-0.7586497915804385,-2.8850796359837054,3.2651299234390256
1788772941703355000,4.07035498046875,-1.0390747526794673,-1.8000164545893669,3.0331755632594226
1788772941713323800,4.08032373046875,-0.6715981155931949,-0.6397258905142545,2.0218857663452625
1788772941723293000,4.09029296875,-0.6247282278686761,0.025253683722019193,1.218082608634606
1788772941733260800,4.1002607421875,-1.1801128703981638,0.24585399845540523,1.0191851532738656
1788772941743230000,4.11022998046875,-1.5224743554502724,0.2594961548388004,0.6784485660098493
1788772941753198800,4.12019873046875,-2.1765713011443615,0.15880582959949968,0.03738127082400024
1788772941763167700,4.130167724609375,-0.607341039738059,-0.3571674245178699,-0.7547913625866174
1788772941773136000,4.140135986328125,0.1617038891285658,-0.9011550592422485,-0.8753188263919204
1788772941783105000,4.15010498046875,0.10291676911711692,-1.364136143362522,-0.9616866117682308
1788772941793074000,4.160073974609375,0.8179144659757613,-1.5206348650634287,-1.2375175961405038
1788772941803042800,4.170042724609375,0.9449801724433898,-1.549488034582138,-1.1477558574769646
1788772941813011000,4.180010986328125,0.9093979869306087,-1.305847036001086,-0.9067810824304818
1788772941822979800,4.189979736328125,0.9537596912264823,-0.8490425946891307,-0.5972373596791177
1788772941832949000,4.199948974609375,1.046926635223627,-0.4359586371600628,-0.2792275314753875
1788772941842918000,4.20991796875,1.2013064650744198,-0.25598610089123247,0.027848047596774995
1788772941852886000,4.219885986328125,1.2096066759079693,-0.1480219852566719,0.37433183674328024
1788772941862855000,4.22985498046875,1.201051029008627,0.006322188758850098,0.7055798801720142
1788772941872824000,4.239823974609375,1.1469839232563972,0.07898410486578941,0.9886566709540784
1788772941882793000,4.24979296875,0.9675281043380498,0.023998130702972412,1.1962830839544534
1788772941892760800,4.2597607421875,0.5933768117934465,-0.015147884771227835,1.2865094444550573
1788772941902729700,4.269729736328125,0.1043161145210266,0.044613633230328555,1.2404621251598
1788772941912698600,4.27969873046875,-0.5960685350954532,0.19315993462204933,1.1784168070700018
1788772941922667800,4.289667724609375,-1.3489280528366565,0.42044776429533953,1.1053102159354835
1788772941932636000,4.299635986328125,-2.0025468596249816,0.6721300305128097,1.2281427418127655
1788772941942604800,4.309604736328125,-2.444778001183271,0.8640998785674572,1.4670613880470393
1788772941952573700,4.31957373046875,-2.671625101351738,0.9658557872116565,1.6727037876233457
1788772941962542800,4.32954296875,-2.7278952701061963,0.9941840560734272,1.705952854013443
1788772941972512000,4.339511962890625,-2.6231191368579863,0.9376029216736554,1.6118749326512216
1788772941982481000,4.34948095703125,-2.2578999233096835,0.9599462709069252,1.6506497767254709
1788772941992450000,4.359449951171875,-1.6392168208241462,1.116140456703305,1.9190616439476609
1788772942002419000,4.3694189453125,-0.7842080112069845,1.1989438275963067,1.9351292739123105
1788772942012387000,4.379386962890625,0.9899047713190317,1.4868465772300958,1.3497212490409611
1788772942022356000,4.38935595703125,0.5764519804775714,0.7370663208037614,3.2334985213786362
1788772942032325000,4.3993251953125,0.7055600064277648,0.14516659582555294,2.9458693279892203
1788772942042294000,4.4092939453125,0.9767740715891122,0.5122042569726706,2.6697230671226975
1788772942052262100,4.41926220703125,0.5504840110063552,0.5467424863904714,1.9125578150115905
1788772942062231000,4.42923095703125,-0.058598903962969774,0.35509354085326195,1.4353814706698058
1788772942072200000,4.439199951171875,-0.4569745371818542,0.21267712051868437,1.281493808250129
1788772942082169000,4.449169189453125,-0.9422317505180835,0.2899433155506849,1.1952192541152238
1788772942092137000,4.459136962890625,-1.594757501372695,0.6323129839092493,1.0917583681840448
1788772942102105900,4.46910595703125,-1.850531420817971,0.9107225135326384,0.9592560236204415
1788772942112074800,4.47907470703125,-1.6192156508028506,0.9682599257439375,0.9718677409775555
1788772942122044200,4.489044189453125,-1.0450731163114308,0.9423884023845195,1.0909385031685233
1788772942132011800,4.49901171875,-0.47864451719820494,0.7050824520438909,1.4747871599934994
1788772942141981000,4.50898095703125,0.08842121077477931,0.2924579287201166,2.179049820087105
1788772942151949800,4.51894970703125,0.30745266875624655,-0.32171792547404765,2.690282455548644
1788772942161919000,4.5289189453125,-0.10389116710722446,-0.34270518392324445,2.165749024487287
1788772942171886800,4.538886962890625,-0.757675393590331,0.2344482228219509,1.454404151047766
1788772942181856000,4.54885595703125,-1.4376333412498234,0.7309118898272514,0.6981714305464178
1788772942191825000,4.558824951171875,-1.8985364500522612,0.9447925409168004,0.09149199652224779
1788772942201793800,4.568793701171875,-1.8848335033923387,1.1076859320908785,-0.43781303285509343
1788772942211762000,4.578761962890625,-1.6118120965480804,0.842262725290656,-0.6129203011751174
1788772942221731000,4.58873095703125,-1.2881851225823164,0.49449149014949795,-0.7935036628186702
1788772942231700000,4.598699951171875,-0.6346352893769741,0.2390712064474821,-0.9781124805860221
1788772942241668900,4.6086689453125,0.13122867136597632,-0.005962707796692848,-0.7751322859562934
1788772942251637000,4.618636962890625,0.6217471662312746,-0.08047580472826957,-0.38328795420229433
1788772942261606000,4.62860595703125,0.8832301109731197,0.1200491057038307,0.23108853713050484
1788772942271575000,4.638574951171875,1.085811953935027,0.456215827769041,0.8551077399469912
1788772942281544000,4.6485439453125,1.021527405551076,0.8298620934009552,1.3569286962017417
1788772942291512000,4.658511962890625,0.19133330371677876,1.0914864924401044,1.7486954326748847
1788772942301481000,4.66848095703125,-1.0487795696139335,1.0501152021318674,1.7918536063998936
1788772942311450000,4.6784501953125,-1.7138737101405859,0.875366537991166,1.5939577292971312
1788772942321419000,4.6884189453125,-1.5858330211609601,0.7265268066108226,1.4938174391560255
1788772942331387100,4.69838720703125,-1.1718804641038179,0.7531675607770681,1.37272832287997
1788772942341356000,4.70835595703125,-0.28229484662413595,1.0171849924325942,0.57276671609357
1788772942351325000,4.718324951171875,0.6739706899434328,0.9237234494030475,-0.08723550812155008
1788772942361294000,4.728294189453125,1.308135439199209,0.30941666230559345,-0.14255889754518866
1788772942371262000,4.738261962890625,1.9896540603041648,-0.41444413996636864,-0.024438129555433986
1788772942381231000,4.748231201171875,2.4802052883952856,-1.0623013144880533,0.046600277002900835
1788772942391200000,4.758199951171875,2.425871056139469,-1.5070622667849063,-0.031305823367834086
1788772942401169200,4.768169189453125,2.1117980924606323,-1.6356640967786311,-0.18330577234476803
1788772942411138000,4.778137939453125,1.688490262559056,-1.483037832596898,-0.2301857430718839
1788772942421106000,4.78810595703125,1.1539362266123294,-1.1940659924268722,-0.19096227844730018
1788772942431074800,4.79807470703125,0.49367199046015736,-1.0339011494338513,-0.22413550312221048
1788772942441044000,4.8080439453125,-0.04470598768889904,-0.9906471141189336,-0.43384953605160115
1788772942451012900,4.818012939453125,-0.30087738201916214,-0.8994014935731888,-0.5999579437494278
1788772942460981000,4.82798095703125,-0.29408465313911436,-0.828928027421236,-0.6474466940246522
1788772942470950000,4.837949951171875,-0.072701663595438,-0.8446563424289226,-0.5755955097787082
1788772942480918800,4.847918701171875,0.3225859404802322,-0.8771393928825855,-0.37653921059444545
1788772942490888000,4.857887939453125,0.8620353472530842,-0.899154825335741,-0.20228519810289144
1788772942500855800,4.867855712890625,1.1754320191055536,-0.9146879100322722,-0.09795169405564665
1788772942510825000,4.877824951171875,1.3371230487525463,-0.8471914138644934,-0.027225276055932043
1788772942520793900,4.8877939453125,1.4477853174299,-0.682948361647129,0.08339139991402626
1788772942530763000,4.897762939453125,1.3438473885715008,-0.4583294589221477,0.11787146940380334
1788772942540731000,4.90773095703125,1.0049959574669598,-0.23132161523401737,0.03859071967899799
1788772942550700000,4.917699951171875,0.6342191097915172,-0.002347439908981323,-0.15750877552628517
1788772942560669000,4.9276689453125,0.3583510813444853,0.2702034268140793,-0.2846682977572083
1788772942570637800,4.937637939453125,-0.02234042662382126,0.46956923033893105,-0.38953415511548517
1788772942580606000,4.94760595703125,-0.2982861964821815,0.456724946334958,-0.5383836772374808
1788772942590575000,4.9575751953125,-0.19062252509891986,0.25443477979600426,-0.49355450156033037
1788772942600544000,4.9675439453125,0.28868893157541753,-0.18924597604870796,-0.32472850546687837
1788772942610513000,4.977512939453125,0.7751216184318065,-0.6039852995693683,-0.12001973347887396
1788772942620481000,4.98748095703125,1.2844716550171376,-1.0388818604558705,-0.06801905873715877
1788772942630450000,4.997449951171875,1.8162550572067497,-1.5691595342576503,-0.05664119402393698
1788772942640419000,5.007419189453125,2.2262410487204787,-2.0009370863407847,0.014772183326631784
1788772942650388000,5.017387939453125,2.252690079706907,-2.3205589163184164,0.12030658759623765
1788772942660356000,5.027356201171875,1.9330536366820334,-2.392044774383306,0.15670155079662798
1788772942670325000,5.037324951171875,1.3326783443033694,-2.134279388859868,0.16152473316937685
1788772942680294100,5.047294189453125,0.505332617637515,-1.7531980047911404,0.20289368539005517
1788772942690263000,5.057262939453125,-0.5093547127604484,-1.3321610424309969,0.20461685592085121
1788772942700231200,5.067231201171875,-1.4352110825389623,-0.8360352290779351,0.1979461459852755
1788772942710200000,5.077199951171875,-2.0360376258164643,-0.32526363525688645,0.25818741032779213
1788772942720169000,5.0871689453125,-2.3504665633261204,0.09120879566669464,0.3537916644744575
1788772942730138000,5.09713818359375,-2.47266261793077,0.3826736216962337,0.39099692114442586
1788772942740106000,5.10710595703125,-2.3023884688556193,0.5132762701183557,0.3875178468570113
1788772942750075000,5.117074951171875,-1.7698562941253184,0.5172697236686945,0.41135041173472997
1788772942760043800,5.127043701171875,-1.0862754797935485,0.48799043769240374,0.42217122708708044
1788772942770013000,5.137012939453125,-0.605050882974267,0.5514221686393023,0.42759632087573407
1788772942779980800,5.146980712890625,-0.23087328694462775,0.67953358476758,0.38519320330172774
1788772942789950000,5.156949951171875,-0.008252864560484886,0.7889847240895033,0.33841932329759
1788772942799918800,5.1669189453125,0.06478022294640541,1.032674237987399,0.32626667481958865
1788772942809888000,5.176887939453125,0.1375736564785242,1.2722224142968654,0.35142128208130596
1788772942819856000,5.18685595703125,0.29878654721975323,1.441002525421977,0.3807560976371169
1788772942829825000,5.196824951171875,0.4589923067450523,1.5604489890575408,0.37795273065418
1788772942839794000,5.2067939453125,0.596591097664833,1.5454022265732288,0.396959044419229
1788772942849762800,5.2167626953125,0.8527578158199787,1.5087503660023212,0.4940063369810581
1788772942859731000,5.22673095703125,1.230840602594614,1.443814660233259,0.6926623848013579
1788772942869699800,5.236699951171875,1.6172633476912974,1.2859201002597809,0.9228780846200882
1788772942879669000,5.2466689453125,1.9581939231574534,0.9679454529672861,1.0342843035325406
1788772942889638000,5.256637939453125,2.3340075959563253,0.5427677375406027,1.1826909041926263
1788772942899606000,5.26660595703125,2.6053110929667946,-0.40475393607914445,1.4050067906722425
1788772942909575000,5.276574951171875,2.527321844357252,-0.7379489488571882,1.266475102816522
1788772942919544000,5.2865439453125,2.3811469482719896,-1.0183107815921306,1.013811716607213
1788772942930136000,5.297135986328125,2.3753473220825194,-1.018712932652235,1.0415987181991337
1788772942940105000,5.30710498046875,1.810506868943572,-1.4546055188387632,0.6848512726590037
1788772942950073000,5.317072998046875,0.8255044827133416,-1.5953133816897869,0.3820752174116671
1788772942960042000,5.3270419921875,-0.22318507052958012,-1.2055308047711848,0.08219824460670351
1788772942970011000,5.337010986328125,-1.4667495456188917,-0.5613128635346889,-0.2521187579385936
1788772942979978800,5.346978759765625,-2.5118320142805577,0.15511808099746704,-0.20224092056974768
1788772942989947000,5.35694677734375,-3.1900393188804386,0.8743839566946029,0.19417334944829343
1788772942999915800,5.366915771484375,-3.4607571249574423,1.5326070424079894,0.8635003052391111
1788772943009885000,5.376885009765625,-3.3500568623572584,2.1077263129770754,1.6032807073071598
1788772943019853800,5.386853759765625,-3.0068507431745526,2.4588901131659746,2.163572703361511
1788772943029822000,5.396822021484375,-2.5209073011398315,2.555384740281105,2.6154163073956966
1788772943039790800,5.406790771484375,-2.033813520026207,2.3742396531015633,2.94945127812922
1788772943049759700,5.416759765625,-1.5016706368744372,1.9718097760558126,3.137027275139093
1788772943059729000,5.42672900390625,-0.9891109905928372,1.4465513917207717,3.1407381123557685
1788772943069697000,5.436697021484375,-0.442793451616168,1.034565166300535,3.0523689240291714
1788772943079666000,5.446666015625,0.020403905603289602,0.6136500767543912,2.9352441813394425
1788772943089634800,5.456634765625,0.19483692792356014,0.2195768169045448,2.8900042329043147
1788772943099604000,5.46660400390625,0.08942600390315056,-0.06396978334635496,2.9311741554215547
1788772943109571800,5.47657177734375,-0.269560452735424,-0.2783086995974183,2.861349800828099
1788772943119541000,5.486541015625,-0.7500076354414225,-0.31933512199074027,2.6191280213952064
1788772943129510000,5.496510009765625,-1.2334393869161606,-0.16673837616443632,2.2190388622567054
1788772943139479000,5.50647900390625,-1.8618068480700254,-0.07068769342452287,1.7662644071131943
1788772943149447000,5.516447021484375,-2.5429168883740902,-0.037756606942415234,1.2160395584996788
1788772943159416000,5.526416015625,-2.9665298387020824,-0.01804769786596298,0.7149187133383006
1788772943169385000,5.536385009765625,-2.8865210669636725,-0.09299538682252168,0.35706469479575753
1788772943179353900,5.546353759765625,-2.40315302837491,-0.3935471901491284,0.24168007377162573
1788772943189322000,5.556322021484375,-1.7290952446699142,-0.8042392841055989,0.29502354142442344
1788772943199291000,5.566290771484375,-0.8867553624898195,-1.2884016879424451,0.33318785238489507
1788772943209260000,5.576260009765625,-0.03376315339207649,-1.9248948801457881,0.3564152909763157
1788772943219229000,5.58622900390625,0.7333692198514938,-2.6560429168164728,0.3989841205060482
1788772943229196800,5.59619677734375,1.3687906911700962,-3.383852164453268,0.4679176637396216
1788772943239165700,5.606165771484375,1.7360785276859998,-3.9495501112043856,0.40824002462923525
1788772943249134800,5.616134765625,1.880748279905319,-4.3949423471421,0.2647220727935433
1788772943259103700,5.626103759765625,1.719621313881874,-4.754966914656758,0.0711833679869771
1788772943269072000,5.63607177734375,1.0789309622496366,-4.942845109483599,-0.20836393349468707
1788772943279040800,5.646040771484375,0.06789630914032459,-4.739781620484591,-0.6200032451733947
1788772943289010000,5.656010009765625,-0.9781476980298757,-4.0823698511540885,-0.951563350225985
1788772943298978800,5.665978759765625,-1.8807254835516214,-3.1513848863154648,-0.969219418425858
1788772943308947700,5.67594775390625,-2.6926959464311597,-2.0809370902508495,-0.692217417512834
1788772943318915800,5.685915771484375,-3.305562471592426,-0.8779600616157054,-0.20428703944459556
1788772943328884700,5.695884765625,-3.512434120702743,0.3322968948945403,0.456821976968646
1788772943338854000,5.70585400390625,-2.805370139452815,2.252415938940644,2.1140910257034005
1788772943349444900,5.71644482421875,-2.0147925932139157,2.7620886316090822,2.8086235882908106
1788772943359413800,5.726413818359375,-1.2201309925317763,3.0084304135814306,3.2590447583064437
1788772943369382000,5.7363818359375,-0.49332303089201446,3.1500609442353245,3.433635893797874
1788772943379350800,5.746350830078125,0.07193184826672076,3.1959739696264267,3.3437533782988784
1788772943389320000,5.75631982421875,0.43987025764584536,3.1239813310831783,3.0930542778998613
1788772943399288800,5.766288818359375,0.7692793221443891,2.954220392227173,2.8017484418243166
1788772943409257000,5.776257080078125,1.0603501804202795,2.72145383888185,2.6048569194585083
1788772943419225900,5.786225830078125,1.2827917391061783,2.4655928256750106,2.41042199646458
1788772943429195000,5.796195068359375,1.4735311685830355,2.150298211246729,2.225644251871109
1788772943439164000,5.806163818359375,1.7358984949439764,1.782529897737503,2.0811571627423167
1788772943449132000,5.816132080078125,2.106152780050039,1.4194424355208872,2.054136469347775
1788772943459101000,5.826100830078125,2.4829881971120833,1.0702180789619684,2.1843359437964853
1788772943469070000,5.836070068359375,2.6760850033700465,0.7517793212890624,2.3871076102420687
1788772943479039000,5.8460390625,2.6446283733546734,0.5252542926818132,2.5279101656392213
1788772943489007900,5.8560078125,2.5121698679327964,0.35183424679636954,2.658665082013607
1788772943498976000,5.86597607421875,2.116620982572436,0.21686229724884032,2.8291309542685745
1788772943508945000,5.87594482421875,1.3333265790790318,0.1656324607491493,2.82733910241574
1788772943518914000,5.8859140625,0.4924807348489761,0.25078853224813935,2.699916545334458
1788772943528883000,5.895883056640625,-0.48377428130209443,0.359291577064991,2.67763603220433
1788772943538850800,5.905850830078125,-1.702179765215516,0.5714525647550821,2.668795430883765
1788772943548819700,5.91581982421875,-2.9878952828139065,0.9091004652887582,2.5236300041019915
1788772943558788900,5.925788818359375,-3.918474004939198,1.2286702728182077,2.1385624730065462
1788772943568757800,5.9357578125,-4.266901658162475,1.3686261482581494,1.7707631798371672
1788772943578726000,5.945725830078125,-4.167245936667919,1.195623743262887,1.4591168587833643
1788772943588694800,5.95569482421875,-3.7733290364235637,0.7163067336305976,1.1361742138199507
1788772943598663700,5.96566357421875,-3.2244635665297507,0.05950257480442524,0.6778408093750476
1788772943608632800,5.9756328125,-2.605724349942803,-0.5824404072374105,0.08710209100022911
1788772943618601700,5.985601806640625,-2.047756120660901,-1.0075964953541756,-0.44878991555199027
1788772943628569900,5.99556982421875,-1.524006387323141,-1.2555322685196995,-0.8047204917512834
1788772943638538800,6.005538818359375,-1.0592705684900283,-1.333221949660778,-1.029605351936072
1788772943648508000,6.0155078125,-0.6496119092345237,-1.1983692425787449,-1.1121518254585563
1788772943658476800,6.025476806640625,-0.2772118442714214,-0.9672273678258061,-1.1765164533413945
1788772943668445000,6.03544482421875,0.15099837071895597,-0.6932514367356896,-1.117961242389679
1788772943678413800,6.045413818359375,0.6283031637459993,-0.5002037303164601,-0.9505331303954124
1788772943688383000,6.055383056640625,1.120702650052309,-0.3662634619042277,-0.6466345008589327
1788772943698351900,6.065351806640625,1.6516875953406094,-0.24352321742027996,-0.23524609520137307
1788772943708320800,6.07532080078125,2.2473580710291863,-0.16656185055375097,0.3292147109702229
1788772943718289000,6.085288818359375,2.7656799340993166,-0.15475655420869588,0.8386109247848391
1788772943728257800,6.0952578125,3.0435376750588414,-0.25331658942103386,1.1125512000396847
1788772943738227000,6.10522705078125,3.0380846703499556,-0.3308788447901606,1.071204313520342
1788772943748195800,6.11519580078125,2.8339579360336065,-0.2871744353592396,0.8646199569188058
1788772943758164000,6.1251640625,2.416279636451602,-0.21106208653748035,0.5253786497138441
1788772943768132900,6.1351328125,1.74452662255764,-0.17056348741054533,0.023831688094884156
1788772943778102000,6.14510205078125,0.7654337526321411,-0.12827040608227253,-0.4883545948296785
1788772943788071000,6.15507080078125,-0.5496516518354415,-0.18973259052187202,-1.0858799046047032
1788772943798039000,6.1650390625,-1.8864467838078736,-0.09148615130335092,-1.642397204425931
1788772943808008000,6.175008056640625,-2.808374581965804,0.36240298708379265,-1.8907075099922714
1788772943817976800,6.184976806640625,-3.235011848551035,0.9193395352303981,-1.7454533820137381
1788772943827946000,6.194946044921875,-3.232398451182246,1.320150286641717,-1.2674280196271837
1788772943837915000,6.204914794921875,-2.8120009557694194,1.4490718501091002,-0.7845981795683503
1788772943847883000,6.214883056640625,-2.2386311592161654,1.4092892902970313,-0.6910362449042499
1788772943857852000,6.224851806640625,-1.6029752946197986,1.4867340567663312,-0.9108924632720649
1788772943867821000,6.234821044921875,-1.0640981347769498,1.536399420428276,-1.1877065403975546
1788772943877790000,6.2447900390625,-0.7019394778430461,1.4774042106240988,-1.4638212370820343
1788772943887757800,6.2547578125,-0.35852059269249437,1.409213302451372,-1.6820939856506882
1788772943897726700,6.264726806640625,-0.03313596140444278,1.4403753334343432,-1.80842187936306
1788772943907695900,6.27469580078125,0.08021043179035187,1.537350437542796,-1.9529541228078304
1788772943917665000,6.2846650390625,0.13931903884112834,1.692440461489558,-2.052927678079903
1788772943927634000,6.294634033203125,0.30709727944731713,1.9002748181521891,-2.0575065303027626
1788772943937601800,6.304601806640625,0.49968087548613543,2.0663792803272605,-1.950036189534515
1788772943947570700,6.31457080078125,0.7418108849823475,2.1292934171408415,-1.8434747803047298
1788772943957539800,6.324539794921875,0.9830962603479623,2.0803777028024197,-1.7065731778688729
1788772943967508700,6.3345087890625,1.127998652279377,1.9840496644258498,-1.6016021065704524
1788772943977476900,6.344476806640625,1.2132839031159877,1.89694392016381,-1.6332716486841439
1788772943987445800,6.35444580078125,1.2062602880895137,1.7443974432200193,-1.7308952798292039
1788772943997415000,6.364414794921875,1.1286246752232312,1.5731731538131832,-1.7886331830486655
1788772944007383800,6.3743837890625,1.0996025788784027,1.4417553896158932,-1.7408451575659214
1788772944017352700,6.384352783203125,1.0326578713744878,1.2927321183621883,-1.6861054132491349
1788772944027320800,6.39432080078125,0.9691419692754745,1.070552425482869,-1.5386832935817538
1788772944037290000,6.4042900390625,1.0519780733942985,0.8941115704715251,-1.341617291431874
1788772944047259000,6.4142587890625,1.1769219654023646,0.6284744286596775,-1.2254356017459183
1788772944057227800,6.424227783203125,1.3009078260332345,0.2870978629916906,-1.102801521050185
1788772944067196000,6.43419580078125,1.5616922671169042,-0.03197042475640774,-0.9637387950576841
1788772944077164800,6.444164794921875,2.0150702411115167,-0.40129882718920706,-0.8168556776378303
1788772944087134000,6.454134033203125,2.376383094871044,-0.8637357214301824,-0.7227396892875433
1788772944097102800,6.464102783203125,2.629589794176817,-1.3005074285387992,-0.7459981806043535
1788772944107071000,6.474071044921875,2.651989842033386,-1.659154277959466,-0.9532448005069046
1788772944117039900,6.484039794921875,2.180805577713251,-1.9722733019143341,-1.2456792752861976
1788772944127009000,6.494009033203125,1.1946025835216045,-2.1428519868940112,-1.5326055811032653
1788772944136978000,6.50397802734375,0.03247136001586914,-2.0974708764225243,-1.8377537723094224
1788772944146946800,6.51394677734375,-1.3014397409528493,-1.9123872807502746,-2.258412549006939
1788772944156915000,6.5239150390625,-2.6546710439413785,-1.6578619000613688,-2.6743711851894854
1788772944166883800,6.5338837890625,-3.586697042265534,-1.2461439701884984,-2.9437895991057155
1788772944176853000,6.54385302734375,-3.9461499473720787,-0.6929337490886449,-2.9105010774880644
1788772944186822000,6.55382177734375,-3.973212141820788,-0.14379910686463115,-2.615870480903983
1788772944196789800,6.563789794921875,-3.7111312311857936,0.2295908459186554,-2.120021730926633
1788772944206758700,6.573758544921875,-3.2246360004872083,0.4701730414509773,-1.6732433013275265
1788772944216727800,6.583727783203125,-2.559830029252171,0.5718254897207021,-1.387403913964331
1788772944226696700,6.59369677734375,-1.8033645959734916,0.5545061061292886,-1.2261699804350734
1788772944236665600,6.60366552734375,-1.056486490729451,0.575684503236413,-1.1674269918262958
1788772944246633700,6.6136337890625,-0.24703882432579993,0.5802268228411674,-1.0839205141652375
1788772944256603000,6.623602783203125,0.5109077874213457,0.5021674316048622,-0.9054731416370719
1788772944266571800,6.63357177734375,1.0954811150342225,0.34745442427694795,-0.6782206024728715
1788772944276540700,6.643540771484375,1.626865288773179,0.18742460584044454,-0.4259498688429594
1788772944286508800,6.6535087890625,2.148541138446331,0.03982639895379543,-0.18969744614325462
1788772944296477700,6.663477783203125,2.591832018190622,-0.1900321579903364,0.013519918243214487
1788772944306446800,6.67344677734375,3.0270190864562987,-0.5040501766115427,0.15958514340892432
1788772944316415700,6.683415771484375,3.3513609306931493,-0.8134528103917836,0.19484898368753492
1788772944326385000,6.693385009765625,3.344988473051786,-0.9933581266433,0.08846183504611253
1788772944336352800,6.703352783203125,2.6732185080230235,-0.8836685023903846,-0.1915570294700563
1788772944346322000,6.713322021484375,1.594704894402623,-0.4672533546119928,-0.5644646786291152
1788772944356290800,6.723290771484375,0.2993149550080299,0.0013771335721015929,-0.8101021847896277
1788772944366259700,6.733259765625,-1.1972504676818847,0.4897141927450895,-0.9919129693362861
1788772944376227800,6.743227783203125,-2.502895843631029,1.0765648176401852,-1.105666993483901
1788772944386196700,6.75319677734375,-3.2328765900880096,1.7660031258285045,-0.9449283691909164
1788772944396166000,6.763165771484375,-3.1766169427275655,2.33638601552546,-0.39703240191638467
1788772944406134800,6.773134765625,-2.590709736162424,2.585571204230189,0.4097405288526788
1788772944416103000,6.78310302734375,-1.7401871320486069,2.5415268953204153,1.181146085903421
1788772944426071800,6.79307177734375,-0.9351151965111494,2.3462884008586404,1.7550921479746697
1788772944436041000,6.803041015625,-0.24135610251426695,2.1728455586194992,1.9837337303444742
1788772944446009900,6.813009765625,0.3726233523249626,2.077181537109613,1.9421502585902808
1788772944455978800,6.822978759765625,0.8027852859050035,1.8493617925167083,1.7689780499860643
1788772944465947000,6.83294677734375,1.1041554198771715,1.5866846695542334,1.5793844295434654
1788772944475916000,6.842916015625,1.4077186799794434,1.4372738602876662,1.4320353751122952
1788772944485885000,6.852885009765625,1.657050583678484,1.300373573026061,1.3019159801624716
1788772944495853800,6.862853759765625,1.791702215230465,1.0991793850302696,1.1926821368530391
1788772944505822000,6.872822021484375,1.8902268868684768,0.832469645550847,1.1853040823657064
1788772944515790800,6.882790771484375,1.93492527577281,0.5046294378042221,1.2457967641860246
1788772944525760000,6.892760009765625,2.007204914563894,0.20881576891541478,1.3760947305731475
1788772944535729000,6.90272900390625,2.071324043253064,-0.08043722628355025,1.4499603233814238
1788772944545698000,6.912697998046875,2.01603411770761,-0.3338964390456676,1.2870866598211228
1788772944555665700,6.922665771484375,1.767273876416683,-0.5988099427580833,0.8620707108274102
1788772944565634800,6.932634765625,1.3637807540535927,-0.9140005122900009,0.3789956273032352
1788772944575604000,6.94260400390625,1.055319200515747,-1.1554378633469342,0.0758226086275652
1788772944585572900,6.95257275390625,0.7580646851688623,-1.318809393426776,-0.03911320918314159
1788772944595540700,6.962540771484375,0.24768121388256548,-1.4178443526744842,-0.13314619542509318
1788772944605509600,6.972509521484375,-0.45605508424937724,-1.3176239830344914,-0.26501597770620133
1788772944615478800,6.982478759765625,-1.2422229973524808,-1.0605395655125378,-0.4425032364979386
1788772944625447700,6.99244775390625,-1.995807906758785,-0.7533569458693266,-0.6220593009203672
1788772944635415800,7.002415771484375,-2.5471377209395167,-0.44439854872524737,-0.774490992378071
1788772944645384700,7.012384765625,-2.8463842868864533,-0.23384850336313245,-0.9260594911351799
1788772944655353900,7.022353759765625,-2.8474533774226902,-0.15909458341300486,-1.0682466327585278
1788772944665322800,7.03232275390625,-2.407304887357354,-0.20361703122854233,-1.2667784696772695
1788772944675292000,7.0422919921875,-1.710581682857871,-0.36300562915205953,-1.3995438490912318
1788772944685259800,7.052259765625,-1.0712789861917495,-0.44868601678609843,-1.5249188259929418
1788772944695229000,7.06222900390625,-0.44926410893499846,-0.42123745336830615,-1.6628469949975608
1788772944705197800,7.07219775390625,0.12771920194029807,-0.4321843793183565,-1.7587496475689113
1788772944715166700,7.082166748046875,0.5513736533224582,-0.4992039056241512,-1.831155981479585
1788772944725134800,7.092134765625,0.9337181891947984,-0.5440951867520809,-1.8785031313270328
1788772944735103700,7.102103759765625,1.258172261634469,-0.6944768868774175,-1.8981886595278976
1788772944745073000,7.112072998046875,1.4778759197890758,-0.9044295508682727,-1.9036364035397766
1788772944755041800,7.122041748046875,1.5968179410338401,-1.110519694212079,-1.9491369026072323
1788772944765010000,7.132010009765625,1.627147028324008,-1.4325573531597853,-2.048234844088554
1788772944774978800,7.141978759765625,1.6793313890695571,-1.7118565250992774,-2.2246450117006895
1788772944784948000,7.151947998046875,1.7168313909024,-1.89173144621253,-2.3639839242860674
1788772944794916900,7.161916748046875,1.7094184842973947,-1.9502339040637016,-2.4695675745248793
1788772944804885800,7.1718857421875,1.617933794298768,-1.9717799654394388,-2.587999600420892
1788772944814854000,7.18185400390625,1.2836264363646506,-1.9139333411484956,-2.6677640420094133
1788772944824822800,7.19182275390625,0.7607505632519721,-1.6757079378753899,-2.64776784042418
1788772944834792000,7.2017919921875,0.2574064890831709,-1.2047644965738058,-2.478575933627784
1788772944844760800,7.2117607421875,-0.26815058593749996,-0.7193360183238983,-2.1915233710825444
1788772944854729000,7.22172900390625,-0.994150738325715,-0.15683248369991779,-2.000804107610881
1788772944864697900,7.23169775390625,-1.7597382202148437,0.46635786707699295,-2.034756938356161
1788772944874667000,7.2416669921875,-2.4448528199851514,0.981412837305665,-2.2874257313929496
1788772944884636000,7.251635986328125,-3.073403236490488,1.2781120568573474,-2.8037776095643636
1788772944894604800,7.261604736328125,-3.4984570332765577,1.4212825104296207,-3.3465035537898538
1788772944904572700,7.27157275390625,-3.4622459022104737,1.6551599476262926,-3.7536648432716726
1788772944914542000,7.2815419921875,-2.9195687655627727,1.9712284690365194,-3.8811689411565657
1788772944924511000,7.291510986328125,-1.997417680042982,2.2595900683537122,-3.73853537093997
1788772944934480000,7.30147998046875,-0.9902554844528436,2.432147067669034,-3.4728736792087553
1788772944944447700,7.31144775390625,0.0010164835661649703,2.5109201601326463,-3.336419089888036
1788772944954416600,7.321416748046875,1.0878536888957022,2.4832880568414923,-3.345306452959776
1788772944964385800,7.3313857421875,2.0771219158768655,2.217014370691776,-3.2931758682280776
1788772944974355500,7.34135546875,2.736948345133662,1.8329905034303664,-3.265426276037097
1788772944984323600,7.351323486328125,3.1108938859730957,1.5745470725148916,-3.285441474583745
1788772944994292500,7.36129248046875,3.198494428014755,1.3983493786096572,-3.35547274992615
1788772945004261400,7.371261474609375,2.9674381857186556,1.234725335073471,-3.58187415215373
1788772945014230500,7.38123046875,2.65671920864284,1.024343047493696,-3.8946214201867577
1788772945024198700,7.39119873046875,2.3877771800667045,0.7380565008848905,-4.184042173168063
1788772945034167600,7.40116748046875,2.0518325763195753,0.43766953273117537,-4.428315039911866
1788772945044136400,7.411136474609375,1.7263672810107469,0.1863379796475172,-4.6958621069982645
1788772945054105600,7.421105712890625,1.5615777008265257,-0.020968553748726842,-4.824501638653874
1788772945064074500,7.431074462890625,1.49025141723752,-0.2851151647418737,-4.825089083153009
1788772945074042600,7.441042724609375,1.1221861666083335,-0.8185171080440282,-4.818462066228688
1788772945084011500,7.451011474609375,0.3183206842511892,-1.452313608509302,-4.873512045538425
1788772945093980700,7.460980712890625,-0.7553314608126879,-1.8651450525820255,-5.0893841627061365
1788772945103949600,7.470949462890625,-1.9881991853207348,-2.00456462918818,-5.266793570488691
1788772945113917400,7.48091748046875,-3.474582236692309,-1.906573041513562,-5.37983367421329
1788772945123886600,7.490886474609375,-5.109036373159289,-1.5149562349051235,-5.410890491256118
1788772945133855500,7.50085546875,-6.211673789688945,-0.8059265065401792,-5.13661703852415
1788772945143824600,7.51082470703125,-6.663326255065202,-0.15954378848522902,-4.645486841501295
1788772945153793500,7.52079345703125,-6.827513777703047,0.2824088283926248,-4.114169010996818
1788772945163761400,7.530761474609375,-6.590175094136596,0.5663160786494612,-3.616308044414222
1788772945173730300,7.540730224609375,-5.913799096617102,0.7672852257177233,-3.270058027490973
1788772945183699500,7.550699462890625,-4.940023622322082,0.7693681694716215,-3.029857232491672
1788772945193668400,7.56066845703125,-3.6896693409621713,0.5340551465138793,-2.986286970834434
1788772945203636500,7.570636474609375,-2.350543720215559,0.3507356379047036,-3.0651147160947323
1788772945213605400,7.58060546875,-1.0102560699522494,0.12184826408028603,-3.1872672238186
1788772945223574300,7.59057421875,0.22026713725626468,-0.0865571704685688,-3.3178292479693887
1788772945233543400,7.60054345703125,1.2218565011501312,-0.2517427642330527,-3.3807530293941497
1788772945243511600,7.610511474609375,1.9663643701314926,-0.39345366664677855,-3.4106089462146163
1788772945253480400,7.62048046875,2.4111679925262925,-0.39104894359260794,-3.314074863871932
1788772945263449300,7.630449462890625,2.632643921050429,-0.304268193501234,-3.093483609227836
1788772945273418500,7.64041845703125,2.6801819172948598,-0.20472762281894683,-2.825610378926992
1788772945283387400,7.650387451171875,2.5329250711917877,-0.1477972365900874,-2.617605926394462
1788772945293355500,7.66035546875,2.324155479505658,-0.0990118706330657,-2.419803280533105
1788772945303324400,7.670324462890625,2.061113030362129,0.026307284428179263,-2.199202235147357
1788772945313293600,7.68029345703125,1.7345587707728147,0.18221563902050256,-2.026568517334014
1788772945323262500,7.690262451171875,1.314970838177204,0.23229864357262847,-1.9653974247954784
1788772945333230600,7.700230712890625,0.881273131686449,0.23969693713039159,-1.9560271005123853
1788772945343199500,7.710199462890625,0.5268751718819141,0.2810156204685569,-1.8888062064155935
1788772945353168400,7.72016845703125,0.20675942090749738,0.390056717684865,-1.8022116265460848
1788772945363137500,7.730137451171875,-0.23012451440393925,0.5127271118029951,-1.6556339948788283
1788772945373105400,7.74010546875,-0.7854933748424052,0.6496759143814445,-1.5667548112034797
1788772945383074600,7.750074462890625,-1.086973983451724,0.8270736317262053,-1.4472937345206736
1788772945393043500,7.76004345703125,-1.151430381271243,0.8592918937638402,-1.2701260265395045
1788772945403012600,7.7700126953125,-1.1181856987953185,0.6854097833245992,-1.00064097712785
1788772945412981500,7.7799814453125,-0.839970814961195,0.45842590503394604,-0.7407891407191753
1788772945422949600,7.78994970703125,-0.5827449431419373,0.0820981452330947,-0.6218240308597683
1788772945432918500,7.79991845703125,-0.4965478381574154,-0.38073768519759177,-0.6509823208048939
1788772945442887400,7.809887451171875,-0.5531681355237961,-0.759326083406806,-0.683996409395337
1788772945452856600,7.819856689453125,-0.6941232511341572,-1.0342255590826273,-0.8467024613037705
1788772945462824700,7.82982470703125,-0.9882038126200436,-1.3840411595329642,-1.0246525518342853
1788772945472793600,7.839793701171875,-1.4556290166676045,-1.6980828512907027,-1.2209990075379609
1788772945482762500,7.849762451171875,-1.9680945549249649,-1.7404761781230569,-1.4819892003268003
1788772945492731600,7.859731689453125,-2.454709612610936,-1.6470178499639034,-1.9126479775130747
1788772945502700500,7.869700439453125,-2.870370727151632,-1.6543395711541176,-2.3978610594466327
1788772945512668400,7.87966845703125,-3.130086662220955,-1.627264517223835,-2.7100097770646214
1788772945522637300,7.88963720703125,-3.1999826207458972,-1.6186556788325308,-3.0209111249700187
1788772945532606500,7.8996064453125,-3.0656840404152867,-1.5688541215702891,-3.232085439710319
1788772945542575400,7.909575439453125,-2.675336230829358,-1.4764309816777705,-3.269983793210983
1788772945552543500,7.91954345703125,-2.0646207462221384,-1.4838126163616776,-3.217114665071666
1788772945562512400,7.929512451171875,-1.328115566432476,-1.6024547778770326,-3.272795928022265
1788772945572481300,7.939481201171875,-0.694718294417858,-1.6517393255278467,-3.419059379173815
1788772945582450400,7.949450439453125,-0.2964525513142347,-1.5483780275136232,-3.5930996027842164
1788772945592419300,7.95941943359375,-0.13867898737192152,-1.343988842868805,-3.6329578581809994
1788772945602387500,7.969387451171875,-0.14199498005211353,-1.0240618924647569,-3.557523262490332
1788772945612356400,7.9793564453125,-0.22254151192903518,-0.6945709949016571,-3.4153213616892693
1788772945622325500,7.989325439453125,0.08646598505377769,-0.39378187568783757,-3.223716839815676
1788772945632294400,7.99929443359375,0.7050181546360254,-0.2391340425506234,-2.92985898116976
1788772945642262500,8.009262451171875,1.3348159408539533,-0.3492141274258494,-2.696171805848181
1788772945652231400,8.0192314453125,1.9087036238014696,-0.60166942384243,-2.62051070792526
1788772945662200600,8.02920068359375,2.2816975630044936,-0.9228010738611221,-2.597622876551747
1788772945672169500,8.03916943359375,2.3103069868952035,-1.233127252227068,-2.6326319383516905
1788772945682138400,8.049138427734375,2.185201182323694,-1.5139900202214718,-2.7183056039839983
1788772945692106500,8.0591064453125,1.903656277284026,-1.6770535072654484,-2.6985382427185773
1788772945702075400,8.069075439453124,1.5060703331381082,-1.7352832856550813,-2.552337627670169
1788772945712044500,8.07904443359375,0.9841080677390098,-1.7111331792607902,-2.401075637578964
1788772945722013400,8.089013427734375,0.6020300738483667,-1.6214654755562543,-2.259674239505827
1788772945731981600,8.098981689453124,0.5402741671591997,-1.7541513599932193,-2.078685219670832
1788772945741950500,8.108950439453125,0.6281751534521579,-1.9162571079209445,-2.0040558028832076
1788772945751919600,8.118919677734375,1.053351699835062,-2.293260575026274,-2.1197087194547057
1788772945761888500,8.128888427734376,1.408323660135269,-2.926513177873194,-2.392614098703861
1788772945771857400,8.138857421875,0.8543938925892114,-3.561189091521501,-2.747778951227665
1788772945781825500,8.148825439453125,-0.4971779527544975,-3.5233106117650865,-3.25309227964282
1788772945791794400,8.15879443359375,-2.1490455808371305,-2.729540991486609,-3.5324826369971034
1788772945801763600,8.168763671875,-4.312632312723994,-1.7150392467886209,-3.74022259337455
1788772945811732500,8.178732421875,-6.262334301868081,-0.5139423328116536,-4.135095771430432
1788772945821700600,8.18870068359375,-7.247582771813869,0.5534612732514739,-4.469696267092227
1788772945831669500,8.19866943359375,-7.398650700637698,1.2297390710934997,-4.439814046786725
1788772945841638700,8.208638671875,-6.792123315370082,1.6326494251325725,-4.282896515151858
1788772945851607600,8.218607666015625,-5.565577195098996,1.6569336793005465,-4.122221092288195
1788772945861576400,8.228576416015626,-4.085563678759336,1.2379101025894284,-4.014440516526997
1788772945871544300,8.23854443359375,-2.7637475047320126,0.8174050551488995,-4.065711269558966
1788772945881513500,8.248513427734375,-1.587968864145875,0.6031482642233371,-4.049094773539901
1788772945891482400,8.258482421875,-0.6802320884257554,0.5270987515047192,-3.7630835367411373
1788772945901451500,8.268451416015624,0.14374036241471766,0.6485749674022198,-3.3713147544413804
1788772945911419400,8.27841943359375,1.0598550903797148,0.7477072495445609,-3.0918504550680517
1788772945921388300,8.28838818359375,1.8729203627586364,0.6572142009317875,-2.9092031466320156
1788772945931357400,8.298357421875,2.4786405232965945,0.36322307129502296,-2.9124782227799293
1788772945941326300,8.308326416015625,2.790879257285595,0.00026858780831098556,-2.9532202752739187
1788772945951295500,8.31829541015625,2.8327988291263577,-0.37321108908504247,-2.9842455281347036
1788772945961263400,8.328263427734376,2.5618513059467074,-0.5581579066351056,-3.0334426897630093
1788772945971232500,8.338232421875,2.189030385223031,-0.4647802424967289,-3.1417510887905955
1788772945981201400,8.348201416015625,1.83350605173707,-0.3197890032380819,-3.2895579699918627
1788772945991170300,8.35817041015625,1.488024973359704,-0.4683563474178314,-3.4227456664711235
1788772946001138400,8.368138427734374,1.1463853728413582,-0.9502882157236338,-3.547090423542261
1788772946011107300,8.378107421875,0.6585562631905079,-1.433176946362853,-3.7532811046510934
1788772946021076500,8.388076416015625,0.060004094585776324,-1.7034379485830664,-3.8952097414687272
1788772946031045400,8.39804541015625,-0.5374573561728,-1.7273185903862118,-3.999432917009294
1788772946041014500,8.4080146484375,-0.9319465033471583,-1.6309654175683854,-4.067528840374947
1788772946050982100,8.417982177734375,-1.268556877526641,-1.6197861441671848,-4.071610848991573
1788772946060951300,8.427951416015626,-1.7125421692758798,-1.6122165856957436,-4.024797952151299
1788772946070920200,8.437920166015624,-2.2477099532067775,-1.4770052744343876,-3.983102252194285
1788772946080889300,8.447889404296875,-2.955247981709242,-1.231099545791745,-3.880913505090773
1788772946090857200,8.457857177734375,-3.696435766357183,-0.8793550231054424,-3.684955464182794
1788772946100826400,8.467826416015624,-4.41605352423191,-0.4425263251125812,-3.4365880216017364
1788772946110795300,8.477795166015625,-5.1068046685844655,-0.0775596250206232,-3.3380048977747556
1788772946120764200,8.48776416015625,-5.583371794986724,0.21096622494757175,-3.405957613277435
1788772946130733300,8.4977333984375,-5.640171540573239,0.3700149233922362,-3.4582533254429695
1788772946140701200,8.507701171875,-5.247738741406798,0.1965919548973441,-3.4560134375616904
1788772946150670300,8.51767041015625,-4.3957711991816755,-0.2919184150159359,-3.4365506122007963
1788772946160639200,8.52763916015625,-3.3767473008841273,-0.8144906290069222,-3.489582529686391
1788772946170608400,8.5376083984375,-2.3889842177689076,-1.2369149540722368,-3.575499356424808
1788772946180577300,8.547577392578125,-1.5344985552430153,-1.6494380628481506,-3.628850422862172
1788772946190545400,8.55754541015625,-0.9127519735336304,-1.9960437613412736,-3.613951252155006
1788772946200514300,8.567514404296874,-0.4557201532065868,-2.2056208700180053,-3.6039325469657775
1788772946210483200,8.577483154296875,-0.2503653384000063,-2.294718372619152,-3.6438317188948393
1788772946220452400,8.587452392578125,-0.2826449752360582,-2.1524548047587273,-3.5856355505138633
1788772946230420200,8.597420166015626,-0.5453916563034057,-1.7841843869462608,-3.5149808825761077
1788772946240389400,8.607389404296875,-0.7463356689304113,-1.4399533086299896,-3.420400564649701
1788772946250358300,8.617358154296875,-0.9628454994797706,-1.2144760355100035,-3.2135049501419064
1788772946260327400,8.627327392578126,-1.1834417225599287,-1.0307745418459175,-3.094214846111834
1788772946270296300,8.63729638671875,-1.3082768934965132,-0.7629097871124744,-3.0274127619490026
1788772946280264400,8.647264404296875,-1.3529904799699783,-0.532699640251696,-3.0812451821625233
1788772946290233300,8.6572333984375,-1.3110884437859058,-0.39324119293987747,-3.1820334148183465
1788772946300202500,8.667202392578124,-1.3062041788756846,-0.24262568405866622,-3.2287381751090285
1788772946310171400,8.67717138671875,-1.3232511752665042,-0.0016284779846668243,-3.178237529666722
1788772946320140300,8.687140380859375,-1.3526257383108138,0.3345361982539296,-3.042824266092479
1788772946330108400,8.6971083984375,-1.2562749035805463,0.670691522142291,-2.8137498452633616
1788772946340077300,8.707077392578125,-1.0160738163203,0.9099176268905401,-2.5760005350694057
1788772946350046500,8.71704638671875,-0.6513602142065763,1.0203455022901295,-2.321501750126481
1788772946360015400,8.727015380859376,-0.28124387626647945,0.9602432080268859,-2.1265423648670314
1788772946369983500,8.7369833984375,0.054739890447258945,0.736045161062479,-2.0459832657694816
1788772946379952400,8.746952392578125,0.30981063005924225,0.3025742490649223,-2.010985017624497
1788772946389921500,8.756921630859376,0.5478823040753603,-0.13825667030662298,-2.0299989301741124
1788772946399890400,8.766890380859374,0.6865636295348405,-0.5119207638561726,-2.0967709114596245
1788772946409859300,8.776859375,0.677243428003788,-0.8714286140203475,-2.2058315901592374
1788772946419827500,8.786827392578125,0.5355155744552612,-1.242845805425942,-2.256045527614653
1788772946429796400,8.79679638671875,0.23672844271361826,-1.400076640793681,-2.2331834152042864
1788772946439765500,8.806765625,-0.09676000005304813,-1.3336559571638702,-2.1101172997668383
1788772946449734400,8.816734375,-0.18471125522851942,-1.259281684181094,-1.888864950865507
1788772946459703600,8.82670361328125,-0.18855273308753967,-1.2340434902891515,-1.7727882559239863
1788772946469671200,8.836671142578124,-0.30476679067313667,-1.3043290326535701,-1.9148121698096394
1788772946479640300,8.846640380859375,-0.5267419008910655,-1.3913453450664877,-2.2622511042565105
1788772946489609200,8.856609130859376,-0.6076514208614826,-1.3896303578421472,-2.533299165201187
1788772946499578000,8.866578125,-0.7788853548794984,-1.3264458796545862,-2.618226396380365
1788772946509546200,8.876546142578125,-1.0271610275238752,-1.0745593230366706,-2.5212217739164826
1788772946519515400,8.886515380859375,-1.2604770314455032,-0.6911240693181753,-2.338980123671889
1788772946529484300,8.896484375,-1.5752964295774696,-0.2635106511771679,-2.095548383927345
1788772946539453200,8.906453125,-1.9244208328932522,0.0889639393493533,-1.7411518854275345
1788772946549422300,8.91642236328125,-2.2090420766383407,0.4120870554462075,-1.3976064512878656
1788772946559390200,8.92639013671875,-2.206733215174079,0.672870035225153,-1.1200962085917592
1788772946569359400,8.936359375,-2.18112414214313,0.7481035553857683,-0.9643881988771259
1788772946579328300,8.946328369140625,-2.104596198257804,0.7334916771873832,-1.0498467604540287
1788772946589297400,8.95629736328125,-1.7302976061969995,0.5840273841679096,-1.21548959646672
1788772946599266300,8.966266357421874,-1.3615741839200257,0.1875605071797967,-1.409129131299257
1788772946609234400,8.976234375,-1.0052560697078705,-0.17963614392131566,-1.6129760257609187
1788772946619203300,8.986203369140625,-0.48546296504139896,-0.4116936722144484,-1.7536301125980913
1788772946629172200,8.996172119140626,0.009163549664616584,-0.6501926317319273,-1.7286774576492607
1788772946639141400,9.006141357421875,0.35553485487997527,-0.882310073518753,-1.4941519318073988
1788772946649110300,9.0161103515625,0.5076829801559448,-0.9673045247152448,-1.1929904721498488
1788772946659078400,9.026078369140626,0.5418482846081256,-0.8822165500164032,-1.0332628515303135
1788772946669047300,9.03604736328125,0.59355684453547,-0.7756129090800881,-0.9926813964255153
1788772946679016400,9.046016357421875,0.6985100879162549,-0.7862722502604127,-1.0325951814018188
1788772946688985300,9.0559853515625,0.8759609967529773,-0.8816533631756901,-1.1181883291438222
1788772946698953500,9.065953369140624,1.0017314027130604,-1.0671198206856847,-1.1811030504792928
1788772946708922400,9.07592236328125,0.8650292683720588,-1.4348083469569681,-1.2893548970140516
1788772946718891300,9.085891357421875,0.6368605642110109,-1.7752163598537445,-1.4364850479975342
1788772946728860400,9.0958603515625,0.630828882831335,-1.990873372966051,-1.562152139713615
1788772946738829300,9.105829345703125,0.7607242597669363,-2.0974539252877236,-1.4433958502992987
1788772946748797400,9.11579736328125,1.0471487535417079,-2.1113164464235306,-1.24397773206532
1788772946758766300,9.125766357421876,1.2874182298630474,-1.9781524230808019,-1.073872948207706
1788772946768735500,9.135735595703125,1.287045889419317,-1.6915952428370713,-0.9510743976652621
1788772946778704400,9.145704345703125,1.0678940199285745,-1.3377993405789137,-0.9418538571164011
1788772946788673300,9.15567333984375,0.7845078709363937,-0.9917238034397363,-1.0184184797503053
1788772946798641400,9.165641357421874,0.2628752758830786,-0.669087594076991,-1.250623599820584
1788772946808610600,9.175610595703125,-0.2938812395215034,-0.32574002059698104,-1.5814182734586297
1788772946818579500,9.185579345703125,-0.6028980888545513,-0.020199907463788986,-1.792556201711297
1788772946828548400,9.19554833984375,-0.7464519887864589,0.17326339401900767,-1.940583447664976
1788772946838517500,9.205517578125,-0.7560264573395252,0.2648983061432838,-1.919120972919464
1788772946848485000,9.215485107421875,-0.6771089879691601,0.27026947778761384,-1.8648977998226879
1788772946858454300,9.225454345703126,-0.49162791741192335,0.31078561257123943,-1.8598511839576064
1788772946868423400,9.23542333984375,-0.21264497181475162,0.439369322386384,-1.8150715465106069
1788772946878392600,9.245392578125,0.21409341705739496,0.5805500634461641,-1.6946958392009137
1788772946888360200,9.255360107421875,0.516572973576188,0.6068570556133985,-1.5385763260759413
1788772946898329300,9.265329345703124,0.8136036170393228,0.5430535687446594,-1.494887114214152
1788772946908298200,9.27529833984375,1.218732816171646,0.4306237058728933,-1.4867179824143648
1788772946918267100,9.28526708984375,1.6027894166588783,0.22153554975688455,-1.4418857379972934
1788772946928236300,9.295236328125,1.8176503109574318,0.05386544570028782,-1.4855151824958621
1788772946938828300,9.305828369140626,1.7985259237706661,0.09074526980817317,-1.45263451102674
1788772946948797200,9.315797119140624,1.9066817625850438,0.03439735964238643,-1.7308415038153528
1788772946958766300,9.325766357421875,1.793350566959381,-0.010710194584727287,-2.171503934752196
1788772946968735500,9.335735595703126,1.6028168891876935,-0.1085077209919691,-2.5333839208751914
1788772946978703600,9.34570361328125,1.4473165308743714,-0.07697218052148819,-2.746232306307554
1788772946988672800,9.3556728515625,1.4107248760581015,0.026853520134091376,-2.7896897552400826
1788772946998641700,9.3656416015625,1.3542074545443057,0.08696575126945973,-2.6317688917815683
1788772947008610800,9.37561083984375,1.2873691300243137,0.1250824236959219,-2.3788459778532385
1788772947018580000,9.385580078125,1.2578981208682058,0.08227145597338675,-2.0702266034051773
1788772947028547800,9.3955478515625,1.3176952947050333,0.02646422855556011,-1.7064235402651131
1788772947038516700,9.405516845703126,1.2723352270215749,0.002861234650015831,-1.5163833450987934
1788772947048485600,9.415485595703124,1.2492156327188013,-0.08374620470106602,-1.4022294349133968
1788772947058454800,9.425454833984375,1.1952215922027825,-0.24879414356052873,-1.3922117526374755
1788772947068423700,9.435423583984376,1.1049234816402196,-0.44558863529264925,-1.5004314504683016
1788772947078391800,9.445391845703124,1.0928291392207146,-0.8047288211882114,-1.6678258063234388
1788772947088360700,9.455360595703125,1.1272399428665638,-1.2570657616972922,-1.8862986075088382
1788772947098329900,9.465329833984375,1.1915905422240496,-1.764338407486677,-2.1115118228651584
1788772947108298800,9.475298828125,1.2893804698467255,-2.2226725425839424,-2.168511621068418
1788772947118267600,9.485267578125,1.566806249129772,-2.404820669326186,-2.057760212802887
1788772947128235800,9.49523583984375,1.7719804466724394,-2.3289678482234475,-2.000548963806033
1788772947138205000,9.505204833984376,1.6326806970536707,-2.019965611937642,-1.9767408027172086
1788772947148173800,9.515173828125,1.1850345447093247,-1.5504665242254734,-2.004249279628694
1788772947158142700,9.525142822265625,0.5131155265986919,-1.1014163503021002,-1.9516303268581627
1788772947168110800,9.53511083984375,-0.20972762306332587,-0.7186661562383174,-1.765548221667856
1788772947178079700,9.545079833984374,-0.8868646680831909,-0.47085459397435186,-1.5596905719056724
1788772947188049000,9.555048828125,-1.404839909672737,-0.27173370512127876,-1.412553552789986
1788772947198017800,9.565017822265625,-1.6684131046921014,-0.03742109137773514,-1.4416687342457473
1788772947207987000,9.574987060546874,-1.7491981215000152,0.1523357568025589,-1.5320347954779863
1788772947217954800,9.584954833984375,-1.7464444388777016,0.19871464613974094,-1.5894789764478803
1788772947227924000,9.594924072265625,-1.6485978126317262,0.21011925272941587,-1.6482301483631132
1788772947237892900,9.604892822265626,-1.5087310767799615,0.26946488340646024,-1.6678319438032805
1788772947247861800,9.61486181640625,-1.4297873039245605,0.28616584283858537,-1.6723665184929966
1788772947257831000,9.624830810546875,-0.9602981530845165,0.3241702870622277,-1.533602629316598
1788772947267798800,9.634798828125,-0.32630934491753577,0.3583376373410225,-1.121928538585454
1788772947277768000,9.644767822265624,-0.016003040295839308,0.32413813835829497,-0.6845874340910464
1788772947287736800,9.65473681640625,0.05070668940842151,0.33858839625418186,-0.46530068617425857
1788772947297706000,9.6647060546875,0.1547796428233385,0.3513736435472965,-0.5691362506367266
1788772947307675000,9.6746748046875,0.21088848353624343,0.23983459203541277,-0.82251436098665
1788772947317643000,9.68464306640625,0.37213819915652274,0.039996494823694224,-0.8913678247213364
1788772947327612000,9.69461181640625,0.5604600460976362,-0.19463526787161825,-0.8411871319483966
1788772947337580800,9.704580810546876,0.7914180887162685,-0.38001813875138757,-0.8736762468166649
1788772947347550000,9.714550048828125,0.9686953945517539,-0.4292921650081873,-0.6032603462956846
1788772947358141000,9.725140869140626,0.8811030358165503,-0.2981476647943258,-0.22989435890987514
1788772947368109800,9.73510986328125,0.7094996839642524,-0.20884967118501663,0.13240940558314324
1788772947378079000,9.745078857421875,0.5217348863840103,-0.19544716877639293,0.3657558046430349
1788772947388046800,9.755046875,0.35688743853271004,-0.1672054091542959,0.4051745726440102
1788772947398015700,9.765015625,0.2462690089970827,-0.11702712753415107,0.3019936726979911
1788772947407984600,9.774984619140625,0.10325929894447326,-0.014810615640878676,0.108818905832991
1788772947417953800,9.784953857421876,-0.142223528110981,0.024188684839010238,-0.13443864638842642
1788772947427922700,9.794922607421874,-0.5270037666976451,0.046724341773986815,-0.3619779666047543
1788772947437890800,9.804890869140625,-0.7801952684342861,-0.05289104771018028,-0.3838933727495372
1788772947447859700,9.814859619140625,-0.885547740265727,-0.2362912203401327,-0.19288345576822757
1788772947457828900,9.824828857421876,-0.9684551560550928,-0.43663434446454047,-0.01633862892575562
1788772947467797800,9.8347978515625,-0.8037035697937012,-0.5838496895134448,0.14967852029204368
1788772947477766700,9.8447666015625,-0.486578232806921,-0.5847311485230923,0.3321566827062517
1788772947487734800,9.85473486328125,-0.31260230660438537,-0.4720417579323053,0.4002953492350876
1788772947497703700,9.86470361328125,-0.3946007908552885,-0.3574541325047612,0.3509009114690125
1788772947507672800,9.8746728515625,-0.4926128367960453,-0.23026304609179496,0.27202735430561004
1788772947517641700,9.884641845703126,-0.5894447330415249,-0.17738456560224294,0.19168452830724417
1788772947527611000,9.89461083984375,-0.7695540474325419,-0.22012159130573272,0.1432402308728546
1788772947537578800,9.904578857421875,-0.8848124117285012,-0.20659312442988156,0.1231341391723603
1788772947547548000,9.9145478515625,-0.8810790704190731,-0.12129618315547704,0.19122341360151768
1788772947557516800,9.924516845703126,-0.6834902134388685,-0.05309066193550825,0.25940365424975753
1788772947567485700,9.934485595703125,-0.3373223218411207,-0.13994886117726563,0.3987129754144698
1788772947577454800,9.944454833984375,0.05809504609405994,-0.36676410490274425,0.6268646553754806
1788772947587422700,9.954422607421876,0.40611645660400386,-0.5444292410120367,0.6986804760470986
1788772947597392000,9.964391845703124,0.7168617371648549,-0.5868588082015515,0.6454475560966879
1788772947607360800,9.97436083984375,0.7941723558604716,-0.4476023132026195,0.4306019324325025
1788772947617330000,9.984329833984376,0.5600105487644672,-0.21037001262009142,0.04782134323045611
1788772947627298800,9.994298828125,0.1992734490662813,-0.032627427360415455,-0.24023367435559628
1788772947637267000,10.004266845703125,-0.1685737748980522,-0.005294307015836238,-0.31395313669145103
1788772947647235800,10.01423583984375,-0.5929419275075197,0.02438245384544134,-0.4839051046075299
1788772947657205000,10.024205078125,-0.7078244442284107,0.15321896937787532,-0.6138811090312898
1788772947667174000,10.034173828125,-0.6271481484919786,0.1500675196096301,-0.696343703662604
1788772947677142800,10.044142822265625,-0.43442251363396645,-0.012107494162023067,-0.885556727289781
1788772947687111000,10.05411083984375,-0.1827086832344532,-0.17722352982163428,-1.1435399202823637
1788772947697079800,10.064079833984374,0.15711246968507767,-0.27106413529664275,-1.346155957774818
1788772947707049000,10.074049072265625,0.5597130271226167,-0.2858481551915407,-1.4259196687109768
1788772947717017900,10.084017822265626,0.9517617954075336,-0.2304214515239,-1.4278145425468682
1788772947726987000,10.093987060546874,1.2076911976754665,-0.1805909604281187,-1.2739368169993162
1788772947736956000,10.103955810546875,1.22249246096611,-0.12056933018565177,-1.0333660927090793
1788772947746924000,10.113924072265625,1.015076037454605,-0.024312018957734105,-0.9744583419926464
1788772947756893000,10.123892822265624,0.5821592522084713,0.19126783726513386,-1.1130876450039446
1788772947766861800,10.13386181640625,0.2836380779266357,0.4332183985412121,-1.2737865948736666
1788772947776831000,10.1438310546875,0.06275076294541358,0.49703649845719333,-1.4276549680709838
1788772947786799900,10.1537998046875,-0.16361059953272342,0.5046797066867351,-1.593821097305417
1788772947796768000,10.16376806640625,0.007839023062586783,0.5155757792323827,-1.612653077416867
1788772947806737000,10.17373681640625,0.4279109397828579,0.4563268869280815,-1.5094211048707364
1788772947816706000,10.1837060546875,0.7577180636882781,0.3295002499133348,-1.40078259710595
1788772947826675000,10.193675048828124,0.9628677113115787,0.2806459103733301,-1.3295651807188986
1788772947836643800,10.203643798828125,1.172396596932411,0.19458207637965677,-1.2325452145554125
1788772947846611700,10.21361181640625,1.126049271777272,0.08254033604264259,-1.1009138806726784
1788772947856580600,10.22358056640625,0.9072370095044374,0.10279811117351055,-0.9887855580307543
1788772947866549800,10.2335498046875,0.5645616361975669,0.25413492006659505,-0.9805126735955476
1788772947876518700,10.2435185546875,0.28149346711337564,0.4545435106426477,-1.1492496762312947
1788772947886488000,10.253488037109374,0.05344166733026504,0.5617185217261315,-1.4460386198930442
1788772947896457000,10.26345703125,-0.33243922597467895,0.567125933727622,-1.7957229951791465
1788772947906424800,10.2734248046875,-0.55877428496778,0.5028326175153255,-1.9616107458636163
1788772947916393700,10.283393798828126,-0.5686386763781309,0.3988619554311037,-1.9427495396576822
1788772947926363000,10.29336279296875,-0.3681880002260208,0.19904899266064166,-1.8841485898680983
1788772947936331800,10.303331787109375,-0.04014671694934368,-0.01603518899977207,-1.6984607446923852
1788772947946300700,10.31330078125,0.26884967411756516,-0.11958616436719893,-1.4021889567725359
1788772947956268800,10.323268798828124,0.529309121030569,-0.06885258695185184,-1.2169019474826752
1788772947966237700,10.33323779296875,0.7408253810763359,0.048799979004263874,-1.1845172428369521
1788772947976206300,10.343206298828125,0.730468822234869,0.08542904322147368,-1.2046915044028312
1788772947986175200,10.35317529296875,0.5738631330281496,0.21714871297478675,-1.2014599020704626
1788772947996144400,10.363144287109375,0.3843997148364782,0.3846832079529762,-1.1063980111721903
1788772948006113300,10.37311328125,0.2669295197099447,0.4753063126862049,-0.9269346665345132
1788772948016081400,10.383081298828126,0.2318734038978815,0.5150204834371805,-0.7027008906695992
1788772948026050300,10.39305029296875,0.3874795606732368,0.5287152467906475,-0.4196838672507554
1788772948036019200,10.403019287109375,0.5155237567842006,0.4526853155553341,-0.2289123986678198
1788772948045988400,10.41298828125,0.6071808807402849,0.325104060781002,-0.1909184758381918
1788772948055957200,10.422957275390624,0.7888111210882663,0.22774492579102515,-0.15279071576213463
1788772948065925400,10.43292529296875,1.1473176852554081,0.0968137760668993,-0.030496516278944907
1788772948075894300,10.442894287109375,1.3400187701940536,-0.12158522922992705,0.17357437793063
1788772948085863400,10.452863525390624,1.3601993884354828,-0.2717576705187559,0.3742405051980167
1788772948095832300,10.462832275390625,1.2807359756201504,-0.45926527846753595,0.5134044996079057
1788772948105801200,10.47280126953125,1.0943559103965759,-0.643868981668353,0.4707670618213713
1788772948115769000,10.48276904296875,0.8040987065911293,-0.7481108619093895,0.30369267690191043
1788772948125738200,10.49273828125,0.5390180296182632,-0.6812742909550666,0.012452188547002151
1788772948135707400,10.502707275390625,0.31625439937114713,-0.4610960010260343,-0.36624048288743943
1788772948145676300,10.51267626953125,0.06571487344801426,-0.20751111605763434,-0.5866543351380155
1788772948155645400,10.5226455078125,-0.49085401042997834,0.03712473877966404,-0.6139789433825761
1788772948165614300,10.5326142578125,-1.1635282308220862,0.2355877482458949,-0.549685444507189
1788772948175582200,10.542582275390625,-1.6967466342508792,0.40927433611303565,-0.2976613608484156
1788772948185551000,10.552551025390626,-1.9323668234616518,0.6184110075458884,0.005424746728781611
1788772948195520300,10.562520263671875,-1.8888433235555886,0.7329854812309146,0.2418231537704356
1788772948205489200,10.5724892578125,-1.7382126171052454,0.716182814989984,0.2818569849298335
1788772948215458000,10.5824580078125,-1.671002536663413,0.5729115313917398,0.11756410222137346
1788772948225426200,10.59242626953125,-1.7644249167263506,0.4977405550733208,-0.0292518545466708
1788772948235395000,10.60239501953125,-1.8814537978261707,0.5412874358549714,-0.21585059945564716
1788772948245364200,10.6123642578125,-1.9332161337673663,0.6655541592538357,-0.3721629317389801
1788772948255333000,10.6223330078125,-1.9563357280701397,0.7721841036751866,-0.41240072450526055
1788772948265302300,10.63230224609375,-2.023106248050928,0.7676859154731035,-0.4296619481686502
1788772948275270100,10.642270263671875,-1.960703275629878,0.7206810031920671,-0.3507658869124949
1788772948285239300,10.6522392578125,-1.719371138513088,0.6514294800505042,-0.08441020330144092
1788772948295208200,10.662208251953125,-1.3318541684389114,0.527445957507193,0.283670409293659
1788772948305177000,10.672177001953125,-0.7416331903278828,0.3435778751045465,0.6212441851451993
1788772948315146200,10.682146240234376,-0.20200842698812482,0.1523006854891777,1.0818244917340576
1788772948325115100,10.692115234375,0.301489376437664,-0.004527122035622597,1.6155407616823911
1788772948335083300,10.702083251953125,0.7849263886094093,-0.22601649456322193,2.0935022650524973
1788772948345052200,10.71205224609375,1.0575298623025418,-0.471328056704998,2.340306403839588
1788772948355021300,10.722021240234374,1.0103525160640479,-0.6112544137895107,2.1696347798794506
1788772948364990200,10.731990234375,0.7065390805929899,-0.5131751478314399,1.6825826459504662
1788772948374959000,10.741958984375,0.08260112631916999,-0.1852344023197889,1.082054062706232
1788772948384927200,10.75192724609375,-0.5541472096890211,0.1901595837622881,0.7058592085700481
1788772948394896400,10.761896484375,-1.25171738640666,0.4326987585812807,0.6828632406469434
1788772948404865300,10.771865234375,-2.0101590881943703,0.6420622245073319,0.8807184204131364
1788772948414834200,10.781834228515624,-2.5387258664250374,0.8531970840200781,1.1188153750009835
1788772948424803300,10.79180322265625,-2.6645933030188083,1.1224418949350714,1.3430547768890857
1788772948434772200,10.801772216796875,-2.31615103674829,1.2559981324657796,1.6461574337422846
1788772948444740400,10.811740234375,-1.7158230906426906,1.177241991136968,2.01206112242341
1788772948454709200,10.821709228515624,-1.1566811414062976,0.9350196271821856,2.354586419735104
1788772948464678400,10.831678466796875,-0.52470075045228,0.7045262794658541,2.4899480992525813
1788772948474647300,10.841647216796876,0.21637831312417982,0.6609668314635754,2.5112875321403143
1788772948484616200,10.8516162109375,0.795531369253993,0.6505518204331397,2.579478732573986
1788772948494584300,10.861584228515625,1.079515484139323,0.5714432124048471,2.629428466135263
1788772948504553200,10.87155322265625,1.0458230578958987,0.5070476048618555,2.5299542386874556
1788772948514522400,10.8815224609375,0.9581979659348726,0.5999918460190296,2.5052730941563843
1788772948524491300,10.8914912109375,0.7878390611857176,0.6804208889961242,2.4579686144068837
1788772948534460400,10.90146044921875,0.5008937584072352,0.6488251427710056,2.428675446035713
1788772948544428300,10.91142822265625,0.3694049748003483,0.5487888975262641,2.444576925653219
1788772948554397400,10.9213974609375,0.5268506219625473,0.40292905873954293,2.5371494108885524
1788772948564366300,10.931366455078125,0.7275432901769876,0.25881109518408774,2.6699673972725866
1788772948574335200,10.941335205078126,0.9178443282365798,0.1753103896766901,2.732078693270683
1788772948584304400,10.951304443359374,0.8965227232664823,0.1571235756009817,2.6493615393564105
1788772948594272300,10.961272216796875,0.6256634628921747,0.22990707226097581,2.4201162920050323
1788772948604241400,10.971241455078125,0.2847498385608196,0.39234395183920856,2.2401989930547774
1788772948614210300,10.981210205078124,-0.12960954573154448,0.5371224251300096,2.1943850441239774
1788772948624179500,10.991179443359375,-0.6452022760987282,0.6134136376500129,2.105173413623869
1788772948634148400,11.0011484375,-1.2039070029616354,0.6050736793279647,1.827182547803968
1788772948644117200,11.0111171875,-1.5048562811732291,0.48829614264070986,1.4819504757516084
1788772948654085000,11.021085205078125,-1.378008016848564,0.24850948140025136,1.2102534493789077
1788772948664054300,11.03105419921875,-0.9564069908648729,-0.06785714617371559,1.0874963998906313
1788772948674023200,11.041023193359376,-0.4369768742918968,-0.2689589797109365,1.0659817565664649
1788772948683992000,11.050991943359374,0.1933919898122549,-0.3415940078109503,0.9319812823995948
1788772948693961200,11.060961181640625,0.5411293226838112,-0.30202362944483757,0.7007631275400519
1788772948703929000,11.07092919921875,0.6102677408397197,-0.18042320264577866,0.4509322613429278
1788772948713898200,11.080898193359374,0.39118601397573943,-0.04437923995256424,0.16930033560693264
1788772948723867100,11.0908671875,0.01650982077419758,0.11371990268230438,-0.10986651518978179
1788772948733836300,11.100836181640625,-0.15561024842858315,0.3423462874829769,-0.23641776932924985
1788772948743805200,11.11080517578125,-0.08179097898006439,0.5631698895782232,-0.1541870106924325
1788772948753773300,11.120773193359375,0.20738018315434453,0.6267495045632123,-0.02524710785076022
1788772948763742200,11.1307421875,0.41638007646501063,0.5960866552740335,0.0366992068439722
1788772948773711000,11.140711181640626,0.6380436365157366,0.6044903264820576,-0.013034107487648725
1788772948783680300,11.15068017578125,0.9951116923123597,0.579724134016037,-0.04807056875117123
1788772948793649200,11.160649169921875,0.9979717579185962,0.5200947179615497,-0.20863712441287935
1788772948803618300,11.170618408203126,0.8201420788973569,0.5119716172605753,-0.5880111200418323
1788772948813586200,11.180586181640624,0.46488954809010025,0.6251940918147564,-1.1146250837042928
1788772948823555300,11.190555419921875,-0.008178045758605004,0.7914011375814676,-1.6199075785897672
1788772948833524200,11.200524169921875,-0.43824937844574446,0.835118114233017,-1.8357681514501571
1788772948843493000,11.2104931640625,-1.0133166265666484,0.832997468817234,-1.9315216048091648
1788772948853462300,11.220462158203125,-1.711521594056487,0.8627057938605547,-2.044575444798171
1788772948863430100,11.23043017578125,-2.2026643582999705,1.0372738407373427,-2.2204621730580927
1788772948873399300,11.2403994140625,-2.297939088231325,1.3043769634485245,-2.2885250709369775
1788772948883368200,11.2503681640625,-1.9604548538267612,1.4157155239522456,-2.1103826727047563
1788772948893337300,11.26033740234375,-1.1539204445213078,1.186747778367996,-1.7283461798682809
1788772948903306200,11.27030615234375,-0.3918856866776943,0.7814408845812082,-1.416841313111782
1788772948913274400,11.2802744140625,0.3376327029645443,0.5052005156904459,-1.3102405947849154
1788772948923243300,11.2902431640625,0.9693231710612773,0.3182183929204941,-1.3696211506448686
1788772948933212200,11.300212158203125,1.2338134809255599,0.20952245588004587,-1.5076079179689288
1788772948943181300,11.310181396484374,1.2601111207425593,0.22698387829065322,-1.4742986458241938
1788772948953150200,11.320150146484375,0.9647259063988923,0.3763865042507648,-1.2748200295746326
1788772948963118300,11.330118408203125,0.42947453583776946,0.6697206312835217,-0.8127684083241968
1788772948973087500,11.34008740234375,0.02755143927037716,0.9966840561956166,-0.21513225858584045
1788772948983056600,11.350056640625,-0.1973223149985075,1.143731643462181,0.22782562634442
1788772948993025500,11.360025634765625,-0.13386837221980094,1.1534504889219999,0.4647735935602337
1788772949002994400,11.369994384765626,0.07984218299984931,1.0184469751924277,0.6066015464823693
1788772949012963600,11.379963623046875,0.21290508405566214,0.737464380210638,0.551697259253636
1788772949022931500,11.389931396484375,0.2827496046543121,0.4084849393010139,0.34984022343494
1788772949032900600,11.399900634765626,0.37467794676721095,0.1065992570221424,0.13021551226805894
1788772949042869500,11.409869384765624,0.4175660713791847,-0.13809329643845558,0.05717204949762672
1788772949052838700,11.419838623046875,0.3369605027914047,-0.28755086745619773,0.08877970535624771
1788772949062807600,11.4298076171875,0.0817950706332922,-0.34481472342312336,0.18088234459012745
1788772949072775400,11.439775390625,-0.26054420258700844,-0.3324661139816046,0.15002258448936046
1788772949082744300,11.449744384765625,-0.7224988662689924,-0.304922858017683,0.18651516284532843
1788772949092713500,11.45971337890625,-1.2063573187232017,-0.17554829008579254,0.24070194945447146
1788772949102682400,11.469682373046876,-1.4854384639978409,0.04423837017714977,0.34115788141600784
1788772949112651500,11.479651611328125,-1.5341677158534526,0.2133341231226921,0.5164770389210432
1788772949122619400,11.489619384765625,-1.4602104992389677,0.23906945288181303,0.6295402312602848
1788772949132588300,11.49958837890625,-1.1691004779964684,0.24290333195626734,0.6748332981221378
1788772949142557400,11.509557373046874,-0.8196317912876605,0.21000351739525794,0.6645517042130231
1788772949152526300,11.5195263671875,-0.5886988831102847,0.18091069390177725,0.664064359087497
1788772949162495500,11.52949560546875,-0.45375382156968114,0.22752280747294423,0.6140281893517822
1788772949172463400,11.53946337890625,-0.3798731773227453,0.2772223656654358,0.4596685255061835
1788772949182432500,11.5494326171875,-0.31019173833131786,0.219464588701725,0.3740457498108968
1788772949192401400,11.5594013671875,-0.12577099048197268,0.13947978236079214,0.4277147961562499
1788772949202370300,11.569370361328126,0.15983984882235527,0.10991408065855503,0.6385638609975576
1788772949212339500,11.57933935546875,0.43099546179473397,0.2054822405785322,0.8690929376143962
1788772949222307300,11.589307373046875,0.44400165836215016,0.3740875796586275,0.9339462988622486
1788772949232276500,11.5992763671875,0.3417500751554966,0.4790086743354797,0.7859752400752157
1788772949242245400,11.609245361328124,0.3509147938638925,0.4605366135776043,0.4357533238463103
1788772949252214500,11.619214599609375,0.30133506265878673,0.3902233064234257,0.2285821255338378
1788772949262183400,11.629183349609375,0.2634574596852064,0.40021804621517654,0.30023910238193346
1788772949272151600,11.639151611328124,0.2622638659864664,0.5199912575870752,0.5381812865331769
1788772949282120400,11.649120361328125,0.2237526412844658,0.7014414651930332,0.800748665510863
1788772949292089300,11.65908935546875,0.31873744835853574,0.8492635439634323,1.0481443404503166
1788772949302058500,11.66905859375,0.39659810215234753,0.9018424569845199,1.2135307174839078
1788772949312027400,11.67902734375,0.4512193346560001,0.9190209708005189,1.2189589530777185
1788772949321996500,11.68899658203125,0.4185983370363712,0.8802239148944616,1.1330886688947677
1788772949331964400,11.69896435546875,0.5290811574935913,0.7842126873821019,1.086539026100561
1788772949341933600,11.70893359375,0.7919920892119408,0.6735925042808055,1.211347674356401
1788772949351902500,11.71890234375,0.9734820443063974,0.5824526821970939,1.330138888953626
1788772949361871400,11.728871337890626,0.7918284230828285,0.6782680948764085,1.3272820382177828
1788772949371840500,11.738840576171874,0.4500122969537973,0.8451882573485374,1.2398190049506723
1788772949381808600,11.74880859375,0.18873744200468062,0.9870774389386177,1.2671895346961914
1788772949391777500,11.758777587890625,0.1622258671760559,0.9007862259298562,1.398437349154055
1788772949401746400,11.768746337890626,0.2910299417436123,0.7193523849368095,1.552616541866213
1788772949411715600,11.778715576171875,0.5347539424329996,0.5772825860828161,1.703854128168523
1788772949421684500,11.7886845703125,0.8884107284814119,0.5127566301584243,1.8833789206698537
1788772949431652600,11.798652587890626,1.034306223103404,0.5080903919130564,2.03641873408854
1788772949441621500,11.80862158203125,0.9017027562528848,0.4641378529399633,2.0807697708599266
1788772949451590700,11.818590576171875,0.727341045603156,0.3829039233207702,2.0296828499622643
1788772949461559600,11.8285595703125,0.2456201896995306,0.41728900800347324,1.9493698345802724
1788772949471528400,11.838528564453124,-0.15041910952627657,0.6125199036806821,1.9166626199819146
1788772949481496600,11.84849658203125,-0.6277636500418186,0.8100701822161674,2.0088442062035203
1788772949491465500,11.858465576171875,-1.0289169312804938,1.02694709251225,2.164295026286691
1788772949501434600,11.8684345703125,-1.2795412128776311,1.1237602840572596,2.2872392689101395
1788772949511403500,11.878403564453125,-1.330696815097332,1.105331477919221,2.2800879358507693
1788772949521372700,11.88837255859375,-1.2524433625936509,1.0395675046324728,2.2990501182131466
1788772949531340300,11.89834033203125,-1.0797761809021234,0.88384502800107,2.2007523871988055
1788772949541309400,11.908309326171874,-0.548569117295742,0.6745002667754888,2.1224327375911174
1788772949551278300,11.9182783203125,0.04667991811037063,0.3292284472346306,2.01885458195582
1788772949561247500,11.92824755859375,0.4506406579852104,0.047075054907798765,1.8131309338368475
1788772949571216600,11.938216552734374,0.7969383134424686,-0.03957622358500957,1.5743623635977506
1788772949581184500,11.9481845703125,0.7835521776467561,-0.06858721401393413,1.3578564785711467
1788772949591153400,11.9581533203125,0.4047720562577247,-0.16132511894404888,1.022465636249259
1788772949601122300,11.968122314453124,-0.021648352706432342,0.0031108254969120022,0.6345285410668701
1788772949611091500,11.978091552734375,-0.6738017631173133,0.34854338855743405,0.32284539513401683
1788772949621060400,11.988060302734375,-1.574290467405319,0.8570470374464988,-0.42127274387739594
1788772949631028500,11.998028564453126,-2.198442941212654,0.717458534014225,0.28591245259940623
1788772949640997400,12.007997314453124,-1.9539280824065208,0.7023153254181146,0.5391521043267101
1788772949650966500,12.017966552734375,-0.8974065203636884,0.8112251974701881,0.5163606459997594
1788772949660935400,12.027935302734376,0.19242694417238235,0.6359937182486057,0.5101787424944341
1788772949670904300,12.037904296875,1.0527186626285314,0.3153723558396101,0.3250660668581724
1788772949680872400,12.04787255859375,1.5682488491535185,0.06675590693354606,0.10029971848651766
1788772949690841300,12.05784130859375,1.5236024826973675,-0.07077683301270007,0.14791757503412664
1788772949700810500,12.067810546875,1.1256319231480358,0.03547638705074787,0.29103659068010745
1788772949710779400,12.077779296875,0.6130570792973041,0.4407014477729797,0.6185107415933162
1788772949720747500,12.08774755859375,0.2712228329896927,0.8661410290062427,0.877331919780001
1788772949730716400,12.09771630859375,-0.08906184676587581,1.0585779100507497,0.9315175373453647
1788772949740685600,12.107685546875,-0.5023147311210632,1.1883160505980253,0.6140799195390194
1788772949750654500,12.117654541015625,-0.8337526710987091,1.2402093194425106,0.054474225248396395
1788772949760623400,12.127623291015626,-1.0571925931721926,1.0810054304361343,-0.4314929629880935
1788772949770591500,12.137591552734374,-1.1154869612306355,0.8356786707252264,-0.7902171154286712
1788772949780560400,12.147560302734375,-1.0167179594427347,0.5502233142435551,-0.8812522350288927
1788772949790529500,12.157529541015625,-0.8928151009202003,0.3128969056367874,-1.0033692330479622
1788772949800498400,12.16749853515625,-0.9420599010825157,0.22869886551499366,-1.185103591357544
1788772949810467600,12.177467529296875,-1.1674673238366842,0.1998702459156513,-1.3109040271297097
1788772949820435500,12.187435546875,-1.5437860235482452,0.2956657848507166,-1.3051029396355152
1788772949830404600,12.197404541015626,-1.9248013566434383,0.40544191834330556,-1.1190343515139072
1788772949840373500,12.20737353515625,-1.8299334539473056,0.5825818615347147,-0.8991611820112914
1788772949850342400,12.21734228515625,-1.463809400513768,0.7481932794958353,-0.8949617575600742
1788772949860311600,12.2273115234375,-1.1952362052500247,0.5189747740209102,-0.8988662907179444
1788772949870279400,12.237279541015624,-0.7261836922615766,0.15592413668334484,-0.9860498494565486
1788772949880248600,12.24724853515625,-0.17415362085700034,-0.21045126116275786,-1.2741830468453466
1788772949890217500,12.257217529296875,0.34616029281318184,-0.582789951327443,-1.5657153851531445
1788772949900186600,12.2671865234375,0.8304232344150543,-0.7721312044441699,-1.7317733778379856
1788772949910155500,12.277155517578125,0.8398959961593151,-0.7230927405089139,-1.688322504776716
1788772949920123600,12.28712353515625,0.39182957257628437,-0.5312555789232254,-1.5575047522991894
1788772949930092500,12.297092529296876,0.1651011303514242,-0.1672498328179121,-1.9651114474609492
1788772949940061700,12.307061767578125,0.22490414940714834,0.39458851589560506,-2.4811434460282324
1788772949950030600,12.317030517578125,-0.8361632393717765,-0.032661914151906966,-1.118461008605361
1788772949959999500,12.32699951171875,-1.1004647486656904,-0.06643968059122562,-0.3198956054177135
1788772949969967400,12.33696728515625,-0.6522890194892883,0.3601093231886625,-0.5256847199883312
1788772949979936300,12.346936279296875,-0.618074030676484,0.28221242903769017,-0.7653020160112529
1788772949989905400,12.356905517578125,-0.6942120984613895,-0.046129883012175556,-0.914756079897657
1788772949999874300,12.366874267578124,-0.3717302028775215,-0.3241501210570335,-1.171948414773494
1788772950009843500,12.376843505859375,0.19831366412341594,-0.5924520981639624,-1.3720849104098976
1788772950019811000,12.38681103515625,1.026055696630478,-0.796295923885703,-1.2617046735443174
1788772950029780200,12.3967802734375,1.4895160887002945,-0.8142693874716759,-1.050795074154809
1788772950039749000,12.4067490234375,1.0598387237668037,-0.6499468402773142,-0.7364256848126649
1788772950049718000,12.416718017578125,0.010793196693062782,-0.5074135155647993,-0.3502819758530706
1788772950059686100,12.42668603515625,-1.1877899808973074,-0.10048281996846198,-0.046533422311767936
1788772950069655300,12.4366552734375,-1.9521622417777775,0.770840580111742,-0.02589311413671821
1788772950079624200,12.446624267578125,-2.293191016921401,1.276647245001793,-0.09784797795284539
1788772950089593000,12.456593017578125,-1.76179632178843,0.8856681517750025,-0.043693011254072184
1788772950099562200,12.466562255859374,-0.8102759339213371,0.08617956932783126,-0.03814746942352503
1788772950109530000,12.476530029296875,0.06265548587739467,-0.2816781760305166,-0.5257276823472231
1788772950119499300,12.486499267578125,0.3507809383511543,-0.14972703560888767,-0.9927799614291638
1788772950129468200,12.49646826171875,-0.19732348404228686,-0.05977671557068824,-1.0135250086203218
1788772950139437300,12.506437255859375,-1.6138988396942615,1.071693996733427,-0.977104984043911
1788772950149406200,12.51640625,-2.2851403969347475,1.8446920471400021,0.3883113353222608
1788772950159374300,12.526374267578126,-2.0266765077531335,1.5642928050041198,1.7175890774019063
1788772950169343200,12.53634326171875,-1.4283493800759315,1.3897697663128374,1.99883865275681
1788772950179312000,12.54631201171875,-0.5413257220387458,1.137651446765661,1.7894085513353346
