time,seconds_elapsed,z,y,x
1788772937702146300,0.069146240234375,-0.45440852642059326,0.10793738812208176,0.4970230758190155
1788772937712115200,0.079115234375,-0.42650869488716125,0.12444338947534561,0.6463611721992493
1788772937722084400,0.08908447265625,-0.39857906103134155,0.09488869458436966,0.752476692199707
1788772937732053200,0.09905322265625,-0.401199609041214,0.07148589938879013,0.7968665361404419
1788772937742021400,0.109021484375,-0.4140879809856415,0.039153795689344406,0.7707808613777161
1788772937751990300,0.118990234375,-0.4531581699848175,-0.05162084847688675,0.6574732065200806
1788772937761959400,0.12895947265625,-0.4975815415382385,-0.18174129724502563,0.4949471652507782
1788772937771927000,0.138927001953125,-0.5130164623260498,-0.2433476746082306,0.33105117082595825
1788772937781896200,0.148896240234375,-0.4937087893486023,-0.21794511377811432,0.21299828588962555
1788772937791865000,0.158864990234375,-0.45338374376296997,-0.16381210088729858,0.14652898907661438
1788772937801834000,0.168833984375,-0.4149998426437378,-0.07261321693658829,0.12596246600151062
1788772937811802000,0.178802001953125,-0.3956136405467987,-0.029340045526623726,0.12828713655471802
1788772937821771300,0.188771240234375,-0.40643033385276794,-0.05874427407979965,0.12622584402561188
1788772937831740200,0.198740234375,-0.43233171105384827,-0.09353740513324738,0.10070690512657166
1788772937841709000,0.208708984375,-0.4503597021102905,-0.14211559295654297,0.033239446580410004
1788772937851677200,0.21867724609375,-0.45655661821365356,-0.21744416654109955,-0.0667172446846962
1788772937861646000,0.22864599609375,-0.4425728917121887,-0.30011722445487976,-0.15867459774017334
1788772937871615200,0.238615234375,-0.39955219626426697,-0.32297539710998535,-0.2175845205783844
1788772937881584000,0.248584228515625,-0.3559756875038147,-0.2948018014431,-0.23751108348369598
1788772937891552300,0.25855224609375,-0.33558306097984314,-0.23915798962116241,-0.2355896234512329
1788772937901521200,0.268521240234375,-0.3256310820579529,-0.17189639806747437,-0.20151500403881073
1788772937911490300,0.278490234375,-0.3120657503604889,-0.08611198514699936,-0.1409054547548294
1788772937921459200,0.288459228515625,-0.29412269592285156,-0.03226659446954727,-0.0675838366150856
1788772937931427300,0.29842724609375,-0.2756853699684143,-0.025562085211277008,0.001633316627703607
1788772937941396200,0.308396240234375,-0.25211215019226074,-0.030792800709605217,0.08699828386306763
1788772937951365000,0.318365234375,-0.22356490790843964,-0.010296046733856201,0.211597740650177
1788772937961334300,0.328334228515625,-0.2009219229221344,-0.012897156178951263,0.3562931418418884
1788772937971302000,0.338302001953125,-0.1939319223165512,-0.06399522721767426,0.4825988709926605
1788772937981270800,0.348270751953125,-0.18555787205696106,-0.13437990844249725,0.5898065567016602
1788772937991239700,0.35823974609375,-0.16944175958633423,-0.20370198786258698,0.6631055474281311
1788772938001208800,0.368208740234375,-0.16958290338516235,-0.28021007776260376,0.6884172558784485
1788772938011176700,0.3781767578125,-0.18754379451274872,-0.3097535967826843,0.6779228448867798
1788772938021145900,0.388145751953125,-0.21468566358089447,-0.28012514114379883,0.6416915655136108
1788772938031114800,0.39811474609375,-0.23721441626548767,-0.21012261509895325,0.5793009400367737
1788772938041084000,0.408083984375,-0.24908731877803802,-0.10965964943170547,0.4928267300128937
1788772938051051500,0.418051513671875,-0.26024356484413147,-0.018034927546977997,0.3891504108905792
1788772938061020700,0.428020751953125,-0.2746667265892029,0.0031166973058134317,0.25439953804016113
1788772938070989600,0.437989501953125,-0.28801262378692627,-0.027407389134168625,0.10916217416524887
1788772938080958700,0.447958740234375,-0.31387776136398315,-0.07038708031177521,-0.03750982508063316
1788772938090926600,0.457926513671875,-0.3578726649284363,-0.1538393646478653,-0.17818811535835266
1788772938100895700,0.467895751953125,-0.4228364825248718,-0.2601969540119171,-0.2988032102584839
1788772938110864600,0.47786474609375,-0.5038745999336243,-0.3417823612689972,-0.4060865342617035
1788772938120833500,0.48783349609375,-0.5758563876152039,-0.40367183089256287,-0.5167582035064697
1788772938130801700,0.4978017578125,-0.6085144877433777,-0.4911249876022339,-0.6448607444763184
1788772938140770600,0.5077705078125,-0.616192638874054,-0.5585556626319885,-0.7790646553039551
1788772938150739700,0.51773974609375,-0.5915490388870239,-0.5535463094711304,-0.8669044971466064
1788772938160707800,0.527707763671875,-0.5243217945098877,-0.4807716906070709,-0.8571681976318359
1788772938170676700,0.5376767578125,-0.43783754110336304,-0.3416856825351715,-0.737766444683075
1788772938180645600,0.547645751953125,-0.3556116223335266,-0.16368773579597473,-0.5200567841529846
1788772938190614800,0.55761474609375,-0.27949902415275574,-0.02110954560339451,-0.258856862783432
1788772938200583700,0.567583740234375,-0.2411082237958908,0.03346395120024681,-0.03353452309966087
1788772938210551800,0.5775517578125,-0.24249227344989777,-0.03403999283909798,0.12235121428966522
1788772938220520700,0.587520751953125,-0.23642052710056305,-0.16914455592632294,0.22041065990924835
1788772938230489900,0.59748974609375,-0.2014702707529068,-0.3066728413105011,0.3064419627189636
1788772938240458800,0.607458740234375,-0.15665565431118011,-0.37159353494644165,0.42032110691070557
1788772938250427000,0.617427001953125,-0.11466319859027863,-0.33877938985824585,0.5745141506195068
1788772938260395800,0.627395751953125,-0.1032121405005455,-0.27680444717407227,0.727674663066864
1788772938270364700,0.63736474609375,-0.11975649744272232,-0.26265132427215576,0.8527931571006775
1788772938280332800,0.647332763671875,-0.14357927441596985,-0.282956600189209,0.9492747187614441
1788772938290301700,0.6573017578125,-0.15608040988445282,-0.3610045313835144,1.0079548358917236
1788772938300270800,0.667270751953125,-0.15584632754325867,-0.45569321513175964,1.0244325399398804
1788772938310239700,0.67723974609375,-0.13325712084770203,-0.5395820140838623,0.9955756068229675
1788772938320209000,0.687208984375,-0.09268412739038467,-0.6003084778785706,0.9507091045379639
1788772938330176800,0.6971767578125,-0.04421646147966385,-0.6168141961097717,0.9041383862495422
1788772938340146000,0.70714599609375,-0.0027164241764694452,-0.632635235786438,0.8593456149101257
1788772938350114800,0.71711474609375,0.04140576347708702,-0.6421712040901184,0.8217734694480896
1788772938360082700,0.727082763671875,0.07013088464736938,-0.6242513656616211,0.7686671018600464
1788772938370051600,0.737051513671875,0.06512200832366943,-0.6447110772132874,0.6633710265159607
1788772938380020700,0.747020751953125,0.04277995601296425,-0.6892516613006592,0.4985741078853607
1788772938389989600,0.75698974609375,0.017117999494075775,-0.7453482151031494,0.2932976484298706
1788772938399957800,0.766957763671875,-0.019873572513461113,-0.7605881690979004,0.07892171293497086
1788772938409926700,0.7769267578125,-0.050813913345336914,-0.7156867384910583,-0.11607573926448822
1788772938419895600,0.7868955078125,-0.073597252368927,-0.6776043176651001,-0.2913506329059601
1788772938429864700,0.79686474609375,-0.08473273366689682,-0.5978996157646179,-0.4248908460140228
1788772938439832600,0.80683251953125,-0.08473911881446838,-0.47389912605285645,-0.49591416120529175
1788772938449801700,0.8168017578125,-0.08454257994890213,-0.3687860369682312,-0.5040708780288696
1788772938459770600,0.8267705078125,-0.0772457867860794,-0.2863747775554657,-0.44576042890548706
1788772938469739800,0.83673974609375,-0.05768566578626633,-0.24025441706180573,-0.3113720118999481
1788772938479707600,0.846707763671875,-0.05217691883444786,-0.2409771978855133,-0.10847188532352448
1788772938489676800,0.8566767578125,-0.07457756251096725,-0.28270626068115234,0.1290794163942337
1788772938499645700,0.866645751953125,-0.13517673313617706,-0.32406941056251526,0.36129453778266907
1788772938509614600,0.876614501953125,-0.22498410940170288,-0.33989524841308594,0.5467309951782227
1788772938519582700,0.886582763671875,-0.3081306517124176,-0.3245637118816376,0.6478962302207947
1788772938529552000,0.8965517578125,-0.37066540122032166,-0.3108031451702118,0.6671319603919983
1788772938539520800,0.906520751953125,-0.40179750323295593,-0.324196457862854,0.6110098361968994
1788772938549489700,0.91648974609375,-0.4020289182662964,-0.3826826512813568,0.4954046905040741
1788772938559457800,0.926457763671875,-0.39589619636535645,-0.4887768626213074,0.34313419461250305
1788772938569426700,0.9364267578125,-0.3814498782157898,-0.5972458124160767,0.16364271938800812
1788772938579395800,0.946395751953125,-0.3705282509326935,-0.6474458575248718,-0.020554278045892715
1788772938589364700,0.95636474609375,-0.37842294573783875,-0.6220313310623169,-0.17037652432918549
1788772938599332900,0.966332763671875,-0.4122277796268463,-0.533920407295227,-0.25929921865463257
1788772938609301800,0.9763017578125,-0.4539555013179779,-0.40631261467933655,-0.274064838886261
1788772938619271000,0.98627099609375,-0.49858343601226807,-0.305813729763031,-0.23475977778434753
1788772938629239800,0.99623974609375,-0.5234059691429138,-0.2700618505477905,-0.1547379195690155
1788772938639207700,1.006207763671875,-0.5163637399673462,-0.27077263593673706,-0.051054660230875015
1788772938649176800,1.0161767578125,-0.4774547219276428,-0.3208422064781189,0.05116251856088638
1788772938659145700,1.026145751953125,-0.4099337160587311,-0.4379667043685913,0.13094550371170044
1788772938669115000,1.036114990234375,-0.32600340247154236,-0.5766904950141907,0.19466722011566162
1788772938679082800,1.046082763671875,-0.26578959822654724,-0.6839991211891174,0.24231889843940735
1788772938689051600,1.0560517578125,-0.23588337004184723,-0.7577428221702576,0.26663514971733093
1788772938699020500,1.0660205078125,-0.22317077219486237,-0.779068648815155,0.2727303206920624
1788772938708989700,1.07598974609375,-0.22620438039302826,-0.7687826752662659,0.2653515040874481
1788772938718957600,1.08595751953125,-0.2576456665992737,-0.7223406434059143,0.24449522793293
1788772938728926700,1.0959267578125,-0.3055897355079651,-0.6501050591468811,0.22167886793613434
1788772938738895600,1.1058955078125,-0.33723127841949463,-0.5894864201545715,0.209134042263031
1788772938748864800,1.11586474609375,-0.35117000341415405,-0.5321267247200012,0.20407110452651978
1788772938758832600,1.12583251953125,-0.34386736154556274,-0.5208173394203186,0.20935802161693573
1788772938768801800,1.1358017578125,-0.31026092171669006,-0.5405218005180359,0.24520708620548248
1788772938778770700,1.145770751953125,-0.2662087678909302,-0.6050020456314087,0.28048333525657654
1788772938788739600,1.155739501953125,-0.23511157929897308,-0.7190811634063721,0.24033670127391815
1788772938798707700,1.165707763671875,-0.2007935494184494,-0.8348780870437622,0.1250750869512558
1788772938808676600,1.175676513671875,-0.1463843733072281,-0.8921693563461304,-0.010841196402907372
1788772938818645800,1.185645751953125,-0.09468948841094971,-0.8612505793571472,-0.0959523618221283
1788772938828614700,1.19561474609375,-0.07939495891332626,-0.7429758906364441,-0.09120713919401169
1788772938838582800,1.205582763671875,-0.07959309965372086,-0.6193162202835083,-0.015626363456249237
1788772938848551700,1.2155517578125,-0.0802285298705101,-0.5816642045974731,0.08370102196931839
1788772938858520800,1.225520751953125,-0.0687795951962471,-0.6038967967033386,0.1792677640914917
1788772938868489700,1.23548974609375,-0.06805334985256195,-0.6474027633666992,0.23692280054092407
1788772938878457900,1.245457763671875,-0.07253146171569824,-0.7146531343460083,0.2327730655670166
1788772938888426800,1.2554267578125,-0.10199640691280365,-0.8019949793815613,0.16702812910079956
1788772938898396000,1.26539599609375,-0.1521434634923935,-0.8708835244178772,0.04947434365749359
1788772938908364800,1.27536474609375,-0.2144891321659088,-0.9067504405975342,-0.09405219554901123
1788772938918333000,1.2853330078125,-0.27298465371131897,-0.9091776013374329,-0.2417210191488266
1788772938928301800,1.2953017578125,-0.37250831723213196,-0.8861343264579773,-0.4120804965496063
1788772938938270700,1.305270751953125,-0.48437920212745667,-0.7979791760444641,-0.5811528563499451
1788772938948240000,1.315239990234375,-0.5935967564582825,-0.6386086940765381,-0.7320294976234436
1788772938958207500,1.32520751953125,-0.7113492488861084,-0.3887765109539032,-0.845200777053833
1788772938968177700,1.335177734375,-0.8190181851387024,-0.08539878576993942,-0.8873098492622375
1788772938978146600,1.345146484375,-0.8964250683784485,0.22784088551998138,-0.8561719059944153
1788772938988115500,1.355115478515625,-0.9402415156364441,0.4845168888568878,-0.7771455645561218
1788772938998083600,1.36508349609375,-0.9473739862442017,0.6065722107887268,-0.6722191572189331
1788772939008052500,1.375052490234375,-0.9102615118026733,0.6103123426437378,-0.557838499546051
1788772939018021600,1.385021728515625,-0.8285525441169739,0.545291006565094,-0.4270557165145874
1788772939027990500,1.394990478515625,-0.7532545924186707,0.44881346821784973,-0.29761117696762085
1788772939037958700,1.404958740234375,-0.7078306674957275,0.33541473746299744,-0.17788530886173248
1788772939047927600,1.414927490234375,-0.6730087399482727,0.2345837503671646,-0.05915652960538864
1788772939057896700,1.424896728515625,-0.6224345564842224,0.18359112739562988,0.052436843514442444
1788772939067865600,1.434865478515625,-0.5527414679527283,0.18737202882766724,0.1499602049589157
1788772939077833700,1.444833740234375,-0.45775026082992554,0.23228862881660461,0.23763199150562286
1788772939087802600,1.454802734375,-0.35295993089675903,0.30421555042266846,0.3064078688621521
1788772939097771500,1.464771484375,-0.24579378962516785,0.3732803761959076,0.3543386459350586
1788772939107740700,1.47474072265625,-0.15296664834022522,0.43471816182136536,0.37127262353897095
1788772939117708800,1.484708740234375,-0.08821108192205429,0.4664292335510254,0.35026106238365173
1788772939127677700,1.494677734375,-0.05210874229669571,0.42875322699546814,0.2931405305862427
1788772939137646600,1.504646484375,-0.021393172442913055,0.31864428520202637,0.21943221986293793
1788772939147615700,1.51461572265625,0.014711035415530205,0.2017674744129181,0.15929457545280457
1788772939157583400,1.524583251953125,0.05476577579975128,0.09621814638376236,0.11470367759466171
1788772939167552800,1.534552734375,0.10174527019262314,0.05068288370966911,0.0895698294043541
1788772939177521700,1.544521728515625,0.14606639742851257,0.0315408818423748,0.08191244304180145
1788772939187490800,1.55449072265625,0.19122694432735443,-0.009326922707259655,0.09558884054422379
1788772939197458400,1.56445849609375,0.23560532927513123,-0.03183649107813835,0.1270516961812973
1788772939207427600,1.574427490234375,0.2766859233379364,-0.022665631026029587,0.1737784445285797
1788772939217396500,1.584396484375,0.32138147950172424,0.019896741956472397,0.22553938627243042
1788772939227365400,1.594365478515625,0.3653915524482727,0.05023946985602379,0.26027074456214905
1788772939237333500,1.60433349609375,0.4035906195640564,0.06077679619193077,0.2725151479244232
1788772939247302700,1.614302734375,0.42577579617500305,0.03960706293582916,0.2646436393260956
1788772939257271600,1.624271484375,0.43853020668029785,-0.048520397394895554,0.23654623329639435
1788772939267240400,1.634240478515625,0.4484560787677765,-0.15549185872077942,0.2181919813156128
1788772939277208600,1.64420849609375,0.4503464102745056,-0.25209030508995056,0.2178628146648407
1788772939287177500,1.654177490234375,0.43603402376174927,-0.3248569071292877,0.237079918384552
1788772939297146600,1.664146728515625,0.4217091500759125,-0.3741706609725952,0.2746230363845825
1788772939307115500,1.674115478515625,0.3878236413002014,-0.3747733533382416,0.3133675158023834
1788772939317083600,1.684083740234375,0.3258148431777954,-0.3037460446357727,0.3532906770706177
1788772939327052500,1.694052490234375,0.24288615584373474,-0.19265733659267426,0.3788304030895233
1788772939337021700,1.704021728515625,0.16543956100940704,-0.1257997453212738,0.3767275810241699
1788772939346990600,1.713990478515625,0.11865714192390442,-0.08364403247833252,0.36577078700065613
1788772939356958700,1.723958740234375,0.11256889253854752,-0.05443234741687775,0.3599078357219696
1788772939366927600,1.733927734375,0.1247861385345459,-0.08282830566167831,0.3661436438560486
1788772939376896500,1.743896484375,0.15512487292289734,-0.12721414864063263,0.3875384032726288
1788772939386865700,1.75386572265625,0.2024308741092682,-0.16555726528167725,0.4309071898460388
1788772939396833500,1.76383349609375,0.24850888550281525,-0.18250402808189392,0.4972926080226898
1788772939406802700,1.773802734375,0.2833257019519806,-0.15337251126766205,0.5752582550048828
1788772939416771600,1.783771484375,0.3112359046936035,-0.1496230512857437,0.6192142367362976
1788772939426740700,1.79374072265625,0.34636834263801575,-0.23011896014213562,0.6173553466796875
1788772939436709600,1.803709716796875,0.39393532276153564,-0.362979531288147,0.5881263613700867
1788772939446677800,1.813677734375,0.4295894503593445,-0.5576350092887878,0.5332050323486328
1788772939456646700,1.823646728515625,0.45289742946624756,-0.7497914433479309,0.47019121050834656
1788772939466615600,1.833615478515625,0.44227835536003113,-0.8848571181297302,0.40779146552085876
1788772939476584700,1.843584716796875,0.3917565941810608,-0.9292714595794678,0.32377222180366516
1788772939486552600,1.853552490234375,0.3113885223865509,-0.8592678308486938,0.22229325771331787
1788772939496521700,1.863521728515625,0.23075304925441742,-0.7186667919158936,0.13912513852119446
1788772939506490600,1.87349072265625,0.16328959167003632,-0.5131506323814392,0.09831458330154419
1788772939516459800,1.883459716796875,0.123964823782444,-0.2837323844432831,0.0985175222158432
1788772939526427400,1.893427490234375,0.12049312144517899,-0.1278887242078781,0.10679168999195099
1788772939536396500,1.903396484375,0.14703232049942017,-0.09237094223499298,0.08485789597034454
1788772939546365400,1.913365478515625,0.19479425251483917,-0.1186925619840622,0.01896010898053646
1788772939556334600,1.92333447265625,0.24322916567325592,-0.16166186332702637,-0.09339679032564163
1788772939566302500,1.933302490234375,0.28115177154541016,-0.1957375407218933,-0.22735992074012756
1788772939576271600,1.943271728515625,0.3143797814846039,-0.2318907529115677,-0.37018418312072754
1788772939586240500,1.953240478515625,0.3353138267993927,-0.2857675552368164,-0.49973949790000916
1788772939596209400,1.96320947265625,0.3434486985206604,-0.3109925091266632,-0.5969744324684143
1788772939606177500,1.973177490234375,0.3387333154678345,-0.3048911988735199,-0.6422444581985474
1788772939616146700,1.983146728515625,0.3312802016735077,-0.2569095492362976,-0.6076468229293823
1788772939626115600,1.993115478515625,0.3244694173336029,-0.16321368515491486,-0.4991075396537781
1788772939636084500,2.00308447265625,0.32221347093582153,-0.0530131496489048,-0.34252220392227173
1788772939646052600,2.013052490234375,0.32773685455322266,0.028901688754558563,-0.1659833788871765
1788772939656021500,2.023021484375,0.3456873595714569,0.0743381455540657,0.004376106429845095
1788772939665990700,2.03299072265625,0.35685479640960693,0.05889367684721947,0.13083231449127197
1788772939675959600,2.04295947265625,0.3705807328224182,-0.00794207863509655,0.19968488812446594
1788772939685927700,2.052927734375,0.3939100205898285,-0.07803940773010254,0.2186868041753769
1788772939695896600,2.062896484375,0.40307343006134033,-0.12793026864528656,0.19711147248744965
1788772939705865700,2.07286572265625,0.38600948452949524,-0.12186624854803085,0.15818004310131073
1788772939715834600,2.082834716796875,0.3288724422454834,-0.03783153370022774,0.1085142269730568
1788772939725802800,2.092802734375,0.24528218805789948,0.11066898703575134,0.06624027341604233
1788772939735771600,2.102771728515625,0.14760170876979828,0.26070350408554077,0.031924910843372345
1788772939745740500,2.112740478515625,0.056595370173454285,0.37931349873542786,0.0130920996889472
1788772939755709700,2.122709716796875,-0.016261260956525803,0.4446674585342407,0.023199595510959625
1788772939765677600,2.132677490234375,-0.05458175390958786,0.4332779347896576,0.05465365946292877
1788772939775646700,2.142646728515625,-0.07493069767951965,0.3684968054294586,0.08812639862298965
1788772939785615600,2.15261572265625,-0.06758011132478714,0.23733745515346527,0.11695218831300735
1788772939795584800,2.162584716796875,-0.03930399566888809,0.04304760321974754,0.1330810934305191
1788772939805552400,2.172552490234375,-0.010457967408001423,-0.15543726086616516,0.11070414632558823
1788772939815521500,2.182521484375,0.0075545888394117355,-0.29303666949272156,0.041007619351148605
1788772939825490400,2.192490478515625,0.006296245381236076,-0.3360448479652405,-0.054305583238601685
1788772939835459600,2.20245947265625,-0.01750975102186203,-0.2790534794330597,-0.15379568934440613
1788772939845427500,2.212427490234375,-0.05590081587433815,-0.18983864784240723,-0.2592637836933136
1788772939855396600,2.222396728515625,-0.09742216020822525,-0.08840629458427429,-0.3604130446910858
1788772939865365500,2.232365478515625,-0.14082422852516174,0.019393937662243843,-0.45275843143463135
1788772939875334400,2.24233447265625,-0.19239847362041473,0.1250399351119995,-0.5208149552345276
1788772939885302500,2.252302490234375,-0.2477477490901947,0.19577457010746002,-0.5627523064613342
1788772939895271400,2.262271484375,-0.2826351523399353,0.20739713311195374,-0.5868384838104248
1788772939905240600,2.272240478515625,-0.27027755975723267,0.16965773701667786,-0.5820125341415405
1788772939915209500,2.28220947265625,-0.23297199606895447,0.09986108541488647,-0.539081871509552
1788772939925178600,2.2921787109375,-0.20979264378547668,0.009152752347290516,-0.45631667971611023
1788772939935146500,2.302146484375,-0.20027051866054535,-0.09670763462781906,-0.33935463428497314
1788772939945115600,2.31211572265625,-0.21076789498329163,-0.1929934173822403,-0.2238570600748062
1788772939955084500,2.32208447265625,-0.24499617516994476,-0.25615641474723816,-0.12915799021720886
1788772939965053400,2.332053466796875,-0.2872637212276459,-0.26680853962898254,-0.06081381440162659
1788772939975021600,2.342021484375,-0.3417474925518036,-0.24213726818561554,-0.04021133482456207
1788772939984990700,2.35199072265625,-0.3940841853618622,-0.2050359696149826,-0.07173836976289749
1788772939994959600,2.361959716796875,-0.4263848662376404,-0.1602938026189804,-0.12767860293388367
1788772940004928500,2.371928466796875,-0.44838178157806396,-0.1327284872531891,-0.18924395740032196
1788772940014896600,2.381896728515625,-0.4605090320110321,-0.12779338657855988,-0.24321319162845612
1788772940024865500,2.391865478515625,-0.45657047629356384,-0.14581845700740814,-0.2715582847595215
1788772940034834700,2.401834716796875,-0.41975733637809753,-0.15476401150226593,-0.2695627808570862
1788772940044803600,2.411803466796875,-0.3910428583621979,-0.12999288737773895,-0.2592901587486267
1788772940054771700,2.421771728515625,-0.3763355612754822,-0.07311628758907318,-0.2530570328235626
1788772940064740600,2.43174072265625,-0.3722294867038727,-0.002062085550278425,-0.26649001240730286
1788772940074709800,2.441709716796875,-0.3547293245792389,0.07567451894283295,-0.30613648891448975
1788772940084678700,2.4516787109375,-0.3578406870365143,0.18060892820358276,-0.371233731508255
1788772940094646800,2.461646728515625,-0.35004162788391113,0.23733532428741455,-0.4502401351928711
1788772940104615700,2.47161572265625,-0.2908555269241333,0.22292761504650116,-0.5148476362228394
1788772940114584600,2.48158447265625,-0.19334416091442108,0.1803407520055771,-0.5441074967384338
1788772940124553700,2.4915537109375,-0.09735850989818573,0.11375639587640762,-0.5341742038726807
1788772940134521600,2.501521484375,-0.03130172938108444,0.07085872441530228,-0.48004624247550964
1788772940144490500,2.511490478515625,-0.017258349806070328,0.06011979654431343,-0.4023061692714691
1788772940154459400,2.52145947265625,-0.03645414859056473,0.06252782791852951,-0.33331456780433655
1788772940164428800,2.5314287109375,-0.05847049877047539,0.049481265246868134,-0.2844804525375366
1788772940174396400,2.541396484375,-0.06497766822576523,0.006952448282390833,-0.25130438804626465
1788772940184365600,2.551365478515625,-0.06440775096416473,-0.031737156212329865,-0.22186022996902466
1788772940194334500,2.56133447265625,-0.04306464642286301,-0.06067826226353645,-0.18165235221385956
1788772940204303600,2.5713037109375,0.0019166769925504923,-0.062247660011053085,-0.13326431810855865
1788772940214272500,2.5812724609375,0.04765646904706955,-0.024764202535152435,-0.09432437270879745
1788772940224240600,2.59124072265625,0.09288040548563004,0.01931430958211422,-0.0775376707315445
1788772940234209500,2.60120947265625,0.1328696310520172,0.04512752965092659,-0.07660023868083954
1788772940244178400,2.611178466796875,0.16269277036190033,0.049481797963380814,-0.09468895941972733
1788772940254147600,2.621147705078125,0.18514429032802582,0.027182618156075478,-0.1167396679520607
1788772940264115500,2.631115478515625,0.21414904296398163,-0.002364886924624443,-0.12467588484287262
1788772940274084600,2.641084716796875,0.2321362942457199,0.0018756643403321505,-0.11676443368196487
1788772940284053500,2.651053466796875,0.22594843804836273,0.019164906814694405,-0.11240404099225998
1788772940294022700,2.661022705078125,0.21511763334274292,-0.002463690238073468,-0.11203279346227646
1788772940303990500,2.670990478515625,0.22520409524440765,-0.04132134094834328,-0.10906203836202621
1788772940313959700,2.680959716796875,0.25103089213371277,-0.049501772969961166,-0.0892433300614357
1788772940323928600,2.690928466796875,0.27745503187179565,-0.04423350840806961,-0.05499853566288948
1788772940333897500,2.7008974609375,0.3054925501346588,-0.03738092631101608,-0.015075089409947395
1788772940343865600,2.710865478515625,0.3290141224861145,-0.002195776207372546,0.0024626250378787518
1788772940353834800,2.720834716796875,0.36229270696640015,0.047925714403390884,-0.011273693293333054
1788772940363803600,2.7308037109375,0.4017881751060486,0.10060516744852066,-0.04084596782922745
1788772940373772500,2.7407724609375,0.427388072013855,0.1494792401790619,-0.06431054323911667
1788772940383740700,2.75074072265625,0.42124202847480774,0.21359004080295563,-0.08401314169168472
1788772940393709600,2.76070947265625,0.3990989327430725,0.2867705225944519,-0.10552003234624863
1788772940403678700,2.7706787109375,0.37667083740234375,0.3411029875278473,-0.13000141084194183
1788772940413647600,2.780647705078125,0.3473065495491028,0.3449685871601105,-0.15756060183048248
1788772940423615700,2.79061572265625,0.3337540030479431,0.31381118297576904,-0.18175381422042847
1788772940433584600,2.800584716796875,0.3340456187725067,0.2512199878692627,-0.18988284468650818
1788772940443553800,2.8105537109375,0.34130406379699707,0.1714431196451187,-0.1727725714445114
1788772940453522700,2.820522705078125,0.35043978691101074,0.1269472986459732,-0.12087316066026688
1788772940463490600,2.830490478515625,0.35303956270217896,0.12870605289936066,-0.05327707156538963
1788772940473459500,2.84045947265625,0.33757802844047546,0.15266330540180206,0.01486336812376976
1788772940483428400,2.850428466796875,0.31395474076271057,0.16777275502681732,0.06471135467290878
1788772940493397800,2.860397705078125,0.2901436686515808,0.17026974260807037,0.09409480541944504
1788772940503366700,2.87036669921875,0.28032752871513367,0.1573808342218399,0.10634534806013107
1788772940513334500,2.88033447265625,0.28175339102745056,0.1611369550228119,0.11155609041452408
1788772940523303400,2.890303466796875,0.30199021100997925,0.16183976829051971,0.1133449375629425
1788772940533272600,2.9002724609375,0.3419688045978546,0.13704387843608856,0.12067928165197372
1788772940543241500,2.910241455078125,0.38264405727386475,0.09161673486232758,0.1368238925933838
1788772940553209600,2.920209716796875,0.4341447949409485,0.09125161916017532,0.18876565992832184
1788772940563178500,2.930178466796875,0.4814886152744293,0.1400151550769806,0.2649267315864563
1788772940573147600,2.940147705078125,0.5187252163887024,0.18489953875541687,0.3448399305343628
1788772940583116500,2.950116455078125,0.5360264182090759,0.1776333749294281,0.3977785110473633
1788772940593084700,2.960084716796875,0.5601301789283752,0.0951363667845726,0.4288296401500702
1788772940603053600,2.970053466796875,0.588614284992218,0.007468835450708866,0.4524473547935486
1788772940613022500,2.9800224609375,0.6108050346374512,-0.042871568351984024,0.49294817447662354
1788772940622991600,2.98999169921875,0.6154743432998657,-0.05024479329586029,0.5377763509750366
1788772940632959500,2.99995947265625,0.6113784313201904,-0.03717825934290886,0.5763362646102905
1788772940642928600,3.0099287109375,0.5971190333366394,-0.028442826122045517,0.6074787378311157
1788772940652897500,3.0198974609375,0.5702882409095764,-0.027172498404979706,0.6323883533477783
1788772940662866700,3.02986669921875,0.5335478186607361,-0.0368616096675396,0.6425328850746155
1788772940672834600,3.03983447265625,0.5067084431648254,-0.05260142683982849,0.6420924067497253
1788772940682803700,3.0498037109375,0.4958781898021698,-0.040758080780506134,0.6536822319030762
1788772940692772600,3.059772705078125,0.4806981682777405,-0.011773302219808102,0.6648155450820923
1788772940702741500,3.069741455078125,0.47423282265663147,-0.036070119589567184,0.6662871837615967
1788772940712709600,3.079709716796875,0.4817351996898651,-0.09104229509830475,0.6671849489212036
1788772940722678800,3.0896787109375,0.48424842953681946,-0.138393834233284,0.6737512350082397
1788772940732647700,3.099647705078125,0.46811768412590027,-0.1457177847623825,0.671492874622345
1788772940742616600,3.109616455078125,0.43667638301849365,-0.11220936477184296,0.6450844407081604
1788772940752584700,3.119584716796875,0.3989207446575165,-0.07354053109884262,0.5868546962738037
1788772940762553600,3.1295537109375,0.3497864902019501,-0.03183170035481453,0.4986042082309723
1788772940772522800,3.139522705078125,0.2857776880264282,0.04495495930314064,0.38274896144866943
1788772940782491600,3.14949169921875,0.2123146504163742,0.12448973208665848,0.23331181704998016
1788772940792460800,3.159460693359375,0.15440689027309418,0.18988658487796783,0.04598347097635269
1788772940802428400,3.169428466796875,0.1238444447517395,0.22108551859855652,-0.16162538528442383
1788772940812397600,3.1793974609375,0.1264016181230545,0.22620730102062225,-0.35428565740585327
1788772940822366500,3.189366455078125,0.14834579825401306,0.1850832998752594,-0.5121466517448425
1788772940832335600,3.199335693359375,0.17395848035812378,0.12503834068775177,-0.5991113781929016
1788772940842303500,3.209303466796875,0.1798911988735199,0.07121478766202927,-0.6184936165809631
1788772940852272400,3.2192724609375,0.1579747200012207,0.007739412598311901,-0.5992106795310974
1788772940862241500,3.229241455078125,0.13435781002044678,0.016148876398801804,-0.5535953044891357
1788772940872210400,3.23921044921875,0.11422910541296005,0.07034926116466522,-0.5025869607925415
1788772940882178600,3.249178466796875,0.09769459813833237,0.1173708364367485,-0.45374777913093567
1788772940892147500,3.2591474609375,0.09024813771247864,0.17731912434101105,-0.3893999457359314
1788772940902116600,3.26911669921875,0.08560411632061005,0.2348838895559311,-0.30769044160842896
1788772940912085500,3.27908544921875,0.08649521321058273,0.2700037956237793,-0.21952329576015472
1788772940922053600,3.2890537109375,0.08451861143112183,0.2714879512786865,-0.14242558181285858
1788772940932022500,3.2990224609375,0.08107860386371613,0.23310649394989014,-0.07427263259887695
1788772940941991700,3.30899169921875,0.07437676191329956,0.16923536360263824,-0.02267575077712536
1788772940951960600,3.318960693359375,0.06659846752882004,0.09392569959163666,0.0076299565844237804
1788772940961928700,3.3289287109375,0.07327421009540558,0.03454679250717163,0.016646621748805046
1788772940971896800,3.338896728515625,0.08753304183483124,0.006101568229496479,0.0031153657473623753
1788772940981866000,3.348865966796875,0.10902262479066849,-0.012819658033549786,-0.029684126377105713
1788772940991835000,3.3588349609375,0.12395896017551422,0.007640342693775892,-0.06145830079913139
1788772941001803000,3.368802978515625,0.12223190069198608,0.08451781421899796,-0.08869258314371109
1788772941011772000,3.37877197265625,0.1215117871761322,0.1971905678510666,-0.12103774398565292
1788772941021740800,3.38874072265625,0.12511157989501953,0.32754725217819214,-0.15251123905181885
1788772941031710000,3.3987099609375,0.13758635520935059,0.45176398754119873,-0.19806408882141113
1788772941041677800,3.408677734375,0.1561105102300644,0.5564429759979248,-0.25401178002357483
1788772941051647000,3.41864697265625,0.1853184551000595,0.6341164708137512,-0.3213964104652405
1788772941061615900,3.428615966796875,0.21644894778728485,0.66497802734375,-0.3846816420555115
1788772941071585000,3.4385849609375,0.22769148647785187,0.5997811555862427,-0.4409901797771454
1788772941081552600,3.448552734375,0.2228972613811493,0.4964904487133026,-0.4765329957008362
1788772941091521800,3.458521728515625,0.20764879882335663,0.4109523892402649,-0.47202399373054504
1788772941101490700,3.46849072265625,0.1931694597005844,0.3491811752319336,-0.4303649663925171
1788772941111459800,3.4784599609375,0.18570248782634735,0.3281720280647278,-0.343144029378891
1788772941121427700,3.488427734375,0.18844127655029297,0.3801329433917999,-0.22570130228996277
1788772941131396900,3.49839697265625,0.20876039564609528,0.44367411732673645,-0.10235566645860672
1788772941141365800,3.50836572265625,0.2418310046195984,0.4779497981071472,0.004806472919881344
1788772941151334700,3.518334716796875,0.2844775319099426,0.43523508310317993,0.08581983298063278
1788772941161302800,3.528302734375,0.3214874863624573,0.36821743845939636,0.13964338600635529
1788772941171271700,3.538271728515625,0.3482773005962372,0.29382655024528503,0.17477314174175262
1788772941181240800,3.54824072265625,0.36020559072494507,0.2112283557653427,0.19242563843727112
1788772941191209700,3.558209716796875,0.36062395572662354,0.13983353972434998,0.1968078762292862
1788772941201177900,3.568177734375,0.3488978147506714,0.07492990046739578,0.1848958134651184
1788772941211146800,3.578146728515625,0.3278859853744507,0.04652675613760948,0.13217268884181976
1788772941221116000,3.588115966796875,0.30597031116485596,0.05520200356841087,0.055628374218940735
1788772941231084800,3.598084716796875,0.2836189270019531,0.12535099685192108,-0.025435319170355797
1788772941241053000,3.608052978515625,0.2574637532234192,0.22537507116794586,-0.10834511369466782
1788772941251021800,3.618021728515625,0.2533012330532074,0.2864171266555786,-0.1925702542066574
1788772941260991000,3.627990966796875,0.26550596952438354,0.29150161147117615,-0.2736179530620575
1788772941270959900,3.6379599609375,0.2864570617675781,0.2660772204399109,-0.34046196937561035
1788772941280928800,3.6479287109375,0.31582772731781006,0.24450215697288513,-0.3633555769920349
1788772941290897000,3.65789697265625,0.33803263306617737,0.23456670343875885,-0.3380829691886902
1788772941300865800,3.66786572265625,0.3383290469646454,0.233811154961586,-0.2896440625190735
1788772941310835000,3.6778349609375,0.3402004539966583,0.20343488454818726,-0.23951272666454315
1788772941320803800,3.687803955078125,0.3575725257396698,0.16239184141159058,-0.18737362325191498
1788772941330772000,3.69777197265625,0.379673570394516,0.12066756188869476,-0.13369813561439514
1788772941340740900,3.707740966796875,0.39733776450157166,0.06406792998313904,-0.09794067591428757
1788772941350710000,3.7177099609375,0.4220910668373108,0.030108900740742683,-0.08101415634155273
1788772941360679000,3.727678955078125,0.4574216306209564,-0.007276555057615042,-0.07077430188655853
1788772941370647000,3.73764697265625,0.48299726843833923,0.007153783459216356,-0.053532201796770096
1788772941380616000,3.747615966796875,0.47221839427948,0.07282893359661102,-0.023095466196537018
1788772941390584800,3.757584716796875,0.441281259059906,0.16643451154232025,0.025135712698101997
1788772941400554000,3.767553955078125,0.38171833753585815,0.25947311520576477,0.07907724380493164
1788772941410521900,3.77752197265625,0.3169451951980591,0.35407260060310364,0.14915859699249268
1788772941420490800,3.78749072265625,0.25332680344581604,0.3963254988193512,0.23036102950572968
1788772941430459600,3.797459716796875,0.20452144742012024,0.39102473855018616,0.32938429713249207
1788772941440428800,3.8074287109375,0.1741797924041748,0.39259546995162964,0.4371400475502014
1788772941450396700,3.817396728515625,0.15725086629390717,0.42539897561073303,0.5444377660751343
1788772941460365800,3.82736572265625,0.1672971099615097,0.4932461977005005,0.6456155180931091
1788772941470334700,3.837334716796875,0.22042371332645416,0.5678067207336426,0.7421124577522278
1788772941480303900,3.847303955078125,0.27716290950775146,0.6420229077339172,0.8145789504051208
1788772941490271700,3.857271728515625,0.33175450563430786,0.7183794379234314,0.8553961515426636
1788772941500241000,3.867240966796875,0.37790095806121826,0.7716552019119263,0.8635270595550537
1788772941510209800,3.877209716796875,0.40255117416381836,0.7555223107337952,0.8266542553901672
1788772941520178700,3.8871787109375,0.42500001192092896,0.6803452372550964,0.7413449287414551
1788772941530146800,3.897146728515625,0.42826318740844727,0.5941647887229919,0.6104282140731812
1788772941540115700,3.90711572265625,0.41468268632888794,0.5124657154083252,0.45319730043411255
1788772941550084900,3.9170849609375,0.4049120545387268,0.5073782801628113,0.3113909065723419
1788772941560053800,3.9270537109375,0.41687631607055664,0.5512152314186096,0.21393358707427979
1788772941570022000,3.93702197265625,0.4486435651779175,0.5691366791725159,0.12714783847332
1788772941579990800,3.94699072265625,0.5133373737335205,0.5386179089546204,0.05459773167967796
1788772941589960000,3.9569599609375,0.629123330116272,0.46104297041893005,0.009454487822949886
1788772941599928800,3.9669287109375,0.5210050940513611,0.4427558481693268,0.050637610256671906
1788772941609897000,3.97689697265625,0.20595583319664001,0.1999988704919815,0.08911522477865219
1788772941619865900,3.986865966796875,-0.10949613153934479,0.2038295567035675,0.163929283618927
1788772941629835000,3.9968349609375,-0.25252893567085266,0.37534084916114807,0.24915149807929993
1788772941639804000,4.006803955078125,-0.21356047689914703,0.6671074628829956,0.27338385581970215
1788772941649772000,4.01677197265625,-0.0657220184803009,1.2290581464767456,0.15677283704280853
1788772941659741000,4.026740966796875,0.17059437930583954,1.2636864185333252,-0.03616785630583763
1788772941669709800,4.036709716796875,0.43368539214134216,0.9641918540000916,-0.3341071307659149
1788772941679679000,4.046678955078125,0.6882407069206238,0.7343693375587463,-0.5549103617668152
1788772941689646800,4.056646728515625,0.8278036713600159,0.7044926285743713,-0.6422732472419739
1788772941699616000,4.066615966796875,0.848125159740448,0.5220639705657959,-0.6742644309997559
1788772941709585000,4.0765849609375,0.8741821050643921,0.09172752499580383,-0.7054694890975952
1788772941719554000,4.086553955078125,0.9798398017883301,-0.12429478764533997,-0.6702800989151001
1788772941729521700,4.096521728515625,1.1271991729736328,-0.0737415999174118,-0.5743780732154846
1788772941739490800,4.10649072265625,1.2726740837097168,0.3507854640483856,-0.45195361971855164
1788772941749459700,4.116459716796875,1.3143360614776611,0.5662282705307007,-0.30154892802238464
1788772941759428900,4.126428955078125,1.2368791103363037,0.4119103252887726,-0.15216636657714844
1788772941769396700,4.136396728515625,1.0914441347122192,0.24077773094177246,-0.000928111607208848
1788772941779366000,4.146365966796875,0.8726534247398376,-0.027036411687731743,0.14294835925102234
1788772941789334800,4.156334716796875,0.6253222227096558,-0.2655714750289917,0.26028910279273987
1788772941799303700,4.1663037109375,0.4273630380630493,-0.41280460357666016,0.3182426989078522
1788772941809271800,4.176271728515625,0.2889769375324249,-0.44711971282958984,0.300734281539917
1788772941819240700,4.18624072265625,0.18595148622989655,-0.38105839490890503,0.1960051953792572
1788772941829209900,4.1962099609375,0.1002134159207344,-0.29904183745384216,0.009070460684597492
1788772941839178800,4.2061787109375,0.042806051671504974,-0.1937532275915146,-0.23207052052021027
1788772941849147000,4.21614697265625,0.013234312646090984,-0.08149406313896179,-0.4927330017089844
1788772941859115800,4.22611572265625,-0.0007187871960923076,-0.015430089086294174,-0.7404431700706482
1788772941869085000,4.2360849609375,-0.007011037785559893,-0.05002641677856445,-0.9694945216178894
1788772941879053800,4.2460537109375,-0.024331705644726753,-0.14344877004623413,-1.1721410751342773
1788772941889022000,4.25602197265625,-0.05716155841946602,-0.277014821767807,-1.3297722339630127
1788772941898990800,4.265990966796875,-0.11449169367551804,-0.4103454649448395,-1.4139339923858643
1788772941908959700,4.275959716796875,-0.19504272937774658,-0.47280004620552063,-1.4105243682861328
1788772941918929000,4.285928955078125,-0.2671464681625366,-0.45856332778930664,-1.313478708267212
1788772941928897000,4.29589697265625,-0.3105080723762512,-0.3977345824241638,-1.1375740766525269
1788772941938866000,4.305865966796875,-0.2991398274898529,-0.3323449194431305,-0.9093922972679138
1788772941948834800,4.315834716796875,-0.2633970081806183,-0.23892097175121307,-0.6555653214454651
1788772941958804000,4.325803955078125,-0.22353827953338623,-0.1179676502943039,-0.40430140495300293
1788772941968772900,4.33577294921875,-0.1795085072517395,0.030048713088035583,-0.1875097155570984
1788772941978741800,4.34574169921875,-0.1107771173119545,0.14384105801582336,-0.013732589781284332
1788772941988711000,4.3557109375,-0.02045813761651516,0.1877637803554535,0.102147676050663
1788772941998679800,4.3656796875,-0.024398816749453545,0.016212524846196175,0.05946385860443115
1788772942008648000,4.37564794921875,0.008607336319983006,-0.30464911460876465,0.001466602785512805
1788772942018616800,4.385616943359375,0.1356065571308136,-0.15084411203861237,-0.06778011471033096
1788772942028586000,4.3955859375,0.26795369386672974,-0.27460360527038574,-0.16452635824680328
1788772942038555000,4.405554931640625,0.33285650610923767,-0.42021113634109497,-0.2566821277141571
1788772942048523000,4.41552294921875,0.3559599816799164,-0.32280227541923523,-0.3126809298992157
1788772942058492000,4.425491943359375,0.37437573075294495,-0.2147810161113739,-0.3526941239833832
1788772942068461000,4.4354609375,0.40175968408584595,-0.16365310549736023,-0.3430364429950714
1788772942078430000,4.445429931640625,0.4573736786842346,-0.04646869748830795,-0.26535311341285706
1788772942088398000,4.455398193359375,0.516441285610199,0.1585768610239029,-0.13036945462226868
1788772942098367000,4.465366943359375,0.5690709352493286,0.40689799189567566,0.0018548916559666395
1788772942108335900,4.4753359375,0.6201894879341125,0.5898483395576477,0.08588268607854843
1788772942118305000,4.485304931640625,0.6817676424980164,0.6856563687324524,0.11444002389907837
1788772942128273000,4.49527294921875,0.7852873802185059,0.7050793766975403,0.07671235501766205
1788772942138242000,4.505241943359375,1.005157709121704,0.4907497465610504,-0.03881211206316948
1788772942148211000,4.5152109375,1.1848111152648926,0.13712456822395325,-0.14770983159542084
1788772942158180000,4.52518017578125,1.2733569145202637,-0.24046507477760315,-0.1759238988161087
1788772942168148000,4.53514794921875,1.2928962707519531,-0.47507092356681824,-0.10218708962202072
1788772942178117000,4.5451171875,1.25839364528656,-0.4815613031387329,0.04301191493868828
1788772942188086000,4.5550859375,1.1869477033615112,-0.40374109148979187,0.19978980720043182
1788772942198055000,4.565054931640625,1.089220404624939,-0.3306674063205719,0.3602953255176544
1788772942208023000,4.57502294921875,0.9337705969810486,-0.2031661719083786,0.4859456717967987
1788772942217992200,4.5849921875,0.7225385308265686,-0.13494689762592316,0.572408139705658
1788772942227961000,4.594961181640625,0.4552823007106781,-0.16154175996780396,0.5933040976524353
1788772942237930000,4.604929931640625,0.17054058611392975,-0.2273961454629898,0.5481885075569153
1788772942247897900,4.61489794921875,-0.05235162004828453,-0.3062534034252167,0.4720413088798523
1788772942257866800,4.62486669921875,-0.16371649503707886,-0.4457092881202698,0.36796656250953674
1788772942267836000,4.6348359375,-0.14293931424617767,-0.6487740278244019,0.2495536357164383
1788772942277804800,4.6448046875,0.01889060065150261,-0.7745639085769653,0.17995218932628632
1788772942287773000,4.65477294921875,0.27981993556022644,-0.5960729718208313,0.23536165058612823
1788772942297741800,4.664741943359375,0.5863742828369141,-0.05349118635058403,0.401790052652359
1788772942307711000,4.6747109375,0.8658133745193481,0.5867255330085754,0.6019731760025024
1788772942317679900,4.684679931640625,1.1007214784622192,1.1487782001495361,0.7594757676124573
1788772942327648000,4.69464794921875,1.2767391204833984,1.5299758911132812,0.8354195356369019
1788772942337617000,4.704616943359375,1.3334777355194092,1.6913636922836304,0.8002508878707886
1788772942347585800,4.714585693359375,1.3086695671081543,1.7771127223968506,0.7076588869094849
1788772942357555000,4.724554931640625,1.250181794166565,1.743293285369873,0.5870144963264465
1788772942367523000,4.734523193359375,1.1704784631729126,1.4854114055633545,0.4559752643108368
1788772942377492000,4.744491943359375,1.0674649477005005,1.1291216611862183,0.3239160180091858
1788772942387460900,4.7544609375,0.9372888803482056,0.8078091740608215,0.20596887171268463
1788772942397430000,4.764429931640625,0.8036775588989258,0.5382296442985535,0.1168573796749115
1788772942407399000,4.77439892578125,0.7011256217956543,0.2879851758480072,0.0751860961318016
1788772942417367000,4.784366943359375,0.6309758424758911,0.10026348382234573,0.08706166595220566
1788772942427336000,4.7943359375,0.5590566396713257,0.006311691831797361,0.14513801038265228
1788772942437305000,4.80430517578125,0.48227769136428833,0.0390336848795414,0.20842431485652924
1788772942447274000,4.81427392578125,0.3989412486553192,0.16901299357414246,0.2419029027223587
1788772942457242000,4.8242421875,0.3248579800128937,0.34102684259414673,0.24754880368709564
1788772942467211000,4.8342109375,0.2642606794834137,0.49443209171295166,0.22116035223007202
1788772942477180000,4.844179931640625,0.2089231163263321,0.5617714524269104,0.1707001030445099
1788772942487149000,4.854149169921875,0.1583278477191925,0.5297206044197083,0.12185347080230713
1788772942497117000,4.864116943359375,0.10657384991645813,0.42780086398124695,0.08124825358390808
1788772942507086000,4.874086181640625,0.05476684123277664,0.240626722574234,0.04320739209651947
1788772942517055000,4.884054931640625,0.0048948898911476135,-0.010481403209269047,0.02207760512828827
1788772942527024000,4.894024169921875,-0.0311664417386055,-0.24098119139671326,0.027003919705748558
1788772942536992000,4.903991943359375,-0.04701384902000427,-0.3751653730869293,0.05910513177514076
1788772942546961200,4.913961181640625,-0.03724617138504982,-0.41104185581207275,0.11213240027427673
1788772942556930000,4.923929931640625,0.013438576832413673,-0.36655429005622864,0.18346649408340454
1788772942566899000,4.93389892578125,0.08909658342599869,-0.2229531854391098,0.28621363639831543
1788772942576866800,4.94386669921875,0.16250848770141602,-0.03152729943394661,0.39504772424697876
1788772942586836000,4.9538359375,0.19190366566181183,0.10532508790493011,0.4679994285106659
1788772942596804900,4.963804931640625,0.1937233954668045,0.19604620337486267,0.4651415944099426
1788772942606773800,4.973773681640625,0.19264109432697296,0.2693217396736145,0.3917723000049591
1788772942616742000,4.983741943359375,0.17539845407009125,0.29753926396369934,0.21793977916240692
1788772942626710800,4.993710693359375,0.14003567397594452,0.21287205815315247,-0.0556720495223999
1788772942636680000,5.003679931640625,0.09396937489509583,0.05295216292142868,-0.40126460790634155
1788772942646648800,5.01364892578125,0.04693794623017311,-0.11876580119132996,-0.7655067443847656
1788772942656617000,5.023616943359375,0.02310185693204403,-0.28059518337249756,-1.0874152183532715
1788772942666585900,5.0335859375,0.017001353204250336,-0.4362795650959015,-1.3232488632202148
1788772942676555000,5.043554931640625,0.02533385157585144,-0.525786817073822,-1.4434349536895752
1788772942686524000,5.05352392578125,0.04505562409758568,-0.5222756862640381,-1.4140253067016602
1788772942696492000,5.063491943359375,0.08607975393533707,-0.4764147400856018,-1.2468448877334595
1788772942706461000,5.0734609375,0.1438402533531189,-0.4036388099193573,-0.9810936450958252
1788772942716429800,5.083429931640625,0.22069188952445984,-0.29878881573677063,-0.6663218140602112
1788772942726399000,5.09339892578125,0.2945232391357422,-0.15581382811069489,-0.35311490297317505
1788772942736367000,5.1033671875,0.34184175729751587,-0.031242074444890022,-0.09667061269283295
1788772942746336000,5.1133359375,0.35606649518013,0.0384451262652874,0.06700406968593597
1788772942756305000,5.123304931640625,0.3629302680492401,0.07889694720506668,0.1549168825149536
1788772942766274000,5.133274169921875,0.3702661991119385,0.08973627537488937,0.20222261548042297
1788772942776242000,5.143241943359375,0.3671471178531647,0.08970751613378525,0.22741638123989105
1788772942786211000,5.153211181640625,0.3551037609577179,0.1038888469338417,0.2724549472332001
1788772942796180000,5.163179931640625,0.3395130932331085,0.14811250567436218,0.359202116727829
1788772942806149000,5.173149169921875,0.31955909729003906,0.21497568488121033,0.4764978289604187
1788772942816117000,5.183116943359375,0.29895076155662537,0.29088136553764343,0.6112862825393677
1788772942826086100,5.193086181640625,0.27283740043640137,0.3654418885707855,0.7537134885787964
1788772942836055000,5.203054931640625,0.2374895215034485,0.4317871034145355,0.8919342160224915
1788772942846024000,5.21302392578125,0.20608632266521454,0.4698825478553772,1.0017919540405273
1788772942855992000,5.222991943359375,0.18426544964313507,0.4754461646080017,1.066957950592041
1788772942865961000,5.2329609375,0.16684916615486145,0.4596725106239319,1.0774511098861694
1788772942875930000,5.24293017578125,0.1413280963897705,0.42550042271614075,1.0120017528533936
1788772942885899000,5.25289892578125,0.09604503959417343,0.3314540982246399,0.8708299398422241
1788772942895867000,5.262866943359375,0.03183702379465103,0.1756783425807953,0.6849455833435059
1788772942905835800,5.272835693359375,-0.0632210448384285,-0.02954004891216755,0.46698689460754395
1788772942915805000,5.282804931640625,-0.20570576190948486,-0.31384339928627014,0.19986571371555328
1788772942926397200,5.293397216796875,-0.4056558907032013,-0.6795281767845154,-0.14844806492328644
1788772942936366000,5.303365966796875,-0.6352752447128296,-0.9660283923149109,-0.4986598789691925
1788772942946335000,5.3133349609375,-0.8607118129730225,-1.1225932836532593,-0.8276246786117554
1788772942956304100,5.32330419921875,-1.0628126859664917,-1.0843284130096436,-1.0835959911346436
1788772942966272000,5.33327197265625,-1.2381576299667358,-0.8790729641914368,-1.242324948310852
1788772942976239900,5.343239990234375,-1.3580124378204346,-0.5661563277244568,-1.2936971187591553
1788772942986209000,5.353208984375,-1.4009710550308228,-0.22639451920986176,-1.254282832145691
1788772942996178000,5.363177978515625,-1.3489153385162354,0.0655561089515686,-1.1512866020202637
1788772943006146800,5.373146728515625,-1.2096415758132935,0.3084920644760132,-1.007773995399475
1788772943016115000,5.383114990234375,-1.016296625137329,0.5049214959144592,-0.873891294002533
1788772943026083800,5.393083740234375,-0.7978654503822327,0.6707535982131958,-0.773627519607544
1788772943036053000,5.403052978515625,-0.5785501599311829,0.8256356120109558,-0.7130914926528931
1788772943046022000,5.41302197265625,-0.3853554129600525,0.9527445435523987,-0.6747280955314636
1788772943055990000,5.422989990234375,-0.22305412590503693,0.9927359223365784,-0.6541122794151306
1788772943065959000,5.432958984375,-0.08530477434396744,0.908858060836792,-0.6597632765769958
1788772943075928000,5.442927978515625,0.023330356925725937,0.7123702764511108,-0.6775861978530884
1788772943085897000,5.45289697265625,0.12936411798000336,0.4533610939979553,-0.6767680644989014
1788772943095864800,5.46286474609375,0.22887791693210602,0.17781367897987366,-0.6406792998313904
1788772943105833700,5.472833740234375,0.322931706905365,-0.07734299451112747,-0.5675859451293945
1788772943115803000,5.482802978515625,0.42585358023643494,-0.30134865641593933,-0.4590733051300049
1788772943125772000,5.49277197265625,0.5431258678436279,-0.46700525283813477,-0.3118383288383484
1788772943135740000,5.502739990234375,0.6570399403572083,-0.495002806186676,-0.11525948345661163
1788772943145708800,5.512708740234375,0.7573497295379639,-0.37392619252204895,0.12295015901327133
1788772943155677700,5.522677734375,0.8426007032394409,-0.15782451629638672,0.3733826279640198
1788772943165646800,5.532646728515625,0.904457688331604,0.08641292154788971,0.6109626889228821
1788772943175614700,5.54261474609375,0.9611420035362244,0.356810063123703,0.8026591539382935
1788772943185583900,5.552583984375,1.0292822122573853,0.5836591720581055,0.9258146286010742
1788772943195552800,5.562552734375,1.0857130289077759,0.730219841003418,0.9524553418159485
1788772943205522000,5.57252197265625,1.1134159564971924,0.7748605608940125,0.88495934009552
1788772943215489800,5.58248974609375,1.1011193990707397,0.6928216218948364,0.7401151061058044
1788772943225459000,5.592458984375,1.0406371355056763,0.5183989405632019,0.5504620671272278
1788772943235427800,5.602427734375,0.9314712285995483,0.23239995539188385,0.3219897449016571
1788772943245396700,5.612396728515625,0.7636480927467346,-0.17730528116226196,0.06476594507694244
1788772943255364900,5.62236474609375,0.5331094264984131,-0.6216505169868469,-0.2005208432674408
1788772943265334000,5.632333984375,0.24322091042995453,-0.9702369570732117,-0.43272799253463745
1788772943275303000,5.642302978515625,-0.07174156606197357,-1.1524392366409302,-0.6165545582771301
1788772943285271800,5.652271728515625,-0.3717266917228699,-1.1930018663406372,-0.7564464211463928
1788772943295240000,5.662239990234375,-0.6294119954109192,-1.0766233205795288,-0.8104574084281921
1788772943305208800,5.672208740234375,-0.8202488422393799,-0.8205772042274475,-0.7557199001312256
1788772943315178000,5.682177978515625,-0.9157063364982605,-0.49430373311042786,-0.5976988077163696
1788772943325147000,5.69214697265625,-0.908336341381073,-0.16959355771541595,-0.36835113167762756
1788772943335116000,5.702115966796875,-0.7986308932304382,0.1095866784453392,-0.1133771613240242
1788772943345707000,5.71270703125,-0.5919104218482971,0.3167499899864197,0.1431659460067749
1788772943355676000,5.722676025390625,-0.3568963408470154,0.4135151505470276,0.3485681116580963
1788772943365645000,5.73264501953125,-0.11917778849601746,0.41819965839385986,0.5173699259757996
1788772943375614000,5.742614013671875,0.09520108252763748,0.36036911606788635,0.6555935740470886
1788772943385582000,5.75258203125,0.2704099118709564,0.29692116379737854,0.7923277020454407
1788772943395551000,5.762551025390625,0.39590686559677124,0.2526676654815674,0.9170739054679871
1788772943405520000,5.772519775390625,0.47488927841186523,0.21100544929504395,1.0236631631851196
1788772943415489000,5.782489013671875,0.515475869178772,0.1957833468914032,1.1049500703811646
1788772943425458000,5.7924580078125,0.5247452855110168,0.21745988726615906,1.1378268003463745
1788772943435426000,5.802426025390625,0.4938315451145172,0.2636769115924835,1.1022834777832031
1788772943445395000,5.81239501953125,0.43702179193496704,0.3105730414390564,0.9854380488395691
1788772943455364000,5.822364013671875,0.36457955837249756,0.32162728905677795,0.7843302488327026
1788772943465333000,5.8323330078125,0.27935919165611267,0.3001728653907776,0.5160282254219055
1788772943475300900,5.84230078125,0.2031901329755783,0.2528008222579956,0.2050921618938446
1788772943485269800,5.852269775390625,0.13783589005470276,0.1557816118001938,-0.13116946816444397
1788772943495238700,5.86223876953125,0.08652077615261078,-0.006177468225359917,-0.4844471216201782
1788772943505207800,5.872207763671875,0.05070631951093674,-0.1564018577337265,-0.8304809331893921
1788772943515176000,5.882176025390625,0.04229552671313286,-0.27182433009147644,-1.133163571357727
1788772943525144800,5.892144775390625,0.04701198264956474,-0.3641694188117981,-1.3881897926330566
1788772943535113700,5.90211376953125,0.08839350938796997,-0.3932194709777832,-1.5359346866607666
1788772943545083000,5.912082763671875,0.17588022351264954,-0.31178054213523865,-1.5217872858047485
1788772943555051800,5.9220517578125,0.3131121098995209,-0.12324336916208267,-1.336480975151062
1788772943565020000,5.93202001953125,0.48978275060653687,0.083917535841465,-1.0338337421417236
1788772943574988800,5.94198876953125,0.7158241271972656,0.2597980201244354,-0.6807697415351868
1788772943584958000,5.9519580078125,0.9705941081047058,0.36209428310394287,-0.3409842252731323
1788772943594926800,5.9619267578125,1.1983956098556519,0.40633365511894226,-0.06996843218803406
1788772943604895000,5.97189501953125,1.3482327461242676,0.418717622756958,0.1246630996465683
1788772943614864000,5.98186376953125,1.4210877418518066,0.4368521571159363,0.25302958488464355
1788772943624832800,5.991832763671875,1.4370707273483276,0.4686175584793091,0.34375205636024475
1788772943634802000,6.001802001953125,1.4205119609832764,0.5115751028060913,0.412960946559906
1788772943644769800,6.011769775390625,1.3910260200500488,0.5591000318527222,0.48218023777008057
1788772943654739000,6.021739013671875,1.368674874305725,0.6241392493247986,0.5643163919448853
1788772943664707800,6.031707763671875,1.3576749563217163,0.7084543704986572,0.6547831296920776
1788772943674677000,6.041677001953125,1.3491747379302979,0.818156361579895,0.7245928645133972
1788772943684646000,6.05164599609375,1.338940143585205,0.9384170174598694,0.7568640112876892
1788772943694614000,6.061614013671875,1.344382405281067,1.0604435205459595,0.7474355697631836
1788772943704583000,6.0715830078125,1.3727377653121948,1.1278468370437622,0.6989977359771729
1788772943714551800,6.0815517578125,1.4200738668441772,1.1165167093276978,0.6177297830581665
1788772943724521000,6.09152099609375,1.457215428352356,1.0139164924621582,0.5045813918113708
1788772943734489000,6.101489013671875,1.4615782499313354,0.8322162628173828,0.36520299315452576
1788772943744458000,6.1114580078125,1.426963210105896,0.6092023849487305,0.2136600911617279
1788772943754427000,6.121427001953125,1.3610029220581055,0.3603914678096771,0.06592149287462234
1788772943764396000,6.13139599609375,1.2765356302261353,0.09892311692237854,-0.07822156697511673
1788772943774365000,6.141364990234375,1.1869298219680786,-0.12432967126369476,-0.2067851424217224
1788772943784333000,6.1513330078125,1.0836623907089233,-0.282837837934494,-0.28958839178085327
1788772943794302000,6.161302001953125,0.9348057508468628,-0.3190472424030304,-0.28814631700515747
1788772943804271000,6.17127099609375,0.7445681691169739,-0.21744950115680695,-0.2026580423116684
1788772943814240000,6.181239990234375,0.5553401708602905,-0.039140745997428894,-0.06335979700088501
1788772943824208000,6.191207763671875,0.4250277280807495,0.16550959646701813,0.10194926708936691
1788772943834176800,6.2011767578125,0.3628852665424347,0.3326980471611023,0.2539084255695343
1788772943844145700,6.211145751953125,0.32369816303253174,0.4735313355922699,0.33697643876075745
1788772943854114800,6.22111474609375,0.273125022649765,0.5782966613769531,0.3483198881149292
1788772943864083700,6.231083740234375,0.2023608237504959,0.6280535459518433,0.3125097155570984
1788772943874051800,6.2410517578125,0.11058643460273743,0.6683354377746582,0.25282347202301025
1788772943884020700,6.251020751953125,-0.0046362970024347305,0.6815828084945679,0.1837242990732193
1788772943893990000,6.260989990234375,-0.13246643543243408,0.6597409248352051,0.1196928471326828
1788772943903958800,6.270958740234375,-0.25677213072776794,0.6351833343505859,0.07480819523334503
1788772943913927000,6.280927001953125,-0.3735562860965729,0.6265984177589417,0.054845139384269714
1788772943923895800,6.290895751953125,-0.47061651945114136,0.6364023089408875,0.0449347160756588
1788772943933864700,6.30086474609375,-0.5287373661994934,0.6520688533782959,0.03724057972431183
1788772943943833900,6.310833740234375,-0.544312059879303,0.6661676168441772,0.03009372018277645
1788772943953802000,6.320802001953125,-0.5321224927902222,0.6373839378356934,0.01955639012157917
1788772943963771000,6.33077099609375,-0.5036303997039795,0.5668882131576538,0.008563128300011158
1788772943973739800,6.34073974609375,-0.4599902331829071,0.47122132778167725,0.005598497111350298
1788772943983709000,6.350708984375,-0.41290369629859924,0.367756187915802,0.011070494540035725
1788772943993677800,6.360677734375,-0.3740686774253845,0.28256672620773315,0.026522420346736908
1788772944003646000,6.37064599609375,-0.3404638469219208,0.1964571326971054,0.05891231819987297
1788772944013614800,6.38061474609375,-0.3109179437160492,0.10017799586057663,0.10877681523561478
1788772944023584000,6.390583984375,-0.28912901878356934,0.025225462391972542,0.1761249601840973
1788772944033553000,6.400552978515625,-0.26864612102508545,-0.01858939602971077,0.24724334478378296
1788772944043521000,6.41052099609375,-0.25259897112846375,-0.04651663452386856,0.31330224871635437
1788772944053490000,6.420489990234375,-0.2519819140434265,-0.03816869109869003,0.36660224199295044
1788772944063458800,6.430458740234375,-0.2671504616737366,0.01486656442284584,0.3970259130001068
1788772944073428000,6.440427978515625,-0.29419299960136414,0.027647873386740685,0.38086506724357605
1788772944083396900,6.45039697265625,-0.3389658033847809,-0.031626101583242416,0.2970353960990906
1788772944093365000,6.460364990234375,-0.3982163369655609,-0.15756139159202576,0.1573163866996765
1788772944103334000,6.470333984375,-0.4726298749446869,-0.37207475304603577,-0.03650874271988869
1788772944113303000,6.480302978515625,-0.5730456709861755,-0.682016909122467,-0.2567548155784607
1788772944123272000,6.49027197265625,-0.6908420920372009,-1.0003517866134644,-0.45830366015434265
1788772944133239800,6.50023974609375,-0.8128558993339539,-1.2738823890686035,-0.6103634834289551
1788772944143208700,6.510208740234375,-0.9231826663017273,-1.431432843208313,-0.6819058656692505
1788772944153177900,6.520177734375,-1.034980058670044,-1.4494796991348267,-0.6473995447158813
1788772944163146800,6.530146728515625,-1.1513103246688843,-1.3258923292160034,-0.5308148860931396
1788772944173115600,6.54011572265625,-1.2662383317947388,-1.1243858337402344,-0.3745480477809906
1788772944183083800,6.550083740234375,-1.3332828283309937,-0.8699889183044434,-0.19376227259635925
1788772944193052700,6.560052734375,-1.3230693340301514,-0.6149047017097473,-0.0032770195975899696
1788772944203021800,6.570021728515625,-1.251571774482727,-0.3936508893966675,0.17845629155635834
1788772944212990700,6.57999072265625,-1.1549956798553467,-0.20579098165035248,0.3451153039932251
1788772944222958800,6.589958740234375,-1.0700639486312866,-0.04944238439202309,0.48118793964385986
1788772944232927700,6.599927734375,-1.0056480169296265,0.07814326882362366,0.6052252054214478
1788772944242897000,6.60989697265625,-0.967134952545166,0.13235537707805634,0.7220796346664429
1788772944252865800,6.61986572265625,-0.947031557559967,0.12699070572853088,0.8197587728500366
1788772944262834000,6.629833984375,-0.9530132412910461,0.09915534406900406,0.8872462511062622
1788772944272802800,6.639802734375,-0.9806190729141235,0.07443801313638687,0.9127475619316101
1788772944282771700,6.649771728515625,-1.0197750329971313,0.0557844378054142,0.8846773505210876
1788772944292740900,6.659740966796875,-1.0548450946807861,0.007626760751008987,0.7902014255523682
1788772944302709800,6.669709716796875,-1.091988444328308,-0.09996920824050903,0.6318605542182922
1788772944312678000,6.679677978515625,-1.1500235795974731,-0.29919442534446716,0.39569780230522156
1788772944322646800,6.689646728515625,-1.2403030395507812,-0.6118388772010803,0.0834839716553688
1788772944332616000,6.699615966796875,-1.3496042490005493,-0.9446738362312317,-0.25511884689331055
1788772944342584800,6.709584716796875,-1.4482799768447876,-1.1955171823501587,-0.5587903261184692
1788772944352553000,6.719552978515625,-1.5328962802886963,-1.3478580713272095,-0.7968226075172424
1788772944362521900,6.72952197265625,-1.6218816041946411,-1.3296988010406494,-0.9224534630775452
1788772944372491000,6.739490966796875,-1.693682074546814,-1.1061338186264038,-0.9111877679824829
1788772944382460000,6.7494599609375,-1.7248750925064087,-0.7020324468612671,-0.7786595821380615
1788772944392428800,6.7594287109375,-1.697885513305664,-0.2743508517742157,-0.5800402164459229
1788772944402397000,6.76939697265625,-1.6073167324066162,0.10745135694742203,-0.3919376730918884
1788772944412365800,6.77936572265625,-1.4608885049819946,0.372954398393631,-0.24161289632320404
1788772944422335000,6.7893349609375,-1.274437665939331,0.5336236953735352,-0.14470233023166656
1788772944432303900,6.799303955078125,-1.0999361276626587,0.6310205459594727,-0.07435625791549683
1788772944442272000,6.80927197265625,-0.9374393820762634,0.6713829040527344,-0.01341380923986435
1788772944452241000,6.819240966796875,-0.8019971251487732,0.6553645133972168,0.047998152673244476
1788772944462210000,6.8292099609375,-0.7056506276130676,0.615592360496521,0.10342838615179062
1788772944472179000,6.839178955078125,-0.6370129585266113,0.574348509311676,0.1564740240573883
1788772944482147800,6.84914794921875,-0.5804575085639954,0.5086919665336609,0.1970110684633255
1788772944492115700,6.85911572265625,-0.5167347192764282,0.43342921137809753,0.21898400783538818
1788772944502084600,6.869084716796875,-0.4522353708744049,0.3700736463069916,0.22034941613674164
1788772944512053800,6.8790537109375,-0.3938053548336029,0.332079142332077,0.20187613368034363
1788772944522023000,6.88902294921875,-0.33809947967529297,0.2985430061817169,0.16374419629573822
1788772944531990800,6.89899072265625,-0.28078240156173706,0.24223420023918152,0.10093753039836884
1788772944541959700,6.908959716796875,-0.22444190084934235,0.1824347823858261,0.013792777433991432
1788772944551928800,6.9189287109375,-0.1794765442609787,0.12905918061733246,-0.10302571952342987
1788772944561897700,6.928897705078125,-0.15840908885002136,0.1175636500120163,-0.23923681676387787
1788772944571865900,6.938865966796875,-0.15763969719409943,0.12878593802452087,-0.39563441276550293
1788772944581834800,6.948834716796875,-0.16106478869915009,0.11464162915945053,-0.5696828961372375
1788772944591804000,6.958803955078125,-0.1479111611843109,0.08167488873004913,-0.7333093881607056
1788772944601772800,6.968772705078125,-0.12215786427259445,0.052267998456954956,-0.8632444739341736
1788772944611741700,6.97874169921875,-0.07568490505218506,0.051306597888469696,-0.9205924868583679
1788772944621709800,6.988709716796875,-0.006345513742417097,0.08365228772163391,-0.8829337954521179
1788772944631678700,6.9986787109375,0.08593088388442993,0.15499012172222137,-0.7542796730995178
1788772944641647900,7.00864794921875,0.20339146256446838,0.2410869151353836,-0.5476268529891968
1788772944651616800,7.01861669921875,0.3184179365634918,0.3430204689502716,-0.29053303599357605
1788772944661585000,7.0285849609375,0.40874943137168884,0.4378540515899658,-0.037278927862644196
1788772944671553800,7.0385537109375,0.4737872779369354,0.4833701252937317,0.16989369690418243
1788772944681523000,7.04852294921875,0.5223712921142578,0.5202173590660095,0.32368460297584534
1788772944691491800,7.058491943359375,0.5762633085250854,0.5596169829368591,0.43530192971229553
1788772944701460000,7.0684599609375,0.6276716589927673,0.5679718255996704,0.5043920278549194
1788772944711428900,7.078428955078125,0.66954106092453,0.5903682112693787,0.5531947612762451
1788772944721397800,7.088397705078125,0.7053600549697876,0.5940812230110168,0.585706353187561
1788772944731367000,7.098366943359375,0.7253915667533875,0.56472247838974,0.6072118878364563
1788772944741335800,7.108335693359375,0.7265758514404297,0.5391234159469604,0.6119142770767212
1788772944751304000,7.118303955078125,0.7151902914047241,0.5140755772590637,0.5880786776542664
1788772944761272800,7.12827294921875,0.675301194190979,0.4877454340457916,0.5341611504554749
1788772944771242000,7.138241943359375,0.5889450311660767,0.46413570642471313,0.4484587609767914
1788772944781211000,7.1482109375,0.4595944881439209,0.4328153431415558,0.3169398605823517
1788772944791179000,7.158178955078125,0.302081823348999,0.38866597414016724,0.1554071605205536
1788772944801148000,7.16814794921875,0.12832733988761902,0.3184448182582855,-0.047692153602838516
1788772944811117000,7.178116943359375,-0.05901112034916878,0.24404941499233246,-0.27422064542770386
1788772944821086000,7.1880859375,-0.2441977560520172,0.20134137570858002,-0.5071455240249634
1788772944831053800,7.1980537109375,-0.39073047041893005,0.1452418863773346,-0.7198271155357361
1788772944841022700,7.208022705078125,-0.4804941713809967,0.07157138735055923,-0.8971377611160278
1788772944850991600,7.21799169921875,-0.5091146230697632,-0.021020596846938133,-1.0054932832717896
1788772944860961000,7.2279609375,-0.48482048511505127,-0.09384606778621674,-1.0166963338851929
1788772944870930000,7.237929931640625,-0.4371269941329956,-0.13011565804481506,-0.9301193952560425
1788772944880897800,7.247897705078125,-0.37541118264198303,-0.1367674320936203,-0.7535107731819153
1788772944890866700,7.25786669921875,-0.339743971824646,-0.07350751012563705,-0.5152382850646973
1788772944900835800,7.2678359375,-0.34246814250946045,0.08599933236837387,-0.26197490096092224
1788772944910804700,7.2778046875,-0.3635411858558655,0.33073291182518005,-0.029287846758961678
1788772944920772900,7.28777294921875,-0.3578556180000305,0.5750520825386047,0.16966892778873444
1788772944930741800,7.29774169921875,-0.30645233392715454,0.785356879234314,0.3273427188396454
1788772944940710700,7.307710693359375,-0.22319607436656952,0.9770776033401489,0.4482576847076416
1788772944950679800,7.3176796875,-0.13072419166564941,1.1107943058013916,0.5273935198783875
1788772944960648000,7.32764794921875,-0.05137477442622185,1.1390470266342163,0.5543529391288757
1788772944970616800,7.337616943359375,0.0006130596739239991,1.0714991092681885,0.5446140170097351
1788772944980586500,7.34758642578125,0.03953595831990242,0.9351056218147278,0.5185320973396301
1788772944990555600,7.3575556640625,0.057610832154750824,0.727588415145874,0.48405641317367554
1788772945000524500,7.367524658203125,0.04872892424464226,0.5022791028022766,0.4681307077407837
1788772945010492700,7.37749267578125,0.009823336265981197,0.2865484058856964,0.4663000702857971
1788772945020461600,7.387461669921875,-0.06371159851551056,0.08910670876502991,0.4537709653377533
1788772945030430500,7.397430419921875,-0.15686151385307312,-0.07261002063751221,0.409972608089447
1788772945040399600,7.407399658203125,-0.2670343518257141,-0.17121249437332153,0.33639585971832275
1788772945050367200,7.4173671875,-0.3873072564601898,-0.24867932498455048,0.21395383775234222
1788772945060336400,7.42733642578125,-0.4991368353366852,-0.37461674213409424,0.018701782450079918
1788772945070305500,7.437305419921875,-0.6029071807861328,-0.602821946144104,-0.2549803555011749
1788772945080274700,7.447274658203125,-0.7212852239608765,-0.8719402551651001,-0.5856680274009705
1788772945090243600,7.45724365234375,-0.8735567927360535,-1.1042650938034058,-0.9180760383605957
1788772945100211500,7.46721142578125,-1.0669713020324707,-1.2535102367401123,-1.2186912298202515
1788772945110180400,7.477180419921875,-1.2800196409225464,-1.304185390472412,-1.4459377527236938
1788772945120149200,7.487149169921875,-1.4650845527648926,-1.2079174518585205,-1.5446877479553223
1788772945130118400,7.497118408203125,-1.5903793573379517,-0.9971636533737183,-1.4984632730484009
1788772945140086500,7.50708642578125,-1.6310263872146606,-0.7584485411643982,-1.3435932397842407
1788772945150055400,7.517055419921875,-1.5831602811813354,-0.521899402141571,-1.0992871522903442
1788772945160024300,7.5270244140625,-1.4778578281402588,-0.27771976590156555,-0.7942531704902649
1788772945169993500,7.536993408203125,-1.3308534622192383,-0.04766525700688362,-0.46182969212532043
1788772945179961300,7.54696142578125,-1.1576303243637085,0.14842009544372559,-0.11910375207662582
1788772945189930500,7.556930419921875,-0.999347984790802,0.27813148498535156,0.2075665146112442
1788772945199899400,7.5668994140625,-0.8901498913764954,0.36594176292419434,0.5001786947250366
1788772945209868500,7.57686865234375,-0.8446260690689087,0.3616138696670532,0.7357826828956604
1788772945219837400,7.58683740234375,-0.8560957908630371,0.29897552728652954,0.9106759428977966
1788772945229805600,7.5968056640625,-0.9107446074485779,0.1839626431465149,1.0067251920700073
1788772945239774500,7.6067744140625,-1.0013741254806519,0.02569284662604332,1.0358761548995972
1788772945249743400,7.616743408203125,-1.1042842864990234,-0.12152136862277985,1.0050599575042725
1788772945259712500,7.62671240234375,-1.194122552871704,-0.2191198319196701,0.9381581544876099
1788772945269680400,7.636680419921875,-1.2574753761291504,-0.2928782105445862,0.8405234813690186
1788772945279649500,7.6466494140625,-1.3013997077941895,-0.32540205121040344,0.7246189713478088
1788772945289618400,7.656618408203125,-1.3363054990768433,-0.346169650554657,0.5992804765701294
1788772945299587600,7.666587646484375,-1.3627121448516846,-0.3699069619178772,0.47568318247795105
1788772945309555500,7.676555419921875,-1.3705617189407349,-0.3937006890773773,0.36907631158828735
1788772945319524600,7.686524658203125,-1.3656152486801147,-0.4114040434360504,0.29505881667137146
1788772945329493500,7.696493408203125,-1.3714141845703125,-0.4291953146457672,0.24446380138397217
1788772945339462400,7.70646240234375,-1.3840594291687012,-0.44199126958847046,0.19972269237041473
1788772945349431600,7.716431640625,-1.3919490575790405,-0.4428921937942505,0.15606842935085297
1788772945359399700,7.726399658203125,-1.3875598907470703,-0.4503493309020996,0.10999387502670288
1788772945369368600,7.73636865234375,-1.3673936128616333,-0.42601656913757324,0.09187905490398407
1788772945379337500,7.74633740234375,-1.3341525793075562,-0.3343958258628845,0.1015617772936821
1788772945389306600,7.756306640625,-1.2812838554382324,-0.2142779380083084,0.11527279764413834
1788772945399274500,7.7662744140625,-1.2089446783065796,-0.11038216948509216,0.13028396666049957
1788772945409243600,7.77624365234375,-1.1323270797729492,-0.05014625936746597,0.13200117647647858
1788772945419212500,7.786212646484375,-1.0546621084213257,-0.04767537862062454,0.09893936663866043
1788772945429181700,7.796181640625,-0.9908325672149658,-0.08508746325969696,0.03472042828798294
1788772945439150600,7.806150634765625,-0.9354755282402039,-0.16073454916477203,-0.0352458730340004
1788772945449118500,7.816118408203125,-0.8845937252044678,-0.2563849091529846,-0.10249628126621246
1788772945459087400,7.82608740234375,-0.8478556871414185,-0.3623686134815216,-0.15102386474609375
1788772945469056300,7.83605615234375,-0.8365982174873352,-0.4594504237174988,-0.1830451786518097
1788772945479025400,7.846025390625,-0.8314687013626099,-0.5607730150222778,-0.18284465372562408
1788772945488993300,7.8559931640625,-0.8146892189979553,-0.6127755045890808,-0.15127846598625183
1788772945498962400,7.86596240234375,-0.7903755903244019,-0.6006131172180176,-0.10631445795297623
1788772945508931300,7.875931396484375,-0.7545832395553589,-0.513835072517395,-0.06932714581489563
1788772945518900500,7.885900390625,-0.704215943813324,-0.3761163651943207,-0.025680063292384148
1788772945528868400,7.895868408203125,-0.6437451243400574,-0.19678150117397308,0.028782645240426064
1788772945538837500,7.90583740234375,-0.5724696516990662,-0.011361577548086643,0.09020579606294632
1788772945548806400,7.915806396484375,-0.4835464358329773,0.13536395132541656,0.13025201857089996
1788772945558775600,7.925775634765625,-0.40317782759666443,0.195515438914299,0.1549064964056015
1788772945568744400,7.935744384765625,-0.35412371158599854,0.18831637501716614,0.1577446162700653
1788772945578712600,7.945712646484375,-0.32833313941955566,0.13522200286388397,0.15235012769699097
1788772945588681500,7.955681396484375,-0.3123888075351715,0.10099559277296066,0.16258704662322998
1788772945598650400,7.965650390625,-0.2906331717967987,0.10321266949176788,0.21137429773807526
1788772945608619500,7.97561962890625,-0.25167137384414673,0.16060592234134674,0.33699852228164673
1788772945618587400,7.98558740234375,-0.2028665542602539,0.23687699437141418,0.5076488256454468
1788772945628556500,7.995556640625,-0.14922676980495453,0.25776469707489014,0.6723626852035522
1788772945638525400,8.005525390625,-0.0898960679769516,0.22909016907215118,0.7852175831794739
1788772945648494600,8.01549462890625,-0.03623337298631668,0.18045872449874878,0.81016606092453
1788772945658463500,8.02546337890625,-0.013127253390848637,0.10673576593399048,0.7473112344741821
1788772945668431600,8.035431640625,-0.030192790552973747,0.06650019437074661,0.6326307058334351
1788772945678400500,8.045400390625,-0.0909205824136734,0.05181286484003067,0.49761882424354553
1788772945688369400,8.055369384765624,-0.18864847719669342,0.04254453256726265,0.36856499314308167
1788772945698338600,8.065338623046875,-0.3003411889076233,0.0592566654086113,0.2649930417537689
1788772945708306400,8.075306396484375,-0.4021698236465454,0.12675847113132477,0.20399600267410278
1788772945718275600,8.085275634765624,-0.46797600388526917,0.2176218032836914,0.19337505102157593
1788772945728244500,8.095244384765625,-0.5141184329986572,0.2831627428531647,0.1987418532371521
1788772945738213600,8.105213623046875,-0.5348032116889954,0.3220544755458832,0.19760708510875702
1788772945748182500,8.1151826171875,-0.5665478110313416,0.2570408582687378,0.133257657289505
1788772945758150700,8.125150634765625,-0.6434511542320251,0.0165542084723711,-0.0808037668466568
1788772945768119600,8.13511962890625,-0.8010753989219666,-0.37628868222236633,-0.44054916501045227
1788772945778088400,8.14508837890625,-1.0198495388031006,-0.7567492127418518,-0.8406028151512146
1788772945788057600,8.1550576171875,-1.216105580329895,-1.0687930583953857,-1.1877360343933105
1788772945798025500,8.165025390625,-1.3324841260910034,-1.2040660381317139,-1.371972918510437
1788772945807994400,8.174994384765625,-1.362762212753296,-1.0950270891189575,-1.3256169557571411
1788772945817963300,8.18496337890625,-1.3103036880493164,-0.8482961654663086,-1.101915955543518
1788772945827932400,8.194932373046875,-1.1843719482421875,-0.521145761013031,-0.7950041890144348
1788772945837901300,8.2049013671875,-0.9783090353012085,-0.17162448167800903,-0.4582138955593109
1788772945847869400,8.214869384765626,-0.7339456081390381,0.09853535890579224,-0.1589699387550354
1788772945857838300,8.22483837890625,-0.5233827829360962,0.2712687849998474,0.060272395610809326
1788772945867807500,8.234807373046875,-0.4049922227859497,0.4196886122226715,0.19816794991493225
1788772945877776400,8.2447763671875,-0.3709684908390045,0.5115661025047302,0.26929351687431335
1788772945887744500,8.25474462890625,-0.36559823155403137,0.5781272649765015,0.31711483001708984
1788772945897713400,8.26471337890625,-0.34199729561805725,0.6208270788192749,0.3809066116809845
1788772945907682300,8.274682373046875,-0.28877508640289307,0.6100255250930786,0.44030681252479553
1788772945917651500,8.2846513671875,-0.2186814695596695,0.5225284695625305,0.4742080569267273
1788772945927620400,8.294620361328125,-0.1650371551513672,0.3761028051376343,0.4691168963909149
1788772945937588500,8.30458837890625,-0.14858414232730865,0.18583165109157562,0.4274463951587677
1788772945947557400,8.314557373046876,-0.1749262660741806,-0.041362352669239044,0.35510268807411194
1788772945957526500,8.324526611328125,-0.2342340648174286,-0.2576344609260559,0.2801719903945923
1788772945967495400,8.334495361328125,-0.28540459275245667,-0.4079741835594177,0.21172742545604706
1788772945977463300,8.34446337890625,-0.3049931824207306,-0.4957314431667328,0.14077523350715637
1788772945987432200,8.35443212890625,-0.2969624400138855,-0.5448307991027832,0.056765276938676834
1788772945997401300,8.3644013671875,-0.29759547114372253,-0.5927866101264954,-0.0398147888481617
1788772946007370200,8.374370361328126,-0.33938899636268616,-0.6043292880058289,-0.15013223886489868
1788772946017339100,8.384339111328124,-0.42842698097229004,-0.5803523063659668,-0.26097914576530457
1788772946027307300,8.394307373046875,-0.5327855944633484,-0.5239545702934265,-0.3524022698402405
1788772946037276200,8.404276123046875,-0.634797215461731,-0.4746117889881134,-0.432501882314682
1788772946047245300,8.414245361328126,-0.7299415469169617,-0.4709981381893158,-0.5258776545524597
1788772946057214200,8.424214111328125,-0.8210421800613403,-0.5062386989593506,-0.622552752494812
1788772946067183400,8.434183349609375,-0.9071949124336243,-0.5693864822387695,-0.7143924236297607
1788772946077151200,8.444151123046876,-0.9826443791389465,-0.6278684735298157,-0.7873228192329407
1788772946087120400,8.454120361328124,-1.032825231552124,-0.6595049500465393,-0.8042008876800537
1788772946097089300,8.46408935546875,-1.035139799118042,-0.6736841201782227,-0.7354657649993896
1788772946107058200,8.47405810546875,-0.9824537038803101,-0.6719784140586853,-0.5544160604476929
1788772946117026300,8.4840263671875,-0.8935437798500061,-0.6444868445396423,-0.2640460431575775
1788772946126995200,8.4939951171875,-0.7850114703178406,-0.5928526520729065,0.09895054996013641
1788772946136964400,8.50396435546875,-0.674841046333313,-0.5050972700119019,0.4797072112560272
1788772946146933200,8.513933349609376,-0.5851478576660156,-0.4444858431816101,0.7926139831542969
1788772946156902400,8.52390234375,-0.5400075912475586,-0.3929368853569031,0.9912634491920471
1788772946166870300,8.533870361328125,-0.5290321707725525,-0.3310932517051697,1.0833765268325806
1788772946176839400,8.54383935546875,-0.5449261665344238,-0.30951204895973206,1.0753897428512573
1788772946186808300,8.553808349609374,-0.5880456566810608,-0.29501911997795105,0.9915004372596741
1788772946196777200,8.563777099609375,-0.6603278517723083,-0.2947871685028076,0.8589163422584534
1788772946206745300,8.573745361328125,-0.7655682563781738,-0.3147587478160858,0.699732780456543
1788772946216714500,8.583714599609374,-0.8834445476531982,-0.3620477020740509,0.5513901710510254
1788772946226683400,8.593683349609375,-0.9763656854629517,-0.38498151302337646,0.4436227083206177
1788772946236652300,8.60365234375,-1.0428001880645752,-0.42621415853500366,0.3757733702659607
1788772946246621400,8.613621337890624,-1.0839217901229858,-0.4891340136528015,0.341945081949234
1788772946256589300,8.62358935546875,-1.106432318687439,-0.5508245229721069,0.3339068591594696
1788772946266558500,8.633558349609375,-1.1235677003860474,-0.6236819624900818,0.35154393315315247
1788772946276527400,8.64352734375,-1.1433289051055908,-0.6831673979759216,0.3811529576778412
1788772946286496500,8.65349658203125,-1.1774942874908447,-0.7429271340370178,0.4016883075237274
1788772946296465400,8.66346533203125,-1.2202225923538208,-0.7864897847175598,0.4091334342956543
1788772946306433500,8.67343359375,-1.2639431953430176,-0.8011917471885681,0.4184979200363159
1788772946316402400,8.68340234375,-1.2797013521194458,-0.7724668979644775,0.45241779088974
1788772946326371300,8.693371337890625,-1.2483381032943726,-0.6905634999275208,0.5200548768043518
1788772946336340500,8.703340576171875,-1.1765341758728027,-0.5829832553863525,0.6185657382011414
1788772946346308400,8.713308349609376,-1.0756012201309204,-0.4976670444011688,0.7406149506568909
1788772946356277200,8.72327734375,-0.9641913175582886,-0.4325663447380066,0.8635097146034241
1788772946366246400,8.733246337890625,-0.861120879650116,-0.4234210252761841,0.9916701316833496
1788772946376215600,8.743215576171876,-0.794478714466095,-0.471428245306015,1.119053602218628
1788772946386184400,8.753184326171874,-0.7718125581741333,-0.5537127256393433,1.2119697332382202
1788772946396152300,8.76315234375,-0.7805432081222534,-0.6569741368293762,1.2554188966751099
1788772946406121200,8.773121337890625,-0.7986862659454346,-0.7606076002120972,1.254583477973938
1788772946416090400,8.78309033203125,-0.8557072281837463,-0.848641574382782,1.2017892599105835
1788772946426059300,8.793059326171875,-0.9326030611991882,-0.9025740623474121,1.1104438304901123
1788772946436028200,8.803028076171875,-0.981477677822113,-0.8899376392364502,1.0167791843414307
1788772946445996300,8.812996337890626,-0.993970513343811,-0.8564688563346863,0.9113502502441406
1788772946455965200,8.822965087890625,-0.979314386844635,-0.8303549885749817,0.784379243850708
1788772946465934300,8.832934326171875,-0.9632248878479004,-0.8201249837875366,0.6397751569747925
1788772946475903200,8.8429033203125,-0.977902352809906,-0.7963805198669434,0.4984947443008423
1788772946485871400,8.852871337890624,-1.0426679849624634,-0.792374849319458,0.34615182876586914
1788772946495840300,8.86284033203125,-1.136972427368164,-0.8153046369552612,0.1759161651134491
1788772946505809400,8.872809326171875,-1.2274360656738281,-0.8446518778800964,0.01588468998670578
1788772946515778300,8.8827783203125,-1.3021457195281982,-0.8709546327590942,-0.12835824489593506
1788772946525747200,8.892747314453125,-1.340744972229004,-0.8737184405326843,-0.23092855513095856
1788772946535715300,8.90271533203125,-1.3282454013824463,-0.8385135531425476,-0.2698186933994293
1788772946545684200,8.912684326171876,-1.264975666999817,-0.7596659064292908,-0.23610787093639374
1788772946555653400,8.9226533203125,-1.1573978662490845,-0.6774956583976746,-0.1455175131559372
1788772946565622300,8.932622314453125,-1.01204252243042,-0.5921711921691895,-0.010378871113061905
1788772946575591400,8.94259130859375,-0.8505904674530029,-0.49432262778282166,0.15749667584896088
1788772946585559300,8.952559326171874,-0.6986653804779053,-0.3917009234428406,0.3506395220756531
1788772946595528400,8.962528564453125,-0.5893932580947876,-0.3268236517906189,0.5203046798706055
1788772946605497300,8.972497314453125,-0.534685492515564,-0.22790800034999847,0.65400630235672
1788772946615466200,8.98246630859375,-0.5187150835990906,-0.13324327766895294,0.7314339876174927
1788772946625435400,8.992435302734375,-0.5198327898979187,-0.07346835732460022,0.7637125849723816
1788772946635403500,9.002403564453125,-0.5193369388580322,-0.07356289774179459,0.7613375782966614
1788772946645372400,9.012372314453126,-0.5053712725639343,-0.1321313977241516,0.7556700706481934
1788772946655341300,9.02234130859375,-0.47180214524269104,-0.20424102246761322,0.7626997828483582
1788772946665310500,9.032310546875,-0.417035847902298,-0.29818642139434814,0.795745313167572
1788772946675278300,9.0422783203125,-0.3540355861186981,-0.4210457503795624,0.8454961180686951
1788772946685247500,9.05224755859375,-0.2960612177848816,-0.5598350763320923,0.8976085782051086
1788772946695216400,9.06221630859375,-0.2396959513425827,-0.7096059322357178,0.9270008206367493
1788772946705185500,9.072185546875,-0.18609397113323212,-0.8308191895484924,0.9369719624519348
1788772946715154400,9.082154541015624,-0.1520387977361679,-0.8572238683700562,0.9481439590454102
1788772946725122600,9.09212255859375,-0.16113749146461487,-0.819434404373169,0.9385006427764893
1788772946735091500,9.102091552734375,-0.20657074451446533,-0.7463303804397583,0.877701461315155
1788772946745060400,9.112060302734376,-0.26327183842658997,-0.680149495601654,0.7675523161888123
1788772946755029500,9.122029541015625,-0.31170302629470825,-0.6552625298500061,0.6193577647209167
1788772946764998400,9.131998291015625,-0.3266383111476898,-0.6842933893203735,0.44982627034187317
1788772946774966300,9.14196630859375,-0.31393396854400635,-0.7302725911140442,0.2941426634788513
1788772946784935200,9.15193505859375,-0.28661444783210754,-0.7913817763328552,0.17364396154880524
1788772946794904300,9.161904296875,-0.2642572224140167,-0.8332375884056091,0.0985281690955162
1788772946804873200,9.171873291015626,-0.2495800107717514,-0.8039225935935974,0.09434354305267334
1788772946814842400,9.18184228515625,-0.2445114701986313,-0.7253081798553467,0.14213024079799652
1788772946824810200,9.191810302734375,-0.25315824151039124,-0.6284027099609375,0.22426240146160126
1788772946834779100,9.201779052734375,-0.2578943967819214,-0.5309999585151672,0.3221561908721924
1788772946844748300,9.211748291015626,-0.2660370171070099,-0.4225110411643982,0.4137558937072754
1788772946854717200,9.22171728515625,-0.28772419691085815,-0.3188227117061615,0.500089168548584
1788772946864686300,9.231686279296875,-0.3122287392616272,-0.21929320693016052,0.5740499496459961
1788772946874654200,9.241654296875,-0.3151691257953644,-0.1720774918794632,0.6273206472396851
1788772946884623400,9.251623291015624,-0.2775871455669403,-0.15871268510818481,0.6594359874725342
1788772946894592300,9.26159228515625,-0.20444129407405853,-0.14407221972942352,0.6650509834289551
1788772946904561400,9.2715615234375,-0.1212337464094162,-0.1429254561662674,0.626130223274231
1788772946914529300,9.281529296875,-0.04740293696522713,-0.1837136447429657,0.5622518658638
1788772946924498400,9.29149853515625,0.004251203965395689,-0.27444514632225037,0.4937031865119934
1788772946935090200,9.302090087890624,0.01913987286388874,-0.4076322317123413,0.4149055778980255
1788772946945059300,9.312059326171875,-0.005456018261611462,-0.5217321515083313,0.33800679445266724
1788772946955028200,9.3220283203125,-0.06632602959871292,-0.6055437326431274,0.2623858153820038
1788772946964996400,9.331996337890626,-0.14641952514648438,-0.6123132109642029,0.18764738738536835
1788772946974965200,9.34196533203125,-0.2112608402967453,-0.6024754643440247,0.12860165536403656
1788772946984935000,9.351934814453125,-0.2521424889564514,-0.576149582862854,0.06963686645030975
1788772946994903800,9.36190380859375,-0.2568514943122864,-0.5457679629325867,0.02798849157989025
1788772947004872700,9.371872802734375,-0.23159168660640717,-0.5115737915039062,0.00817776843905449
1788772947014840800,9.3818408203125,-0.1949058324098587,-0.5128260254859924,0.009916813112795353
1788772947024809700,9.391809814453126,-0.150928795337677,-0.5106768608093262,0.02311037853360176
1788772947034779000,9.40177880859375,-0.09947625547647476,-0.515102744102478,0.043300069868564606
1788772947044747800,9.411747802734375,-0.05344884470105171,-0.5302513241767883,0.06216989830136299
1788772947054716000,9.4217158203125,-0.013658021576702595,-0.5123322606086731,0.07748067378997803
1788772947064684800,9.431684814453124,0.01372060552239418,-0.4770840108394623,0.09889622032642365
1788772947074654000,9.441654052734375,0.009337841533124447,-0.4010600745677948,0.09653133153915405
1788772947084622800,9.451622802734375,-0.03843367472290993,-0.2943573296070099,0.051663462072610855
1788772947094591700,9.461591796875,-0.13065122067928314,-0.17185938358306885,-0.043173301964998245
1788772947104559900,9.471559814453125,-0.2510330379009247,-0.10889079421758652,-0.18849694728851318
1788772947114528800,9.48152880859375,-0.3730106055736542,-0.13067997992038727,-0.3864499628543854
1788772947124498000,9.491497802734376,-0.4777655005455017,-0.18946580588817596,-0.6163777112960815
1788772947134466800,9.501466796875,-0.5371696949005127,-0.26218366622924805,-0.8514330983161926
1788772947144436000,9.51143603515625,-0.5389497876167297,-0.33700865507125854,-1.0487011671066284
1788772947154403800,9.52140380859375,-0.5044005513191223,-0.39759528636932373,-1.1721022129058838
1788772947164373000,9.531373046875,-0.45527589321136475,-0.4120842218399048,-1.1983718872070312
1788772947174342000,9.541341796875,-0.40876033902168274,-0.38844573497772217,-1.1183979511260986
1788772947184311000,9.55131103515625,-0.3741733431816101,-0.3406582474708557,-0.9729342460632324
1788772947194280000,9.561280029296874,-0.34973910450935364,-0.287998765707016,-0.8050442934036255
1788772947204248000,9.571248046875,-0.3216661810874939,-0.24491281807422638,-0.6314916610717773
1788772947214217000,9.581217041015625,-0.292141318321228,-0.2160547971725464,-0.4574698209762573
1788772947224185900,9.591185791015626,-0.26698800921440125,-0.18184703588485718,-0.27974218130111694
1788772947234155000,9.601155029296875,-0.2572709321975708,-0.11879322677850723,-0.09626741707324982
1788772947244124000,9.6111240234375,-0.27283260226249695,-0.06580697745084763,0.0895509198307991
1788772947254091800,9.621091796875,-0.3051127791404724,-0.12332752346992493,0.22977887094020844
1788772947264060700,9.631060791015624,-0.324236661195755,-0.2530200183391571,0.3421565294265747
1788772947274029800,9.64102978515625,-0.31023934483528137,-0.37600797414779663,0.46138787269592285
1788772947283998700,9.650998779296875,-0.2821059823036194,-0.47367674112319946,0.5687422752380371
1788772947293966800,9.660966796875,-0.26541197299957275,-0.48141324520111084,0.6437821984291077
1788772947303935700,9.670935791015625,-0.26305025815963745,-0.4160637855529785,0.6672701835632324
1788772947313904600,9.680904541015625,-0.27360039949417114,-0.31552228331565857,0.6217786073684692
1788772947323873800,9.690873779296876,-0.306937575340271,-0.2111939936876297,0.5040681958198547
1788772947333842700,9.7008427734375,-0.3515836000442505,-0.11433696001768112,0.3419216573238373
1788772947343810800,9.710810791015625,-0.39883953332901,-0.04090828448534012,0.16994616389274597
1788772947354403800,9.72140380859375,-0.4242788553237915,-0.025840917602181435,0.01830204203724861
1788772947364371700,9.731371826171875,-0.4227648377418518,-0.07149442285299301,-0.08299315720796585
1788772947374340900,9.7413408203125,-0.41056808829307556,-0.15249207615852356,-0.14750637114048004
1788772947384309800,9.751309814453125,-0.40050798654556274,-0.2505999803543091,-0.19421342015266418
1788772947394278700,9.761278564453125,-0.39382612705230713,-0.3496496081352234,-0.23991964757442474
1788772947404247800,9.771247802734376,-0.38249197602272034,-0.4317133128643036,-0.2885420620441437
1788772947414215700,9.781215576171874,-0.3620748519897461,-0.4894666373729706,-0.3405280113220215
1788772947424184800,9.791184814453125,-0.33502325415611267,-0.4557132124900818,-0.3843490183353424
1788772947434153700,9.80115380859375,-0.29793527722358704,-0.34729138016700745,-0.4013192057609558
1788772947444123000,9.811122802734374,-0.2597825825214386,-0.23310436308383942,-0.4040718376636505
1788772947454091800,9.821091796875,-0.22828137874603271,-0.13624359667301178,-0.36726269125938416
1788772947464060000,9.831059814453125,-0.21782606840133667,-0.06767518073320389,-0.3207532465457916
1788772947474028800,9.84102880859375,-0.22153638303279877,-0.04583779722452164,-0.3091232180595398
1788772947483997700,9.850997802734375,-0.2008151262998581,-0.06054456904530525,-0.3402760922908783
1788772947493966800,9.860966796875,-0.1394742727279663,-0.040162332355976105,-0.39018160104751587
1788772947503935700,9.870935791015626,-0.04529371112585068,-0.002516420790925622,-0.42004841566085815
1788772947513903900,9.88090380859375,0.04635205119848251,0.02996375784277916,-0.41637563705444336
1788772947523872800,9.890872802734375,0.11192493885755539,0.06271558254957199,-0.37494805455207825
1788772947533842000,9.900842041015625,0.1522901952266693,0.08255133777856827,-0.279253214597702
1788772947543810800,9.910810791015624,0.182499498128891,0.0707402154803276,-0.12670254707336426
1788772947553780000,9.920780029296875,0.2083771675825119,0.03219282254576683,0.06346872448921204
1788772947563747800,9.930747802734375,0.22451166808605194,-0.03954421356320381,0.24472346901893616
1788772947573717000,9.940717041015626,0.23427535593509674,-0.13743428885936737,0.3718436062335968
1788772947583686000,9.950685791015625,0.24106881022453308,-0.24343635141849518,0.42087745666503906
1788772947593654800,9.96065478515625,0.24073591828346252,-0.3714699447154999,0.39349350333213806
1788772947603624000,9.9706240234375,0.23810657858848572,-0.47647467255592346,0.30278757214546204
1788772947613591800,9.980591796875,0.25012728571891785,-0.5206295847892761,0.18842796981334686
1788772947623561000,9.99056103515625,0.27574795484542847,-0.48143506050109863,0.0738888680934906
1788772947633529900,10.00052978515625,0.3102518618106842,-0.39725708961486816,-0.02900901436805725
1788772947643499000,10.0104990234375,0.3549540936946869,-0.24376659095287323,-0.06991729885339737
1788772947653468000,10.020468017578125,0.3985031843185425,-0.10332425683736801,-0.05149568244814873
1788772947663436000,10.03043603515625,0.43559834361076355,0.0008625978953205049,0.0019619506783783436
1788772947673405000,10.040405029296876,0.45741522312164307,0.06274567544460297,0.07454880326986313
1788772947683373800,10.050373779296875,0.4528433680534363,0.10555199533700943,0.14220693707466125
1788772947693343000,10.060343017578125,0.41390421986579895,0.15031173825263977,0.1808435469865799
1788772947703312000,10.070311767578126,0.36081385612487793,0.17427806556224823,0.18347874283790588
1788772947713281000,10.080281005859375,0.3056432604789734,0.1557411253452301,0.15181322395801544
1788772947723249000,10.090248779296875,0.25793594121932983,0.07463375478982925,0.08747339248657227
1788772947733218000,10.100218017578126,0.21322625875473022,-0.03086790069937706,0.00571833923459053
1788772947743187000,10.11018701171875,0.18146033585071564,-0.14404425024986267,-0.06420108675956726
1788772947753155800,10.12015576171875,0.16862337291240692,-0.2180846631526947,-0.09120607376098633
1788772947763125000,10.130125,0.17735721170902252,-0.2306412011384964,-0.08029936254024506
1788772947773092900,10.1400927734375,0.18801145255565643,-0.20180688798427582,-0.050929225981235504
1788772947783061800,10.150061767578125,0.2042255699634552,-0.08926703035831451,0.0034061830956488848
1788772947793030700,10.16003076171875,0.2226458638906479,0.04258554428815842,0.0536738820374012
1788772947802999800,10.169999755859376,0.23812894523143768,0.1058713048696518,0.07901066541671753
1788772947812968700,10.17996875,0.24213220179080963,0.11878737062215805,0.07858242839574814
1788772947822936800,10.189936767578125,0.23834146559238434,0.10910438001155853,0.060572534799575806
1788772947832905700,10.19990576171875,0.2192298173904419,0.028868932276964188,0.022526614367961884
1788772947842875000,10.209875,0.1814664602279663,-0.07224783301353455,-0.03329457342624664
1788772947852843800,10.21984375,0.1412399411201477,-0.15561649203300476,-0.09606634825468063
1788772947862812700,10.229812744140625,0.11294040083885193,-0.2272651046514511,-0.13672855496406555
1788772947872781800,10.23978173828125,0.10669928044080734,-0.28508445620536804,-0.14341974258422852
1788772947882749700,10.249749755859375,0.10689156502485275,-0.34919872879981995,-0.1342315673828125
1788772947892718800,10.25971875,0.10957549512386322,-0.3276465833187103,-0.10246991366147995
1788772947902687700,10.269687744140626,0.10439857840538025,-0.22939564287662506,-0.06889224797487259
1788772947912657000,10.279656982421875,0.10609074681997299,-0.0932023823261261,-0.03434785455465317
1788772947922625800,10.289625732421875,0.09555421769618988,0.014428740367293358,-0.0062858592718839645
1788772947932594000,10.299593994140626,0.06298668682575226,0.07222039997577667,0.00959616806358099
1788772947942562800,10.309562744140624,0.01877049170434475,0.07487157732248306,0.02834402397274971
1788772947952531700,10.31953173828125,-0.028391694650053978,0.009253153577446938,0.05283045768737793
1788772947962500900,10.3295009765625,-0.07471178472042084,-0.10627051442861557,0.07745218276977539
1788772947972469800,10.3394697265625,-0.124021016061306,-0.2112877368927002,0.08588268607854843
1788772947982438400,10.3494384765625,-0.16260595619678497,-0.26889804005622864,0.09140714257955551
1788772947992406300,10.35940625,-0.18580661714076996,-0.28014883399009705,0.09489535540342331
1788772948002375400,10.36937548828125,-0.1838236302137375,-0.24803510308265686,0.10618849098682404
1788772948012344300,10.37934423828125,-0.1740298569202423,-0.15463005006313324,0.12419997900724411
1788772948022313500,10.3893134765625,-0.15524284541606903,-0.057075537741184235,0.13926281034946442
1788772948032282400,10.399282470703126,-0.13899357616901398,0.0036932716611772776,0.15218420326709747
1788772948042250200,10.409250244140624,-0.13258972764015198,0.06352491676807404,0.15962694585323334
1788772948052219100,10.41921923828125,-0.12759551405906677,0.1429441124200821,0.15826687216758728
1788772948062188000,10.42918798828125,-0.11702968180179596,0.15284600853919983,0.1280628889799118
1788772948072157200,10.4391572265625,-0.10518607497215271,0.0962892547249794,0.06970318406820297
1788772948082126300,10.449126220703125,-0.08799537271261215,0.01293657161295414,-0.0025398568250238895
1788772948092094200,10.45909423828125,-0.07782529294490814,-0.10266512632369995,-0.07027948647737503
1788772948102063000,10.46906298828125,-0.10139186680316925,-0.21784551441669464,-0.1408149152994156
1788772948112032300,10.4790322265625,-0.15571290254592896,-0.30705875158309937,-0.20673586428165436
1788772948122001200,10.489001220703125,-0.22948113083839417,-0.36168017983436584,-0.28064391016960144
1788772948131970000,10.498969970703126,-0.3045079708099365,-0.38871100544929504,-0.37592488527297974
1788772948141939200,10.508939208984375,-0.3660986125469208,-0.43099239468574524,-0.49331462383270264
1788772948151907300,10.5189072265625,-0.4105433225631714,-0.4305785596370697,-0.6125968098640442
1788772948161876200,10.528876220703125,-0.42399734258651733,-0.3609776198863983,-0.6801367402076721
1788772948171845000,10.53884521484375,-0.4150051772594452,-0.25423309206962585,-0.672448992729187
1788772948181814300,10.548814208984375,-0.38547950983047485,-0.15610678493976593,-0.5902446508407593
1788772948191783200,10.558783203125,-0.3499188721179962,-0.09918597340583801,-0.4610541760921478
1788772948201751300,10.568751220703126,-0.31856173276901245,-0.10571737587451935,-0.33467093110084534
1788772948211720200,10.57872021484375,-0.3078651428222656,-0.131912499666214,-0.24595624208450317
1788772948221689300,10.588689453125,-0.3056339621543884,-0.18748600780963898,-0.18813848495483398
1788772948231658200,10.598658203125,-0.30559027194976807,-0.2210647463798523,-0.13525661826133728
1788772948241627100,10.608627197265625,-0.30945318937301636,-0.22462645173072815,-0.07209257036447525
1788772948251595300,10.61859521484375,-0.3148183822631836,-0.22012650966644287,0.02159903571009636
1788772948261564200,10.628564208984375,-0.32758480310440063,-0.20421625673770905,0.17588287591934204
1788772948271533300,10.638533203125,-0.36103275418281555,-0.17862007021903992,0.38886305689811707
1788772948281502200,10.648502197265625,-0.41786062717437744,-0.1318323314189911,0.6214845776557922
1788772948291471400,10.658471435546875,-0.4804406464099884,-0.05463102087378502,0.8202592134475708
1788772948301440300,10.668440185546874,-0.5172756314277649,0.02767929807305336,0.9356225728988647
1788772948311408400,10.678408447265625,-0.527733325958252,0.08541343361139297,0.9485809803009033
1788772948321377300,10.688377197265625,-0.5127437114715576,0.11672475188970566,0.8857396841049194
1788772948331346200,10.69834619140625,-0.4797913730144501,0.06108199432492256,0.7424973249435425
1788772948341315300,10.7083154296875,-0.4436061978340149,-0.07618078589439392,0.5389471054077148
1788772948351284200,10.7182841796875,-0.42687729001045227,-0.22601662576198578,0.2877558767795563
1788772948361252400,10.72825244140625,-0.453195720911026,-0.35973021388053894,0.001933721243403852
1788772948371221200,10.73822119140625,-0.49662894010543823,-0.4229874610900879,-0.2716272473335266
1788772948381190400,10.7481904296875,-0.5291575789451599,-0.4255552887916565,-0.5156311392784119
1788772948391159300,10.7581591796875,-0.5360863208770752,-0.36948031187057495,-0.7159879207611084
1788772948401128200,10.768128173828124,-0.5042940378189087,-0.23424392938613892,-0.8211579918861389
1788772948411096300,10.778096435546875,-0.4477439522743225,-0.04586922004818916,-0.7815823554992676
1788772948421065200,10.788065185546875,-0.3839295506477356,0.13449549674987793,-0.5933371186256409
1788772948431034400,10.798034423828126,-0.32422760128974915,0.2669680416584015,-0.30694422125816345
1788772948441003300,10.808003173828125,-0.27158889174461365,0.31733402609825134,0.0018722022650763392
1788772948450972400,10.817972412109375,-0.21803991496562958,0.30395641922950745,0.28046122193336487
1788772948460941300,10.82794140625,-0.16332581639289856,0.22539611160755157,0.512717068195343
1788772948470909400,10.837909423828124,-0.13635225594043732,0.08956024050712585,0.6701237559318542
1788772948480878300,10.84787841796875,-0.12894919514656067,-0.07418181747198105,0.7437753677368164
1788772948490847200,10.85784716796875,-0.11531567573547363,-0.23244336247444153,0.7450230121612549
1788772948500816400,10.86781640625,-0.08167701959609985,-0.354423850774765,0.696511447429657
1788772948510785300,10.877785400390625,-0.013647635467350483,-0.42030832171440125,0.620377779006958
1788772948520753200,10.887753173828125,0.09668153524398804,-0.4409768581390381,0.5365151166915894
1788772948530722000,10.89772216796875,0.22130867838859558,-0.4040561318397522,0.4756200611591339
1788772948540691500,10.90769140625,0.32999736070632935,-0.3183971643447876,0.45208463072776794
1788772948550660400,10.917660400390625,0.39509138464927673,-0.25447675585746765,0.44084104895591736
1788772948560629200,10.927629150390626,0.43631526827812195,-0.21816082298755646,0.42571961879730225
1788772948570597000,10.93759716796875,0.4819623827934265,-0.20756810903549194,0.38600683212280273
1788772948580566300,10.947566162109375,0.5346346497535706,-0.20609430968761444,0.3085455894470215
1788772948590535200,10.95753515625,0.5907242894172668,-0.1986292004585266,0.21605932712554932
1788772948600504000,10.967504150390624,0.6468861103057861,-0.1839141696691513,0.1303473562002182
1788772948610473200,10.97747314453125,0.7257558703422546,-0.1720505952835083,0.0712110623717308
1788772948620442000,10.987442138671875,0.8210397958755493,-0.16052736341953278,0.053582802414894104
1788772948630410200,10.99741015625,0.9150709509849548,-0.09715371578931808,0.09164655953645706
1788772948640379100,11.007379150390625,0.9830851554870605,0.008723982609808445,0.19095183908939362
1788772948650348300,11.017348388671875,1.0036370754241943,0.10973954945802689,0.3179510831832886
1788772948660317200,11.027317138671876,0.9630964994430542,0.17047134041786194,0.4387318193912506
1788772948670286000,11.0372861328125,0.8987811803817749,0.18181267380714417,0.5284289717674255
1788772948680254200,11.047254150390625,0.837655246257782,0.12082069367170334,0.5598049759864807
1788772948690223000,11.05722314453125,0.7742477655410767,0.021871211007237434,0.5381298065185547
1788772948700192300,11.067192138671874,0.7220293283462524,-0.03538835048675537,0.4860607087612152
1788772948710161200,11.0771611328125,0.6765049695968628,-0.04216769337654114,0.4177706241607666
1788772948720130300,11.08713037109375,0.6395807862281799,0.0037348170299082994,0.37271392345428467
1788772948730098200,11.09709814453125,0.6047676801681519,0.0985950157046318,0.3574100732803345
1788772948740067300,11.1070673828125,0.5808508992195129,0.21685189008712769,0.36096110939979553
1788772948750036200,11.1170361328125,0.5794652104377747,0.3085874021053314,0.34413501620292664
1788772948760005000,11.127005126953126,0.5897876620292664,0.37654754519462585,0.29372137784957886
1788772948769974300,11.136974365234375,0.6062023043632507,0.43903541564941406,0.21050290763378143
1788772948779943200,11.146943115234375,0.6163026094436646,0.407471626996994,0.09019966423511505
1788772948789911300,11.156911376953126,0.611257791519165,0.3058326244354248,-0.0469462014734745
1788772948799880200,11.166880126953124,0.5824434161186218,0.16662706434726715,-0.16128583252429962
1788772948809849300,11.176849365234375,0.5280715227127075,0.02040673792362213,-0.24489444494247437
1788772948819818200,11.186818359375,0.4665844738483429,-0.07586254179477692,-0.30147117376327515
1788772948829787100,11.196787109375,0.4073864221572876,-0.1519021838903427,-0.3449925482273102
1788772948839755300,11.20675537109375,0.3449203670024872,-0.1841019243001938,-0.3586156666278839
1788772948849724400,11.216724365234375,0.28338855504989624,-0.14351855218410492,-0.305481880903244
1788772948859693300,11.226693359375,0.21910305321216583,-0.03350043669342995,-0.16647659242153168
1788772948869662200,11.236662109375,0.15784423053264618,0.13598845899105072,0.03215234354138374
1788772948879631400,11.24663134765625,0.11571142077445984,0.3003057539463043,0.259305864572525
1788772948889599200,11.25659912109375,0.0787520706653595,0.36586347222328186,0.4622669816017151
1788772948899568400,11.266568359375,0.010263023898005486,0.3501063585281372,0.5879114270210266
1788772948909537300,11.276537353515625,-0.07267580181360245,0.28862568736076355,0.6333191394805908
1788772948919506400,11.28650634765625,-0.18520288169384003,0.1641055792570114,0.5660700798034668
1788772948929475300,11.296475341796874,-0.30697670578956604,0.05254336819052696,0.4175538420677185
1788772948939443500,11.306443359375,-0.4307974576950073,-0.005007541738450527,0.2188708335161209
1788772948949412400,11.316412353515625,-0.5343472957611084,0.007552458439022303,0.011503257788717747
1788772948959381200,11.32638134765625,-0.593546986579895,0.06832019984722137,-0.1470552235841751
1788772948969350400,11.336350341796875,-0.5924057960510254,0.13458363711833954,-0.22113478183746338
1788772948979319600,11.346319580078125,-0.5469557642936707,0.20291423797607422,-0.21625959873199463
1788772948989288400,11.356288330078126,-0.4741973876953125,0.2591197192668915,-0.16847796738147736
1788772948999256300,11.36625634765625,-0.4012795090675354,0.2401721179485321,-0.1199631541967392
1788772949009225500,11.3762255859375,-0.33902865648269653,0.15896302461624146,-0.0867314338684082
1788772949019194400,11.3861943359375,-0.29930761456489563,0.06565011292695999,-0.0670085921883583
1788772949029163300,11.396163330078124,-0.2933778166770935,-0.03230227902531624,-0.06759236007928848
1788772949039132400,11.40613232421875,-0.31963738799095154,-0.12460983544588089,-0.09584050625562668
1788772949049100300,11.416100341796875,-0.3500269949436188,-0.19127781689167023,-0.14149801433086395
1788772949059069400,11.4260693359375,-0.3752084970474243,-0.24528005719184875,-0.18981467187404633
1788772949069038300,11.436038330078125,-0.3845740258693695,-0.2595386207103729,-0.23340663313865662
1788772949079007500,11.446007568359375,-0.3868699371814728,-0.2426600456237793,-0.26798778772354126
1788772949088976400,11.455976318359374,-0.3722105920314789,-0.1863775998353958,-0.27377641201019287
1788772949098944500,11.465944580078125,-0.3410819470882416,-0.09255523234605789,-0.23185640573501587
1788772949108913400,11.475913330078125,-0.29559969902038574,-0.0073351445607841015,-0.15631796419620514
1788772949118882300,11.48588232421875,-0.24710619449615479,0.04489157348871231,-0.046312104910612106
1788772949128851500,11.4958515625,-0.21369630098342896,0.05344831198453903,0.06285486370325089
1788772949138820400,11.5058203125,-0.20628073811531067,0.00723367789760232,0.1413494050502777
1788772949148788500,11.51578857421875,-0.20050673186779022,-0.07312614470720291,0.20557765662670135
1788772949158757400,11.52575732421875,-0.1906314641237259,-0.1559682935476303,0.26933640241622925
1788772949168726500,11.5357265625,-0.17536382377147675,-0.19978289306163788,0.3236292004585266
1788772949178695400,11.5456953125,-0.16529256105422974,-0.17002445459365845,0.3567386865615845
1788772949188664300,11.555664306640624,-0.17160850763320923,-0.09545088559389114,0.3604886829853058
1788772949198632400,11.565632568359375,-0.18911533057689667,-0.036912478506565094,0.3417685329914093
1788772949208601600,11.5756015625,-0.2096128761768341,-0.026440927758812904,0.30648481845855713
1788772949218570500,11.585570556640626,-0.21307019889354706,-0.025891518220305443,0.28050437569618225
1788772949228539400,11.595539306640624,-0.20025134086608887,-0.03981798514723778,0.27134814858436584
1788772949238508500,11.605508544921875,-0.20042283833026886,-0.04939844086766243,0.25134727358818054
1788772949248477400,11.6154775390625,-0.23208463191986084,-0.03527356684207916,0.2244943529367447
1788772949258445600,11.625445556640624,-0.2807296812534332,0.0018639464396983385,0.19998076558113098
1788772949268414500,11.63541455078125,-0.3207085132598877,-0.005003280472010374,0.20311184227466583
1788772949278383600,11.645383544921875,-0.3433603048324585,-0.01028885692358017,0.23992125689983368
1788772949288352500,11.6553525390625,-0.35249680280685425,-0.04454350098967552,0.2857273519039154
1788772949298320600,11.665320556640625,-0.34767913818359375,-0.09550228714942932,0.3219740390777588
1788772949308289500,11.67528955078125,-0.3229016363620758,-0.13619539141654968,0.34016183018684387
1788772949318258400,11.685258544921876,-0.29509156942367554,-0.14647145569324493,0.3439595103263855
1788772949328227600,11.6952275390625,-0.27919942140579224,-0.1235797256231308,0.33336758613586426
1788772949338196500,11.705196533203125,-0.29085686802864075,-0.09144868701696396,0.294158935546875
1788772949348164600,11.71516455078125,-0.3142665922641754,-0.08891096711158752,0.21625107526779175
1788772949358133500,11.725133544921874,-0.3328775465488434,-0.09763547778129578,0.14802567660808563
1788772949368102700,11.7351025390625,-0.3396182954311371,-0.0682794526219368,0.1173790916800499
1788772949378071600,11.745071533203125,-0.33373695611953735,-0.005030711181461811,0.12598828971385956
1788772949388040400,11.75504052734375,-0.32008957862854004,0.024398017674684525,0.14633511006832123
1788772949398009600,11.765009521484375,-0.30713677406311035,0.043410323560237885,0.17054563760757446
1788772949407977500,11.7749775390625,-0.3007281422615051,0.05209995433688164,0.18006616830825806
1788772949417946600,11.784946533203126,-0.3055812120437622,-0.010009224526584148,0.15743063390254974
1788772949427915500,11.79491552734375,-0.2994900345802307,-0.11855700612068176,0.09746530652046204
1788772949437884700,11.804884765625,-0.28038105368614197,-0.21385475993156433,0.00014940333494450897
1788772949447853600,11.814853515625,-0.25381335616111755,-0.3176381587982178,-0.13411305844783783
1788772949457821400,11.824821533203124,-0.2199813723564148,-0.3471110761165619,-0.28678303956985474
1788772949467790300,11.834790283203125,-0.16261793673038483,-0.33243680000305176,-0.43503081798553467
1788772949477759500,11.844759521484375,-0.07009918987751007,-0.27082961797714233,-0.5638700127601624
1788772949487728400,11.854728271484374,0.06964752078056335,-0.16045865416526794,-0.6290804743766785
1788772949497697300,11.864697265625,0.2461724877357483,-0.017121994867920876,-0.6271523237228394
1788772949507665400,11.87466552734375,0.4252908527851105,0.10535864531993866,-0.5735415816307068
1788772949517634300,11.88463427734375,0.5844914317131042,0.17883819341659546,-0.4827384352684021
1788772949527603500,11.894603515625,0.7171850204467773,0.2785235047340393,-0.3623209297657013
1788772949537572400,11.904572265625,0.8294947743415833,0.3384813666343689,-0.24874190986156464
1788772949547541500,11.91454150390625,0.9041903018951416,0.3187710642814636,-0.176296204328537
1788772949557509400,11.92450927734375,0.9451087117195129,0.238984614610672,-0.16484621167182922
1788772949567478500,11.934478515625,0.9704593420028687,0.09743467718362808,-0.20793482661247253
1788772949577447400,11.944447509765626,0.9787726998329163,-0.08479664474725723,-0.2960423231124878
1788772949587416300,11.954416259765624,1.0015133619308472,-0.1819692701101303,-0.3700025677680969
1788772949597385500,11.964385498046875,1.0143970251083374,-0.20703546702861786,-0.43547555804252625
1788772949607353300,11.974353271484375,1.0188889503479004,-0.1736772507429123,-0.47174835205078125
1788772949617322500,11.984322509765626,0.9565203785896301,-0.12450624257326126,-0.42069822549819946
1788772949627291400,11.99429150390625,0.9372302889823914,0.22937752306461334,-0.23604288697242737
1788772949637260500,12.004260498046875,0.9846318960189819,0.5153467059135437,0.008843825198709965
1788772949647229400,12.0142294921875,1.02302086353302,0.6417450904846191,0.22074995934963226
1788772949657197600,12.024197509765624,0.9960310459136963,0.6260287165641785,0.36173877120018005
1788772949667166500,12.03416650390625,0.9214723706245422,0.5188050866127014,0.41649550199508667
1788772949677135400,12.04413525390625,0.8085790872573853,0.3247077763080597,0.36594468355178833
1788772949687104500,12.0541044921875,0.6930373311042786,0.14759717881679535,0.22699879109859467
1788772949697073400,12.064073486328125,0.5926758646965027,0.07503296434879303,0.038062963634729385
1788772949707041500,12.07404150390625,0.5374181866645813,0.09220316261053085,-0.1600828766822815
1788772949717010400,12.084010498046876,0.5582811236381531,0.11807284504175186,-0.31883522868156433
1788772949726979600,12.0939794921875,0.6271193027496338,0.15434668958187103,-0.45109260082244873
1788772949736948500,12.103948486328125,0.7114147543907166,0.25412070751190186,-0.5611504316329956
1788772949746916600,12.11391650390625,0.7829962372779846,0.3640812933444977,-0.6387453079223633
1788772949756885500,12.123885498046874,0.8159195780754089,0.4794597923755646,-0.6783074140548706
1788772949766854400,12.1338544921875,0.7952172160148621,0.5747349262237549,-0.6841437220573425
1788772949776823600,12.143823486328126,0.7264062166213989,0.6121326088905334,-0.6575323343276978
1788772949786792400,12.15379248046875,0.6096425652503967,0.5633317828178406,-0.6160554885864258
1788772949796760600,12.163760498046875,0.4499935209751129,0.45643678307533264,-0.5802236795425415
1788772949806729500,12.1737294921875,0.2837126851081848,0.33899909257888794,-0.528928279876709
1788772949816698600,12.18369873046875,0.14250974357128143,0.2909732460975647,-0.4383464455604553
1788772949826667500,12.19366748046875,0.057311493903398514,0.35928040742874146,-0.29916247725486755
1788772949836636400,12.203636474609375,0.06500723212957382,0.49687209725379944,-0.1378212422132492
1788772949846604500,12.2136044921875,0.12579281628131866,0.5514748692512512,-0.0020013656467199326
1788772949856573700,12.22357373046875,0.21128295361995697,0.6051876544952393,0.10824098438024521
1788772949866542600,12.23354248046875,0.28330492973327637,0.6566129922866821,0.18933583796024323
1788772949876511500,12.243511474609376,0.29832303524017334,0.6715333461761475,0.21755363047122955
1788772949886480600,12.253480712890624,0.2533441185951233,0.6678787469863892,0.2038135826587677
1788772949896448300,12.2634482421875,0.16269251704216003,0.6017367243766785,0.14578117430210114
1788772949906417400,12.27341748046875,0.054489873349666595,0.5132864713668823,0.06277523189783096
1788772949916386300,12.28338623046875,-0.028185032308101654,0.45276695489883423,0.009613478556275368
1788772949926355500,12.29335546875,-0.0951630026102066,0.3902106285095215,0.002357163932174444
1788772949936324400,12.303324462890625,-0.20419521629810333,0.11129776388406754,-0.02449921704828739
1788772949946292500,12.31329248046875,-0.23719604313373566,0.28775081038475037,0.04621117189526558
1788772949956261400,12.323261474609374,-0.13095428049564362,0.579797089099884,0.16386589407920837
1788772949966230300,12.333230224609375,-0.012166118249297142,0.6665431261062622,0.23260395228862762
1788772949976199400,12.343199462890626,0.03332866355776787,0.7422094345092773,0.269133985042572
1788772949986168000,12.35316796875,0.040827855467796326,0.8731024265289307,0.2939719557762146
1788772949996136200,12.36313623046875,0.010794857516884804,0.9508912563323975,0.2922273278236389
