time,seconds_elapsed,z,y,x
1788772937715854000,0.08285400390625,-0.416014701128006,0.11982300877571106,0.6983981132507324
1788772937725823200,0.0928232421875,-0.3995877802371979,0.08535590767860413,0.7822889685630798
1788772937735792000,0.102792236328125,-0.40835994482040405,0.06537740677595139,0.8023583292961121
1788772937745760300,0.11276025390625,-0.42718055844306946,0.01661931537091732,0.7438967227935791
1788772937755729200,0.122729248046875,-0.47243669629096985,-0.09890035539865494,0.6061785221099854
1788772937765698300,0.1326982421875,-0.5093957781791687,-0.21671971678733826,0.4378383457660675
1788772937775666200,0.142666259765625,-0.5111500024795532,-0.23790888488292694,0.28723952174186707
1788772937785635300,0.15263525390625,-0.48064273595809937,-0.1998768448829651,0.18711398541927338
1788772937795604200,0.162604248046875,-0.4407491087913513,-0.12663938105106354,0.13997018337249756
1788772937805573000,0.172572998046875,-0.40579843521118164,-0.04421283304691315,0.1305861473083496
1788772937815541200,0.182541259765625,-0.39917701482772827,-0.031150560826063156,0.13318859040737152
1788772937825510100,0.19251025390625,-0.4172668159008026,-0.07057599723339081,0.12809981405735016
1788772937835479300,0.202479248046875,-0.44096019864082336,-0.10565324872732162,0.08677391707897186
1788772937845448200,0.2124482421875,-0.45603880286216736,-0.165053591132164,0.004679708741605282
1788772937855416300,0.222416259765625,-0.4579589366912842,-0.24883078038692474,-0.09780698269605637
1788772937865385200,0.23238525390625,-0.4300122559070587,-0.31573498249053955,-0.1793857365846634
1788772937875354400,0.242354248046875,-0.3828631341457367,-0.3128889203071594,-0.2213621586561203
1788772937885323300,0.2523232421875,-0.34915122389793396,-0.2706199884414673,-0.23512409627437592
1788772937895291400,0.26229150390625,-0.3301466405391693,-0.21366240084171295,-0.22013770043849945
1788772937905260300,0.27226025390625,-0.32468265295028687,-0.13670571148395538,-0.17645025253295898
1788772937915229400,0.2822294921875,-0.3058306872844696,-0.0579477921128273,-0.10550976544618607
1788772937925198300,0.2921982421875,-0.29235202074050903,-0.021654779091477394,-0.038086242973804474
1788772937935166200,0.302166259765625,-0.2691604197025299,-0.026754731312394142,0.03654618188738823
1788772937945135000,0.312135009765625,-0.2438255101442337,-0.023535069078207016,0.13562707602977753
1788772937955104000,0.32210400390625,-0.21465538442134857,-0.0030913143418729305,0.2697736620903015
1788772937965073200,0.3320732421875,-0.19818517565727234,-0.02384565956890583,0.4120193123817444
1788772937975040800,0.342040771484375,-0.19407965242862701,-0.08840254694223404,0.5324677228927612
1788772937985009700,0.352009765625,-0.18148532509803772,-0.15521927177906036,0.6269890069961548
1788772937994978600,0.361978515625,-0.16875354945659637,-0.23120778799057007,0.682945728302002
1788772938004947700,0.37194775390625,-0.1736796498298645,-0.2948818802833557,0.6949124336242676
1788772938014915600,0.38191552734375,-0.2017727941274643,-0.3017677366733551,0.6724681258201599
1788772938024884700,0.391884765625,-0.22557196021080017,-0.2543618977069855,0.6282828450202942
1788772938034853600,0.401853515625,-0.2455454021692276,-0.1753818392753601,0.5537153482437134
1788772938044822800,0.41182275390625,-0.2546795904636383,-0.0640484169125557,0.4621303677558899
1788772938054790700,0.421790771484375,-0.2680545151233673,0.0017606904730200768,0.34749165177345276
1788772938064759800,0.431759765625,-0.2795269191265106,-0.0011743286158889532,0.20723383128643036
1788772938074728700,0.441728759765625,-0.29702574014663696,-0.03797255828976631,0.05875115096569061
1788772938084697600,0.451697509765625,-0.32949817180633545,-0.09346240758895874,-0.08530645817518234
1788772938094665700,0.461665771484375,-0.3824141025543213,-0.19022729992866516,-0.2196379005908966
1788772938104635000,0.471634765625,-0.45509037375450134,-0.2928887605667114,-0.3340357840061188
1788772938114603800,0.481603759765625,-0.5369892716407776,-0.3598041534423828,-0.4410085678100586
1788772938124572700,0.49157275390625,-0.5942978262901306,-0.4336514174938202,-0.5556185245513916
1788772938134540800,0.501540771484375,-0.6181890368461609,-0.5173953771591187,-0.6913704872131348
1788772938144509700,0.511509765625,-0.6135562062263489,-0.5648131370544434,-0.8141556978225708
1788772938154478800,0.521478759765625,-0.571998655796051,-0.5313968062400818,-0.8696817755699158
1788772938164446700,0.53144677734375,-0.49387049674987793,-0.4330331087112427,-0.8193055391311646
1788772938174416000,0.541415771484375,-0.4092046320438385,-0.27284184098243713,-0.660195529460907
1788772938184384800,0.551384765625,-0.3276887834072113,-0.09831292182207108,-0.41708189249038696
1788772938194354000,0.56135400390625,-0.2621028423309326,0.013482315465807915,-0.16069592535495758
1788772938204322800,0.57132275390625,-0.24059230089187622,0.024509113281965256,0.03926702216267586
1788772938214290700,0.581290771484375,-0.24615991115570068,-0.0798143669962883,0.17015711963176727
1788772938224259600,0.591259521484375,-0.22595295310020447,-0.22215157747268677,0.25756368041038513
1788772938234228700,0.601228759765625,-0.1861615926027298,-0.34095147252082825,0.3493138551712036
1788772938244197600,0.61119775390625,-0.1396564245223999,-0.36628440022468567,0.47986724972724915
1788772938254165800,0.621165771484375,-0.1076207384467125,-0.31231439113616943,0.6389636397361755
1788772938264134700,0.631134765625,-0.1085742712020874,-0.2609032988548279,0.7849452495574951
1788772938274103600,0.641103515625,-0.13204576075077057,-0.26033151149749756,0.8983040452003479
1788772938284071700,0.65107177734375,-0.15163111686706543,-0.30438870191574097,0.9811062812805176
1788772938294040600,0.66104052734375,-0.160925030708313,-0.3950949013233185,1.025447130203247
1788772938304009700,0.671009765625,-0.15085719525814056,-0.4873236417770386,1.0238494873046875
1788772938313978600,0.680978515625,-0.12244419008493423,-0.5643683671951294,0.9841601252555847
1788772938323947800,0.69094775390625,-0.07656048983335495,-0.6072163581848145,0.9392837882041931
1788772938333915600,0.70091552734375,-0.030508844181895256,-0.6206003427505493,0.8921809792518616
1788772938343884800,0.710884765625,0.011214536614716053,-0.6396395564079285,0.8510419130325317
1788772938353853700,0.720853759765625,0.053426437079906464,-0.6335492134094238,0.8129304647445679
1788772938363821800,0.73082177734375,0.07060457766056061,-0.6243606805801392,0.7411353588104248
1788772938373790700,0.740790771484375,0.05653003603219986,-0.6555069088935852,0.6143443584442139
1788772938383759600,0.750759521484375,0.03362853080034256,-0.7074547410011292,0.4291403293609619
1788772938393728800,0.760728759765625,0.0028120316565036774,-0.7580254673957825,0.21739745140075684
1788772938403697000,0.77069677734375,-0.035044316202402115,-0.7431424856185913,0.008948497474193573
1788772938413665800,0.780665771484375,-0.06269910931587219,-0.7008283734321594,-0.17889277637004852
1788772938423634700,0.790634765625,-0.08205219358205795,-0.6535771489143372,-0.34050384163856506
1788772938433603800,0.800603759765625,-0.08907308429479599,-0.5491018891334534,-0.45340535044670105
1788772938443571700,0.81057177734375,-0.08806296437978745,-0.4281286597251892,-0.5013157725334167
1788772938453540900,0.820540771484375,-0.08527836203575134,-0.33339762687683105,-0.48457545042037964
1788772938463509800,0.830509765625,-0.07057012617588043,-0.26175668835639954,-0.39766907691955566
1788772938473479000,0.84047900390625,-0.055367469787597656,-0.23099663853645325,-0.2370770126581192
1788772938483446800,0.85044677734375,-0.058267850428819656,-0.25378987193107605,-0.016519540920853615
1788772938493416000,0.860416015625,-0.09485329687595367,-0.29333171248435974,0.22292527556419373
1788772938503384800,0.870384765625,-0.167991504073143,-0.3309267461299896,0.44538575410842896
1788772938513353700,0.880353759765625,-0.2603166401386261,-0.33389991521835327,0.601915717124939
1788772938523321600,0.890321533203125,-0.3358124792575836,-0.31509196758270264,0.6697912216186523
1788772938533290800,0.900290771484375,-0.38901472091674805,-0.3086593449115753,0.6616041660308838
1788772938543259600,0.910259765625,-0.4059945344924927,-0.33654871582984924,0.5808994174003601
1788772938553228500,0.920228515625,-0.4035249948501587,-0.415202796459198,0.4494183659553528
1788772938563196700,0.93019677734375,-0.39318934082984924,-0.530984103679657,0.28470832109451294
1788772938573165600,0.94016552734375,-0.37807697057724,-0.6200007796287537,0.09829983860254288
1788772938583134700,0.950134765625,-0.3714877665042877,-0.6419526934623718,-0.07812179625034332
1788772938593103600,0.960103515625,-0.3916606903076172,-0.5954113006591797,-0.20590932667255402
1788772938603071700,0.97007177734375,-0.42820605635643005,-0.48739802837371826,-0.2679113745689392
1788772938613040600,0.98004052734375,-0.47285208106040955,-0.3580158054828644,-0.2583024203777313
1788772938623009800,0.990009765625,-0.5110980272293091,-0.2842230498790741,-0.20282401144504547
1788772938632978700,0.999978759765625,-0.5251965522766113,-0.2660224735736847,-0.1116698607802391
1788772938642946800,1.00994677734375,-0.5077319145202637,-0.2785031497478485,-0.00750694377347827
1788772938652915700,1.019915771484375,-0.45702189207077026,-0.35450178384780884,0.08894023299217224
1788772938662884600,1.029884521484375,-0.3804878294467926,-0.4874315559864044,0.1633310765028
1788772938672853800,1.039853759765625,-0.3004281222820282,-0.6180474162101746,0.221833273768425
1788772938682821600,1.049821533203125,-0.2555790841579437,-0.7147637009620667,0.25933340191841125
1788772938692790800,1.059790771484375,-0.23164579272270203,-0.7669731378555298,0.2755967974662781
1788772938702759700,1.069759765625,-0.22345978021621704,-0.7765123844146729,0.27712342143058777
1788772938712728800,1.079728759765625,-0.236017644405365,-0.7538398504257202,0.2646563649177551
1788772938722696700,1.08969677734375,-0.27576345205307007,-0.6940986514091492,0.24124948680400848
1788772938732665900,1.099665771484375,-0.3196773827075958,-0.6212899684906006,0.22286276519298553
1788772938742634800,1.109634765625,-0.34537020325660706,-0.5633761882781982,0.21168185770511627
1788772938752603600,1.119603759765625,-0.35218921303749084,-0.5196641683578491,0.20760509371757507
1788772938762571800,1.12957177734375,-0.3363102376461029,-0.5215011239051819,0.22255685925483704
1788772938772541000,1.139541015625,-0.2934250831604004,-0.5556556582450867,0.2682681679725647
1788772938782509800,1.149509765625,-0.25628331303596497,-0.6398637294769287,0.28275710344314575
1788772938792478700,1.159478759765625,-0.2238084375858307,-0.7660829424858093,0.2090652734041214
1788772938802446600,1.169446533203125,-0.18403877317905426,-0.8591906428337097,0.07903685420751572
1788772938812415500,1.17941552734375,-0.12489556521177292,-0.8935028314590454,-0.04712001234292984
1788772938822385000,1.189385009765625,-0.08649474382400513,-0.8204488158226013,-0.09979468584060669
1788772938832353800,1.199353759765625,-0.08044244349002838,-0.6904255747795105,-0.06140388175845146
1788772938842321700,1.20932177734375,-0.08048121631145477,-0.593553900718689,0.027090054005384445
1788772938852290600,1.21929052734375,-0.07962261140346527,-0.5813047289848328,0.127660870552063
1788772938862259700,1.229259765625,-0.06889907270669937,-0.6177820563316345,0.21457824110984802
1788772938872228600,1.239228515625,-0.07203628122806549,-0.6655546426773071,0.24701660871505737
1788772938882196700,1.24919677734375,-0.08155689388513565,-0.7434772849082947,0.2229481190443039
1788772938892165600,1.25916552734375,-0.12043105810880661,-0.8304702043533325,0.13372023403644562
1788772938902134800,1.269134765625,-0.17896856367588043,-0.8872537016868591,0.002791084349155426
1788772938912103700,1.279103759765625,-0.23642785847187042,-0.9103688597679138,-0.14153119921684265
1788772938922071800,1.28907177734375,-0.30553901195526123,-0.9029273390769958,-0.29630279541015625
1788772938932040700,1.299040771484375,-0.41746795177459717,-0.8581369519233704,-0.471570760011673
1788772938942009600,1.309009521484375,-0.5264951586723328,-0.7477413415908813,-0.6355816721916199
1788772938951978800,1.318978759765625,-0.6396347880363464,-0.5506722331047058,-0.7757472991943359
1788772938961946600,1.328946533203125,-0.7576754689216614,-0.27814191579818726,-0.86407071352005
1788772938971916800,1.338916748046875,-0.8557866215705872,0.038961995393037796,-0.8749657273292542
1788772938981885700,1.3488857421875,-0.9174962639808655,0.3390531539916992,-0.8246679902076721
1788772938991854600,1.3588544921875,-0.9486286044120789,0.5512264370918274,-0.7341769933700562
1788772939001822700,1.36882275390625,-0.9427858591079712,0.6190026998519897,-0.6252570748329163
1788772939011791600,1.37879150390625,-0.8843531608581543,0.594693660736084,-0.5039013624191284
1788772939021760800,1.3887607421875,-0.7990425229072571,0.5145995020866394,-0.37166306376457214
1788772939031729700,1.398729736328125,-0.7349897623062134,0.41062334179878235,-0.2462628036737442
1788772939041697500,1.408697509765625,-0.6985502243041992,0.2944691777229309,-0.126838818192482
1788772939051666400,1.41866650390625,-0.6579005122184753,0.2117828130722046,-0.007274598814547062
1788772939061635600,1.428635498046875,-0.6013384461402893,0.18193036317825317,0.09867953509092331
1788772939071604500,1.4386044921875,-0.5216012597084045,0.20362208783626556,0.19177432358264923
1788772939081572600,1.448572509765625,-0.4222460091114044,0.25877392292022705,0.2716013491153717
1788772939091541500,1.45854150390625,-0.31558799743652344,0.33431369066238403,0.3345952332019806
1788772939101510400,1.468510498046875,-0.20957286655902863,0.40140098333358765,0.3706529438495636
1788772939111479600,1.4784794921875,-0.12744364142417908,0.4528988003730774,0.375628799200058
1788772939121447700,1.48844775390625,-0.07234124839305878,0.4644438624382019,0.3396689295768738
1788772939131416600,1.49841650390625,-0.044707220047712326,0.395172655582428,0.2695372402667999
1788772939141385500,1.508385498046875,-0.0102700125426054,0.27884894609451294,0.20066528022289276
1788772939151354600,1.518354736328125,0.02945183403789997,0.16142351925373077,0.14641189575195312
1788772939161322500,1.528322509765625,0.07055838406085968,0.0729951560497284,0.10901174694299698
1788772939171291600,1.538291748046875,0.11609764397144318,0.048579826951026917,0.09201518446207047
1788772939181260500,1.548260498046875,0.1625891476869583,0.020675860345363617,0.09131414443254471
1788772939191229700,1.558229736328125,0.206152081489563,-0.017906950786709785,0.11241383850574493
1788772939201197600,1.568197509765625,0.2493278831243515,-0.02787831798195839,0.14865276217460632
1788772939211166700,1.578166748046875,0.2925872206687927,-0.004460875876247883,0.1997673362493515
1788772939221135600,1.588135498046875,0.3363105058670044,0.03813793510198593,0.24513699114322662
1788772939231104500,1.5981044921875,0.3775634169578552,0.05768020451068878,0.2725081741809845
1788772939241072600,1.60807275390625,0.4125213921070099,0.062470436096191406,0.27817991375923157
1788772939251041500,1.61804150390625,0.430727481842041,0.015277192927896976,0.25949347019195557
1788772939261010700,1.6280107421875,0.4411579370498657,-0.08883271366357803,0.2342403382062912
1788772939270979600,1.6379794921875,0.4497207999229431,-0.18838806450366974,0.22147926688194275
1788772939280947700,1.64794775390625,0.44201165437698364,-0.2809962034225464,0.22961778938770294
1788772939290916600,1.65791650390625,0.43345439434051514,-0.345059335231781,0.25495481491088867
1788772939300885800,1.6678857421875,0.4106869697570801,-0.3759329617023468,0.2929803729057312
1788772939310854700,1.677854736328125,0.3656822144985199,-0.3537198007106781,0.33217304944992065
1788772939320822500,1.687822509765625,0.2916940748691559,-0.25987663865089417,0.3702911138534546
1788772939330791700,1.697791748046875,0.20905032753944397,-0.1578538715839386,0.3879811465740204
1788772939340760800,1.7077607421875,0.14071300625801086,-0.10669403523206711,0.3775285482406616
1788772939350729700,1.717729736328125,0.11062435060739517,-0.06298410892486572,0.36836913228034973
1788772939360697600,1.727697509765625,0.11315843462944031,-0.057181067764759064,0.36841094493865967
1788772939370666500,1.73766650390625,0.13052143156528473,-0.09746484458446503,0.37701934576034546
1788772939380635400,1.747635498046875,0.170799121260643,-0.14046736061573029,0.4081606864929199
1788772939390604500,1.7576044921875,0.21815890073776245,-0.17208628356456757,0.4614686369895935
1788772939400572400,1.767572509765625,0.26082757115364075,-0.17402291297912598,0.5339409708976746
1788772939410541600,1.77754150390625,0.2919226586818695,-0.14022232592105865,0.6029650568962097
1788772939420510500,1.787510498046875,0.3203360140323639,-0.16855834424495697,0.6295984983444214
1788772939430479600,1.797479736328125,0.3611542880535126,-0.27310845255851746,0.6133034229278564
1788772939440448500,1.807448486328125,0.4100334942340851,-0.42601117491722107,0.5781592726707458
1788772939450416600,1.817416748046875,0.43945688009262085,-0.6345922946929932,0.5159839987754822
1788772939460385500,1.827385498046875,0.451170414686203,-0.8043372631072998,0.45363736152648926
1788772939470354400,1.8373544921875,0.42837271094322205,-0.9138096570968628,0.3874588906764984
1788772939480323600,1.847323486328125,0.36028751730918884,-0.9105567932128906,0.29075756669044495
1788772939490291700,1.857291748046875,0.2785329818725586,-0.8107276558876038,0.19281157851219177
1788772939500260600,1.867260498046875,0.20094695687294006,-0.6451936364173889,0.1264682561159134
1788772939510229500,1.8772294921875,0.14278964698314667,-0.422791451215744,0.10231445729732513
1788772939520198700,1.88719873046875,0.11806856095790863,-0.2104562371969223,0.10906074196100235
1788772939530166500,1.89716650390625,0.12400234490633011,-0.10008738934993744,0.10923890769481659
1788772939540135700,1.9071357421875,0.16191831231117249,-0.09451936185359955,0.07268791645765305
1788772939550104600,1.9171044921875,0.2129005342721939,-0.1316038817167282,-0.012817658483982086
1788772939560073700,1.92707373046875,0.2559349536895752,-0.17269036173820496,-0.13763386011123657
1788772939570041600,1.93704150390625,0.2934975028038025,-0.20452764630317688,-0.27411261200904846
1788772939580010800,1.9470107421875,0.3218773603439331,-0.24884474277496338,-0.41647857427597046
1788772939589979600,1.956979736328125,0.34083878993988037,-0.29906371235847473,-0.5360100269317627
1788772939599948500,1.966948486328125,0.34003767371177673,-0.30894434452056885,-0.6161290407180786
1788772939609916700,1.976916748046875,0.33517980575561523,-0.29177653789520264,-0.6340750455856323
1788772939619885600,1.986885498046875,0.3287171721458435,-0.22437232732772827,-0.569588303565979
1788772939629854700,1.996854736328125,0.32116711139678955,-0.11658009141683578,-0.43835708498954773
1788772939639823600,2.00682373046875,0.3221493661403656,-0.01591547206044197,-0.27081021666526794
1788772939649791500,2.01679150390625,0.33249813318252563,0.05394403636455536,-0.09308123588562012
1788772939659760400,2.026760498046875,0.3480609059333801,0.07805118709802628,0.06263729929924011
1788772939669729800,2.036729736328125,0.3614470064640045,0.03818792849779129,0.16954857110977173
1788772939679698700,2.04669873046875,0.37622880935668945,-0.03318735957145691,0.2173844575881958
1788772939689666600,2.05666650390625,0.39816179871559143,-0.09601186215877533,0.2203589379787445
1788772939699635500,2.066635498046875,0.4005661904811859,-0.13480664789676666,0.18979540467262268
1788772939709604600,2.0766044921875,0.36767667531967163,-0.09955384582281113,0.14556670188903809
1788772939719573500,2.086573486328125,0.298613578081131,0.017308533191680908,0.09828977286815643
1788772939729541600,2.096541748046875,0.20744557678699493,0.16928741335868835,0.05639931559562683
1788772939739510500,2.106510498046875,0.10977409034967422,0.3148851692676544,0.02890744060277939
1788772939749479400,2.1164794921875,0.024321503937244415,0.4145931303501129,0.019261203706264496
1788772939759448600,2.126448486328125,-0.03705171123147011,0.45244547724723816,0.03921329602599144
1788772939769416400,2.13641650390625,-0.06542369723320007,0.4169157147407532,0.0734623521566391
1788772939779385600,2.146385498046875,-0.07999551296234131,0.3319858908653259,0.1048346683382988
1788772939789354500,2.1563544921875,-0.06104419752955437,0.1713714301586151,0.1309634894132614
1788772939799323600,2.16632373046875,-0.026732780039310455,-0.03260696306824684,0.1356104016304016
1788772939809291500,2.17629150390625,-0.003169131465256214,-0.21247632801532745,0.09639773517847061
1788772939819260700,2.1862607421875,0.007791369687765837,-0.3189889192581177,0.013030128553509712
1788772939829229600,2.1962294921875,-0.0020056008361279964,-0.3199212849140167,-0.08507060259580612
1788772939839198500,2.206198486328125,-0.032254744321107864,-0.24360035359859467,-0.18881437182426453
1788772939849166600,2.21616650390625,-0.074911929666996,-0.1517154425382614,-0.29263636469841003
1788772939859135700,2.2261357421875,-0.11301730573177338,-0.046674519777297974,-0.39011308550834656
1788772939869104600,2.236104736328125,-0.16133449971675873,0.06291855126619339,-0.47645303606987
1788772939879073500,2.246073486328125,-0.21625089645385742,0.15967321395874023,-0.532413899898529
1788772939889041700,2.256041748046875,-0.2676008939743042,0.20900081098079681,-0.5675745606422424
1788772939899010600,2.266010498046875,-0.2845478653907776,0.1999019980430603,-0.5831528902053833
1788772939908979700,2.275979736328125,-0.25930774211883545,0.14854054152965546,-0.5630926489830017
1788772939918948600,2.285948486328125,-0.22620262205600739,0.07022556662559509,-0.5077207684516907
1788772939928917800,2.295917724609375,-0.20484966039657593,-0.02650950290262699,-0.4087044596672058
1788772939938885600,2.3058857421875,-0.20382016897201538,-0.13288335502147675,-0.28955888748168945
1788772939948854800,2.315854736328125,-0.22469721734523773,-0.22021879255771637,-0.18057966232299805
1788772939958823700,2.32582373046875,-0.2602778673171997,-0.2651372253894806,-0.09349460899829865
1788772939968792600,2.33579248046875,-0.3072997033596039,-0.2589073181152344,-0.04286046326160431
1788772939978760400,2.345760498046875,-0.3647257685661316,-0.22672869265079498,-0.041404400020837784
1788772939988729600,2.3557294921875,-0.4092562198638916,-0.18549948930740356,-0.08435665816068649
1788772939998698800,2.36569873046875,-0.43693551421165466,-0.14283835887908936,-0.14426709711551666
1788772940008667600,2.375667724609375,-0.4546242356300354,-0.12530116736888885,-0.20577040314674377
1788772940018635500,2.385635498046875,-0.46331819891929626,-0.13018950819969177,-0.25330883264541626
1788772940028604400,2.3956044921875,-0.44693124294281006,-0.14724598824977875,-0.2683261036872864
1788772940038573600,2.405573486328125,-0.40866997838020325,-0.14887864887714386,-0.2608472406864166
1788772940048542500,2.41554248046875,-0.3849281668663025,-0.10714052617549896,-0.24809260666370392
1788772940058510600,2.425510498046875,-0.3768663704395294,-0.0437590554356575,-0.2492290735244751
1788772940068479500,2.4354794921875,-0.3687288165092468,0.026548396795988083,-0.27208778262138367
1788772940078448600,2.44544873046875,-0.3544524610042572,0.1160009577870369,-0.323346883058548
1788772940088417500,2.45541748046875,-0.36212530732154846,0.21446654200553894,-0.3939771056175232
1788772940098385700,2.4653857421875,-0.338168740272522,0.24090737104415894,-0.4721224009990692
1788772940108354600,2.4753544921875,-0.2601626217365265,0.21195241808891296,-0.524783194065094
1788772940118323500,2.485323486328125,-0.1565348505973816,0.15938206017017365,-0.5397316813468933
1788772940128292600,2.495292724609375,-0.06949768215417862,0.09412049502134323,-0.513221025466919
1788772940138260500,2.505260498046875,-0.020989058539271355,0.06616915762424469,-0.44610151648521423
1788772940148229600,2.515229736328125,-0.02438219077885151,0.06401865184307098,-0.36760643124580383
1788772940158198500,2.525198486328125,-0.04722345992922783,0.06365280598402023,-0.305936723947525
1788772940168167700,2.535167724609375,-0.06515186280012131,0.04054642468690872,-0.2655014097690582
1788772940178135600,2.545135498046875,-0.06706906110048294,-0.008825767785310745,-0.23374444246292114
1788772940188104700,2.555104736328125,-0.0604415237903595,-0.040525637567043304,-0.20236121118068695
1788772940198073600,2.565073486328125,-0.029274217784404755,-0.06396570056676865,-0.15770110487937927
1788772940208042500,2.57504248046875,0.017191018909215927,-0.05048024654388428,-0.10967445373535156
1788772940218011600,2.58501171875,0.06350672990083694,-0.004314770456403494,-0.0796399712562561
1788772940227979800,2.594979736328125,0.10561876744031906,0.03241821005940437,-0.06961503624916077
1788772940237948700,2.60494873046875,0.1451226770877838,0.05254240706562996,-0.0754644125699997
1788772940247917600,2.61491748046875,0.1659427285194397,0.04735963046550751,-0.09845894575119019
1788772940257886700,2.62488671875,0.19322963058948517,0.01756802387535572,-0.1159278005361557
1788772940267854600,2.6348544921875,0.22208471596240997,-0.002951632719486952,-0.11601249128580093
1788772940277823700,2.64482373046875,0.230662539601326,0.013250568881630898,-0.10641290992498398
1788772940287792600,2.654792724609375,0.2177235633134842,0.018340669572353363,-0.10525044053792953
1788772940297761800,2.66476171875,0.21384009718894958,-0.01566236838698387,-0.1048722192645073
1788772940307729400,2.6747294921875,0.23137755692005157,-0.04406711086630821,-0.09782443195581436
1788772940317698600,2.684698486328125,0.25982290506362915,-0.046777620911598206,-0.07321368902921677
1788772940327667500,2.69466748046875,0.28759193420410156,-0.04079030454158783,-0.03497149050235748
1788772940337636600,2.70463671875,0.3121291399002075,-0.02908002957701683,0.0013944231905043125
1788772940347604500,2.7146044921875,0.337191641330719,0.019886713474988937,0.006496773567050695
1788772940357573600,2.72457373046875,0.3755362033843994,0.07090593129396439,-0.01686418056488037
1788772940367542500,2.73454248046875,0.412697970867157,0.12065164744853973,-0.044032152742147446
1788772940377511400,2.744511474609375,0.4248730540275574,0.17446038126945496,-0.06684383004903793
1788772940387479600,2.7544794921875,0.41252076625823975,0.24245594441890717,-0.08548648655414581
1788772940397448400,2.764448486328125,0.3892636001110077,0.31425461173057556,-0.10928487777709961
1788772940407417600,2.77441748046875,0.3632966876029968,0.35244619846343994,-0.13389301300048828
1788772940417386500,2.784386474609375,0.3368104100227356,0.3376590311527252,-0.16081413626670837
1788772940427354600,2.794354736328125,0.33090245723724365,0.2972024381160736,-0.18166083097457886
1788772940437323500,2.804323486328125,0.3335655927658081,0.22238211333751678,-0.18055574595928192
1788772940447292700,2.814292724609375,0.34352928400039673,0.15310636162757874,-0.15060025453567505
1788772940457261600,2.824261474609375,0.3517327904701233,0.12458255887031555,-0.09078270196914673
1788772940467229700,2.834229736328125,0.3458317518234253,0.14128537476062775,-0.021085109561681747
1788772940477198600,2.844198486328125,0.32717007398605347,0.16387461125850677,0.04119499772787094
1788772940487167500,2.85416748046875,0.3007344603538513,0.17252562940120697,0.083303302526474
1788772940497136600,2.86413671875,0.28141114115715027,0.16885273158550262,0.10599356144666672
1788772940507105500,2.87410546875,0.2767239511013031,0.15942753851413727,0.11467520147562027
1788772940517073700,2.88407373046875,0.28501561284065247,0.1660115271806717,0.11677151918411255
1788772940527042600,2.89404248046875,0.3126474916934967,0.159896120429039,0.12205363810062408
1788772940537011700,2.90401171875,0.3562126159667969,0.12256671488285065,0.12897160649299622
1788772940546980600,2.913980712890625,0.39863330125808716,0.08739781379699707,0.15706822276115417
1788772940556948700,2.92394873046875,0.45141860842704773,0.10936558246612549,0.22219327092170715
1788772940566917600,2.933917724609375,0.49650031328201294,0.16350950300693512,0.3015354871749878
1788772940576886500,2.943886474609375,0.5251558423042297,0.19502899050712585,0.373146116733551
1788772940586855700,2.953855712890625,0.5404160022735596,0.15496014058589935,0.4167197048664093
1788772940596823800,2.96382373046875,0.5696109533309937,0.0626758486032486,0.44290274381637573
1788772940606792700,2.973792724609375,0.597152054309845,-0.012676963582634926,0.47288060188293457
1788772940616761600,2.98376171875,0.6126211881637573,-0.04626425728201866,0.5164324045181274
1788772940626730800,2.993730712890625,0.6128416657447815,-0.04186871275305748,0.5578136444091797
1788772940636698400,3.003698486328125,0.6059052348136902,-0.030353210866451263,0.5940427780151367
1788772940646667500,3.01366748046875,0.5858668088912964,-0.024715032428503036,0.6253762245178223
1788772940656636400,3.023636474609375,0.5549352169036865,-0.02733643725514412,0.645334005355835
1788772940666605800,3.033605712890625,0.519858181476593,-0.04254867881536484,0.6487724184989929
1788772940676573400,3.043573486328125,0.499348521232605,-0.05118539184331894,0.6513479948043823
1788772940686542600,3.05354248046875,0.4888937771320343,-0.02490345388650894,0.6662423014640808
1788772940696511500,3.063511474609375,0.47582030296325684,-0.010394031181931496,0.6720508933067322
1788772940706480400,3.07348046875,0.4718894958496094,-0.054443247616291046,0.6710711121559143
1788772940716448500,3.083448486328125,0.4824909567832947,-0.10880504548549652,0.6758672595024109
1788772940726417700,3.093417724609375,0.47991806268692017,-0.1441800743341446,0.679591953754425
1788772940736386600,3.103386474609375,0.45416390895843506,-0.13411422073841095,0.6699708104133606
1788772940746355500,3.11335546875,0.4215966463088989,-0.09409862756729126,0.6310993432998657
1788772940756323600,3.123323486328125,0.3798806071281433,-0.057387594133615494,0.5631515383720398
1788772940766292500,3.13329248046875,0.3266347050666809,-0.0038620540872216225,0.46577438712120056
1788772940776261600,3.14326171875,0.2541101574897766,0.07837069779634476,0.3370574712753296
1788772940786230500,3.15323046875,0.18577983975410461,0.15926526486873627,0.17167171835899353
1788772940796199700,3.16319970703125,0.1383868008852005,0.20775838196277618,-0.024791667237877846
1788772940806167600,3.17316748046875,0.1185435950756073,0.23110496997833252,-0.23135869204998016
1788772940816136700,3.18313671875,0.1325921267271042,0.21997606754302979,-0.4134570360183716
1788772940826105600,3.193105712890625,0.1563030630350113,0.16528218984603882,-0.5468949675559998
1788772940836074500,3.203074462890625,0.17939110100269318,0.10980087518692017,-0.6078502535820007
1788772940846042600,3.213042724609375,0.1727108359336853,0.04493853077292442,-0.6081945896148682
1788772940856011500,3.223011474609375,0.1484757959842682,0.005376020446419716,-0.5783129930496216
1788772940865980700,3.232980712890625,0.12533451616764069,0.038584042340517044,-0.5265198349952698
1788772940875949600,3.242949462890625,0.10518113523721695,0.08986854553222656,-0.4795248806476593
1788772940885917700,3.252917724609375,0.09174442291259766,0.14039190113544464,-0.42641717195510864
1788772940895886600,3.262886474609375,0.08565456420183182,0.20325323939323425,-0.3553939759731293
1788772940905855700,3.272855712890625,0.08490115404129028,0.2543664872646332,-0.2692846655845642
1788772940915824600,3.28282470703125,0.08512784540653229,0.27953171730041504,-0.1831611692905426
1788772940925792800,3.292792724609375,0.08123696595430374,0.2635684609413147,-0.10751326382160187
1788772940935761700,3.30276171875,0.07745001465082169,0.21377155184745789,-0.04712522402405739
1788772940945730600,3.31273046875,0.06736622005701065,0.14178258180618286,-0.004756995942443609
1788772940955699700,3.32269970703125,0.06666653603315353,0.07127050310373306,0.01833084039390087
1788772940965667600,3.33266748046875,0.07525895535945892,0.02557651698589325,0.02091064490377903
1788772940975635700,3.3426357421875,0.09156162291765213,0.0013711712090298533,-0.0028946874663233757
1788772940985604900,3.35260498046875,0.11514284461736679,-0.007963208481669426,-0.036807380616664886
1788772940995573800,3.36257373046875,0.1231476292014122,0.034003570675849915,-0.06516460329294205
1788772941005542000,3.3725419921875,0.11851239204406738,0.12575745582580566,-0.09407801181077957
1788772941015510800,3.3825107421875,0.12419075518846512,0.24644547700881958,-0.12692458927631378
1788772941025479700,3.392479736328125,0.12796631455421448,0.3812541365623474,-0.1636815369129181
1788772941035448800,3.40244873046875,0.141020268201828,0.49608394503593445,-0.20855994522571564
1788772941045416700,3.412416748046875,0.16607129573822021,0.5916488170623779,-0.27068108320236206
1788772941055385900,3.4223857421875,0.19499054551124573,0.6591628193855286,-0.34113895893096924
1788772941065354800,3.432354736328125,0.22120563685894012,0.6521304249763489,-0.4005112051963806
1788772941075324000,3.442323974609375,0.22540798783302307,0.5644832849502563,-0.45193564891815186
1788772941085291800,3.452291748046875,0.21378488838672638,0.46180084347724915,-0.4720113277435303
1788772941095261000,3.462260986328125,0.2000015825033188,0.38850969076156616,-0.455068975687027
1788772941105229800,3.472229736328125,0.187431201338768,0.33495593070983887,-0.39718011021614075
1788772941115199000,3.482198974609375,0.18321070075035095,0.3427693843841553,-0.29579460620880127
1788772941125166800,3.492166748046875,0.19203242659568787,0.4073851406574249,-0.1728239506483078
1788772941135136000,3.502135986328125,0.21845540404319763,0.4671706259250641,-0.05447166785597801
1788772941145105000,3.51210498046875,0.2572728395462036,0.47372308373451233,0.04366421699523926
1788772941155073800,3.52207373046875,0.29891297221183777,0.4083727300167084,0.11293152719736099
1788772941165042000,3.5320419921875,0.3310195207595825,0.34640657901763916,0.16294249892234802
1788772941175010800,3.5420107421875,0.3518844544887543,0.2652815580368042,0.18914756178855896
1788772941184980000,3.55197998046875,0.3602648973464966,0.18543358147144318,0.20194324851036072
1788772941194948900,3.561948974609375,0.3546874523162842,0.1137622520327568,0.2025177776813507
1788772941204917000,3.5719169921875,0.33931460976600647,0.061637528240680695,0.175337016582489
1788772941214886000,3.581885986328125,0.31757500767707825,0.049786217510700226,0.10940831899642944
1788772941224855000,3.59185498046875,0.29675787687301636,0.07461193948984146,0.03060537949204445
1788772941234824000,3.601823974609375,0.2717624306678772,0.16758999228477478,-0.050099510699510574
1788772941244791800,3.611791748046875,0.2508012354373932,0.2569481134414673,-0.13322769105434418
1788772941254760700,3.6217607421875,0.2528637945652008,0.2971258759498596,-0.21758835017681122
1788772941264729900,3.631729736328125,0.26925739645957947,0.2856665551662445,-0.293684184551239
1788772941274698800,3.64169873046875,0.2961137294769287,0.25921493768692017,-0.34835004806518555
1788772941284667600,3.651667724609375,0.31965261697769165,0.2419361025094986,-0.355407178401947
1788772941294635800,3.6616357421875,0.340842604637146,0.23734629154205322,-0.3143296539783478
1788772941304604700,3.671604736328125,0.3356603682041168,0.22947238385677338,-0.26666465401649475
1788772941314573800,3.68157373046875,0.34450116753578186,0.19003582000732422,-0.21451152861118317
1788772941324542700,3.691542724609375,0.3663678467273712,0.14935177564620972,-0.15975959599018097
1788772941334510800,3.7015107421875,0.3874236047267914,0.10381438583135605,-0.11114837974309921
1788772941344479700,3.711479736328125,0.40258848667144775,0.05428053066134453,-0.08527618646621704
1788772941354449000,3.721448974609375,0.4349357783794403,0.014769974164664745,-0.07055192440748215
1788772941364417800,3.731417724609375,0.46661221981048584,-0.005557934753596783,-0.061619147658348083
1788772941374386000,3.741385986328125,0.4801276922225952,0.03016444854438305,-0.03778740391135216
1788772941384354800,3.751354736328125,0.4596264064311981,0.10936206579208374,-0.0003486825153231621
1788772941394323700,3.76132373046875,0.41936537623405457,0.20394012331962585,0.04922271519899368
1788772941404292900,3.77129296875,0.35535818338394165,0.29893267154693604,0.10754381120204926
1788772941414261000,3.781260986328125,0.29017549753189087,0.3823877274990082,0.1833101212978363
1788772941424230000,3.79122998046875,0.2305755764245987,0.4001254439353943,0.27155742049217224
1788772941434198800,3.80119873046875,0.1907564103603363,0.3929717540740967,0.37519368529319763
1788772941444168000,3.81116796875,0.16350935399532318,0.3991100788116455,0.4845595955848694
1788772941454135800,3.8211357421875,0.1555764377117157,0.45310136675834656,0.58857661485672
1788772941464105000,3.83110498046875,0.18142081797122955,0.5267436504364014,0.6878312826156616
1788772941474073900,3.841073974609375,0.24176812171936035,0.5977364182472229,0.7792531847953796
1788772941484043000,3.85104296875,0.2952723503112793,0.6695163249969482,0.839606523513794
1788772941494011000,3.861010986328125,0.3481613099575043,0.7479652166366577,0.8668767213821411
1788772941503980000,3.87097998046875,0.385503351688385,0.7767052054405212,0.8603599667549133
1788772941513949000,3.880948974609375,0.40929239988327026,0.7378750443458557,0.8046388030052185
1788772941523917800,3.890917724609375,0.42696088552474976,0.64899742603302,0.705302894115448
1788772941533886000,3.900885986328125,0.42145881056785583,0.5622096061706543,0.5577256679534912
1788772941543854800,3.910854736328125,0.40724125504493713,0.4979728162288666,0.4010681211948395
1788772941553824000,3.920823974609375,0.40411025285720825,0.5281001329421997,0.27703747153282166
1788772941563793000,3.93079296875,0.4250088632106781,0.5643838047981262,0.1869470179080963
1788772941573760800,3.9407607421875,0.4662201404571533,0.5635261535644531,0.10232089459896088
1788772941583729700,3.950729736328125,0.5484268665313721,0.517726480960846,0.03846042603254318
1788772941593698800,3.96069873046875,0.6238954067230225,0.4767859876155853,0.016993189230561256
1788772941603667700,3.970667724609375,0.4314444363117218,0.351696252822876,0.06047222018241882
1788772941613635800,3.9806357421875,0.07631910592317581,0.18240249156951904,0.12275777757167816
1788772941623604700,3.990604736328125,-0.1924694925546646,0.24723660945892334,0.2028084099292755
1788772941633574000,4.000573974609375,-0.2544192373752594,0.4771871566772461,0.27321502566337585
1788772941643542800,4.010542724609375,-0.17596836388111115,0.820888876914978,0.26452991366386414
1788772941653511000,4.020510986328125,0.019579559564590454,1.3169087171554565,0.10543328523635864
1788772941663479800,4.030479736328125,0.26178258657455444,1.1684542894363403,-0.1378539353609085
1788772941673448700,4.04044873046875,0.5345878601074219,0.8551576137542725,-0.4268103837966919
1788772941683417900,4.05041796875,0.7547039985656738,0.7128867506980896,-0.5975003838539124
1788772941693385700,4.0603857421875,0.8441808223724365,0.6806691288948059,-0.6471560597419739
1788772941703355000,4.07035498046875,0.8503859639167786,0.3677617907524109,-0.6843739748001099
1788772941713323800,4.08032373046875,0.9065325856208801,-0.028454113751649857,-0.6965565085411072
1788772941723293000,4.09029296875,1.0297802686691284,-0.1276339590549469,-0.6323897838592529
1788772941733260800,4.1002607421875,1.1834911108016968,0.03469005972146988,-0.5270134210586548
1788772941743230000,4.11022998046875,1.30663001537323,0.5158559083938599,-0.3905666172504425
1788772941753198800,4.12019873046875,1.2934902906417847,0.5239434838294983,-0.23961584270000458
1788772941763167700,4.130167724609375,1.1880288124084473,0.35715240240097046,-0.08938080072402954
1788772941773136000,4.140135986328125,1.0138531923294067,0.14865221083164215,0.0612555593252182
1788772941783105000,4.15010498046875,0.7776229977607727,-0.12193240970373154,0.19784563779830933
1788772941793074000,4.160073974609375,0.5397356748580933,-0.3348936140537262,0.2955872714519501
1788772941803042800,4.170042724609375,0.36890849471092224,-0.4353855848312378,0.3284381628036499
1788772941813011000,4.180010986328125,0.2459944784641266,-0.42652633786201477,0.27876731753349304
1788772941822979800,4.189979736328125,0.15024104714393616,-0.34802621603012085,0.13985709846019745
1788772941832949000,4.199948974609375,0.07447323203086853,-0.2628749907016754,-0.0712461769580841
1788772941842918000,4.20991796875,0.028301477432250977,-0.14711803197860718,-0.32388266921043396
1788772941852886000,4.219885986328125,0.00513413967564702,-0.044165946543216705,-0.58163982629776
1788772941862855000,4.22985498046875,-0.005474295932799578,-0.012889247387647629,-0.8216196894645691
1788772941872824000,4.239823974609375,-0.011654824018478394,-0.0776568353176117,-1.0433939695358276
1788772941882793000,4.24979296875,-0.036389462649822235,-0.18936258554458618,-1.232300877571106
1788772941892760800,4.2597607421875,-0.07818324863910675,-0.32529929280281067,-1.3642650842666626
1788772941902729700,4.269729736328125,-0.14384429156780243,-0.44008341431617737,-1.4178873300552368
1788772941912698600,4.27969873046875,-0.22603599727153778,-0.4735547602176666,-1.3787472248077393
1788772941922667800,4.289667724609375,-0.2905105948448181,-0.43472638726234436,-1.2498244047164917
1788772941932636000,4.299635986328125,-0.31414172053337097,-0.3716484308242798,-1.0501405000686646
1788772941942604800,4.309604736328125,-0.2899594306945801,-0.2964833676815033,-0.8097337484359741
1788772941952573700,4.31957373046875,-0.2510639727115631,-0.19508570432662964,-0.5547610521316528
1788772941962542800,4.32954296875,-0.20847178995609283,-0.05993480235338211,-0.31239792704582214
1788772941972512000,4.339511962890625,-0.16080106794834137,0.08065813034772873,-0.11333663761615753
1788772941982481000,4.34948095703125,-0.07812856137752533,0.1718599498271942,0.04211633652448654
1788772941992450000,4.359449951171875,0.0038130776956677437,0.17990607023239136,0.12654687464237213
1788772942002419000,4.3694189453125,-0.04303938150405884,-0.13566546142101288,0.026141708716750145
1788772942012387000,4.379386962890625,0.04819867014884949,-0.26116684079170227,-0.012892581522464752
1788772942022356000,4.38935595703125,0.19016271829605103,-0.15599435567855835,-0.09618667513132095
1788772942032325000,4.3993251953125,0.2945573627948761,-0.35383275151252747,-0.19739893078804016
1788772942042294000,4.4092939453125,0.342648983001709,-0.4026375710964203,-0.27515897154808044
1788772942052262100,4.41926220703125,0.361874520778656,-0.26816868782043457,-0.3247038722038269
1788772942062231000,4.42923095703125,0.3810839056968689,-0.19617225229740143,-0.35037410259246826
1788772942072200000,4.439199951171875,0.4193456172943115,-0.12627360224723816,-0.316216379404068
1788772942082169000,4.449169189453125,0.47908005118370056,0.02210760861635208,-0.2130868136882782
1788772942092137000,4.459136962890625,0.5369006395339966,0.25546663999557495,-0.07139391452074051
1788772942102105900,4.46910595703125,0.5865685939788818,0.48976755142211914,0.04606027901172638
1788772942112074800,4.47907470703125,0.6387713551521301,0.6352330446243286,0.10953707247972488
1788772942122044200,4.489044189453125,0.7115014791488647,0.7103661298751831,0.11414088308811188
1788772942132011800,4.49901171875,0.8561776280403137,0.6557552814483643,0.04730791971087456
1788772942141981000,4.50898095703125,1.0741617679595947,0.36591994762420654,-0.0749807059764862
1788772942151949800,4.51894970703125,1.2300211191177368,-0.0012566628865897655,-0.16388747096061707
1788772942161919000,4.5289189453125,1.284309983253479,-0.348131000995636,-0.15373976528644562
1788772942171886800,4.538886962890625,1.2851097583770752,-0.5084741711616516,-0.04755033552646637
1788772942181856000,4.54885595703125,1.2329591512680054,-0.4450092017650604,0.11221988499164581
1788772942191825000,4.558824951171875,1.1545213460922241,-0.3805755078792572,0.2649448812007904
1788772942201793800,4.568793701171875,1.0334539413452148,-0.28345030546188354,0.41893523931503296
1788772942211762000,4.578761962890625,0.8608546853065491,-0.1612316370010376,0.5296472907066345
1788772942221731000,4.58873095703125,0.6260610818862915,-0.13280504941940308,0.5933493375778198
1788772942231700000,4.598699951171875,0.3467075824737549,-0.18132364749908447,0.5880424976348877
1788772942241668900,4.6086689453125,0.07178385555744171,-0.24650904536247253,0.5292263031005859
1788772942251637000,4.618636962890625,-0.11050046235322952,-0.3475200831890106,0.4425137937068939
1788772942261606000,4.62860595703125,-0.1746661216020584,-0.5153873562812805,0.33055824041366577
1788772942271575000,4.638574951171875,-0.09983664005994797,-0.716354489326477,0.21909792721271515
1788772942281544000,4.6485439453125,0.10624063014984131,-0.7516014575958252,0.1920551210641861
1788772942291512000,4.658511962890625,0.3925100862979889,-0.42410334944725037,0.2937488853931427
1788772942301481000,4.66848095703125,0.6959310173988342,0.19250312447547913,0.48375317454338074
1788772942311450000,4.6784501953125,0.9559374451637268,0.814077615737915,0.6726688742637634
1788772942321419000,4.6884189453125,1.1755903959274292,1.3232970237731934,0.804891049861908
1788772942331387100,4.69838720703125,1.3100131750106812,1.6085574626922607,0.8382066488265991
1788772942341356000,4.70835595703125,1.3276456594467163,1.7338099479675293,0.7759424448013306
1788772942351325000,4.718324951171875,1.286686658859253,1.7889195680618286,0.6710407733917236
1788772942361294000,4.728294189453125,1.219946026802063,1.6734504699707031,0.5450388789176941
1788772942371262000,4.738261962890625,1.1342895030975342,1.353122591972351,0.41099801659584045
1788772942381231000,4.748231201171875,1.018685221672058,1.0035405158996582,0.28248798847198486
1788772942391200000,4.758199951171875,0.8836835026741028,0.7043912410736084,0.17469674348831177
1788772942401169200,4.768169189453125,0.7584086656570435,0.44348958134651184,0.10157673805952072
1788772942411138000,4.778137939453125,0.6711962223052979,0.21183772385120392,0.07768445461988449
1788772942421106000,4.78810595703125,0.6037676334381104,0.055583398789167404,0.11077183485031128
1788772942431074800,4.79807470703125,0.5295243859291077,0.007527609821408987,0.17679119110107422
1788772942441044000,4.8080439453125,0.4490079879760742,0.08042845129966736,0.2305726557970047
1788772942451012900,4.818012939453125,0.3674094080924988,0.23543697595596313,0.25382840633392334
1788772942460981000,4.82798095703125,0.2974843978881836,0.40764495730400085,0.24765653908252716
1788772942470950000,4.837949951171875,0.23986059427261353,0.5331518650054932,0.20971331000328064
1788772942480918800,4.847918701171875,0.18781603872776031,0.561927318572998,0.15740564465522766
1788772942490888000,4.857887939453125,0.1369505077600479,0.5006725788116455,0.11236534267663956
1788772942500855800,4.867855712890625,0.08496960252523422,0.37153831124305725,0.07136011868715286
1788772942510825000,4.877824951171875,0.034084685146808624,0.15056827664375305,0.038570575416088104
1788772942520793900,4.8877939453125,-0.010922471061348915,-0.09966073930263519,0.028890784829854965
1788772942530763000,4.897762939453125,-0.04066140577197075,-0.3008628785610199,0.04235338047146797
1788772942540731000,4.90773095703125,-0.0482918955385685,-0.3951891362667084,0.08634108304977417
1788772942550700000,4.917699951171875,-0.02315792813897133,-0.4028245210647583,0.14201031625270844
1788772942560669000,4.9276689453125,0.03862927481532097,-0.3180997669696808,0.22393393516540527
1788772942570637800,4.937637939453125,0.11734351515769958,-0.14609543979167938,0.3340238630771637
1788772942580606000,4.94760595703125,0.17661777138710022,0.03198721632361412,0.43499043583869934
1788772942590575000,4.9575751953125,0.19005484879016876,0.14204098284244537,0.482272207736969
1788772942600544000,4.9675439453125,0.19356010854244232,0.226984903216362,0.45339661836624146
1788772942610513000,4.977512939453125,0.1874680370092392,0.292687326669693,0.3476261496543884
1788772942620481000,4.98748095703125,0.16263484954833984,0.28268954157829285,0.13064351677894592
1788772942630450000,4.997449951171875,0.12203502655029297,0.16041745245456696,-0.1736343652009964
1788772942640419000,5.007419189453125,0.075839564204216,-0.007362226024270058,-0.5329297184944153
1788772942650388000,5.017387939453125,0.032506063580513,-0.17879560589790344,-0.8897947669029236
1788772942660356000,5.027356201171875,0.01888745278120041,-0.33974722027778625,-1.1809812784194946
1788772942670325000,5.037324951171875,0.01735873334109783,-0.47741028666496277,-1.3791860342025757
1788772942680294100,5.047294189453125,0.028866251930594444,-0.529517412185669,-1.443361759185791
1788772942690263000,5.057262939453125,0.05858185142278671,-0.5057677030563354,-1.3594104051589966
1788772942700231200,5.067231201171875,0.10329579561948776,-0.4491872489452362,-1.1492869853973389
1788772942710200000,5.077199951171875,0.16987714171409607,-0.36635980010032654,-0.8612633943557739
1788772942720169000,5.0871689453125,0.24813227355480194,-0.24387677013874054,-0.5403276681900024
1788772942730138000,5.09713818359375,0.31427380442619324,-0.1002689003944397,-0.24179010093212128
1788772942740106000,5.10710595703125,0.34793323278427124,0.005301730707287788,-0.019600696861743927
1788772942750075000,5.117074951171875,0.35557523369789124,0.05436188727617264,0.11242637783288956
1788772942760043800,5.127043701171875,0.3649556636810303,0.08992280811071396,0.18304835259914398
1788772942770013000,5.137012939453125,0.37087878584861755,0.09235332906246185,0.21767598390579224
1788772942779980800,5.146980712890625,0.3618972599506378,0.09506602585315704,0.24497631192207336
1788772942789950000,5.156949951171875,0.3462429344654083,0.1183638945221901,0.3073619306087494
1788772942799918800,5.1669189453125,0.3294519782066345,0.1752258539199829,0.4049459993839264
1788772942809888000,5.176887939453125,0.30950790643692017,0.24430713057518005,0.53045254945755
1788772942819856000,5.18685595703125,0.2890619933605194,0.32141175866127014,0.670329749584198
1788772942829825000,5.196824951171875,0.2592959403991699,0.39575186371803284,0.8145591020584106
1788772942839794000,5.2067939453125,0.22508631646633148,0.4539736211299896,0.9420158267021179
1788772942849762800,5.2167626953125,0.19494585692882538,0.4783723056316376,1.0381051301956177
1788772942859731000,5.22673095703125,0.1771910935640335,0.4731714129447937,1.0837671756744385
1788772942869699800,5.236699951171875,0.15708157420158386,0.45462754368782043,1.0662227869033813
1788772942879669000,5.2466689453125,0.12724857032299042,0.40051132440567017,0.9730657935142517
1788772942889638000,5.256637939453125,0.07378364354372025,0.28135254979133606,0.8101270794868469
1788772942899606000,5.26660595703125,-0.0007640972035005689,0.10839700698852539,0.614519476890564
1788772942909575000,5.276574951171875,-0.11205772310495377,-0.12486033886671066,0.3789728879928589
1788772942919544000,5.2865439453125,-0.27190518379211426,-0.4353164732456207,0.08775860071182251
1788772942930136000,5.297135986328125,-0.49407273530960083,-0.8061752319335938,-0.2778087258338928
1788772942940105000,5.30710498046875,-0.7258740067481995,-1.039502501487732,-0.620597779750824
1788772942950073000,5.317072998046875,-0.941568911075592,-1.1277662515640259,-0.9294199347496033
1788772942960042000,5.3270419921875,-1.1350609064102173,-1.0215314626693726,-1.149757742881775
1788772942970011000,5.337010986328125,-1.292569637298584,-0.767601490020752,-1.2684611082077026
1788772942979978800,5.346978759765625,-1.388209342956543,-0.43392422795295715,-1.2817697525024414
1788772942989947000,5.35694677734375,-1.3948149681091309,-0.1074940413236618,-1.217045545578003
1788772942999915800,5.366915771484375,-1.3071954250335693,0.1660781055688858,-1.093376874923706
1788772943009885000,5.376885009765625,-1.1435521841049194,0.3899039030075073,-0.9472882747650146
1788772943019853800,5.386853759765625,-0.9368308782577515,0.5725552439689636,-0.8251402378082275
1788772943029822000,5.396822021484375,-0.7164705991744995,0.7354282736778259,-0.7407185435295105
1788772943039790800,5.406790771484375,-0.5028917193412781,0.880821704864502,-0.6918756365776062
1788772943049759700,5.416759765625,-0.32189756631851196,0.9865369200706482,-0.6573948860168457
1788772943059729000,5.42672900390625,-0.1692821979522705,0.9800782203674316,-0.6469161510467529
1788772943069697000,5.436697021484375,-0.044060904532670975,0.8480861783027649,-0.6599279642105103
1788772943079666000,5.446666015625,0.06041090935468674,0.6239111423492432,-0.6763899922370911
1788772943089634800,5.456634765625,0.16337694227695465,0.3528057336807251,-0.6616058349609375
1788772943099604000,5.46660400390625,0.2616656720638275,0.08160912990570068,-0.6118654608726501
1788772943109571800,5.47657177734375,0.357028603553772,-0.16172166168689728,-0.5266798138618469
1788772943119541000,5.486541015625,0.4657260477542877,-0.37260353565216064,-0.4035235345363617
1788772943129510000,5.496510009765625,0.5847249627113342,-0.4925142228603363,-0.24005445837974548
1788772943139479000,5.50647900390625,0.6939132213592529,-0.4619086682796478,-0.02241826429963112
1788772943149447000,5.516447021484375,0.7915811538696289,-0.29801690578460693,0.22220636904239655
1788772943159416000,5.526416015625,0.8662047982215881,-0.06528245657682419,0.47281861305236816
1788772943169385000,5.536385009765625,0.9232513904571533,0.18882155418395996,0.695511519908905
1788772943179353900,5.546353759765625,0.9848638772964478,0.45340821146965027,0.8656001687049866
1788772943189322000,5.556322021484375,1.0512109994888306,0.6524936556816101,0.9533230662345886
1788772943199291000,5.566290771484375,1.0981755256652832,0.7615959048271179,0.9442017078399658
1788772943209260000,5.576260009765625,1.113401174545288,0.7608127593994141,0.8452093005180359
1788772943219229000,5.58622900390625,1.0825642347335815,0.640311062335968,0.6801380515098572
1788772943229196800,5.59619677734375,1.0039345026016235,0.4284009635448456,0.47523602843284607
1788772943239165700,5.606165771484375,0.8723552227020264,0.09419049322605133,0.23413901031017303
1788772943249134800,5.616134765625,0.6825515627861023,-0.3424520194530487,-0.030215462669730186
1788772943259103700,5.626103759765625,0.42781513929367065,-0.767524003982544,-0.28641393780708313
1788772943269072000,5.63607177734375,0.12251055985689163,-1.0513988733291626,-0.49994635581970215
1788772943279040800,5.646040771484375,-0.1897815614938736,-1.1874523162841797,-0.6698296666145325
1788772943289010000,5.656010009765625,-0.4741695821285248,-1.1668107509613037,-0.7838954925537109
1788772943298978800,5.665978759765625,-0.7127315402030945,-0.9907979369163513,-0.7970219850540161
1788772943308947700,5.67594775390625,-0.8693227767944336,-0.6989569067955017,-0.7006750106811523
1788772943318915800,5.685915771484375,-0.9287879467010498,-0.36460742354393005,-0.5119943022727966
1788772943328884700,5.695884765625,-0.8799985647201538,-0.05699920281767845,-0.26710209250450134
1788772943338854000,5.70585400390625,-0.7343955636024475,0.19901525974273682,-0.01407594233751297
1788772943349444900,5.71644482421875,-0.5090904831886292,0.36739131808280945,0.23067007958889008
1788772943359413800,5.726413818359375,-0.26844993233680725,0.42918676137924194,0.42228347063064575
1788772943369382000,5.7363818359375,-0.035831522196531296,0.40525755286216736,0.577634871006012
1788772943379350800,5.746350830078125,0.1650073081254959,0.33546754717826843,0.7121322154998779
1788772943389320000,5.75631982421875,0.32208073139190674,0.28245118260383606,0.8468287587165833
1788772943399288800,5.766288818359375,0.42820024490356445,0.23762618005275726,0.9651024341583252
1788772943409257000,5.776257080078125,0.49200111627578735,0.20425884425640106,1.0637731552124023
1788772943419225900,5.786225830078125,0.521235466003418,0.2064354568719864,1.1303929090499878
1788772943429195000,5.796195068359375,0.5133764743804932,0.23375210165977478,1.1389423608779907
1788772943439164000,5.806163818359375,0.47424930334091187,0.28714367747306824,1.0744032859802246
1788772943449132000,5.816132080078125,0.41028815507888794,0.32205626368522644,0.9236483573913574
1788772943459101000,5.826100830078125,0.33138614892959595,0.3171027600765228,0.6946050524711609
1788772943469070000,5.836070068359375,0.24774548411369324,0.2888529896736145,0.4092463254928589
1788772943479039000,5.8460390625,0.1745908409357071,0.22552381455898285,0.08665496110916138
1788772943489007900,5.8560078125,0.1148676723241806,0.10327289253473282,-0.25721946358680725
1788772943498976000,5.86597607421875,0.06676885485649109,-0.06578323990106583,-0.6108108758926392
1788772943508945000,5.87594482421875,0.04374874383211136,-0.1937858760356903,-0.9437678456306458
1788772943518914000,5.8859140625,0.03845571354031563,-0.31218066811561584,-1.233191728591919
1788772943528883000,5.895883056640625,0.055621903389692307,-0.38140764832496643,-1.451592206954956
1788772943538850800,5.905850830078125,0.1137017160654068,-0.3728407919406891,-1.5457842350006104
1788772943548819700,5.91581982421875,0.22024571895599365,-0.2487557977437973,-1.4662141799926758
1788772943558788900,5.925788818359375,0.3734227418899536,-0.03990057110786438,-1.2285597324371338
1788772943568757800,5.9357578125,0.568304717540741,0.1593102216720581,-0.8991466760635376
1788772943578726000,5.945725830078125,0.810897946357727,0.31144648790359497,-0.5415195822715759
1788772943588694800,5.95569482421875,1.061355471611023,0.38578420877456665,-0.22549135982990265
1788772943598663700,5.96566357421875,1.2617056369781494,0.4149133265018463,0.01667812094092369
1788772943608632800,5.9756328125,1.3808687925338745,0.4274049401283264,0.18468785285949707
1788772943618601700,5.985601806640625,1.4307212829589844,0.4498705565929413,0.2972666025161743
1788772943628569900,5.99556982421875,1.4322737455368042,0.48757776618003845,0.37661147117614746
1788772943638538800,6.005538818359375,1.408676266670227,0.5308793783187866,0.4439215362071991
1788772943648508000,6.0155078125,1.3812764883041382,0.5853787660598755,0.5172193050384521
1788772943658476800,6.025476806640625,1.361615777015686,0.6552238464355469,0.6048445105552673
1788772943668445000,6.03544482421875,1.3527655601501465,0.7486662864685059,0.6911556124687195
1788772943678413800,6.045413818359375,1.342210292816162,0.8631901741027832,0.7485139966011047
1788772943688383000,6.055383056640625,1.3367185592651367,0.9907082915306091,0.7654159069061279
1788772943698351900,6.065351806640625,1.3498008251190186,1.0965019464492798,0.7397017478942871
1788772943708320800,6.07532080078125,1.3867214918136597,1.1350255012512207,0.6772213578224182
1788772943718289000,6.085288818359375,1.4356528520584106,1.094111680984497,0.5849369168281555
1788772943728257800,6.0952578125,1.461949348449707,0.955107569694519,0.4602752923965454
1788772943738227000,6.10522705078125,1.4509419202804565,0.7556828856468201,0.3146030604839325
1788772943748195800,6.11519580078125,1.4030975103378296,0.5209758877754211,0.16380950808525085
1788772943758164000,6.1251640625,1.3308007717132568,0.26615288853645325,0.017763884738087654
1788772943768132900,6.1351328125,1.2414138317108154,0.009590346366167068,-0.12314556539058685
1788772943778102000,6.14510205078125,1.1483750343322754,-0.19001278281211853,-0.24004581570625305
1788772943788071000,6.15507080078125,1.0340145826339722,-0.30815646052360535,-0.29465553164482117
1788772943798039000,6.1650390625,0.8652324676513672,-0.29394105076789856,-0.25892123579978943
1788772943808008000,6.175008056640625,0.6689202189445496,-0.15432414412498474,-0.1507648229598999
1788772943817976800,6.184976806640625,0.4965503513813019,0.041696224361658096,0.004103322047740221
1788772943827946000,6.194946044921875,0.394010454416275,0.23462049663066864,0.17016197741031647
1788772943837915000,6.204914794921875,0.3460344076156616,0.3916170299053192,0.29855668544769287
1788772943847883000,6.214883056640625,0.30526238679885864,0.5236433148384094,0.35386359691619873
1788772943857852000,6.224851806640625,0.24905797839164734,0.6026678085327148,0.34553030133247375
1788772943867821000,6.234821044921875,0.16816692054271698,0.6462817788124084,0.2963612377643585
1788772943877790000,6.2447900390625,0.06661126017570496,0.6789747476577759,0.2332959920167923
1788772943887757800,6.2547578125,-0.05250900238752365,0.6781733632087708,0.16268840432167053
1788772943897726700,6.264726806640625,-0.1806000918149948,0.6524139642715454,0.10648586601018906
1788772943907695900,6.27469580078125,-0.3037727177143097,0.6311396956443787,0.07117963582277298
1788772943917665000,6.2846650390625,-0.4165631830692291,0.6315961480140686,0.05558602884411812
1788772943927634000,6.294634033203125,-0.5003910660743713,0.6456483006477356,0.04758696258068085
1788772943937601800,6.304601806640625,-0.5409978628158569,0.6623048186302185,0.040526654571294785
1788772943947570700,6.31457080078125,-0.5444474220275879,0.6651768684387207,0.03188245743513107
1788772943957539800,6.324539794921875,-0.5251568555831909,0.6173305511474609,0.02127588912844658
1788772943967508700,6.3345087890625,-0.49235260486602783,0.5350109338760376,0.01336708478629589
1788772943977476900,6.344476806640625,-0.4432274103164673,0.4341394305229187,0.013504236936569214
1788772943987445800,6.35444580078125,-0.3974732756614685,0.335635244846344,0.021318433806300163
1788772943997415000,6.364414794921875,-0.36302557587623596,0.25423359870910645,0.040660709142684937
1788772944007383800,6.3743837890625,-0.33056652545928955,0.16111868619918823,0.08089935779571533
1788772944017352700,6.384352783203125,-0.30496078729629517,0.07045243680477142,0.13920952379703522
1788772944027320800,6.39432080078125,-0.2833564877510071,0.008650769479572773,0.20811866223812103
1788772944037290000,6.4042900390625,-0.26343098282814026,-0.030672667548060417,0.27924689650535583
1788772944047259000,6.4142587890625,-0.25145313143730164,-0.048607803881168365,0.3405438959598541
1788772944057227800,6.424227783203125,-0.2590159773826599,-0.019138595089316368,0.389569491147995
1788772944067196000,6.43419580078125,-0.2779195308685303,0.0318111777305603,0.40494656562805176
1788772944077164800,6.444164794921875,-0.31075364351272583,0.015935275703668594,0.36341774463653564
1788772944087134000,6.454134033203125,-0.3620171546936035,-0.06814944744110107,0.2581980526447296
1788772944097102800,6.464102783203125,-0.42544299364089966,-0.22232384979724884,0.09581366181373596
1788772944107071000,6.474071044921875,-0.5073423385620117,-0.4792582392692566,-0.11313041299581528
1788772944117039900,6.484039794921875,-0.6186105608940125,-0.803574800491333,-0.3327045738697052
1788772944127009000,6.494009033203125,-0.739848792552948,-1.1068631410598755,-0.5162509083747864
1788772944136978000,6.50397802734375,-0.8558523654937744,-1.3454501628875732,-0.6412612795829773
1788772944146946800,6.51394677734375,-0.9658331274986267,-1.4545708894729614,-0.675836980342865
1788772944156915000,6.5239150390625,-1.0783809423446655,-1.4153754711151123,-0.6040738821029663
1788772944166883800,6.5338837890625,-1.1979765892028809,-1.2540942430496216,-0.4690193831920624
1788772944176853000,6.54385302734375,-1.301377296447754,-1.0306237936019897,-0.3025909960269928
1788772944186822000,6.55382177734375,-1.3400341272354126,-0.770427942276001,-0.11603251099586487
1788772944196789800,6.563789794921875,-1.3036417961120605,-0.525954008102417,0.07358056306838989
1788772944206758700,6.573758544921875,-1.2171138525009155,-0.3166072368621826,0.2487478405237198
1788772944216727800,6.583727783203125,-1.1200748682022095,-0.14185619354248047,0.4048945903778076
1788772944226696700,6.59369677734375,-1.0451463460922241,0.01092337816953659,0.5342138409614563
1788772944236665600,6.60366552734375,-0.9895100593566895,0.10766403377056122,0.6577490568161011
1788772944246633700,6.6136337890625,-0.9573974609375,0.140013188123703,0.7669588923454285
1788772944256603000,6.623602783203125,-0.9474948048591614,0.1187949925661087,0.852623462677002
1788772944266571800,6.63357177734375,-0.9611881375312805,0.09142538905143738,0.9081581234931946
1788772944276540700,6.643540771484375,-0.9982076287269592,0.06937628239393234,0.9158506393432617
1788772944286508800,6.6535087890625,-1.0360326766967773,0.04591050371527672,0.8621795773506165
1788772944296477700,6.663477783203125,-1.069580316543579,-0.023372963070869446,0.7452652454376221
1788772944306446800,6.67344677734375,-1.1106535196304321,-0.15731355547904968,0.5587173104286194
1788772944316415700,6.683415771484375,-1.1824147701263428,-0.40191027522087097,0.2934083938598633
1788772944326385000,6.693385009765625,-1.2831153869628906,-0.7403255701065063,-0.038769833743572235
1788772944336352800,6.703352783203125,-1.390604019165039,-1.0416185855865479,-0.3701664209365845
1788772944346322000,6.713322021484375,-1.4828712940216064,-1.2701057195663452,-0.6517178416252136
1788772944356290800,6.723290771484375,-1.568529486656189,-1.3607711791992188,-0.8509811162948608
1788772944366259700,6.733259765625,-1.652357578277588,-1.2702640295028687,-0.9305524826049805
1788772944376227800,6.743227783203125,-1.7141002416610718,-0.9634137749671936,-0.8678752183914185
1788772944386196700,6.75319677734375,-1.7229238748550415,-0.5374053120613098,-0.7021645307540894
1788772944396166000,6.763165771484375,-1.6737356185913086,-0.11944456398487091,-0.49829474091529846
1788772944406134800,6.773134765625,-1.5599510669708252,0.22451595962047577,-0.3249114453792572
1788772944416103000,6.78310302734375,-1.3932483196258545,0.4456121027469635,-0.19584771990776062
1788772944426071800,6.79307177734375,-1.2100352048873901,0.5777959823608398,-0.11211229860782623
1788772944436041000,6.803041015625,-1.037051796913147,0.6561056971549988,-0.04592715948820114
1788772944446009900,6.813009765625,-0.8843021392822266,0.6729515194892883,0.016426745802164078
1788772944455978800,6.822978759765625,-0.7644723653793335,0.6435749530792236,0.07565517723560333
1788772944465947000,6.83294677734375,-0.6795617341995239,0.6061148047447205,0.1327633261680603
1788772944475916000,6.842916015625,-0.6182589530944824,0.5529727339744568,0.17969489097595215
1788772944485885000,6.852885009765625,-0.5594637989997864,0.4819832444190979,0.21250934898853302
1788772944495853800,6.862853759765625,-0.4954741597175598,0.4076876938343048,0.22848938405513763
1788772944505822000,6.872822021484375,-0.43120792508125305,0.35868746042251587,0.21996399760246277
1788772944515790800,6.882790771484375,-0.3743995130062103,0.32416462898254395,0.1965140551328659
1788772944525760000,6.892760009765625,-0.31885838508605957,0.28272637724876404,0.149626225233078
1788772944535729000,6.90272900390625,-0.2617242634296417,0.22035327553749084,0.07569633424282074
1788772944545698000,6.912697998046875,-0.20881178975105286,0.1650746464729309,-0.019944259896874428
1788772944555665700,6.922665771484375,-0.16959168016910553,0.12302333861589432,-0.14477354288101196
1788772944565634800,6.932634765625,-0.1577005833387375,0.12684912979602814,-0.28939932584762573
1788772944575604000,6.94260400390625,-0.1618921309709549,0.12963904440402985,-0.4545091986656189
1788772944585572900,6.95257275390625,-0.1598905622959137,0.10554340481758118,-0.6281018257141113
1788772944595540700,6.962540771484375,-0.14315152168273926,0.06945810467004776,-0.7829689383506775
1788772944605509600,6.972509521484375,-0.10911262780427933,0.05382760241627693,-0.8877196907997131
1788772944615478800,6.982478759765625,-0.05389225110411644,0.06141494959592819,-0.9124074578285217
1788772944625447700,6.99244775390625,0.022464241832494736,0.1107003316283226,-0.8370353579521179
1788772944635415800,7.002415771484375,0.12549874186515808,0.18953628838062286,-0.6794105768203735
1788772944645384700,7.012384765625,0.24427013099193573,0.2788161039352417,-0.4492950737476349
1788772944655353900,7.022353759765625,0.353502094745636,0.3864307105541229,-0.1857728809118271
1788772944665322800,7.03232275390625,0.43577343225479126,0.4610559344291687,0.05381280928850174
1788772944675292000,7.0422919921875,0.49007076025009155,0.5022169947624207,0.24085672199726105
1788772944685259800,7.052259765625,0.5389501452445984,0.5420680046081543,0.37435993552207947
1788772944695229000,7.06222900390625,0.5952733159065247,0.5660564303398132,0.46946942806243896
1788772944705197800,7.07219775390625,0.6438697576522827,0.578201413154602,0.5299676656723022
1788772944715166700,7.082166748046875,0.681427538394928,0.598974883556366,0.5740943551063538
1788772944725134800,7.092134765625,0.7137355208396912,0.5874993205070496,0.6010770201683044
1788772944735103700,7.102103759765625,0.7242493629455566,0.5568740367889404,0.6142801642417908
1788772944745073000,7.112072998046875,0.7224828600883484,0.5342089533805847,0.6098816394805908
1788772944755041800,7.122041748046875,0.7028998732566833,0.5045996308326721,0.5760488510131836
1788772944765010000,7.132010009765625,0.6463906764984131,0.4818432033061981,0.513020396232605
1788772944774978800,7.141978759765625,0.5454797744750977,0.454064279794693,0.40888920426368713
1788772944784948000,7.151947998046875,0.40165984630584717,0.4223346710205078,0.2661636769771576
1788772944794916900,7.161916748046875,0.2376251220703125,0.36789512634277344,0.09101875871419907
1788772944804885800,7.1718857421875,0.057530131191015244,0.29190096259117126,-0.12537874281406403
1788772944814854000,7.18185400390625,-0.13313008844852448,0.22672408819198608,-0.3558920919895172
1788772944824822800,7.19182275390625,-0.30742424726486206,0.19219490885734558,-0.5839524269104004
1788772944834792000,7.2017919921875,-0.4323102831840515,0.11991619318723679,-0.7863695025444031
1788772944844760800,7.2117607421875,-0.4995526969432831,0.04160228371620178,-0.940639317035675
1788772944854729000,7.22172900390625,-0.504530131816864,-0.048757441341876984,-1.0164859294891357
1788772944864697900,7.23169775390625,-0.4731033444404602,-0.1063976138830185,-0.9897727370262146
1788772944874667000,7.2416669921875,-0.41515666246414185,-0.13545456528663635,-0.8668326735496521
1788772944884636000,7.251635986328125,-0.3590908944606781,-0.12168731540441513,-0.6635403037071228
1788772944894604800,7.261604736328125,-0.33671635389328003,-0.023255016654729843,-0.41484206914901733
1788772944904572700,7.27157275390625,-0.3525705337524414,0.17540474236011505,-0.1647658348083496
1788772944914542000,7.2815419921875,-0.36737769842147827,0.4295211434364319,0.05406050756573677
1788772944924511000,7.291510986328125,-0.34564298391342163,0.6607200503349304,0.2400684505701065
1788772944934480000,7.30147998046875,-0.28125813603401184,0.8629271984100342,0.38361841440200806
1788772944944447700,7.31144775390625,-0.18995721638202667,1.0412229299545288,0.48945215344429016
1788772944954416600,7.321416748046875,-0.09955726563930511,1.137355089187622,0.547706127166748
1788772944964385800,7.3313857421875,-0.02964562550187111,1.1260045766830444,0.5598254203796387
1788772944974355500,7.34135546875,0.015015851706266403,1.0341095924377441,0.5411060452461243
1788772944984323600,7.351323486328125,0.04834042489528656,0.8654932975769043,0.5110527276992798
1788772944994292500,7.36129248046875,0.05632937699556351,0.6446224451065063,0.4812719225883484
1788772945004261400,7.371261474609375,0.03710754215717316,0.4215717613697052,0.47335085272789
1788772945014230500,7.38123046875,-0.015800947323441505,0.21224650740623474,0.4687294661998749
1788772945024198700,7.39119873046875,-0.09705280512571335,0.024421514943242073,0.4452563226222992
1788772945034167600,7.40116748046875,-0.1982893943786621,-0.11214351654052734,0.3930447995662689
1788772945044136400,7.411136474609375,-0.3134990334510803,-0.1948975771665573,0.30412670969963074
1788772945054105600,7.421105712890625,-0.43255457282066345,-0.2813991904258728,0.155293807387352
1788772945064074500,7.431074462890625,-0.5407207012176514,-0.44463109970092773,-0.0701698288321495
1788772945074042600,7.441042724609375,-0.6470032334327698,-0.6996561884880066,-0.37005507946014404
1788772945084011500,7.451011474609375,-0.7747839689254761,-0.963934600353241,-0.7069224715232849
1788772945093980700,7.460980712890625,-0.9457248449325562,-1.1668496131896973,-1.0306107997894287
1788772945103949600,7.470949462890625,-1.1480306386947632,-1.2845029830932617,-1.310996651649475
1788772945113917400,7.48091748046875,-1.3555259704589844,-1.282511830329895,-1.4958714246749878
1788772945123886600,7.490886474609375,-1.5238561630249023,-1.139122724533081,-1.5369625091552734
1788772945133855500,7.50085546875,-1.617711067199707,-0.9030545353889465,-1.4475700855255127
1788772945143824600,7.51082470703125,-1.6224507093429565,-0.6684277057647705,-1.2552556991577148
1788772945153793500,7.52079345703125,-1.552088737487793,-0.4265058934688568,-0.984319806098938
1788772945163761400,7.530761474609375,-1.4286502599716187,-0.18460385501384735,-0.6670967936515808
1788772945173730300,7.540730224609375,-1.2704188823699951,0.0340547151863575,-0.32791072130203247
1788772945183699500,7.550699462890625,-1.0961074829101562,0.20648102462291718,0.011074045673012733
1788772945193668400,7.56066845703125,-0.9548906087875366,0.3249317407608032,0.3269111216068268
1788772945203636500,7.570636474609375,-0.8666905760765076,0.37254655361175537,0.6010407209396362
1788772945213605400,7.58060546875,-0.8435384035110474,0.34892404079437256,0.8155732750892639
1788772945223574300,7.59057421875,-0.8748054504394531,0.26434412598609924,0.960780143737793
1788772945233543400,7.60054345703125,-0.9415820837020874,0.13210059702396393,1.0295817852020264
1788772945243511600,7.610511474609375,-1.0413113832473755,-0.030709898099303246,1.0360925197601318
1788772945253480400,7.62048046875,-1.1430089473724365,-0.16095098853111267,0.9888967275619507
1788772945263449300,7.630449462890625,-1.2216522693634033,-0.24596744775772095,0.9100770950317383
1788772945273418500,7.64041845703125,-1.2780747413635254,-0.30783265829086304,0.8056555986404419
1788772945283387400,7.650387451171875,-1.31651771068573,-0.3278636336326599,0.684526801109314
1788772945293355500,7.66035546875,-1.3482165336608887,-0.35375913977622986,0.557662308216095
1788772945303324400,7.670324462890625,-1.3692387342453003,-0.37697282433509827,0.43850284814834595
1788772945313293600,7.68029345703125,-1.3723399639129639,-0.39703866839408875,0.3443547785282135
1788772945323262500,7.690262451171875,-1.3683475255966187,-0.4165021777153015,0.2792440354824066
1788772945333230600,7.700230712890625,-1.3779023885726929,-0.43301859498023987,0.23381875455379486
1788772945343199500,7.710199462890625,-1.390723466873169,-0.439710408449173,0.18977707624435425
1788772945353168400,7.72016845703125,-1.3952478170394897,-0.44305452704429626,0.14274591207504272
1788772945363137500,7.730137451171875,-1.382703423500061,-0.4416325092315674,0.10358184576034546
1788772945373105400,7.74010546875,-1.35819411277771,-0.397919625043869,0.10011786222457886
1788772945383074600,7.750074462890625,-1.3176454305648804,-0.28827252984046936,0.1128201112151146
1788772945393043500,7.76004345703125,-1.2574958801269531,-0.17006118595600128,0.1272597759962082
1788772945403012600,7.7700126953125,-1.1826715469360352,-0.07896869629621506,0.1380518227815628
1788772945412981500,7.7799814453125,-1.1030150651931763,-0.03998240828514099,0.12959761917591095
1788772945422949600,7.78994970703125,-1.0305434465408325,-0.05398140102624893,0.08227945119142532
1788772945432918500,7.79991845703125,-0.9701250791549683,-0.10546030104160309,0.01326869148761034
1788772945442887400,7.809887451171875,-0.9184154272079468,-0.1928509771823883,-0.05509002506732941
1788772945452856600,7.819856689453125,-0.869617223739624,-0.2963810861110687,-0.11765753477811813
1788772945462824700,7.82982470703125,-0.8429958820343018,-0.3946136236190796,-0.1627265065908432
1788772945472793600,7.839793701171875,-0.8367379903793335,-0.49644359946250916,-0.1792178601026535
1788772945482762500,7.849762451171875,-0.8297665119171143,-0.5836267471313477,-0.1696208268404007
1788772945492731600,7.859731689453125,-0.8066028952598572,-0.6150293946266174,-0.12877139449119568
1788772945502700500,7.869700439453125,-0.7807754278182983,-0.5728858113288879,-0.08734045177698135
1788772945512668400,7.87966845703125,-0.7394793629646301,-0.46582409739494324,-0.047081977128982544
1788772945522637300,7.88963720703125,-0.6852227449417114,-0.30969566106796265,-0.00042587239295244217
1788772945532606500,7.8996064453125,-0.6211305260658264,-0.12484511733055115,0.05717989802360535
1788772945542575400,7.909575439453125,-0.5399401187896729,0.05451498180627823,0.11180219054222107
1788772945552543500,7.91954345703125,-0.4512278437614441,0.17112629115581512,0.1491072177886963
1788772945562512400,7.929512451171875,-0.38261666893959045,0.20203568041324615,0.16417010128498077
1788772945572481300,7.939481201171875,-0.3442911207675934,0.17269083857536316,0.16080041229724884
1788772945582450400,7.949450439453125,-0.32487985491752625,0.12074190378189087,0.15759502351284027
1788772945592419300,7.95941943359375,-0.3087719976902008,0.1013554185628891,0.18048782646656036
1788772945602387500,7.969387451171875,-0.27920636534690857,0.11976812779903412,0.25447535514831543
1788772945612356400,7.9793564453125,-0.23498935997486115,0.19502586126327515,0.40380969643592834
1788772945622325500,7.989325439453125,-0.18487556278705597,0.25457602739334106,0.5819077491760254
1788772945632294400,7.99929443359375,-0.12999127805233002,0.25240209698677063,0.7302002906799316
1788772945642262500,8.009262451171875,-0.06793928146362305,0.2175736427307129,0.8120327591896057
1788772945652231400,8.0192314453125,-0.027434198185801506,0.15752868354320526,0.8000189661979675
1788772945662200600,8.02920068359375,-0.01690106838941574,0.08855080604553223,0.7150920033454895
1788772945672169500,8.03916943359375,-0.049112267792224884,0.062429189682006836,0.586988091468811
1788772945682138400,8.049138427734375,-0.12609876692295074,0.0491592213511467,0.45102086663246155
1788772945692106500,8.0591064453125,-0.23134689033031464,0.04783723130822182,0.3333834409713745
1788772945702075400,8.069075439453124,-0.3429189622402191,0.08067800104618073,0.2425568848848343
1788772945712044500,8.07904443359375,-0.4314035475254059,0.16276781260967255,0.1989010125398636
1788772945722013400,8.089013427734375,-0.48768121004104614,0.24976855516433716,0.20154918730258942
1788772945731981600,8.098981689453124,-0.5271700024604797,0.3072459399700165,0.20597563683986664
1788772945741950500,8.108950439453125,-0.5446640849113464,0.31682929396629333,0.19353528320789337
1788772945751919600,8.118919677734375,-0.591991126537323,0.19344475865364075,0.07859911024570465
1788772945761888500,8.128888427734376,-0.6945987343788147,-0.12192817777395248,-0.19821828603744507
1788772945771857400,8.138857421875,-0.8806964159011841,-0.5210803747177124,-0.5866451263427734
1788772945781825500,8.148825439453125,-1.1025772094726562,-0.8854807615280151,-0.9765315651893616
1788772945791794400,8.15879443359375,-1.27025306224823,-1.1471149921417236,-1.275114893913269
1788772945801763600,8.168763671875,-1.3576523065567017,-1.1854482889175415,-1.3745838403701782
1788772945811732500,8.178732421875,-1.352193832397461,-1.0081690549850464,-1.249660849571228
1788772945821700600,8.18870068359375,-1.2723723649978638,-0.7316646575927734,-0.9883111715316772
1788772945831669500,8.19866943359375,-1.1137959957122803,-0.384375661611557,-0.6622041463851929
1788772945841638700,8.208638671875,-0.8897287249565125,-0.05515958368778229,-0.3311275541782379
1788772945851607600,8.218607666015625,-0.6480708718299866,0.17694689333438873,-0.059599921107292175
1788772945861576400,8.228576416015626,-0.469062864780426,0.33522021770477295,0.12493417412042618
1788772945871544300,8.23854443359375,-0.3870398998260498,0.4593251049518585,0.23842477798461914
1788772945881513500,8.248513427734375,-0.3702123761177063,0.5393287539482117,0.2940370440483093
1788772945891482400,8.258482421875,-0.3629765510559082,0.6014078259468079,0.34431326389312744
1788772945901451500,8.268451416015624,-0.3267335593700409,0.6279404759407043,0.411022424697876
1788772945911419400,8.27841943359375,-0.2640334367752075,0.5877280831336975,0.4636973440647125
1788772945921388300,8.28838818359375,-0.19735141098499298,0.47513142228126526,0.48291635513305664
1788772945931357400,8.298357421875,-0.15530648827552795,0.3116562068462372,0.4617956280708313
1788772945941326300,8.308326416015625,-0.15571653842926025,0.10729687660932541,0.4088704586029053
1788772945951295500,8.31829541015625,-0.19598805904388428,-0.1244380921125412,0.33136770129203796
1788772945961263400,8.328263427734376,-0.25713783502578735,-0.31834882497787476,0.2595609724521637
1788772945971232500,8.338232421875,-0.29920193552970886,-0.44445377588272095,0.1928251087665558
1788772945981201400,8.348201416015625,-0.30503442883491516,-0.5144310593605042,0.11596371978521347
1788772945991170300,8.35817041015625,-0.295368492603302,-0.560160756111145,0.028956379741430283
1788772946001138400,8.368138427734374,-0.30960169434547424,-0.6005553603172302,-0.07715162634849548
1788772946011107300,8.378107421875,-0.3703358769416809,-0.5973790287971497,-0.18688052892684937
1788772946021076500,8.388076416015625,-0.47006750106811523,-0.5581791400909424,-0.29238221049308777
1788772946031045400,8.39804541015625,-0.5733992457389832,-0.5002273917198181,-0.37680256366729736
1788772946041014500,8.4080146484375,-0.6714272499084473,-0.4656856656074524,-0.46054965257644653
1788772946050982100,8.417982177734375,-0.7655848860740662,-0.47686028480529785,-0.5565164089202881
1788772946060951300,8.427951416015626,-0.856734573841095,-0.5250347256660461,-0.6506434082984924
1788772946070920200,8.437920166015624,-0.9389567375183105,-0.5897652506828308,-0.7395357489585876
1788772946080889300,8.447889404296875,-1.007138967514038,-0.6413367986679077,-0.7959063649177551
1788772946090857200,8.457857177734375,-1.0424737930297852,-0.6614301204681396,-0.7850310802459717
1788772946100826400,8.467826416015624,-1.0227506160736084,-0.67359459400177,-0.6762455701828003
1788772946110795300,8.477795166015625,-0.9549367427825928,-0.6601772904396057,-0.45139408111572266
1788772946120764200,8.48776416015625,-0.8552037477493286,-0.6263087391853333,-0.12752501666545868
1788772946130733300,8.4977333984375,-0.7437919974327087,-0.5588633418083191,0.25173547863960266
1788772946140701200,8.507701171875,-0.6377864480018616,-0.47522249817848206,0.6137727499008179
1788772946150670300,8.51767041015625,-0.5647660493850708,-0.42331215739250183,0.8867270350456238
1788772946160639200,8.52763916015625,-0.5344141125679016,-0.36614105105400085,1.0445880889892578
1788772946170608400,8.5376083984375,-0.5324835777282715,-0.3170914649963379,1.0965911149978638
1788772946180577300,8.547577392578125,-0.560504674911499,-0.30112865567207336,1.0593336820602417
1788772946190545400,8.55754541015625,-0.6105481386184692,-0.29158443212509155,0.9525542259216309
1788772946200514300,8.567514404296874,-0.6985066533088684,-0.2967398464679718,0.8073526620864868
1788772946210483200,8.577483154296875,-0.8141701221466064,-0.3305111229419708,0.6482269167900085
1788772946220452400,8.587452392578125,-0.9232733249664307,-0.3704879879951477,0.5120556354522705
1788772946230420200,8.597420166015626,-1.0056548118591309,-0.39327025413513184,0.4195086359977722
1788772946240389400,8.607389404296875,-1.0612813234329224,-0.44508644938468933,0.3647017180919647
1788772946250358300,8.617358154296875,-1.094862937927246,-0.5096167325973511,0.34133380651474
1788772946260327400,8.627327392578126,-1.1148743629455566,-0.575581431388855,0.3442953824996948
1788772946270296300,8.63729638671875,-1.1311172246932983,-0.6449450850486755,0.3676989674568176
1788772946280264400,8.647264404296875,-1.1568305492401123,-0.7010458707809448,0.3963877856731415
1788772946290233300,8.6572333984375,-1.1959137916564941,-0.7599882483482361,0.40982183814048767
1788772946300202500,8.667202392578124,-1.237553358078003,-0.7936016321182251,0.41805127263069153
1788772946310171400,8.67717138671875,-1.276534080505371,-0.7938168048858643,0.43333595991134644
1788772946320140300,8.687140380859375,-1.2750682830810547,-0.7463056445121765,0.48053106665611267
1788772946330108400,8.6971083984375,-1.2279865741729736,-0.649598240852356,0.559601902961731
1788772946340077300,8.707077392578125,-1.1419658660888672,-0.5416321158409119,0.6697561740875244
1788772946350046500,8.71704638671875,-1.0338658094406128,-0.4682508707046509,0.7936890125274658
1788772946360015400,8.727015380859376,-0.9262831211090088,-0.4191700220108032,0.9170030951499939
1788772946369983500,8.7369833984375,-0.8325393199920654,-0.43187251687049866,1.0455679893493652
1788772946379952400,8.746952392578125,-0.7807320356369019,-0.49703192710876465,1.1658226251602173
1788772946389921500,8.756921630859376,-0.7730104923248291,-0.5885298848152161,1.2405774593353271
1788772946399890400,8.766890380859374,-0.7873055934906006,-0.6907488703727722,1.26523756980896
1788772946409859300,8.776859375,-0.8171116709709167,-0.7940992116928101,1.247967004776001
1788772946419827500,8.786827392578125,-0.8846762776374817,-0.8721638321876526,1.1742424964904785
1788772946429796400,8.79679638671875,-0.9581412076950073,-0.9016316533088684,1.080421805381775
1788772946439765500,8.806765625,-0.9915627837181091,-0.8757835626602173,0.985393762588501
1788772946449734400,8.816734375,-0.9915302395820618,-0.8420363664627075,0.8717938661575317
1788772946459703600,8.82670361328125,-0.9739062786102295,-0.8240149021148682,0.7373911738395691
1788772946469671200,8.836671142578124,-0.9655367732048035,-0.8094687461853027,0.5933765172958374
1788772946479640300,8.846640380859375,-0.998822808265686,-0.7886546850204468,0.44923120737075806
1788772946489609200,8.856609130859376,-1.0783687829971313,-0.795132040977478,0.28877735137939453
1788772946499578000,8.866578125,-1.1751481294631958,-0.8238747715950012,0.12112737447023392
1788772946509546200,8.876546142578125,-1.261672854423523,-0.8506895899772644,-0.03367924690246582
1788772946519515400,8.886515380859375,-1.324049711227417,-0.8740838170051575,-0.16715529561042786
1788772946529484300,8.896484375,-1.3428113460540771,-0.8610644340515137,-0.24650311470031738
1788772946539453200,8.906453125,-1.3104006052017212,-0.8096476197242737,-0.25983086228370667
1788772946549422300,8.91642236328125,-1.2297749519348145,-0.723471462726593,-0.20045383274555206
1788772946559390200,8.92639013671875,-1.1092607975006104,-0.646719217300415,-0.09405440092086792
1788772946569359400,8.936359375,-0.9527361392974854,-0.5492291450500488,0.05596386641263962
1788772946579328300,8.946328369140625,-0.7914575934410095,-0.447009414434433,0.2373737394809723
1788772946589297400,8.95629736328125,-0.6526890397071838,-0.36405009031295776,0.42408397793769836
1788772946599266300,8.966266357421874,-0.5644410848617554,-0.2891959249973297,0.5807061791419983
1788772946609234400,8.976234375,-0.5289014577865601,-0.18786503374576569,0.6946367621421814
1788772946619203300,8.986203369140625,-0.5197397470474243,-0.1038208156824112,0.7555990219116211
1788772946629172200,8.996172119140626,-0.5216633081436157,-0.06286832690238953,0.771229088306427
1788772946639141400,9.006141357421875,-0.5161595940589905,-0.08762937039136887,0.7644385695457458
1788772946649110300,9.0161103515625,-0.4957813024520874,-0.1561804711818695,0.7626199126243591
1788772946659078400,9.026078369140626,-0.4532603919506073,-0.2356066256761551,0.7792127728462219
1788772946669047300,9.03604736328125,-0.3932066261768341,-0.33804085850715637,0.819551944732666
1788772946679016400,9.046016357421875,-0.3344478905200958,-0.46799010038375854,0.8702130317687988
1788772946688985300,9.0559853515625,-0.27580028772354126,-0.6129254698753357,0.9166697263717651
1788772946698953500,9.065953369140624,-0.22127309441566467,-0.7606309056282043,0.9379152655601501
1788772946708922400,9.07592236328125,-0.1726624071598053,-0.8498385548591614,0.9466200470924377
1788772946718891300,9.085891357421875,-0.15207000076770782,-0.8449697494506836,0.9562503695487976
1788772946728860400,9.0958603515625,-0.1763300746679306,-0.7939369082450867,0.9267033934593201
1788772946738829300,9.105829345703125,-0.2295442670583725,-0.7157999277114868,0.8475735783576965
1788772946748797400,9.11579736328125,-0.2867838442325592,-0.6612775921821594,0.721421480178833
1788772946758766300,9.125766357421876,-0.3241797089576721,-0.6577900052070618,0.5622805953025818
1788772946768735500,9.135735595703125,-0.32493019104003906,-0.6985981464385986,0.39351052045822144
1788772946778704400,9.145704345703125,-0.305987149477005,-0.746249258518219,0.2499658614397049
1788772946788673300,9.15567333984375,-0.2801150679588318,-0.8140549659729004,0.1444021463394165
1788772946798641400,9.165641357421874,-0.259575754404068,-0.8271462917327881,0.09346768260002136
1788772946808610600,9.175610595703125,-0.24654731154441833,-0.776488184928894,0.11424646526575089
1788772946818579500,9.185579345703125,-0.2501771152019501,-0.6876713633537292,0.17419672012329102
1788772946828548400,9.19554833984375,-0.25668612122535706,-0.5879032015800476,0.26786649227142334
1788772946838517500,9.205517578125,-0.2628486752510071,-0.4903463125228882,0.36473897099494934
1788772946848485000,9.215485107421875,-0.27530616521835327,-0.3801327347755432,0.453447550535202
1788772946858454300,9.225454345703126,-0.29921475052833557,-0.2759314179420471,0.5347684025764465
1788772946868423400,9.23542333984375,-0.3176209032535553,-0.19234786927700043,0.6034468412399292
1788772946878392600,9.245392578125,-0.307242751121521,-0.1636047661304474,0.6476346850395203
1788772946888360200,9.255360107421875,-0.2534596920013428,-0.15179577469825745,0.6711698174476624
1788772946898329300,9.265329345703124,-0.17652836441993713,-0.137620747089386,0.6607240438461304
1788772946908298200,9.27529833984375,-0.09300709515810013,-0.14851760864257812,0.6108784675598145
1788772946918267100,9.28526708984375,-0.026122448965907097,-0.21004942059516907,0.5426424741744995
1788772946928236300,9.295236328125,0.010357263498008251,-0.30210161209106445,0.48314687609672546
1788772946938828300,9.305828369140626,0.012189784087240696,-0.45186206698417664,0.3914709985256195
1788772946948797200,9.315797119140624,-0.02484971657395363,-0.5549750924110413,0.31534266471862793
1788772946958766300,9.325766357421875,-0.09830664843320847,-0.6117082834243774,0.2391185611486435
1788772946968735500,9.335735595703126,-0.17537719011306763,-0.6064147353172302,0.17020633816719055
1788772946978703600,9.34570361328125,-0.23233075439929962,-0.5916839838027954,0.11125247925519943
1788772946988672800,9.3556728515625,-0.26078689098358154,-0.562057375907898,0.057543713599443436
1788772946998641700,9.3656416015625,-0.2507959008216858,-0.5289093255996704,0.02165823057293892
1788772947008610800,9.37561083984375,-0.22045956552028656,-0.5085060596466064,0.012980586849153042
1788772947018580000,9.385580078125,-0.17892159521579742,-0.5077885389328003,0.01999051123857498
1788772947028547800,9.3955478515625,-0.13413068652153015,-0.5087558031082153,0.03563924878835678
1788772947038516700,9.405516845703126,-0.0832296758890152,-0.51957106590271,0.0564807765185833
1788772947048485600,9.415485595703124,-0.04038287699222565,-0.5258049964904785,0.07207171618938446
1788772947058454800,9.425454833984375,-0.001961679896339774,-0.4983105957508087,0.09206680953502655
1788772947068423700,9.435423583984376,0.016180839389562607,-0.4479779303073883,0.10749557614326477
1788772947078391800,9.445391845703124,-0.005266326479613781,-0.3611241579055786,0.09129759669303894
1788772947088360700,9.455360595703125,-0.06997901201248169,-0.24293066561222076,0.02795271947979927
1788772947098329900,9.465329833984375,-0.17738637328147888,-0.13511182367801666,-0.08765322715044022
1788772947108298800,9.475298828125,-0.3009701073169708,-0.10503621399402618,-0.25139421224594116
1788772947118267600,9.485267578125,-0.41694068908691406,-0.1484781801700592,-0.4629363417625427
1788772947128235800,9.49523583984375,-0.5093875527381897,-0.2117847055196762,-0.7007433176040649
1788772947138205000,9.505204833984376,-0.5447357892990112,-0.2867978811264038,-0.927178144454956
1788772947148173800,9.515173828125,-0.5291509628295898,-0.3656791150569916,-1.09977388381958
1788772947158142700,9.525142822265625,-0.4881143569946289,-0.4026790261268616,-1.1869621276855469
1788772947168110800,9.53511083984375,-0.43802934885025024,-0.4046846330165863,-1.1723095178604126
1788772947178079700,9.545079833984374,-0.39582952857017517,-0.3695942461490631,-1.0629791021347046
1788772947188049000,9.555048828125,-0.3669337034225464,-0.31775742769241333,-0.9061127305030823
1788772947198017800,9.565017822265625,-0.34201592206954956,-0.2657984793186188,-0.73357093334198
1788772947207987000,9.574987060546874,-0.31225934624671936,-0.23133161664009094,-0.5617328882217407
1788772947217954800,9.584954833984375,-0.2821318209171295,-0.20156359672546387,-0.38596105575561523
1788772947227924000,9.594924072265625,-0.26036664843559265,-0.1611039936542511,-0.2084997594356537
1788772947237892900,9.604892822265626,-0.2642592489719391,-0.08817049860954285,-0.01498477254062891
1788772947247861800,9.61486181640625,-0.2890050709247589,-0.07059070467948914,0.15386629104614258
1788772947257831000,9.624830810546875,-0.31671571731567383,-0.16524331271648407,0.2790522873401642
1788772947267798800,9.634798828125,-0.3237760066986084,-0.29728707671165466,0.3904874920845032
1788772947277768000,9.644767822265624,-0.3018287420272827,-0.4172837436199188,0.5110508799552917
1788772947287736800,9.65473681640625,-0.2765507996082306,-0.48468703031539917,0.6079934239387512
1788772947297706000,9.6647060546875,-0.26541271805763245,-0.45968449115753174,0.6674476861953735
1788772947307675000,9.6746748046875,-0.26455652713775635,-0.37946343421936035,0.6652743220329285
1788772947317643000,9.68464306640625,-0.285502165555954,-0.2706127464771271,0.5930972099304199
1788772947327612000,9.69461181640625,-0.32667970657348633,-0.170013427734375,0.45268625020980835
1788772947337580800,9.704580810546876,-0.37373650074005127,-0.08100887387990952,0.2807601988315582
1788772947347550000,9.714550048828125,-0.4136096239089966,-0.022195888683199883,0.11691827327013016
1788772947358141000,9.725140869140626,-0.4282999038696289,-0.03462187945842743,-0.019578101113438606
1788772947368109800,9.73510986328125,-0.4221184551715851,-0.098089799284935,-0.10470045357942581
1788772947378079000,9.745078857421875,-0.40769609808921814,-0.18510639667510986,-0.16124795377254486
1788772947388046800,9.755046875,-0.40065205097198486,-0.2843128442764282,-0.20468811690807343
1788772947398015700,9.765015625,-0.3910088837146759,-0.3789195120334625,-0.25177228450775146
1788772947407984600,9.774984619140625,-0.37613725662231445,-0.45783403515815735,-0.3019592761993408
1788772947417953800,9.784953857421876,-0.3557702302932739,-0.48283910751342773,-0.355324387550354
1788772947427922700,9.794922607421874,-0.32403919100761414,-0.41738954186439514,-0.3870583474636078
1788772947437890800,9.804890869140625,-0.28628668189048767,-0.29962289333343506,-0.3997400999069214
1788772947447859700,9.814859619140625,-0.24803383648395538,-0.19338619709014893,-0.38857027888298035
1788772947457828900,9.824828857421876,-0.2229137420654297,-0.10395809262990952,-0.34279873967170715
1788772947467797800,9.8347978515625,-0.2220655232667923,-0.050406716763973236,-0.30330538749694824
1788772947477766700,9.8447666015625,-0.21933993697166443,-0.04891538247466087,-0.31148871779441833
1788772947487734800,9.85473486328125,-0.1856466829776764,-0.05449763312935829,-0.35505324602127075
1788772947497703700,9.86470361328125,-0.10787289589643478,-0.02382889948785305,-0.39751604199409485
1788772947507672800,9.8746728515625,-0.009807052090764046,0.01227397657930851,-0.416032999753952
1788772947517641700,9.884641845703126,0.07317039370536804,0.04521070793271065,-0.3988890051841736
1788772947527611000,9.89461083984375,0.12734495103359222,0.07716730237007141,-0.3387177884578705
1788772947537578800,9.904578857421875,0.16323623061180115,0.08325593173503876,-0.22230955958366394
1788772947547548000,9.9145478515625,0.1919882446527481,0.06268513947725296,-0.05281347036361694
1788772947557516800,9.924516845703126,0.21260949969291687,0.010789263993501663,0.14202255010604858
1788772947567485700,9.934485595703125,0.2274680733680725,-0.071588434278965,0.3067744970321655
1788772947577454800,9.944454833984375,0.23587192595005035,-0.17440077662467957,0.4055318832397461
1788772947587422700,9.954422607421876,0.2408597618341446,-0.28724825382232666,0.42604437470436096
1788772947597392000,9.964391845703124,0.23656903207302094,-0.41459542512893677,0.3711383640766144
1788772947607360800,9.97436083984375,0.24049027264118195,-0.5003816485404968,0.2669728398323059
1788772947617330000,9.984329833984376,0.25655505061149597,-0.5071806311607361,0.15125681459903717
1788772947627298800,9.994298828125,0.28499630093574524,-0.45799341797828674,0.03618481382727623
1788772947637267000,10.004266845703125,0.3241657018661499,-0.3401325047016144,-0.04768911004066467
1788772947647235800,10.01423583984375,0.36906901001930237,-0.184396430850029,-0.06258763372898102
1788772947657205000,10.024205078125,0.41035234928131104,-0.058977920562028885,-0.028452696278691292
1788772947667174000,10.034173828125,0.4453103244304657,0.03145104646682739,0.03415289521217346
1788772947677142800,10.044142822265625,0.45830556750297546,0.08169612288475037,0.10906600207090378
1788772947687111000,10.05411083984375,0.43829989433288574,0.1251882016658783,0.1658397912979126
1788772947697079800,10.064079833984374,0.39335665106773376,0.16567039489746094,0.1921480894088745
1788772947707049000,10.074049072265625,0.3376121520996094,0.17523007094860077,0.1804424375295639
1788772947717017900,10.084017822265626,0.2860043942928314,0.1317906528711319,0.13788731396198273
1788772947726987000,10.093987060546874,0.23769278824329376,0.040224526077508926,0.06278936564922333
1788772947736956000,10.103955810546875,0.1971556395292282,-0.06977204978466034,-0.018435942009091377
1788772947746924000,10.113924072265625,0.17313872277736664,-0.1758585423231125,-0.0738869458436966
1788772947756893000,10.123892822265624,0.1676323413848877,-0.22542855143547058,-0.08419600129127502
1788772947766861800,10.13386181640625,0.17994706332683563,-0.2229589968919754,-0.06319138407707214
1788772947776831000,10.1438310546875,0.1904781609773636,-0.16449838876724243,-0.026172609999775887
1788772947786799900,10.1537998046875,0.20986837148666382,-0.032490551471710205,0.02947494015097618
1788772947796768000,10.16376806640625,0.2276291698217392,0.07805677503347397,0.07466928660869598
1788772947806737000,10.17373681640625,0.23981046676635742,0.11783161759376526,0.0891699343919754
1788772947816706000,10.1837060546875,0.24055317044258118,0.12029395997524261,0.07939454913139343
1788772947826675000,10.193675048828124,0.23292720317840576,0.08906865864992142,0.05517656356096268
1788772947836643800,10.203643798828125,0.20481020212173462,-0.007160033565014601,0.007099204696714878
1788772947846611700,10.21361181640625,0.16470485925674438,-0.09997891634702682,-0.05190445855259895
1788772947856580600,10.22358056640625,0.12762989103794098,-0.18492944538593292,-0.10824821144342422
1788772947866549800,10.2335498046875,0.10727295279502869,-0.2463696300983429,-0.13571472465991974
1788772947876518700,10.2435185546875,0.10463948547840118,-0.3116055428981781,-0.1342572569847107
1788772947886488000,10.253488037109374,0.10657879710197449,-0.3476064205169678,-0.11976061016321182
1788772947896457000,10.26345703125,0.10710926353931427,-0.2964552938938141,-0.08425246179103851
1788772947906424800,10.2734248046875,0.10194060206413269,-0.1747557669878006,-0.05202794820070267
1788772947916393700,10.283393798828126,0.10377442836761475,-0.043797798454761505,-0.0173434317111969
1788772947926363000,10.29336279296875,0.08504441380500793,0.04373950511217117,0.0048942300491034985
1788772947936331800,10.303331787109375,0.0465250238776207,0.08635527640581131,0.022351404651999474
1788772947946300700,10.31330078125,-0.0013652690686285496,0.060436591506004333,0.04369077831506729
1788772947956268800,10.323268798828124,-0.046557892113924026,-0.026512371376156807,0.06922511011362076
1788772947966237700,10.33323779296875,-0.09596405178308487,-0.14828380942344666,0.087988942861557
1788772947976206300,10.343206298828125,-0.1408850997686386,-0.2347082942724228,0.0926423892378807
1788772947986175200,10.35317529296875,-0.17543962597846985,-0.27694204449653625,0.09692341834306717
1788772947996144400,10.363144287109375,-0.18976913392543793,-0.27065345644950867,0.10291919112205505
1788772948006113300,10.37311328125,-0.18328619003295898,-0.21658329665660858,0.11813117563724518
1788772948016081400,10.383081298828126,-0.16972777247428894,-0.1138673946261406,0.13789458572864532
1788772948026050300,10.39305029296875,-0.15008270740509033,-0.029028136283159256,0.14882367849349976
1788772948036019200,10.403019287109375,-0.1386207640171051,0.024723296985030174,0.16048505902290344
1788772948045988400,10.41298828125,-0.1324118822813034,0.09735649079084396,0.16492055356502533
1788772948055957200,10.422957275390624,-0.12625640630722046,0.15965169668197632,0.1594923734664917
1788772948065925400,10.43292529296875,-0.11359255015850067,0.14012061059474945,0.1139211654663086
1788772948075894300,10.442894287109375,-0.10123901814222336,0.07032980769872665,0.049269724637269974
1788772948085863400,10.452863525390624,-0.08354311436414719,-0.027862805873155594,-0.020635323598980904
1788772948095832300,10.462832275390625,-0.08480944484472275,-0.14188897609710693,-0.09252788871526718
1788772948105801200,10.47280126953125,-0.11861801147460938,-0.2545529305934906,-0.1590922623872757
1788772948115769000,10.48276904296875,-0.18409110605716705,-0.328667551279068,-0.22807276248931885
1788772948125738200,10.49273828125,-0.26130571961402893,-0.37264886498451233,-0.309201717376709
1788772948135707400,10.502707275390625,-0.32913362979888916,-0.40068915486335754,-0.41154471039772034
1788772948145676300,10.51267626953125,-0.38880813121795654,-0.4363528788089752,-0.5375516414642334
1788772948155645400,10.5226455078125,-0.4243297576904297,-0.4057858884334564,-0.6411139965057373
1788772948165614300,10.5326142578125,-0.4266400635242462,-0.3229144513607025,-0.6808606386184692
1788772948175582200,10.542582275390625,-0.40760156512260437,-0.20917265117168427,-0.6462246775627136
1788772948185551000,10.552551025390626,-0.3739551901817322,-0.12600639462471008,-0.5389443039894104
1788772948195520300,10.562520263671875,-0.3381654620170593,-0.09465126693248749,-0.40433600544929504
1788772948205489200,10.5724892578125,-0.3152521550655365,-0.1099276915192604,-0.2907407283782959
1788772948215458000,10.5824580078125,-0.3074742555618286,-0.1489572823047638,-0.21700215339660645
1788772948225426200,10.59242626953125,-0.3061530590057373,-0.20286712050437927,-0.15955591201782227
1788772948235395000,10.60239501953125,-0.3079392611980438,-0.22223609685897827,-0.10815738886594772
1788772948245364200,10.6123642578125,-0.31598761677742004,-0.22043712437152863,-0.03660863637924194
1788772948255333000,10.6223330078125,-0.3205428719520569,-0.21413788199424744,0.07648111134767532
1788772948265302300,10.63230224609375,-0.33924680948257446,-0.19309037923812866,0.2572881579399109
1788772948275270100,10.642270263671875,-0.3824002146720886,-0.16057944297790527,0.4838828146457672
1788772948285239300,10.6522392578125,-0.44454509019851685,-0.10488130152225494,0.7082315683364868
1788772948295208200,10.662208251953125,-0.49898314476013184,-0.01703198067843914,0.8793471455574036
1788772948305177000,10.672177001953125,-0.5250839591026306,0.05376975238323212,0.9571069478988647
1788772948315146200,10.682146240234376,-0.527464747428894,0.10613458603620529,0.9376705288887024
1788772948325115100,10.692115234375,-0.5034036040306091,0.1108555719256401,0.8469403386116028
1788772948335083300,10.702083251953125,-0.46797433495521545,0.017778676003217697,0.6779366135597229
1788772948345052200,10.71205224609375,-0.43706461787223816,-0.12978309392929077,0.45577335357666016
1788772948355021300,10.722021240234374,-0.4331112205982208,-0.27724164724349976,0.18847574293613434
1788772948364990200,10.731990234375,-0.4704868197441101,-0.38963478803634644,-0.09781886637210846
1788772948374959000,10.741958984375,-0.5127947330474854,-0.42916226387023926,-0.36079347133636475
1788772948384927200,10.75192724609375,-0.537990927696228,-0.40983515977859497,-0.5932791829109192
1788772948394896400,10.761896484375,-0.5303807258605957,-0.3272220492362976,-0.7651393413543701
1788772948404865300,10.771865234375,-0.4876663088798523,-0.16096384823322296,-0.8166036009788513
1788772948414834200,10.781834228515624,-0.425455242395401,0.02732154354453087,-0.7216940522193909
1788772948424803300,10.79180322265625,-0.3618434965610504,0.1958218663930893,-0.4877883195877075
1788772948434772200,10.801772216796875,-0.3047816753387451,0.29737570881843567,-0.18343888223171234
1788772948444740400,10.811740234375,-0.2523285746574402,0.3205734193325043,0.11615394800901413
1788772948454709200,10.821709228515624,-0.19712328910827637,0.2854476273059845,0.3793124258518219
1788772948464678400,10.831678466796875,-0.15194648504257202,0.18551437556743622,0.5883742570877075
1788772948474647300,10.841647216796876,-0.13418886065483093,0.03007063828408718,0.7132664918899536
1788772948484616200,10.8516162109375,-0.12934882938861847,-0.1306961327791214,0.7589777708053589
1788772948494584300,10.861584228515625,-0.10597884654998779,-0.28234827518463135,0.737521767616272
1788772948504553200,10.87155322265625,-0.0626276433467865,-0.3823390603065491,0.6756208539009094
1788772948514522400,10.8815224609375,0.023103108629584312,-0.43102872371673584,0.5944388508796692
1788772948524491300,10.8914912109375,0.13976819813251495,-0.43375447392463684,0.5154995322227478
1788772948534460400,10.90146044921875,0.2635551989078522,-0.36999809741973877,0.47013628482818604
1788772948544428300,10.91142822265625,0.35710644721984863,-0.2862113118171692,0.453097939491272
1788772948554397400,10.9213974609375,0.40908727049827576,-0.23640230298042297,0.44356444478034973
1788772948564366300,10.931366455078125,0.4486152231693268,-0.20890569686889648,0.4219358265399933
1788772948574335200,10.941335205078126,0.49836525321006775,-0.20629392564296722,0.3671535551548004
1788772948584304400,10.951304443359374,0.5529640913009644,-0.20142912864685059,0.2810050845146179
1788772948594272300,10.961272216796875,0.607561469078064,-0.19093017280101776,0.1886426955461502
1788772948604241400,10.971241455078125,0.6738938689231873,-0.17592352628707886,0.11004961282014847
1788772948614210300,10.981210205078124,0.758810818195343,-0.169722780585289,0.06525245308876038
1788772948624179500,10.991179443359375,0.8551086187362671,-0.13856539130210876,0.06782320141792297
1788772948634148400,11.0011484375,0.9420417547225952,-0.058196548372507095,0.12980937957763672
1788772948644117200,11.0111171875,0.9948250651359558,0.04954669252038002,0.243096262216568
1788772948654085000,11.021085205078125,0.9930111765861511,0.13985762000083923,0.3736276924610138
1788772948664054300,11.03105419921875,0.9370035529136658,0.18354356288909912,0.4826316833496094
1788772948674023200,11.041023193359376,0.8726679682731628,0.17150187492370605,0.5542751550674438
1788772948683992000,11.050991943359374,0.8122738599777222,0.08667486906051636,0.5637165904045105
1788772948693961200,11.060961181640625,0.7519568204879761,-0.0040727765299379826,0.526266872882843
1788772948703929000,11.07092919921875,0.7019490599632263,-0.03881105035543442,0.46597743034362793
1788772948713898200,11.080898193359374,0.6618219614028931,-0.029913151636719704,0.4037795960903168
1788772948723867100,11.0908671875,0.6247633099555969,0.03869520127773285,0.3700903356075287
1788772948733836300,11.100836181640625,0.5906643271446228,0.14596107602119446,0.36342668533325195
1788772948743805200,11.11080517578125,0.575555682182312,0.2578316628932953,0.3662656247615814
1788772948753773300,11.120773193359375,0.5808269381523132,0.3376649022102356,0.3345770239830017
1788772948763742200,11.1307421875,0.5953912138938904,0.40814971923828125,0.2708803415298462
1788772948773711000,11.140711181640626,0.6091989874839783,0.44036561250686646,0.17383058369159698
1788772948783680300,11.15068017578125,0.6122807860374451,0.3775634765625,0.045024946331977844
1788772948793649200,11.160649169921875,0.6007522344589233,0.2612680196762085,-0.08584971725940704
1788772948803618300,11.170618408203126,0.5631899237632751,0.11007797718048096,-0.1903287172317505
1788772948813586200,11.180586181640624,0.5049964785575867,-0.020914515480399132,-0.26221954822540283
1788772948823555300,11.190555419921875,0.44346141815185547,-0.10343708842992783,-0.31453657150268555
1788772948833524200,11.200524169921875,0.38399115204811096,-0.1684231460094452,-0.34861746430397034
1788772948843493000,11.2104931640625,0.3197474479675293,-0.1745891571044922,-0.34384745359420776
1788772948853462300,11.220462158203125,0.25836822390556335,-0.1082746684551239,-0.2561774253845215
1788772948863430100,11.23043017578125,0.19509631395339966,0.029548978433012962,-0.09138928353786469
1788772948873399300,11.2403994140625,0.13813704252243042,0.20550081133842468,0.1223970428109169
1788772948883368200,11.2503681640625,0.10143069922924042,0.34420275688171387,0.34877079725265503
1788772948893337300,11.26033740234375,0.05651497840881348,0.3634653091430664,0.5251941680908203
1788772948903306200,11.27030615234375,-0.02065543830394745,0.3409131169319153,0.6241888999938965
1788772948913274400,11.2802744140625,-0.11434870213270187,0.2464800775051117,0.6261675953865051
1788772948923243300,11.2902431640625,-0.23146174848079681,0.11979110538959503,0.5230345726013184
1788772948933212200,11.300212158203125,-0.35645630955696106,0.025071224197745323,0.3536195158958435
1788772948943181300,11.310181396484374,-0.4751424789428711,-0.0035218046978116035,0.14540797472000122
1788772948953150200,11.320150146484375,-0.5637487173080444,0.032544661313295364,-0.05134802684187889
1788772948963118300,11.330118408203125,-0.6026188731193542,0.09637396782636642,-0.18051080405712128
1788772948973087500,11.34008740234375,-0.5813086032867432,0.16218887269496918,-0.22057506442070007
1788772948983056600,11.350056640625,-0.5232554078102112,0.22876203060150146,-0.1957581341266632
1788772948993025500,11.360025634765625,-0.4482658803462982,0.26660260558128357,-0.1428600251674652
1788772949002994400,11.369994384765626,-0.3770614564418793,0.2165469080209732,-0.10055093467235565
1788772949012963600,11.379963623046875,-0.3214362859725952,0.12572938203811646,-0.0704691931605339
1788772949022931500,11.389931396484375,-0.2955002188682556,0.0333288349211216,-0.05943859741091728
1788772949032900600,11.399900634765626,-0.30338433384895325,-0.06745723634958267,-0.07069172710180283
1788772949042869500,11.409869384765624,-0.33294808864593506,-0.14830414950847626,-0.10751205682754517
1788772949052838700,11.419838623046875,-0.35990631580352783,-0.21470779180526733,-0.1536186784505844
1788772949062807600,11.4298076171875,-0.3822060525417328,-0.25013262033462524,-0.20150817930698395
1788772949072775400,11.439775390625,-0.38683611154556274,-0.2543835937976837,-0.24091094732284546
1788772949082744300,11.449744384765625,-0.3844616413116455,-0.22326084971427917,-0.26905524730682373
1788772949092713500,11.45971337890625,-0.36372512578964233,-0.1506110429763794,-0.25802746415138245
1788772949102682400,11.469682373046876,-0.3255223333835602,-0.05713862553238869,-0.20212262868881226
1788772949112651500,11.479651611328125,-0.27920863032341003,0.022549016401171684,-0.11107181757688522
1788772949122619400,11.489619384765625,-0.23461109399795532,0.05565796419978142,0.003024925710633397
1788772949132588300,11.49958837890625,-0.21100887656211853,0.04412992298603058,0.10191211104393005
1788772949142557400,11.509557373046874,-0.20612357556819916,-0.016540881246328354,0.17292024195194244
1788772949152526300,11.5195263671875,-0.20151585340499878,-0.10328898578882217,0.23620563745498657
1788772949162495500,11.52949560546875,-0.18603304028511047,-0.1771344393491745,0.2974469065666199
1788772949172463400,11.53946337890625,-0.17149297893047333,-0.1948774755001068,0.34589242935180664
1788772949182432500,11.5494326171875,-0.1684252768754959,-0.14287684857845306,0.3673343360424042
1788772949192401400,11.5594013671875,-0.17888030409812927,-0.06513910740613937,0.3602190911769867
1788772949202370300,11.569370361328126,-0.19890300929546356,-0.02409660629928112,0.33478376269340515
1788772949212339500,11.57933935546875,-0.21507249772548676,-0.02484039217233658,0.30296188592910767
1788772949222307300,11.589307373046875,-0.2105046510696411,-0.026448674499988556,0.2822651267051697
1788772949232276500,11.5992763671875,-0.20029275119304657,-0.0419590100646019,0.2717590630054474
1788772949242245400,11.609245361328124,-0.20988678932189941,-0.044709526002407074,0.249052956700325
1788772949252214500,11.619214599609375,-0.2520085573196411,-0.015409249812364578,0.21856917440891266
1788772949262183400,11.629183349609375,-0.30037716031074524,0.004963400308042765,0.201975017786026
1788772949272151600,11.639151611328124,-0.3334222733974457,-0.003533434122800827,0.2191726565361023
1788772949282120400,11.649120361328125,-0.3498643636703491,-0.014390343800187111,0.26190680265426636
1788772949292089300,11.65908935546875,-0.35350558161735535,-0.05872274562716484,0.30742695927619934
1788772949302058500,11.66905859375,-0.34109845757484436,-0.10803569108247757,0.33681416511535645
1788772949312027400,11.67902734375,-0.3151395916938782,-0.14196832478046417,0.34962207078933716
1788772949321996500,11.68899658203125,-0.2905983030796051,-0.1372571885585785,0.3484516143798828
1788772949331964400,11.69896435546875,-0.28243279457092285,-0.10435563325881958,0.33017638325691223
1788772949341933600,11.70893359375,-0.3010096848011017,-0.08687570691108704,0.27359670400619507
1788772949351902500,11.71890234375,-0.3241329789161682,-0.09060008823871613,0.19134625792503357
1788772949361871400,11.728871337890626,-0.3386269509792328,-0.08969888091087341,0.13903005421161652
1788772949371840500,11.738840576171874,-0.34071165323257446,-0.04198376089334488,0.12242334336042404
1788772949381808600,11.74880859375,-0.32985368371009827,0.014641433022916317,0.13890324532985687
1788772949391777500,11.758777587890625,-0.3158145248889923,0.03224329277873039,0.1621667742729187
1788772949401746400,11.768746337890626,-0.30261218547821045,0.05507936701178551,0.18345582485198975
1788772949411715600,11.778715576171875,-0.3033933937549591,0.03881799802184105,0.18204154074192047
1788772949421684500,11.7886845703125,-0.30652421712875366,-0.046593036502599716,0.14605504274368286
1788772949431652600,11.798652587890626,-0.29723241925239563,-0.15449079871177673,0.06988602131605148
1788772949441621500,11.80862158203125,-0.2702665627002716,-0.24965059757232666,-0.04115874320268631
1788772949451590700,11.818590576171875,-0.2444981038570404,-0.3372383713722229,-0.18539166450500488
1788772949461559600,11.8285595703125,-0.2029125839471817,-0.3438001573085785,-0.3344477415084839
1788772949471528400,11.838528564453124,-0.1338539868593216,-0.3130411207675934,-0.4815077781677246
1788772949481496600,11.84849658203125,-0.024828966706991196,-0.2323894202709198,-0.591009259223938
1788772949491465500,11.858465576171875,0.13181737065315247,-0.1057092472910881,-0.6315217614173889
1788772949501434600,11.8684345703125,0.3113352060317993,0.03765377402305603,-0.6061184406280518
1788772949511403500,11.878403564453125,0.4854493737220764,0.13731355965137482,-0.5379055738449097
1788772949521372700,11.88837255859375,0.6345488429069519,0.21282297372817993,-0.4342542588710785
1788772949531340300,11.89834033203125,0.7601538300514221,0.3187059164047241,-0.31081879138946533
1788772949541309400,11.908309326171874,0.8592934608459473,0.33926764130592346,-0.20975451171398163
1788772949551278300,11.9182783203125,0.9215689897537231,0.2965918481349945,-0.1591888666152954
1788772949561247500,11.92824755859375,0.9542068243026733,0.19583381712436676,-0.16826412081718445
1788772949571216600,11.938216552734374,0.9694951772689819,0.029453031718730927,-0.2349030077457428
1788772949581184500,11.9481845703125,0.9849708080291748,-0.12926071882247925,-0.3182612657546997
1788772949591153400,11.9581533203125,1.0068308115005493,-0.1948613077402115,-0.3905474543571472
1788772949601122300,11.968122314453124,1.017228603363037,-0.20131254196166992,-0.44908028841018677
1788772949611091500,11.978091552734375,1.0103013515472412,-0.13976646959781647,-0.45567813515663147
1788772949621060400,11.988060302734375,0.9328224658966064,-0.05046456307172775,-0.3592722415924072
1788772949631028500,11.998028564453126,0.9491842985153198,0.3651963174343109,-0.14120757579803467
1788772949640997400,12.007997314453124,1.0021761655807495,0.5867782235145569,0.1036599725484848
1788772949650966500,12.017966552734375,1.0196369886398315,0.6514875292778015,0.2884606420993805
1788772949660935400,12.027935302734376,0.9739728569984436,0.5983553528785706,0.4001410901546478
1788772949670904300,12.037904296875,0.8807771801948547,0.4569724500179291,0.4155093729496002
1788772949680872400,12.04787255859375,0.7629640102386475,0.2514219284057617,0.32848048210144043
1788772949690841300,12.05784130859375,0.6516294479370117,0.11061854660511017,0.16569624841213226
1788772949700810500,12.067810546875,0.5624638795852661,0.07774954289197922,-0.030995773151516914
1788772949710779400,12.077779296875,0.533488392829895,0.10683923959732056,-0.21992066502571106
1788772949720747500,12.08774755859375,0.5790576934814453,0.12747900187969208,-0.36578837037086487
1788772949730716400,12.09771630859375,0.6566042304039001,0.19025903940200806,-0.4892645478248596
1788772949740685600,12.107685546875,0.7390444874763489,0.29662248492240906,-0.5865932106971741
1788772949750654500,12.117654541015625,0.7989419102668762,0.41115304827690125,-0.6512696743011475
1788772949760623400,12.127623291015626,0.8144127726554871,0.5197421312332153,-0.6792286038398743
1788772949770591500,12.137591552734374,0.7726603150367737,0.6005301475524902,-0.6711704134941101
1788772949780560400,12.147560302734375,0.68574458360672,0.6069827675819397,-0.6379136443138123
1788772949790529500,12.157529541015625,0.5514535307884216,0.5287248492240906,-0.5967525243759155
1788772949800498400,12.16749853515625,0.3856041431427002,0.414116770029068,-0.5594253540039062
1788772949810467600,12.177467529296875,0.2226390391588211,0.31357288360595703,-0.49381574988365173
1788772949820435500,12.187435546875,0.10027609765529633,0.3014030158519745,-0.3870704174041748
1788772949830404600,12.197404541015626,0.05030938237905502,0.4240540862083435,-0.23138569295406342
1788772949840373500,12.20737353515625,0.08258742094039917,0.5288745164871216,-0.07694525271654129
1788772949850342400,12.21734228515625,0.15375418961048126,0.5700628161430359,0.0463896244764328
1788772949860311600,12.2273115234375,0.24260683357715607,0.6330825090408325,0.15096025168895721
1788772949870279400,12.237279541015624,0.29490378499031067,0.6695003509521484,0.21030963957309723
1788772949880248600,12.24724853515625,0.28677237033843994,0.6759108901023865,0.22190052270889282
1788772949890217500,12.257217529296875,0.22055138647556305,0.6538862586021423,0.1945256143808365
1788772949900186600,12.2671865234375,0.1215696632862091,0.56881183385849,0.12142664194107056
1788772949910155500,12.277155517578125,0.018355175852775574,0.4954986870288849,0.041069261729717255
1788772949920123600,12.28712353515625,-0.055288948118686676,0.4355541467666626,0.009059399366378784
1788772949930092500,12.297092529296876,-0.12828747928142548,0.30171239376068115,0.001500067301094532
1788772949940061700,12.307061767578125,-0.24077408015727997,0.12212797999382019,-0.0026243701577186584
1788772949950030600,12.317030517578125,-0.20999084413051605,0.4155101478099823,0.0985192209482193
1788772949959999500,12.32699951171875,-0.08266565203666687,0.6366598606109619,0.202528178691864
1788772949969967400,12.33696728515625,0.011797408573329449,0.6869139075279236,0.25306540727615356
1788772949979936300,12.346936279296875,0.03616799786686897,0.7928124070167542,0.2858491837978363
1788772949989905400,12.356905517578125,0.03439919650554657,0.9117714166641235,0.3003782331943512
1788772949999874300,12.366874267578124,-0.02143530547618866,0.9735338091850281,0.29167208075523376
1788772950009843500,12.376843505859375,-0.1377706527709961,0.9528745412826538,0.24377278983592987
