time,seconds_elapsed,z,y,x
1788957783752055000,0.035054931640625,-0.739166259765625,-0.6656341552734375,0.3029327392578125
1788957783762105000,0.04510498046875,-0.7346038818359375,-0.642730712890625,0.3202056884765625
1788957783772155100,0.055155029296875,-0.7412109375,-0.6195526123046875,0.3548736572265625
1788957783782204000,0.065203857421875,-0.7691650390625,-0.621124267578125,0.3835601806640625
1788957783792254000,0.07525390625,-0.790374755859375,-0.616424560546875,0.3949737548828125
1788957783802304000,0.085303955078125,-0.7923736572265625,-0.5998992919921875,0.4281463623046875
1788957783812353800,0.095353759765625,-0.80877685546875,-0.5933074951171875,0.4673004150390625
1788957783822403000,0.105403076171875,-0.80072021484375,-0.59588623046875,0.4982452392578125
1788957783832453000,0.115453125,-0.7928314208984375,-0.57183837890625,0.519378662109375
1788957783842503000,0.1255029296875,-0.78021240234375,-0.514190673828125,0.53118896484375
1788957783852553000,0.135552978515625,-0.7366485595703125,-0.4777984619140625,0.5145111083984375
1788957783862603000,0.14560302734375,-0.718475341796875,-0.455535888671875,0.480194091796875
1788957783872652000,0.155652099609375,-0.6921844482421875,-0.4406280517578125,0.4432220458984375
1788957783882701800,0.165701904296875,-0.6706085205078125,-0.461944580078125,0.41973876953125
1788957783892752000,0.175751953125,-0.6403350830078125,-0.4626007080078125,0.4528350830078125
1788957783902802000,0.185802001953125,-0.6253662109375,-0.4146728515625,0.530181884765625
1788957783912852000,0.19585205078125,-0.63323974609375,-0.3575439453125,0.572845458984375
1788957783922901000,0.20590087890625,-0.7021484375,-0.3381195068359375,0.5562286376953125
1788957783932951000,0.215950927734375,-0.778564453125,-0.3597564697265625,0.5673675537109375
1788957783943001000,0.2260009765625,-0.764007568359375,-0.3506317138671875,0.5946044921875
1788957783953051000,0.23605078125,-0.6966094970703125,-0.3088531494140625,0.586944580078125
1788957783963100000,0.246099853515625,-0.704833984375,-0.2471160888671875,0.594696044921875
1788957783973150000,0.25614990234375,-0.706390380859375,-0.19622802734375,0.6927032470703125
1788957783983199700,0.26619970703125,-0.6297454833984375,-0.187286376953125,0.74285888671875
1788957783993249800,0.276249755859375,-0.574493408203125,-0.2354583740234375,0.7232513427734375
1788957784003299800,0.2862998046875,-0.5916595458984375,-0.34906005859375,0.67694091796875
1788957784013349000,0.29634912109375,-0.604583740234375,-0.4689483642578125,0.6260528564453125
1788957784023399000,0.30639892578125,-0.5904388427734375,-0.554412841796875,0.6206817626953125
1788957784033449000,0.316448974609375,-0.5619354248046875,-0.588958740234375,0.6117401123046875
1788957784043499000,0.3264990234375,-0.5793914794921875,-0.662750244140625,0.62139892578125
1788957784053547800,0.3365478515625,-0.614288330078125,-0.7159271240234375,0.666107177734375
1788957784063597800,0.346597900390625,-0.600921630859375,-0.68804931640625,0.7216644287109375
1788957784073647900,0.35664794921875,-0.5402679443359375,-0.6898193359375,0.7520751953125
1788957784083698000,0.366697998046875,-0.47698974609375,-0.7943267822265625,0.7829132080078125
1788957784093748000,0.376748046875,-0.470458984375,-0.92132568359375,0.7760772705078125
1788957784103797000,0.386796875,-0.5093841552734375,-0.9738922119140625,0.7516632080078125
1788957784113847000,0.396846923828125,-0.3961029052734375,-1.029998779296875,0.7857208251953125
1788957784123896800,0.406896728515625,-0.2376861572265625,-1.1017608642578125,0.817291259765625
1788957784133947000,0.41694677734375,-0.0985260009765625,-1.1580657958984375,0.8018646240234375
1788957784143997000,0.426996826171875,0.065582275390625,-1.215057373046875,0.7946929931640625
1788957784154046000,0.4370458984375,0.26654052734375,-1.2229766845703125,0.7859649658203125
1788957784164096000,0.447095947265625,0.4711456298828125,-1.2850341796875,0.7174835205078125
1788957784174146000,0.45714599609375,0.627655029296875,-1.4224700927734375,0.677581787109375
1788957784184196000,0.467196044921875,0.74371337890625,-1.5198822021484375,0.5899200439453125
1788957784194244900,0.477244873046875,0.2946929931640625,-1.3510284423828125,0.72637939453125
1788957784204295000,0.487294921875,0.340606689453125,-0.9639892578125,0.891204833984375
1788957784214345000,0.497344970703125,0.3198699951171875,-0.7946319580078125,0.87939453125
1788957784224395000,0.50739501953125,0.12078857421875,-0.714447021484375,0.85595703125
1788957784234444800,0.51744482421875,0.0401763916015625,-0.639617919921875,0.8186798095703125
1788957784244494000,0.527494140625,-0.084625244140625,-0.5607452392578125,0.762115478515625
1788957784254544100,0.537544189453125,-0.110748291015625,-0.4948577880859375,0.708740234375
1788957784264594000,0.547593994140625,-0.1681671142578125,-0.367431640625,0.60931396484375
1788957784274644000,0.55764404296875,-0.2209014892578125,-0.3462371826171875,0.5236053466796875
1788957784284693000,0.56769287109375,-0.292999267578125,-0.4511871337890625,0.463897705078125
1788957784294743000,0.577742919921875,-0.454986572265625,-0.40863037109375,0.4506988525390625
1788957784304792800,0.587792724609375,-0.50946044921875,-0.4180755615234375,0.4843597412109375
1788957784314843000,0.5978427734375,-0.6964263916015625,-0.586090087890625,0.5985107421875
1788957784324893000,0.607892822265625,-0.732269287109375,-0.574249267578125,0.7594451904296875
1788957784334942000,0.61794189453125,-0.7499237060546875,-0.55548095703125,0.7420654296875
1788957784344992000,0.627991943359375,-0.70245361328125,-0.7020111083984375,0.8525238037109375
1788957784355042000,0.6380419921875,-0.672271728515625,-0.762176513671875,0.8989410400390625
1788957784365092000,0.648092041015625,-0.5451507568359375,-0.8660430908203125,0.8701324462890625
1788957784375140900,0.658140869140625,-0.4297027587890625,-0.6501617431640625,0.866973876953125
1788957784385191000,0.66819091796875,-0.407135009765625,-0.5575408935546875,0.7614593505859375
1788957784395241000,0.678240966796875,-0.3568878173828125,-0.5457916259765625,0.7459716796875
1788957784405290800,0.688290771484375,-0.2885589599609375,-0.614715576171875,0.8833770751953125
1788957784415340800,0.6983408203125,-0.338775634765625,-0.654388427734375,0.8109588623046875
1788957784425390000,0.70839013671875,-0.3498382568359375,-0.817718505859375,0.664215087890625
1788957784435440000,0.718440185546875,-0.254180908203125,-1.0383453369140625,1.026397705078125
1788957784445490000,0.728489990234375,-0.266510009765625,-0.9783782958984375,0.9483489990234375
1788957784455540000,0.7385400390625,-0.4327545166015625,-1.0449371337890625,1.0277557373046875
1788957784465590000,0.748590087890625,-0.522674560546875,-0.842529296875,1.062713623046875
1788957784475638800,0.758638671875,-0.5684814453125,-0.6014862060546875,1.130523681640625
1788957784485688800,0.768688720703125,-0.8237762451171875,-0.277862548828125,1.3279876708984375
1788957784495739000,0.77873876953125,-0.7248687744140625,-0.126800537109375,1.3740997314453125
1788957784505789000,0.788788818359375,-0.7894439697265625,-0.1985321044921875,0.926910400390625
1788957784515838000,0.798837890625,-0.83111572265625,-0.592376708984375,0.7209320068359375
1788957784525888000,0.808887939453125,-0.5398406982421875,-0.625946044921875,0.4630889892578125
1788957784535938000,0.81893798828125,-0.1642608642578125,-0.7132568359375,0.41668701171875
1788957784545987800,0.82898779296875,-0.362091064453125,-1.0665283203125,0.6346588134765625
1788957784556038000,0.839037841796875,-0.376373291015625,-1.1616363525390625,0.2425079345703125
1788957784566087000,0.8490869140625,-0.049774169921875,-0.9864044189453125,0.2223052978515625
1788957784576137000,0.859136962890625,0.1180877685546875,-0.799346923828125,0.454315185546875
1788957784586186800,0.869186767578125,0.106842041015625,-0.5366668701171875,0.447662353515625
1788957784596236500,0.879236572265625,0.2231597900390625,-0.309295654296875,0.3387908935546875
1788957784606285600,0.88928564453125,0.2305145263671875,-0.1726837158203125,0.256317138671875
1788957784616335600,0.899335693359375,0.0652008056640625,-0.0930633544921875,0.014190673828125
1788957784626385700,0.9093857421875,-0.1113128662109375,-0.0747222900390625,0.032440185546875
1788957784636435500,0.919435546875,-0.21490478515625,-0.067108154296875,0.10223388671875
1788957784646485500,0.929485595703125,-0.1788787841796875,-0.0670928955078125,0.138763427734375
1788957784656534800,0.93953466796875,-0.1347198486328125,-0.1193084716796875,0.1832275390625
1788957784666584600,0.94958447265625,-0.174896240234375,-0.140655517578125,0.21539306640625
1788957784676634600,0.959634521484375,-0.33514404296875,-0.2667694091796875,0.265380859375
1788957784686684700,0.9696845703125,-0.309722900390625,-0.465118408203125,0.195556640625
1788957784696733400,0.9797333984375,-0.22998046875,-0.60198974609375,0.1549835205078125
1788957784706783500,0.989783447265625,-0.2957763671875,-0.657745361328125,0.2069244384765625
1788957784716833500,0.99983349609375,-0.3512725830078125,-0.7005462646484375,0.2976226806640625
1788957784726883600,1.009883544921875,-0.252227783203125,-0.631866455078125,0.435943603515625
1788957784736933400,1.019933349609375,-0.05670166015625,-0.353729248046875,0.5784454345703125
1788957784746982700,1.029982666015625,-0.045379638671875,-0.402923583984375,0.538360595703125
1788957784757032700,1.04003271484375,-0.100128173828125,-0.5712127685546875,0.4692230224609375
1788957784767082800,1.050082763671875,-0.2551422119140625,-0.882568359375,0.4915008544921875
1788957784777132500,1.060132568359375,-0.8049163818359375,-1.5307769775390625,0.5417938232421875
1788957784787181600,1.070181640625,-0.442596435546875,-1.9650421142578125,0.5849761962890625
1788957784797231600,1.080231689453125,0.0056915283203125,-1.8024444580078125,0.724212646484375
1788957784807281400,1.090281494140625,0.0602264404296875,-1.656463623046875,0.7000885009765625
1788957784817331500,1.10033154296875,-0.0932464599609375,-1.5506134033203125,0.50177001953125
1788957784827381500,1.110381591796875,-0.069122314453125,-1.517181396484375,0.218109130859375
1788957784837430500,1.120430419921875,-0.31243896484375,-1.4872283935546875,0.1829071044921875
1788957784847480600,1.13048046875,-0.3692474365234375,-1.45989990234375,0.3010101318359375
1788957784857530600,1.140530517578125,-0.1893463134765625,-1.5372314453125,0.28363037109375
1788957784867580700,1.15058056640625,-0.133544921875,-1.6195220947265625,0.25811767578125
1788957784877629400,1.16062939453125,-0.0103912353515625,-1.4828033447265625,0.23638916015625
1788957784887679500,1.170679443359375,0.2403564453125,-1.2447357177734375,0.120849609375
1788957784897729500,1.1807294921875,0.4276885986328125,-1.102294921875,0.01177978515625
1788957784907779600,1.190779541015625,0.3036346435546875,-1.0100555419921875,-0.007720947265625
1788957784917829600,1.20082958984375,-0.044464111328125,-0.899810791015625,0.03277587890625
1788957784927878700,1.210878662109375,-0.1593017578125,-0.8559112548828125,0.0760040283203125
1788957784937928700,1.2209287109375,0.0702972412109375,-0.9954376220703125,0.241363525390625
1788957784947978500,1.230978515625,0.0102081298828125,-1.07196044921875,0.2723388671875
1788957784958028500,1.241028564453125,-0.106536865234375,-1.119293212890625,0.3363189697265625
1788957784968077600,1.25107763671875,0.0672149658203125,-1.1012115478515625,0.402130126953125
1788957784978127400,1.26112744140625,0.2196044921875,-1.07781982421875,0.3707733154296875
1788957784988177700,1.271177734375,0.1775054931640625,-1.0245819091796875,0.2326507568359375
1788957784998227700,1.281227783203125,0.14208984375,-0.9983673095703125,0.2006988525390625
1788957785008276500,1.2912763671875,0.0902099609375,-0.9719085693359375,0.2552490234375
1788957785018326500,1.301326416015625,0.04998779296875,-0.9550628662109375,0.2524566650390625
1788957785028376600,1.31137646484375,-0.0192108154296875,-0.95098876953125,0.217041015625
1788957785038426600,1.321426513671875,-0.0425567626953125,-0.935089111328125,0.2443695068359375
1788957785048476400,1.331476318359375,0.0147705078125,-0.90765380859375,0.287567138671875
1788957785058525400,1.341525390625,-0.0522613525390625,-0.81683349609375,0.2642669677734375
1788957785068575700,1.35157568359375,-0.083587646484375,-0.79034423828125,0.2659759521484375
1788957785078625800,1.361625732421875,-0.057464599609375,-0.811370849609375,0.261199951171875
1788957785088675600,1.371675537109375,-0.0404205322265625,-0.8154449462890625,0.230804443359375
1788957785098724600,1.381724609375,-0.057861328125,-0.8470306396484375,0.2272186279296875
1788957785108774700,1.391774658203125,-0.0489501953125,-0.9034271240234375,0.1664886474609375
1788957785118824400,1.401824462890625,-0.0732269287109375,-1.05645751953125,0.1060638427734375
1788957785128874500,1.41187451171875,-0.107666015625,-1.11749267578125,0.0725555419921875
1788957785138924500,1.421924560546875,-0.0850982666015625,-1.0675811767578125,0.12255859375
1788957785148973600,1.4319736328125,-0.0736846923828125,-0.9734344482421875,0.2419891357421875
1788957785159023600,1.442023681640625,-0.088958740234375,-0.930633544921875,0.2584228515625
1788957785169073700,1.45207373046875,-0.0632781982421875,-0.862518310546875,0.242401123046875
1788957785179123700,1.462123779296875,-0.1522216796875,-0.9384613037109375,0.44512939453125
1788957785189172500,1.47217236328125,-0.1962890625,-0.9195098876953125,0.458831787109375
1788957785199222500,1.482222412109375,-0.1474609375,-0.8946380615234375,0.3614654541015625
1788957785209272600,1.4922724609375,-0.14508056640625,-0.893341064453125,0.31982421875
1788957785219322600,1.502322509765625,-0.1970367431640625,-0.91827392578125,0.347137451171875
1788957785229372400,1.512372314453125,-0.226226806640625,-0.9282989501953125,0.3553466796875
1788957785239421700,1.522421630859375,-0.214569091796875,-0.9108734130859375,0.357177734375
1788957785249471700,1.5324716796875,-0.1887664794921875,-0.8857574462890625,0.3692169189453125
1788957785259521500,1.542521484375,-0.1462860107421875,-0.85638427734375,0.35614013671875
1788957785269571600,1.552571533203125,-0.1842193603515625,-0.8669891357421875,0.3181304931640625
1788957785279620600,1.56262060546875,-0.241424560546875,-0.9004058837890625,0.3515625
1788957785289670400,1.57267041015625,-0.2593231201171875,-0.903228759765625,0.3492279052734375
1788957785299720400,1.582720458984375,-0.2681121826171875,-0.89569091796875,0.3100128173828125
1788957785309770500,1.5927705078125,-0.2712554931640625,-0.871734619140625,0.282318115234375
1788957785319820500,1.602820556640625,-0.2758941650390625,-0.8260040283203125,0.2556610107421875
1788957785329869600,1.61286962890625,-0.2945556640625,-0.7952880859375,0.2552032470703125
1788957785339919600,1.622919677734375,-0.3186798095703125,-0.7711639404296875,0.258758544921875
1788957785349969700,1.6329697265625,-0.3519287109375,-0.7602386474609375,0.2639923095703125
1788957785360019700,1.643019775390625,-0.588714599609375,-0.7068328857421875,0.28485107421875
1788957785370068500,1.653068359375,-0.544891357421875,-0.7437591552734375,0.376922607421875
1788957785380118500,1.663118408203125,-0.4266510009765625,-0.84332275390625,0.4025115966796875
1788957785390168600,1.67316845703125,-0.37176513671875,-0.8932647705078125,0.3645477294921875
1788957785400218400,1.68321826171875,-0.2434539794921875,-0.9592437744140625,0.3760986328125
1788957785410268700,1.6932685546875,-0.2623748779296875,-0.96295166015625,0.3381195068359375
1788957785420317700,1.703317626953125,-0.360382080078125,-0.939666748046875,0.3327484130859375
1788957785430367500,1.713367431640625,-0.496856689453125,-0.8879547119140625,0.319671630859375
1788957785440417500,1.72341748046875,-0.5585479736328125,-0.84271240234375,0.313385009765625
1788957785450467600,1.733467529296875,-0.5761566162109375,-0.831756591796875,0.333984375
1788957785460516600,1.7435166015625,-0.5827789306640625,-0.8265228271484375,0.351043701171875
1788957785470566400,1.75356640625,-0.564178466796875,-0.802337646484375,0.3447723388671875
1788957785480616400,1.763616455078125,-0.5317230224609375,-0.805389404296875,0.351959228515625
1788957785490666800,1.773666748046875,-0.4701690673828125,-0.828521728515625,0.3504638671875
1788957785500715500,1.783715576171875,-0.4438934326171875,-0.8395233154296875,0.3544769287109375
1788957785510765600,1.793765625,-0.44805908203125,-0.854248046875,0.359649658203125
1788957785520815600,1.803815673828125,-0.464263916015625,-0.8574676513671875,0.3536834716796875
1788957785530865700,1.81386572265625,-0.5206298828125,-0.857208251953125,0.3443756103515625
1788957785540915500,1.82391552734375,-0.5503387451171875,-0.8519744873046875,0.329986572265625
1788957785550964500,1.833964599609375,-0.5608978271484375,-0.84881591796875,0.3241729736328125
1788957785561014500,1.8440146484375,-0.5566558837890625,-0.844390869140625,0.334747314453125
1788957785571064600,1.854064697265625,-0.5538177490234375,-0.832183837890625,0.3480377197265625
1788957785581114600,1.864114501953125,-0.578094482421875,-0.8299407958984375,0.351104736328125
1788957785591163400,1.874163330078125,-0.6086578369140625,-0.822906494140625,0.3567352294921875
1788957785601213400,1.88421337890625,-0.618621826171875,-0.8005523681640625,0.3531341552734375
1788957785611263500,1.894263427734375,-0.613128662109375,-0.802337646484375,0.34918212890625
1788957785621313300,1.904313232421875,-0.6156005859375,-0.810272216796875,0.3343658447265625
1788957785631363300,1.91436328125,-0.6467742919921875,-0.8336334228515625,0.3180084228515625
1788957785641412600,1.92441259765625,-0.65655517578125,-0.860870361328125,0.318084716796875
1788957785651462700,1.934462646484375,-0.664581298828125,-0.840728759765625,0.324249267578125
1788957785661512400,1.944512451171875,-0.6687164306640625,-0.8318328857421875,0.3397979736328125
1788957785671562500,1.9545625,-0.67767333984375,-0.8373870849609375,0.3553619384765625
1788957785681611500,1.964611572265625,-0.7091064453125,-0.8416748046875,0.3671417236328125
1788957785691661300,1.974661376953125,-0.737152099609375,-0.8188629150390625,0.3829345703125
1788957785701711400,1.98471142578125,-0.775054931640625,-0.7816314697265625,0.394927978515625
1788957785711761400,1.994761474609375,-0.8112640380859375,-0.7542572021484375,0.3968048095703125
1788957785721810400,2.004810546875,-0.8424224853515625,-0.717193603515625,0.3733673095703125
1788957785731860500,2.014860595703125,-0.8495025634765625,-0.7037811279296875,0.342193603515625
1788957785741910500,2.02491064453125,-0.8267974853515625,-0.6845245361328125,0.3122406005859375
1788957785751960600,2.034960693359375,-0.77252197265625,-0.6334381103515625,0.3108978271484375
1788957785762010400,2.04501025390625,-0.693023681640625,-0.6375732421875,0.3355712890625
1788957785772059400,2.055059326171875,-0.6361236572265625,-0.64117431640625,0.38543701171875
1788957785782109400,2.065109375,-0.606689453125,-0.609771728515625,0.438140869140625
1788957785792159500,2.075159423828125,-0.6075897216796875,-0.5918121337890625,0.4473876953125
1788957785802209300,2.085209228515625,-0.613922119140625,-0.582733154296875,0.422210693359375
1788957785812258600,2.095258544921875,-0.6255340576171875,-0.5753326416015625,0.3883514404296875
1788957785822308600,2.10530859375,-0.6572265625,-0.5850677490234375,0.3743133544921875
1788957785832358400,2.1153583984375,-0.6649017333984375,-0.5963897705078125,0.3782958984375
1788957785842408400,2.125408447265625,-0.6439361572265625,-0.6201171875,0.4038543701171875
1788957785852458500,2.13545849609375,-0.614837646484375,-0.6689910888671875,0.418487548828125
1788957785862507300,2.14550732421875,-0.56475830078125,-0.700103759765625,0.43719482421875
1788957785872557300,2.155557373046875,-0.535125732421875,-0.6954803466796875,0.456817626953125
1788957785882607400,2.165607421875,-0.5368499755859375,-0.6905517578125,0.476959228515625
1788957785892657400,2.175657470703125,-0.5589752197265625,-0.685150146484375,0.5037078857421875
1788957785902706400,2.18570654296875,-0.583770751953125,-0.6769256591796875,0.5219879150390625
1788957785912756500,2.195756591796875,-0.599273681640625,-0.6871337890625,0.5298614501953125
1788957785922806500,2.205806640625,-0.5904998779296875,-0.7484130859375,0.5326080322265625
1788957785932856600,2.215856689453125,-0.5865936279296875,-0.838226318359375,0.5080108642578125
1788957785942906400,2.22590625,-0.59356689453125,-0.8856658935546875,0.479339599609375
1788957785952955400,2.235955322265625,-0.6033935546875,-0.90911865234375,0.4470062255859375
1788957785963005400,2.24600537109375,-0.618682861328125,-0.9069366455078125,0.42010498046875
1788957785973055500,2.256055419921875,-0.595001220703125,-0.8627777099609375,0.408416748046875
1788957785983105500,2.26610546875,-0.5320587158203125,-0.8024749755859375,0.3959197998046875
1788957785993154600,2.276154541015625,-0.4881134033203125,-0.7577362060546875,0.382781982421875
1788957786003204400,2.286204345703125,-0.4741973876953125,-0.7430267333984375,0.372406005859375
1788957786013254400,2.29625439453125,-0.4688873291015625,-0.753997802734375,0.3740386962890625
1788957786023304400,2.306304443359375,-0.4691162109375,-0.7722625732421875,0.39581298828125
1788957786033353500,2.316353515625,-0.4732208251953125,-0.795501708984375,0.4285125732421875
1788957786043403300,2.3264033203125,-0.4833221435546875,-0.82806396484375,0.43988037109375
1788957786053453600,2.33645361328125,-0.4850311279296875,-0.8526458740234375,0.459716796875
1788957786063503600,2.346503662109375,-0.45440673828125,-0.8562774658203125,0.477325439453125
1788957786073553700,2.3565537109375,-0.4449920654296875,-0.860809326171875,0.4719390869140625
1788957786083602400,2.3666025390625,-0.456024169921875,-0.818450927734375,0.48193359375
1788957786093652500,2.376652587890625,-0.4764404296875,-0.7639007568359375,0.47381591796875
1788957786103702500,2.38670263671875,-0.5038909912109375,-0.72955322265625,0.440521240234375
1788957786113752300,2.39675244140625,-0.5490570068359375,-0.707183837890625,0.40411376953125
1788957786123801300,2.40680126953125,-0.5846099853515625,-0.691497802734375,0.371063232421875
1788957786133851600,2.4168515625,-0.554107666015625,-0.6470794677734375,0.358001708984375
1788957786143901400,2.4269013671875,-0.4923858642578125,-0.616607666015625,0.38604736328125
1788957786153951500,2.436951416015625,-0.4564971923828125,-0.717529296875,0.4346923828125
1788957786164001500,2.44700146484375,-0.4346923828125,-0.78973388671875,0.48785400390625
1788957786174050600,2.457050537109375,-0.47576904296875,-0.77093505859375,0.4712982177734375
1788957786184100400,2.467100341796875,-0.5170135498046875,-0.7469940185546875,0.46112060546875
1788957786194150400,2.477150390625,-0.49114990234375,-0.75457763671875,0.4578399658203125
1788957786204200400,2.487200439453125,-0.467193603515625,-0.767913818359375,0.43170166015625
1788957786214249500,2.49724951171875,-0.476165771484375,-0.7559814453125,0.414215087890625
1788957786224299500,2.507299560546875,-0.4888153076171875,-0.7326812744140625,0.3834686279296875
1788957786234349600,2.517349609375,-0.4862518310546875,-0.6994781494140625,0.3810882568359375
1788957786244399600,2.527399658203125,-0.4786376953125,-0.6649169921875,0.380859375
1788957786254448400,2.537448486328125,-0.4600830078125,-0.6272125244140625,0.376922607421875
1788957786264498400,2.54749853515625,-0.4358062744140625,-0.635772705078125,0.425201416015625
1788957786274548500,2.557548583984375,-0.4266510009765625,-0.6712646484375,0.4610137939453125
1788957786284598300,2.567598388671875,-0.4407806396484375,-0.699859619140625,0.47509765625
1788957786294648300,2.5776484375,-0.439453125,-0.7091064453125,0.463043212890625
1788957786304697600,2.587697509765625,-0.435516357421875,-0.7403411865234375,0.4262847900390625
1788957786314747400,2.597747314453125,-0.4283447265625,-0.7877960205078125,0.3992767333984375
1788957786324797400,2.60779736328125,-0.3921966552734375,-0.8001556396484375,0.384796142578125
1788957786334847500,2.617847412109375,-0.3701629638671875,-0.8249359130859375,0.366668701171875
1788957786344896500,2.627896484375,-0.34478759765625,-0.8423309326171875,0.3702850341796875
1788957786354946300,2.6379462890625,-0.3468780517578125,-0.8285980224609375,0.3483734130859375
1788957786364996400,2.647996337890625,-0.347686767578125,-0.84930419921875,0.3712310791015625
1788957786375046400,2.65804638671875,-0.3820037841796875,-0.8507080078125,0.3821258544921875
1788957786385096400,2.668096435546875,-0.449249267578125,-0.8304290771484375,0.3755340576171875
1788957786395145500,2.6781455078125,-0.49151611328125,-0.8010406494140625,0.381591796875
1788957786405195500,2.688195556640625,-0.4869537353515625,-0.7523651123046875,0.398193359375
1788957786415245600,2.69824560546875,-0.4579620361328125,-0.7232666015625,0.3988800048828125
1788957786425295400,2.70829541015625,-0.4573516845703125,-0.6785888671875,0.3797760009765625
1788957786435344400,2.718344482421875,-0.47479248046875,-0.6471099853515625,0.3646087646484375
1788957786445394400,2.72839453125,-0.4615325927734375,-0.63531494140625,0.360626220703125
1788957786455444200,2.7384443359375,-0.3875274658203125,-0.6649017333984375,0.3735198974609375
1788957786465494300,2.748494384765625,-0.3366241455078125,-0.7161865234375,0.3822021484375
1788957786475543600,2.75854345703125,-0.3028564453125,-0.77435302734375,0.3903350830078125
1788957786485593600,2.768593505859375,-0.288909912109375,-0.82916259765625,0.38720703125
1788957786495643400,2.778643310546875,-0.308013916015625,-0.8729095458984375,0.36553955078125
1788957786505693400,2.788693359375,-0.3245849609375,-0.900299072265625,0.35577392578125
1788957786515743500,2.798743408203125,-0.308746337890625,-0.906402587890625,0.3614654541015625
1788957786525792300,2.808792236328125,-0.3002471923828125,-0.8968353271484375,0.3813934326171875
1788957786535842300,2.81884228515625,-0.2928619384765625,-0.886444091796875,0.39984130859375
1788957786545892400,2.828892333984375,-0.30523681640625,-0.896881103515625,0.408203125
1788957786555942700,2.838942626953125,-0.32611083984375,-0.9085693359375,0.4010162353515625
1788957786565991400,2.848991455078125,-0.326568603515625,-0.912506103515625,0.4050750732421875
1788957786576041500,2.85904150390625,-0.323699951171875,-0.912567138671875,0.408599853515625
1788957786586091500,2.869091552734375,-0.33966064453125,-0.929962158203125,0.405487060546875
1788957786596141800,2.879141845703125,-0.37664794921875,-0.9399566650390625,0.3981781005859375
1788957786606190600,2.889190673828125,-0.4160919189453125,-0.9509735107421875,0.3851470947265625
1788957786616240600,2.89924072265625,-0.4349822998046875,-0.941253662109375,0.3794097900390625
1788957786626290700,2.909290771484375,-0.437347412109375,-0.9235992431640625,0.4002838134765625
1788957786636340700,2.9193408203125,-0.4255218505859375,-0.8990936279296875,0.425567626953125
1788957786646390800,2.929390869140625,-0.4342041015625,-0.8701019287109375,0.428955078125
1788957786656439800,2.939439697265625,-0.4431915283203125,-0.8408966064453125,0.42254638671875
1788957786666489600,2.949489501953125,-0.43206787109375,-0.82037353515625,0.40594482421875
1788957786676539600,2.95953955078125,-0.408721923828125,-0.8182525634765625,0.384246826171875
1788957786686589700,2.969589599609375,-0.376190185546875,-0.8126373291015625,0.3718109130859375
1788957786696638500,2.979638427734375,-0.3501129150390625,-0.7969818115234375,0.3675994873046875
1788957786706688800,2.989688720703125,-0.3209686279296875,-0.7818450927734375,0.3643646240234375
1788957786716738800,2.99973876953125,-0.286407470703125,-0.7600555419921875,0.3546295166015625
1788957786726788900,3.009788818359375,-0.248992919921875,-0.7451629638671875,0.33880615234375
1788957786736837600,3.019837646484375,-0.2425079345703125,-0.7501220703125,0.329437255859375
1788957786746887700,3.0298876953125,-0.257598876953125,-0.7736053466796875,0.3326416015625
1788957786756937700,3.039937744140625,-0.2589874267578125,-0.7965850830078125,0.3396759033203125
1788957786766987800,3.04998779296875,-0.2696380615234375,-0.8048095703125,0.3396759033203125
1788957786777037600,3.06003759765625,-0.2987060546875,-0.8238067626953125,0.3436431884765625
1788957786787086800,3.0700869140625,-0.3274383544921875,-0.8359527587890625,0.3552093505859375
1788957786797137000,3.080136962890625,-0.3358306884765625,-0.865325927734375,0.35638427734375
1788957786807186700,3.090186767578125,-0.3379058837890625,-0.9182586669921875,0.3487548828125
1788957786817236700,3.10023681640625,-0.349456787109375,-0.9500732421875,0.3365936279296875
1788957786827285800,3.11028564453125,-0.3365020751953125,-0.9773101806640625,0.340362548828125
1788957786837335600,3.12033544921875,-0.3199615478515625,-0.9900360107421875,0.344207763671875
1788957786847385600,3.130385498046875,-0.31005859375,-0.98236083984375,0.342437744140625
1788957786857435600,3.140435546875,-0.309173583984375,-0.954437255859375,0.338897705078125
1788957786867485000,3.15048486328125,-0.320831298828125,-0.932220458984375,0.33953857421875
1788957786877534700,3.16053466796875,-0.333343505859375,-0.911376953125,0.336212158203125
1788957786887584800,3.170584716796875,-0.3353271484375,-0.8839569091796875,0.3296661376953125
1788957786897634800,3.180634765625,-0.3547821044921875,-0.867340087890625,0.3058624267578125
1788957786907684900,3.190684814453125,-0.34991455078125,-0.8531646728515625,0.2751312255859375
1788957786917733600,3.200733642578125,-0.314208984375,-0.8614349365234375,0.244842529296875
1788957786927783700,3.21078369140625,-0.23419189453125,-0.9055023193359375,0.2376861572265625
1788957786937833700,3.220833740234375,-0.1878204345703125,-0.94830322265625,0.21649169921875
1788957786947883500,3.230883544921875,-0.196868896484375,-0.976043701171875,0.183990478515625
1788957786957932800,3.240932861328125,-0.235107421875,-0.996917724609375,0.1681060791015625
1788957786967982800,3.25098291015625,-0.2527313232421875,-0.983673095703125,0.1464996337890625
1788957786978032600,3.26103271484375,-0.22625732421875,-0.97576904296875,0.1297607421875
1788957786988082700,3.271082763671875,-0.1863861083984375,-0.9810028076171875,0.1309356689453125
1788957786998131700,3.281131591796875,-0.1746673583984375,-0.973236083984375,0.136199951171875
1788957787008181800,3.291181640625,-0.2246551513671875,-0.9629058837890625,0.1371002197265625
1788957787018231600,3.3012314453125,-0.2882232666015625,-0.944427490234375,0.149993896484375
1788957787028281600,3.311281494140625,-0.3417816162109375,-0.9355010986328125,0.165313720703125
1788957787038331000,3.321330810546875,-0.355377197265625,-0.941497802734375,0.183502197265625
1788957787048380700,3.331380615234375,-0.337738037109375,-0.9291534423828125,0.2157745361328125
1788957787058430700,3.3414306640625,-0.343658447265625,-0.921966552734375,0.247772216796875
1788957787068480800,3.351480712890625,-0.3907012939453125,-0.9181976318359375,0.274932861328125
1788957787078530800,3.36153076171875,-0.4330596923828125,-0.9206695556640625,0.307952880859375
1788957787088579600,3.37157958984375,-0.402801513671875,-0.90771484375,0.3369598388671875
1788957787098629600,3.381629638671875,-0.3705902099609375,-0.9116973876953125,0.3520355224609375
1788957787108679700,3.3916796875,-0.3958740234375,-0.9111175537109375,0.345428466796875
1788957787118729500,3.4017294921875,-0.423492431640625,-0.90167236328125,0.3409576416015625
1788957787128778800,3.41177880859375,-0.44964599609375,-0.889373779296875,0.3354034423828125
1788957787138828800,3.421828857421875,-0.503265380859375,-0.8816375732421875,0.3258056640625
1788957787148878800,3.43187890625,-0.55828857421875,-0.886444091796875,0.2995452880859375
1788957787158928600,3.4419287109375,-0.57684326171875,-0.8850555419921875,0.25494384765625
1788957787168977700,3.451977783203125,-0.5950775146484375,-0.8691864013671875,0.220550537109375
1788957787179027700,3.46202783203125,-0.5974273681640625,-0.8482513427734375,0.2057952880859375
1788957787189077500,3.472077392578125,-0.5471649169921875,-0.833099365234375,0.1988677978515625
1788957787199127600,3.48212744140625,-0.4857940673828125,-0.8406982421875,0.2032928466796875
1788957787209177900,3.492177734375,-0.4252471923828125,-0.850830078125,0.202484130859375
1788957787219226600,3.5022265625,-0.3982086181640625,-0.8757171630859375,0.1824493408203125
1788957787229276700,3.512276611328125,-0.41021728515625,-0.8785858154296875,0.15478515625
1788957787239326700,3.52232666015625,-0.4355621337890625,-0.8511199951171875,0.1331329345703125
1788957787249376800,3.532376708984375,-0.42694091796875,-0.898193359375,0.14752197265625
1788957787259425500,3.542425537109375,-0.4063262939453125,-0.8865814208984375,0.1359405517578125
1788957787269475600,3.5524755859375,-0.4166412353515625,-0.88616943359375,0.1298980712890625
1788957787279525600,3.562525634765625,-0.4479522705078125,-0.882904052734375,0.1312713623046875
1788957787289576000,3.572575927734375,-0.4746246337890625,-0.866424560546875,0.136077880859375
1788957787299624700,3.582624755859375,-0.4855194091796875,-0.87060546875,0.1481475830078125
1788957787309674800,3.5926748046875,-0.4609832763671875,-0.889312744140625,0.174468994140625
1788957787319724800,3.602724853515625,-0.417205810546875,-0.8983001708984375,0.212493896484375
1788957787329774600,3.612774658203125,-0.37884521484375,-0.9114532470703125,0.2179107666015625
1788957787339824600,3.62282470703125,-0.3443145751953125,-0.9376220703125,0.1957550048828125
1788957787349873700,3.632873779296875,-0.30596923828125,-0.9618072509765625,0.1704559326171875
1788957787359923700,3.642923828125,-0.2757568359375,-0.9683074951171875,0.1336212158203125
1788957787369973800,3.652973876953125,-0.275115966796875,-0.9609832763671875,0.100555419921875
1788957787380023800,3.66302392578125,-0.287994384765625,-0.965362548828125,0.075714111328125
1788957787390072600,3.673072509765625,-0.3023223876953125,-0.962646484375,0.0637664794921875
1788957787400122600,3.68312255859375,-0.3213653564453125,-0.9459228515625,0.0657806396484375
1788957787410172700,3.693172607421875,-0.3355255126953125,-0.95819091796875,0.0888824462890625
1788957787420222700,3.70322265625,-0.33929443359375,-0.9641571044921875,0.1075286865234375
1788957787430271700,3.713271728515625,-0.335968017578125,-0.96673583984375,0.1246795654296875
1788957787440321800,3.72332177734375,-0.32623291015625,-0.97332763671875,0.13568115234375
1788957787450371800,3.733371826171875,-0.3157196044921875,-0.990478515625,0.1420745849609375
1788957787460422000,3.743421875,-0.31219482421875,-1.0124664306640625,0.15594482421875
1788957787470470700,3.753470703125,-0.3118438720703125,-1.017822265625,0.161163330078125
1788957787480520700,3.763520751953125,-0.285369873046875,-1.02301025390625,0.158172607421875
1788957787490570800,3.77357080078125,-0.2619171142578125,-1.0573272705078125,0.1531219482421875
1788957787500620500,3.78362060546875,-0.26788330078125,-1.09735107421875,0.14276123046875
1788957787510670600,3.793670654296875,-0.308502197265625,-1.1010589599609375,0.1242523193359375
1788957787520720000,3.803719970703125,-0.3999176025390625,-1.062652587890625,0.1137847900390625
1788957787530769700,3.813769775390625,-0.4781494140625,-1.007598876953125,0.1138153076171875
1788957787540819700,3.82381982421875,-0.502960205078125,-0.952484130859375,0.1172943115234375
1788957787550869800,3.833869873046875,-0.51385498046875,-0.9133758544921875,0.114990234375
1788957787560918800,3.843918701171875,-0.5132598876953125,-0.88818359375,0.1101531982421875
1788957787570968600,3.853968505859375,-0.5074462890625,-0.8646240234375,0.1122894287109375
1788957787581018600,3.8640185546875,-0.4882965087890625,-0.8485107421875,0.1292877197265625
1788957787591068200,3.874068115234375,-0.4588165283203125,-0.8265380859375,0.1433563232421875
1788957787601117400,3.884117431640625,-0.4259185791015625,-0.8184661865234375,0.1591644287109375
1788957787611167500,3.89416748046875,-0.396820068359375,-0.8211822509765625,0.1642608642578125
1788957787621217300,3.90421728515625,-0.379547119140625,-0.8281707763671875,0.1722259521484375
1788957787631267300,3.914267333984375,-0.3725433349609375,-0.8354644775390625,0.1929473876953125
1788957787641316400,3.92431640625,-0.38671875,-0.8235626220703125,0.2102508544921875
1788957787651366400,3.934366455078125,-0.4203643798828125,-0.81207275390625,0.22418212890625
1788957787661416200,3.944416259765625,-0.451202392578125,-0.811370849609375,0.2138214111328125
1788957787671466200,3.95446630859375,-0.4457855224609375,-0.8227691650390625,0.2062835693359375
1788957787681516300,3.964516357421875,-0.429168701171875,-0.84320068359375,0.207794189453125
1788957787691565300,3.9745654296875,-0.4363250732421875,-0.8575439453125,0.201385498046875
1788957787701615400,3.984615478515625,-0.4522857666015625,-0.860076904296875,0.18450927734375
1788957787711665400,3.99466552734375,-0.46307373046875,-0.8631134033203125,0.177886962890625
1788957787721715500,4.004715576171875,-0.4436492919921875,-0.8650665283203125,0.177886962890625
1788957787731764200,4.01476416015625,-0.4169769287109375,-0.8800048828125,0.1859588623046875
1788957787741814300,4.024814208984375,-0.4257354736328125,-0.911224365234375,0.19805908203125
1788957787751864300,4.0348642578125,-0.463165283203125,-0.9408721923828125,0.2094879150390625
1788957787761914400,4.044914306640625,-0.5094757080078125,-0.9337615966796875,0.2261199951171875
1788957787771963400,4.05496337890625,-0.54248046875,-0.9025726318359375,0.2403411865234375
1788957787782013400,4.065013427734375,-0.55511474609375,-0.8656463623046875,0.248046875
1788957787792063500,4.0750634765625,-0.5364227294921875,-0.843719482421875,0.2461395263671875
1788957787802113300,4.08511328125,-0.5138397216796875,-0.86810302734375,0.251190185546875
1788957787812162300,4.095162353515625,-0.505889892578125,-0.9134063720703125,0.248748779296875
1788957787822212400,4.10521240234375,-0.5050811767578125,-0.9489898681640625,0.2362213134765625
1788957787832262400,4.115262451171875,-0.520965576171875,-0.966339111328125,0.2190399169921875
1788957787842312400,4.1253125,-0.5474090576171875,-0.9637451171875,0.1888275146484375
1788957787852362500,4.135362548828125,-0.5464935302734375,-0.9745941162109375,0.170440673828125
1788957787862411300,4.145411376953125,-0.5315093994140625,-0.9976654052734375,0.1658935546875
1788957787872461300,4.15546142578125,-0.5277099609375,-0.9934844970703125,0.1704254150390625
1788957787882511400,4.165511474609375,-0.53125,-0.9557342529296875,0.16961669921875
1788957787892561400,4.1755615234375,-0.520111083984375,-0.8899688720703125,0.1652679443359375
1788957787902610200,4.185610107421875,-0.48712158203125,-0.8204803466796875,0.160919189453125
1788957787912660500,4.195660400390625,-0.44244384765625,-0.78997802734375,0.164459228515625
1788957787922710500,4.20571044921875,-0.4215850830078125,-0.788970947265625,0.178558349609375
1788957787932760600,4.215760498046875,-0.42047119140625,-0.7924041748046875,0.1943359375
1788957787942809300,4.225809326171875,-0.428680419921875,-0.77978515625,0.2053070068359375
1788957787952859400,4.235859375,-0.44769287109375,-0.7378997802734375,0.217315673828125
1788957787962909400,4.245909423828125,-0.467529296875,-0.685882568359375,0.2295379638671875
1788957787972959200,4.255959228515625,-0.4840087890625,-0.637542724609375,0.2362060546875
1788957787983008500,4.266008544921875,-0.4828948974609375,-0.601531982421875,0.2407073974609375
1788957787993058600,4.27605859375,-0.45379638671875,-0.5783233642578125,0.23919677734375
1788957788003108400,4.2861083984375,-0.4292755126953125,-0.5711669921875,0.2359771728515625
1788957788013158400,4.296158447265625,-0.406158447265625,-0.5697174072265625,0.2200927734375
1788957788023208400,4.30620849609375,-0.363677978515625,-0.6007232666015625,0.1944122314453125
1788957788033257500,4.316257568359375,-0.3442840576171875,-0.6588287353515625,0.167755126953125
1788957788043307300,4.326307373046875,-0.3769073486328125,-0.7390289306640625,0.1473236083984375
1788957788053357300,4.336357421875,-0.4334869384765625,-0.8182830810546875,0.1255645751953125
1788957788063407400,4.346407470703125,-0.480194091796875,-0.8640899658203125,0.102874755859375
1788957788073456400,4.356456298828125,-0.4924468994140625,-0.90106201171875,0.1054229736328125
1788957788083506400,4.36650634765625,-0.4745941162109375,-0.913116455078125,0.12384033203125
1788957788093556500,4.376556396484375,-0.4656219482421875,-0.8871307373046875,0.1293487548828125
1788957788103606500,4.3866064453125,-0.444488525390625,-0.859039306640625,0.1563720703125
1788957788113655300,4.3966552734375,-0.4306640625,-0.872100830078125,0.210693359375
1788957788123705300,4.406705322265625,-0.431396484375,-0.9137420654296875,0.2644500732421875
1788957788133755400,4.41675537109375,-0.4296417236328125,-0.9607391357421875,0.3070068359375
1788957788143805200,4.42680517578125,-0.408782958984375,-1.002197265625,0.3392181396484375
1788957788153854500,4.4368544921875,-0.3512420654296875,-1.0552520751953125,0.3292694091796875
1788957788163904500,4.446904541015625,-0.296905517578125,-1.134979248046875,0.3206787109375
1788957788173954300,4.456954345703125,-0.28033447265625,-1.190887451171875,0.3065948486328125
1788957788184004400,4.46700439453125,-0.3044281005859375,-1.1878204345703125,0.28546142578125
1788957788194054400,4.477054443359375,-0.3424530029296875,-1.125457763671875,0.2584686279296875
1788957788204103400,4.487103515625,-0.339599609375,-1.0511627197265625,0.2431793212890625
1788957788214153200,4.4971533203125,-0.3330535888671875,-1.01751708984375,0.252593994140625
1788957788224203300,4.507203369140625,-0.347808837890625,-0.999420166015625,0.249298095703125
1788957788234253300,4.51725341796875,-0.348602294921875,-0.9662933349609375,0.2315521240234375
1788957788244302300,4.52730224609375,-0.334869384765625,-0.9167022705078125,0.20306396484375
1788957788254352400,4.537352294921875,-0.3258209228515625,-0.877777099609375,0.1677093505859375
1788957788264402400,4.54740234375,-0.32781982421875,-0.853729248046875,0.1368255615234375
1788957788274452500,4.557452392578125,-0.3443450927734375,-0.833953857421875,0.115386962890625
1788957788284501200,4.567501220703125,-0.3665008544921875,-0.7962493896484375,0.1072845458984375
1788957788294551300,4.57755126953125,-0.3717193603515625,-0.7499237060546875,0.103546142578125
1788957788304601300,4.587601318359375,-0.3744964599609375,-0.70953369140625,0.09912109375
1788957788314651100,4.597651123046875,-0.37347412109375,-0.6808929443359375,0.105926513671875
1788957788324700400,4.607700439453125,-0.3593292236328125,-0.6732025146484375,0.1270904541015625
1788957788334750500,4.61775048828125,-0.3379669189453125,-0.6857147216796875,0.14764404296875
1788957788344800500,4.627800537109375,-0.3051910400390625,-0.712249755859375,0.182281494140625
1788957788354850300,4.637850341796875,-0.3021240234375,-0.7388458251953125,0.220001220703125
1788957788364899300,4.6478994140625,-0.3491058349609375,-0.760711669921875,0.2261962890625
1788957788374949400,4.657949462890625,-0.41754150390625,-0.7772064208984375,0.21551513671875
1788957788384999200,4.667999267578125,-0.46478271484375,-0.79290771484375,0.204864501953125
1788957788395049200,4.67804931640625,-0.5002593994140625,-0.813446044921875,0.1935882568359375
1788957788405099300,4.688099365234375,-0.5462646484375,-0.808197021484375,0.1621246337890625
1788957788415148300,4.698148193359375,-0.5530853271484375,-0.8668365478515625,0.1819000244140625
1788957788425198300,4.7081982421875,-0.5407867431640625,-0.956268310546875,0.2145538330078125
1788957788435248400,4.718248291015625,-0.526397705078125,-0.9891357421875,0.23480224609375
1788957788445298400,4.72829833984375,-0.5124359130859375,-1.02606201171875,0.261383056640625
1788957788455347200,4.73834716796875,-0.506683349609375,-1.0656585693359375,0.2819061279296875
1788957788465397200,4.748397216796875,-0.5268707275390625,-1.0796661376953125,0.2934112548828125
1788957788475447300,4.758447265625,-0.5410003662109375,-1.06280517578125,0.2774810791015625
1788957788485497600,4.76849755859375,-0.5231781005859375,-1.0363006591796875,0.261383056640625
1788957788495546400,4.77854638671875,-0.4941864013671875,-1.0002288818359375,0.269744873046875
1788957788505596400,4.788596435546875,-0.484588623046875,-0.95751953125,0.2887725830078125
1788957788515646500,4.798646484375,-0.5048980712890625,-0.92706298828125,0.309967041015625
1788957788525696300,4.8086962890625,-0.5582427978515625,-0.9004058837890625,0.306396484375
1788957788535745300,4.818745361328125,-0.6170654296875,-0.894317626953125,0.292510986328125
1788957788545795300,4.82879541015625,-0.6607818603515625,-0.91680908203125,0.2638092041015625
1788957788555845400,4.838845458984375,-0.6583709716796875,-0.954833984375,0.2389373779296875
1788957788565895400,4.8488955078125,-0.612945556640625,-0.9999847412109375,0.232940673828125
1788957788575945500,4.858945556640625,-0.5750885009765625,-1.027679443359375,0.23236083984375
1788957788585994500,4.868994384765625,-0.5963287353515625,-1.0263824462890625,0.2356109619140625
1788957788596044500,4.87904443359375,-0.6796875,-1.0006103515625,0.2250823974609375
1788957788606094300,4.88909423828125,-0.775726318359375,-0.9555816650390625,0.2045745849609375
1788957788616144400,4.899144287109375,-0.80322265625,-0.9066009521484375,0.1936492919921875
1788957788626193400,4.909193359375,-0.7486419677734375,-0.8609161376953125,0.2119293212890625
1788957788636243500,4.919243408203125,-0.655487060546875,-0.7967376708984375,0.2378387451171875
1788957788646293500,4.92929345703125,-0.575408935546875,-0.72259521484375,0.2676239013671875
1788957788656343600,4.939343505859375,-0.5232391357421875,-0.65966796875,0.30133056640625
1788957788666392600,4.949392578125,-0.4922332763671875,-0.5940704345703125,0.314117431640625
1788957788676442400,4.9594423828125,-0.445648193359375,-0.548004150390625,0.3293914794921875
1788957788686492400,4.969492431640625,-0.3728485107421875,-0.5292510986328125,0.3459930419921875
1788957788696542500,4.97954248046875,-0.275848388671875,-0.54022216796875,0.3424224853515625
1788957788706591500,4.989591552734375,-0.2100372314453125,-0.55181884765625,0.3232879638671875
1788957788716641500,4.9996416015625,-0.2002716064453125,-0.5695343017578125,0.292388916015625
1788957788726691600,5.009691650390625,-0.217864990234375,-0.5804595947265625,0.248779296875
1788957788736741600,5.01974169921875,-0.263580322265625,-0.5847320556640625,0.208221435546875
1788957788746790400,5.029790283203125,-0.329315185546875,-0.582794189453125,0.1624755859375
1788957788756840400,5.03984033203125,-0.3928680419921875,-0.5796966552734375,0.1085357666015625
1788957788766890500,5.049890380859375,-0.419097900390625,-0.5549468994140625,0.0594482421875
1788957788776940300,5.059940185546875,-0.4392242431640625,-0.5313873291015625,0.03179931640625
1788957788786990300,5.069990234375,-0.446746826171875,-0.5437774658203125,0.041717529296875
1788957788797039600,5.08003955078125,-0.4701385498046875,-0.5741729736328125,0.058013916015625
1788957788807089700,5.090089599609375,-0.51092529296875,-0.6552886962890625,0.079071044921875
1788957788817139500,5.100139404296875,-0.549560546875,-0.755126953125,0.0992279052734375
1788957788827189500,5.110189453125,-0.57513427734375,-0.86865234375,0.0494537353515625
1788957788837238500,5.120238525390625,-0.562530517578125,-1.029388427734375,0.0069732666015625
1788957788847288300,5.130288330078125,-0.5527191162109375,-1.2297515869140625,0.022552490234375
1788957788857338400,5.14033837890625,-0.5464324951171875,-1.458038330078125,0.073699951171875
1788957788867388400,5.150388427734375,-0.5318145751953125,-1.7228546142578125,0.1244354248046875
1788957788877437400,5.1604375,-0.441558837890625,-1.9490814208984375,0.1305084228515625
1788957788887487500,5.170487548828125,-0.3093414306640625,-2.125213623046875,0.16705322265625
1788957788897537500,5.18053759765625,-0.2296905517578125,-2.25030517578125,0.2154083251953125
1788957788907587600,5.190587646484375,-0.2393035888671875,-2.2963409423828125,0.237548828125
1788957788917636400,5.20063623046875,-0.3547210693359375,-2.047698974609375,0.2062835693359375
1788957788927686400,5.210686279296875,-0.398590087890625,-1.6295013427734375,0.1895904541015625
1788957788937736400,5.220736328125,-0.383392333984375,-1.381988525390625,0.2025146484375
1788957788947786500,5.230786376953125,-0.302215576171875,-1.3430023193359375,0.2082366943359375
1788957788957835500,5.24083544921875,-0.1596221923828125,-1.2811126708984375,0.16802978515625
1788957788967885600,5.250885498046875,-0.0764923095703125,-1.1556396484375,0.125579833984375
1788957788977935600,5.260935546875,-0.025390625,-1.0487213134765625,0.1158447265625
1788957788987985400,5.2709853515625,0.0281829833984375,-0.9505767822265625,0.1457061767578125
1788957788998034400,5.281034423828125,0.1404571533203125,-0.89306640625,0.1635894775390625
1788957789008084500,5.29108447265625,0.205657958984375,-0.8777923583984375,0.1485595703125
1788957789018134300,5.30113427734375,0.17291259765625,-0.81414794921875,0.1303253173828125
1788957789028184300,5.311184326171875,-0.0026397705078125,-0.7004547119140625,0.1140289306640625
1788957789038234400,5.321234375,-0.2532958984375,-0.597747802734375,0.100616455078125
1788957789048283400,5.331283447265625,-0.3614349365234375,-0.4961090087890625,0.079833984375
1788957789058333400,5.34133349609375,-0.3303985595703125,-0.36834716796875,0.0531768798828125
1788957789068383500,5.351383544921875,-0.2817840576171875,-0.2689361572265625,0.02252197265625
1788957789078433500,5.36143359375,-0.2849884033203125,-0.2310791015625,-0.011444091796875
1788957789088482300,5.371482421875,-0.32244873046875,-0.210479736328125,-0.0325164794921875
1788957789098532400,5.381532470703125,-0.3238677978515625,-0.2042999267578125,-0.0370941162109375
1788957789108582400,5.39158251953125,-0.2906646728515625,-0.2305755615234375,-0.02593994140625
1788957789118632400,5.401632568359375,-0.2712554931640625,-0.2968292236328125,-0.0199127197265625
1788957789128681500,5.411681396484375,-0.2627410888671875,-0.44305419921875,0.05035400390625
1788957789138731500,5.4217314453125,-0.2177734375,-0.658660888671875,0.142486572265625
1788957789148781600,5.431781494140625,-0.206695556640625,-0.762176513671875,0.1046142578125
1788957789158831400,5.441831298828125,-0.18475341796875,-0.8440399169921875,0.0809478759765625
1788957789168880400,5.45188037109375,-0.167449951171875,-0.94073486328125,0.0747222900390625
1788957789178930400,5.461930419921875,-0.168670654296875,-1.0327301025390625,0.0748291015625
1788957789188980200,5.471980224609375,-0.1711578369140625,-1.100128173828125,0.067596435546875
1788957789199030300,5.4820302734375,-0.1679229736328125,-1.1497650146484375,0.0645904541015625
1788957789209079600,5.49207958984375,-0.16485595703125,-1.200714111328125,0.0724334716796875
1788957789219129600,5.502129638671875,-0.152069091796875,-1.274566650390625,0.073944091796875
1788957789229179400,5.512179443359375,-0.1320343017578125,-1.3571319580078125,0.0928192138671875
1788957789239229400,5.5222294921875,-0.1143798828125,-1.44976806640625,0.121551513671875
1788957789249279500,5.532279541015625,-0.11962890625,-1.5755462646484375,0.132354736328125
1788957789259328300,5.542328369140625,-0.112945556640625,-1.637298583984375,0.1199798583984375
1788957789269378300,5.55237841796875,-0.087371826171875,-1.6177520751953125,0.13323974609375
1788957789279428600,5.5624287109375,-0.0775909423828125,-1.543487548828125,0.1681365966796875
1788957789289478700,5.572478759765625,-0.1013336181640625,-1.455352783203125,0.19854736328125
1788957789299527400,5.58252734375,-0.125640869140625,-1.3564605712890625,0.2145233154296875
1788957789309577500,5.592577392578125,-0.103790283203125,-1.235198974609375,0.2310943603515625
1788957789319627500,5.60262744140625,-0.0443878173828125,-1.0889892578125,0.2449798583984375
1788957789329677300,5.61267724609375,-0.04449462890625,-0.9597930908203125,0.2435760498046875
1788957789339726300,5.622726318359375,-0.136993408203125,-0.8669281005859375,0.2132568359375
1788957789349776400,5.6327763671875,-0.2355804443359375,-0.7898101806640625,0.182220458984375
1788957789359826700,5.64282666015625,-0.2637786865234375,-0.72100830078125,0.1638641357421875
1788957789369876500,5.65287646484375,-0.252410888671875,-0.6837158203125,0.1641387939453125
1788957789379925500,5.662925537109375,-0.2187957763671875,-0.6776885986328125,0.1544036865234375
1788957789389975600,5.6729755859375,-0.1732177734375,-0.696044921875,0.1412353515625
1788957789400025300,5.683025390625,-0.14324951171875,-0.716583251953125,0.1273193359375
1788957789410075400,5.693075439453125,-0.1351470947265625,-0.7382049560546875,0.107666015625
1788957789420124400,5.70312451171875,-0.141998291015625,-0.7703094482421875,0.08233642578125
1788957789430174500,5.713174560546875,-0.134002685546875,-0.8170013427734375,0.0716552734375
1788957789440224500,5.723224609375,-0.1176300048828125,-0.8689422607421875,0.0642852783203125
1788957789450274600,5.733274658203125,-0.0576934814453125,-0.922515869140625,0.11773681640625
1788957789460323300,5.7433232421875,-0.052581787109375,-0.936431884765625,0.1527557373046875
1788957789470373400,5.753373291015625,-0.0721435546875,-0.954742431640625,0.1740570068359375
1788957789480423400,5.76342333984375,-0.0932769775390625,-0.9831390380859375,0.1923828125
1788957789490473500,5.773473388671875,-0.1133575439453125,-1.0238494873046875,0.1985321044921875
1788957789500522500,5.7835224609375,-0.11785888671875,-1.063873291015625,0.196685791015625
1788957789510572500,5.793572509765625,-0.1190032958984375,-1.097503662109375,0.1883697509765625
1788957789520622600,5.80362255859375,-0.11761474609375,-1.120208740234375,0.17864990234375
1788957789530672600,5.813672607421875,-0.1068572998046875,-1.1417083740234375,0.1936187744140625
1788957789540722400,5.823722412109375,-0.105499267578125,-1.152313232421875,0.2194671630859375
1788957789550771500,5.833771484375,-0.1256866455078125,-1.140167236328125,0.2405853271484375
1788957789560821500,5.843821533203125,-0.1424713134765625,-1.107391357421875,0.2441253662109375
1788957789570871300,5.853871337890625,-0.1299285888671875,-1.05706787109375,0.24786376953125
1788957789580921300,5.86392138671875,-0.1094207763671875,-1.0032196044921875,0.2551116943359375
1788957789590971000,5.873970947265625,-0.0968475341796875,-0.9481964111328125,0.28448486328125
1788957789601021000,5.88402099609375,-0.02374267578125,-0.953460693359375,0.2817230224609375
1788957789611070700,5.89407080078125,0.2778778076171875,-0.9935150146484375,0.2159881591796875
1788957789621120800,5.904120849609375,0.2896728515625,-0.8994903564453125,0.19451904296875
1788957789631169800,5.914169677734375,-0.214599609375,-0.8103179931640625,0.1634063720703125
1788957789641219800,5.9242197265625,-0.399444580078125,-0.800628662109375,0.200775146484375
1788957789651269600,5.93426953125,-0.3863067626953125,-0.8004608154296875,0.191009521484375
1788957789661319700,5.944319580078125,-0.1677093505859375,-0.880584716796875,0.163116455078125
1788957789671369000,5.954368896484375,0.0226593017578125,-0.918670654296875,0.1635894775390625
1788957789681418800,5.964418701171875,0.0480804443359375,-0.875579833984375,0.170562744140625
1788957789691468800,5.97446875,-0.023162841796875,-0.85699462890625,0.16619873046875
1788957789701518800,5.984518798828125,-0.0958709716796875,-0.87603759765625,0.162811279296875
1788957789711567600,5.994567626953125,-0.126007080078125,-0.9100189208984375,0.1611175537109375
1788957789721617700,6.00461767578125,-0.1421966552734375,-0.94537353515625,0.1736297607421875
1788957789731667700,6.014667724609375,-0.142913818359375,-0.9592132568359375,0.2014007568359375
1788957789741717800,6.0247177734375,-0.11883544921875,-0.9522247314453125,0.2149200439453125
1788957789751766800,6.034766845703125,-0.0626983642578125,-0.9290008544921875,0.2125396728515625
1788957789761816800,6.04481689453125,-0.014251708984375,-0.9237060546875,0.2320556640625
1788957789771867000,6.054866943359375,0.0104522705078125,-0.94927978515625,0.2467041015625
1788957789781917000,6.0649169921875,0.0452880859375,-0.972442626953125,0.2274932861328125
1788957789791965700,6.074965576171875,0.07366943359375,-0.9853515625,0.201385498046875
1788957789802015700,6.085015625,0.052978515625,-0.985595703125,0.1927032470703125
1788957789812065800,6.095065673828125,0.0031890869140625,-1.0101470947265625,0.2098236083984375
1788957789822115600,6.105115478515625,-0.01873779296875,-1.0126495361328125,0.2204132080078125
1788957789832164900,6.115164794921875,0.0044097900390625,-0.97039794921875,0.235321044921875
1788957789842215000,6.12521484375,0.0492095947265625,-0.938201904296875,0.2593841552734375
1788957789852264700,6.1352646484375,0.0412445068359375,-0.922119140625,0.269256591796875
1788957789862314800,6.145314697265625,0.0138092041015625,-0.9172210693359375,0.2808837890625
1788957789872364800,6.15536474609375,-0.04791259765625,-0.9743499755859375,0.3406219482421875
1788957789882413600,6.16541357421875,0.042816162109375,-0.8756561279296875,0.2198638916015625
1788957789892463600,6.175463623046875,0.031158447265625,-0.837371826171875,0.234222412109375
1788957789902513700,6.185513671875,0.07330322265625,-0.952911376953125,0.2222747802734375
1788957789912563700,6.195563720703125,0.11041259765625,-0.9964447021484375,0.1981048583984375
1788957789922612700,6.20561279296875,0.121002197265625,-1.00042724609375,0.1873931884765625
1788957789932662800,6.215662841796875,0.15802001953125,-1.024139404296875,0.175445556640625
1788957789942712800,6.225712890625,0.1610870361328125,-1.044342041015625,0.1512451171875
1788957789952763000,6.235762939453125,0.124664306640625,-1.0614776611328125,0.13433837890625
1788957789962811600,6.245811767578125,0.0819091796875,-1.0802459716796875,0.130950927734375
1788957789972861700,6.25586181640625,0.0582275390625,-1.10784912109375,0.142608642578125
1788957789982911700,6.265911865234375,0.0612030029296875,-1.15838623046875,0.1905517578125
1788957789992961500,6.27596142578125,0.05096435546875,-1.1386871337890625,0.1670379638671875
1788957790003010800,6.2860107421875,0.0291748046875,-1.118438720703125,0.1451416015625
1788957790013060900,6.296060791015625,0.0084991455078125,-1.1398773193359375,0.14825439453125
1788957790023110700,6.306110595703125,0.0004730224609375,-1.1244964599609375,0.125579833984375
1788957790033160700,6.31616064453125,-0.014404296875,-1.083282470703125,0.1262969970703125
1788957790043209700,6.326209716796875,0.0218048095703125,-1.100860595703125,0.1108856201171875
1788957790053259800,6.336259765625,0.02008056640625,-1.0718994140625,0.1449127197265625
1788957790063309600,6.3463095703125,-0.0234832763671875,-1.051055908203125,0.1951904296875
1788957790073359600,6.356359619140625,-0.0058135986328125,-0.9640960693359375,0.14630126953125
1788957790083409000,6.366408935546875,0.0663909912109375,-0.8658905029296875,0.0228271484375
1788957790093458700,6.376458740234375,0.1118011474609375,-0.871368408203125,0.056549072265625
1788957790103508700,6.3865087890625,0.0978240966796875,-0.90277099609375,0.1741943359375
1788957790113558800,6.396558837890625,0.030242919921875,-0.8888092041015625,0.206390380859375
1788957790123607600,6.406607666015625,0.0062103271484375,-0.90704345703125,0.2304229736328125
1788957790133657600,6.41665771484375,0.03411865234375,-0.9364776611328125,0.23101806640625
1788957790143707600,6.426707763671875,0.0637969970703125,-0.9564208984375,0.244293212890625
1788957790153757700,6.4367578125,0.07379150390625,-0.993743896484375,0.2624359130859375
1788957790163806700,6.446806640625,0.0638427734375,-1.005584716796875,0.2541961669921875
1788957790173856800,6.456856689453125,0.04669189453125,-1.0245208740234375,0.2457733154296875
1788957790183906800,6.46690673828125,0.0293426513671875,-1.0322418212890625,0.231597900390625
1788957790193956900,6.476956787109375,0.01617431640625,-1.027374267578125,0.2268829345703125
1788957790204005600,6.487005615234375,0.036407470703125,-0.9769439697265625,0.22576904296875
1788957790214055700,6.4970556640625,0.0565185546875,-0.8795318603515625,0.2047576904296875
1788957790224105700,6.507105712890625,0.0450286865234375,-0.8419036865234375,0.1894073486328125
1788957790234155800,6.51715576171875,0.0208892822265625,-0.82269287109375,0.186187744140625
1788957790244204800,6.527204833984375,0.0179901123046875,-0.7660980224609375,0.17242431640625
1788957790254254800,6.5372548828125,0.05010986328125,-0.751129150390625,0.1642303466796875
1788957790264304600,6.5473046875,0.0582122802734375,-0.721099853515625,0.17926025390625
1788957790274354700,6.557354736328125,0.0423583984375,-0.6440887451171875,0.152587890625
1788957790284403700,6.56740380859375,0.0696258544921875,-0.6908416748046875,0.099090576171875
1788957790294453800,6.577453857421875,0.099090576171875,-0.7435455322265625,0.0660858154296875
1788957790304503600,6.587503662109375,0.116790771484375,-0.781829833984375,0.041961669921875
1788957790314553900,6.597553955078125,0.1243896484375,-0.8426971435546875,0.0424346923828125
1788957790324604000,6.60760400390625,0.1516876220703125,-0.891754150390625,0.051513671875
1788957790334652700,6.617652587890625,0.145904541015625,-0.91802978515625,0.0400848388671875
1788957790344702700,6.62770263671875,0.1508026123046875,-0.9253082275390625,-0.000732421875
1788957790354752800,6.637752685546875,0.21038818359375,-0.9253692626953125,0.049224853515625
1788957790364801500,6.647801513671875,0.06597900390625,-0.926239013671875,0.0830078125
1788957790374851600,6.6578515625,-0.0072021484375,-0.9670257568359375,0.0314788818359375
1788957790384902000,6.66790185546875,0.108612060546875,-1.0468292236328125,-0.0363311767578125
1788957790394952000,6.677951904296875,0.20574951171875,-1.1107330322265625,-0.0539398193359375
1788957790405001700,6.688001708984375,0.2463836669921875,-1.1627960205078125,-0.0425567626953125
1788957790415050800,6.69805078125,0.2663421630859375,-1.2323760986328125,-0.026702880859375
1788957790425100800,6.708100830078125,0.2869873046875,-1.3377227783203125,-0.0302734375
1788957790435150600,6.718150634765625,0.3158721923828125,-1.43939208984375,-0.013671875
1788957790445200600,6.72820068359375,0.3702850341796875,-1.5452423095703125,-0.011566162109375
1788957790455249700,6.738249755859375,0.393951416015625,-1.6561737060546875,-0.0293731689453125
1788957790465300000,6.748300048828125,0.3596038818359375,-1.698272705078125,-0.067108154296875
1788957790475349800,6.758349853515625,0.3096466064453125,-1.562347412109375,-0.053619384765625
1788957790485399800,6.76839990234375,0.31280517578125,-1.32861328125,0.0512847900390625
1788957790495448800,6.77844873046875,0.276763916015625,-1.1414642333984375,0.14825439453125
1788957790505498600,6.78849853515625,0.2620849609375,-1.0329437255859375,0.2225799560546875
1788957790515548700,6.798548583984375,0.24713134765625,-0.9535369873046875,0.25225830078125
1788957790525598700,6.8085986328125,0.216461181640625,-0.9289093017578125,0.27001953125
1788957790535647700,6.818647705078125,0.159423828125,-0.881622314453125,0.244720458984375
1788957790545697800,6.82869775390625,0.1377716064453125,-0.8345794677734375,0.2233734130859375
1788957790555747800,6.838747802734375,0.1354217529296875,-0.8390960693359375,0.22564697265625
1788957790565798000,6.8487978515625,0.139892578125,-0.8568267822265625,0.1802215576171875
1788957790575846700,6.8588466796875,0.0721893310546875,-0.88543701171875,0.1596832275390625
1788957790585896700,6.868896728515625,0.034332275390625,-0.8555145263671875,0.112060546875
1788957790595946500,6.878946533203125,-0.019744873046875,-0.84356689453125,0.0829925537109375
1788957790605996500,6.88899658203125,-0.0096893310546875,-0.8069610595703125,0.0547332763671875
1788957790616045600,6.899045654296875,-0.006805419921875,-0.776824951171875,0.0313262939453125
1788957790626095600,6.909095703125,0.0128173828125,-0.76971435546875,-0.002960205078125
1788957790636145700,6.919145751953125,0.050872802734375,-0.773101806640625,-0.0311431884765625
1788957790646195500,6.929195556640625,0.12261962890625,-0.76611328125,-0.0190582275390625
1788957790656244500,6.939244384765625,0.184967041015625,-0.7820892333984375,0.0205841064453125
1788957790666294500,6.94929443359375,0.1869354248046875,-0.829986572265625,0.030120849609375
1788957790676344300,6.95934423828125,0.21551513671875,-0.8943328857421875,0.0360565185546875
1788957790686394400,6.969394287109375,0.27215576171875,-0.9570159912109375,0.031829833984375
1788957790696443600,6.979443603515625,0.300140380859375,-1.0129547119140625,0.0010986328125
1788957790706493400,6.989493408203125,0.264129638671875,-1.072784423828125,-0.0025787353515625
1788957790716543500,6.99954345703125,0.2206878662109375,-1.1147308349609375,0.035919189453125
1788957790726593500,7.009593505859375,0.226715087890625,-1.086669921875,0.0518798828125
1788957790736642600,7.019642578125,0.26141357421875,-1.0320587158203125,0.057037353515625
1788957790746692400,7.0296923828125,0.2850341796875,-1.03204345703125,0.0699005126953125
1788957790756742400,7.039742431640625,0.2544708251953125,-1.02911376953125,0.07989501953125
1788957790766792400,7.04979248046875,0.2420196533203125,-1.0189361572265625,0.0726470947265625
1788957790776841500,7.059841552734375,0.25390625,-1.0052490234375,0.0673675537109375
1788957790786891500,7.0698916015625,0.2669219970703125,-0.9913482666015625,0.088409423828125
1788957790796941600,7.079941650390625,0.274322509765625,-0.9595489501953125,0.1135101318359375
1788957790806991600,7.08999169921875,0.234161376953125,-0.9433135986328125,0.1640167236328125
1788957790817040400,7.100040283203125,0.1933441162109375,-0.9630584716796875,0.2147064208984375
1788957790827090400,7.11009033203125,0.16864013671875,-1.0256805419921875,0.278564453125
1788957790837140500,7.120140380859375,0.1237640380859375,-1.04351806640625,0.299407958984375
1788957790847190300,7.130190185546875,0.150177001953125,-1.0377960205078125,0.303863525390625
1788957790857239600,7.140239501953125,0.1851654052734375,-1.040130615234375,0.2783355712890625
1788957790867289600,7.15028955078125,0.1897735595703125,-0.9955291748046875,0.2746734619140625
1788957790877339600,7.160339599609375,0.2184906005859375,-0.9822998046875,0.230316162109375
1788957790887389400,7.170389404296875,0.297454833984375,-0.962554931640625,0.0717010498046875
1788957790897438500,7.1804384765625,0.2909088134765625,-0.8650665283203125,-0.00128173828125
1788957790907488500,7.190488525390625,0.3794403076171875,-0.8809051513671875,-0.0058746337890625
1788957790917538300,7.200538330078125,0.4345703125,-0.9402923583984375,-0.0011749267578125
1788957790927588400,7.21058837890625,0.3191986083984375,-1.0476226806640625,0.0072784423828125
1788957790937637600,7.2206376953125,0.2298583984375,-1.19573974609375,-0.042755126953125
1788957790947687400,7.2306875,0.2219390869140625,-1.3177032470703125,0.00408935546875
1788957790957737500,7.240737548828125,0.199920654296875,-1.3673248291015625,0.0511474609375
1788957790967787500,7.25078759765625,0.1394500732421875,-1.4237213134765625,0.1318206787109375
1788957790977836500,7.26083642578125,-0.0402069091796875,-1.447113037109375,0.2167510986328125
1788957790987886300,7.27088623046875,0.10235595703125,-1.337799072265625,0.2476348876953125
1788957790997936400,7.280936279296875,0.0750579833984375,-1.175567626953125,0.1772003173828125
1788957791007986400,7.290986328125,0.1658935546875,-1.1668243408203125,0.050689697265625
1788957791018035500,7.301035400390625,0.367095947265625,-1.1375732421875,0.122589111328125
1788957791028085500,7.31108544921875,0.2068328857421875,-1.0897216796875,0.1366729736328125
1788957791038135600,7.321135498046875,0.408111572265625,-1.1862030029296875,0.0888214111328125
1788957791048185600,7.331185546875,0.38201904296875,-1.1613616943359375,-0.0047149658203125
1788957791058234400,7.341234375,0.44989013671875,-1.207244873046875,0.0605316162109375
1788957791068284400,7.351284423828125,0.37591552734375,-1.3583984375,0.1925506591796875
1788957791078334500,7.36133447265625,0.2712249755859375,-1.3534088134765625,0.1627960205078125
1788957791088384500,7.371384521484375,0.1778411865234375,-1.3505096435546875,0.2127227783203125
1788957791098433500,7.38143359375,0.128265380859375,-1.3262939453125,0.2216339111328125
1788957791108483600,7.391483642578125,0.1307373046875,-1.247406005859375,0.2205352783203125
1788957791118533600,7.40153369140625,-0.0067138671875,-1.059417724609375,0.2066192626953125
1788957791128583400,7.41158349609375,-0.0079193115234375,-0.971771240234375,0.2045745849609375
1788957791138632400,7.421632568359375,-0.0658111572265625,-0.91094970703125,0.19879150390625
1788957791148682500,7.4316826171875,-0.3516998291015625,-0.923309326171875,0.3928070068359375
1788957791158732300,7.441732177734375,-0.5504913330078125,-0.7769012451171875,0.26934814453125
1788957791168782600,7.451782470703125,-0.005035400390625,-0.5552978515625,0.153350830078125
1788957791178831600,7.46183154296875,0.0568389892578125,-0.4184417724609375,0.2414398193359375
1788957791188881400,7.47188134765625,-0.026397705078125,-0.4006195068359375,0.273651123046875
1788957791198931500,7.481931396484375,0.0709228515625,-0.4900360107421875,0.2757720947265625
1788957791208981500,7.4919814453125,0.1089324951171875,-0.5961761474609375,0.2915496826171875
1788957791219030300,7.5020302734375,0.1245269775390625,-0.6714324951171875,0.2933197021484375
1788957791229080300,7.512080322265625,0.1291656494140625,-0.748382568359375,0.26226806640625
1788957791239130600,7.522130615234375,0.101776123046875,-0.824310302734375,0.1641387939453125
1788957791249180700,7.5321806640625,0.25042724609375,-0.8697509765625,0.015594482421875
1788957791259229400,7.5422294921875,0.50347900390625,-0.8011932373046875,-0.06146240234375
1788957791269279500,7.552279541015625,0.5054779052734375,-0.787322998046875,-0.05657958984375
1788957791279329500,7.56232958984375,0.160186767578125,-0.7376708984375,-0.1116485595703125
1788957791289379600,7.572379638671875,0.1933441162109375,-0.7079010009765625,0.135955810546875
1788957791299428400,7.582428466796875,0.3932952880859375,-0.7655487060546875,0.3431396484375
1788957791309478400,7.592478515625,0.3242034912109375,-0.8031158447265625,0.34051513671875
1788957791319528700,7.60252880859375,0.0372161865234375,-0.8652801513671875,0.2775421142578125
1788957791329577500,7.612577392578125,0.0506134033203125,-0.9158172607421875,0.3769073486328125
1788957791339627500,7.62262744140625,0.2007904052734375,-0.9359588623046875,0.4418792724609375
1788957791349677600,7.632677490234375,0.2272796630859375,-0.9766082763671875,0.49713134765625
1788957791359727400,7.642727294921875,0.31182861328125,-0.9786376953125,0.5643310546875
1788957791369776400,7.6527763671875,0.3477325439453125,-0.88934326171875,0.4862060546875
1788957791379826400,7.662826416015625,0.302978515625,-0.7835845947265625,0.4298248291015625
1788957791389876500,7.67287646484375,0.2884368896484375,-0.737884521484375,0.5303955078125
1788957791399926500,7.682926513671875,0.3544158935546875,-0.5403289794921875,0.4611968994140625
1788957791409975600,7.6929755859375,0.0342864990234375,-0.2564544677734375,0.4142608642578125
1788957791420025600,7.703025634765625,-0.3076171875,0.02197265625,0.5635223388671875
1788957791430075400,7.713075439453125,-0.587890625,0.1450958251953125,0.63543701171875
1788957791440125400,7.72312548828125,-0.8240966796875,0.0907440185546875,0.67535400390625
1788957791450174500,7.733174560546875,-1.424224853515625,0.075408935546875,0.699859619140625
1788957791460224500,7.743224609375,-2.035400390625,0.2405242919921875,0.6204833984375
1788957791470274600,7.753274658203125,-0.0001678466796875,0.202239990234375,0.8580169677734375
1788957791480324600,7.76332470703125,0.8294677734375,-0.3066253662109375,1.10455322265625
1788957791490373600,7.77337353515625,0.445343017578125,-0.5103759765625,1.0971527099609375
1788957791500423400,7.78342333984375,0.207000732421875,-0.37451171875,1.03668212890625
1788957791510473500,7.793473388671875,0.4131622314453125,-0.337799072265625,1.0271453857421875
1788957791520523500,7.8035234375,0.437835693359375,-0.5347137451171875,0.94464111328125
1788957791530572300,7.813572265625,0.2227020263671875,-0.688934326171875,0.9000244140625
1788957791540622600,7.82362255859375,0.0403289794921875,-0.6830596923828125,0.86773681640625
1788957791550672600,7.833672607421875,-0.2783355712890625,-0.5850830078125,0.915435791015625
1788957791560722700,7.84372265625,-0.42962646484375,-0.6478118896484375,0.9780120849609375
1788957791570771500,7.853771484375,-0.5813751220703125,-0.756317138671875,0.9867095947265625
1788957791580821500,7.863821533203125,-0.6156768798828125,-0.7867889404296875,0.98626708984375
1788957791590871600,7.87387158203125,-0.64984130859375,-0.8151702880859375,0.9678497314453125
1788957791600921600,7.883921630859375,-0.5158843994140625,-0.846343994140625,0.8979034423828125
1788957791610970600,7.893970703125,-0.2724456787109375,-0.877685546875,0.724334716796875
1788957791621020700,7.904020751953125,-0.1649169921875,-0.8524017333984375,0.5756378173828125
1788957791631070700,7.91407080078125,-0.1071319580078125,-0.801177978515625,0.4780426025390625
1788957791641120800,7.924120849609375,-0.2101287841796875,-0.75927734375,0.4352569580078125
1788957791651169800,7.934169677734375,-0.2949371337890625,-0.656036376953125,0.5145721435546875
1788957791661219600,7.944219482421875,-0.3372344970703125,-0.543914794921875,0.593170166015625
1788957791671269600,7.95426953125,-0.3904571533203125,-0.410675048828125,0.72845458984375
1788957791681319700,7.964319580078125,-0.358306884765625,-0.292327880859375,0.8550872802734375
1788957791691368700,7.97436865234375,-0.2176055908203125,-0.1870269775390625,0.9362640380859375
1788957791701418800,7.984418701171875,-0.051055908203125,-0.0988922119140625,0.99664306640625
1788957791711468800,7.99446875,0.0279693603515625,-0.0492401123046875,1.05743408203125
1788957791721518800,8.004518798828125,0.25262451171875,-0.06329345703125,1.1385040283203125
1788957791731567600,8.014567626953125,0.5775146484375,-0.2281646728515625,1.124725341796875
1788957791741617700,8.02461767578125,0.6253662109375,-0.171783447265625,1.1595306396484375
1788957791751667700,8.034667724609376,0.4264373779296875,-0.1046295166015625,1.209716796875
1788957791761717800,8.0447177734375,0.170684814453125,-0.1673431396484375,1.1882171630859375
1788957791771766800,8.054766845703124,-0.066680908203125,-0.155120849609375,1.15203857421875
1788957791781816800,8.06481689453125,-0.3244171142578125,-0.1559600830078125,1.0825042724609375
1788957791791867000,8.074866943359375,-0.6957244873046875,-0.3730316162109375,0.970550537109375
1788957791801916700,8.084916748046876,-0.764923095703125,-0.533294677734375,0.844512939453125
1788957791811965700,8.094965576171875,-0.881134033203125,-0.8156585693359375,0.6742095947265625
1788957791822015700,8.105015625,-1.036529541015625,-1.2066192626953125,0.5100860595703125
1788957791832065500,8.1150654296875,-1.080718994140625,-1.445159912109375,0.3661651611328125
1788957791842114600,8.125114501953124,-1.078521728515625,-1.5258941650390625,0.2761383056640625
1788957791852164900,8.135164794921875,-1.0487060546875,-1.4854583740234375,0.2545623779296875
1788957791862215000,8.14521484375,-1.0688934326171875,-1.3375091552734375,0.3157806396484375
1788957791872264700,8.1552646484375,-1.1726226806640625,-1.0880279541015625,0.4005126953125
1788957791882313700,8.165313720703125,-1.2052764892578125,-0.9160003662109375,0.4345245361328125
1788957791892363800,8.17536376953125,-1.173126220703125,-0.8247222900390625,0.4611968994140625
1788957791902413600,8.18541357421875,-1.1439361572265625,-0.711334228515625,0.4515228271484375
1788957791912463600,8.195463623046875,-1.1497039794921875,-0.5923004150390625,0.4120635986328125
1788957791922513000,8.205512939453126,-1.123504638671875,-0.508575439453125,0.4058685302734375
1788957791932562700,8.215562744140625,-0.9782562255859375,-0.457000732421875,0.397918701171875
1788957791942612700,8.22561279296875,-0.769989013671875,-0.4376983642578125,0.3939208984375
1788957791952662800,8.235662841796875,-0.5615234375,-0.4934844970703125,0.408050537109375
1788957791962711800,8.2457119140625,-0.447357177734375,-0.605804443359375,0.4617462158203125
1788957791972761600,8.25576171875,-0.3835601806640625,-0.6854705810546875,0.4798583984375
1788957791982811600,8.265811767578125,-0.3774566650390625,-0.66339111328125,0.4569854736328125
1788957791992861700,8.27586181640625,-0.39947509765625,-0.5491485595703125,0.421783447265625
1788957792002910700,8.28591064453125,-0.268402099609375,-0.439849853515625,0.443206787109375
1788957792012960800,8.295960693359374,-0.069793701171875,-0.4180755615234375,0.4399871826171875
1788957792023010800,8.3060107421875,-0.2456207275390625,-0.4833984375,0.384063720703125
1788957792033060900,8.316060791015625,-0.606689453125,-0.4930267333984375,0.369049072265625
1788957792043109600,8.326109619140626,-1.3422393798828125,-0.4217987060546875,0.3550262451171875
1788957792053159700,8.33615966796875,-1.474456787109375,-0.42547607421875,0.4748077392578125
1788957792063209700,8.346209716796874,-0.7855224609375,-0.5046539306640625,0.532318115234375
1788957792073259500,8.356259521484375,-0.5585784912109375,-0.498809814453125,0.4943389892578125
1788957792083308800,8.366308837890625,-0.663360595703125,-0.4299774169921875,0.49810791015625
1788957792093358800,8.37635888671875,-0.7914886474609375,-0.3990936279296875,0.450531005859375
1788957792103409000,8.386408935546875,-0.7738037109375,-0.4591827392578125,0.41302490234375
1788957792113458700,8.396458740234374,-0.726409912109375,-0.5685577392578125,0.36505126953125
1788957792123507700,8.4065078125,-0.7589263916015625,-0.6835479736328125,0.3153076171875
1788957792133557800,8.416557861328124,-0.8063812255859375,-0.7049560546875,0.30352783203125
1788957792143607600,8.426607666015625,-0.85418701171875,-0.5561676025390625,0.3166046142578125
1788957792153656800,8.43665673828125,-0.8972320556640625,-0.4284820556640625,0.3594512939453125
1788957792163707000,8.446706787109376,-0.8577728271484375,-0.4168243408203125,0.4212493896484375
1788957792173756700,8.456756591796875,-0.8299102783203125,-0.3984222412109375,0.417877197265625
1788957792183806700,8.466806640625,-0.90020751953125,-0.35467529296875,0.3690032958984375
1788957792193855700,8.476855712890625,-0.972625732421875,-0.2992401123046875,0.302642822265625
1788957792203905500,8.486905517578125,-0.991302490234375,-0.2552490234375,0.2056121826171875
1788957792213955600,8.49695556640625,-1.05029296875,-0.2240447998046875,0.1105499267578125
1788957792224005600,8.507005615234375,-1.210205078125,-0.246795654296875,0.0712432861328125
1788957792234055000,8.517054931640626,-1.3243255615234375,-0.27703857421875,0.093841552734375
1788957792244104700,8.527104736328125,-1.3144683837890625,-0.253936767578125,0.1120452880859375
1788957792254154800,8.53715478515625,-1.228759765625,-0.256134033203125,0.1363067626953125
1788957792264204800,8.547204833984376,-1.1414794921875,-0.311431884765625,0.1607513427734375
1788957792274253600,8.557253662109375,-1.0751953125,-0.3390960693359375,0.177734375
1788957792284303600,8.5673037109375,-0.9931488037109375,-0.3276824951171875,0.2152862548828125
1788957792294353700,8.577353759765625,-0.9222869873046875,-0.30242919921875,0.246368408203125
1788957792304403700,8.58740380859375,-0.9404296875,-0.299346923828125,0.2495880126953125
1788957792314452700,8.59745263671875,-0.9697418212890625,-0.325531005859375,0.2389678955078125
1788957792324502800,8.607502685546875,-0.9716644287109375,-0.353729248046875,0.2579345703125
1788957792334552800,8.617552734375,-0.9663848876953125,-0.3505401611328125,0.2762451171875
1788957792344602600,8.6276025390625,-0.9526214599609375,-0.32574462890625,0.2500152587890625
1788957792354651600,8.637651611328126,-0.9377899169921875,-0.340667724609375,0.1925048828125
1788957792364701700,8.64770166015625,-0.89019775390625,-0.3772125244140625,0.14544677734375
1788957792374751700,8.657751708984375,-0.847625732421875,-0.41021728515625,0.1268157958984375
1788957792384801500,8.667801513671876,-0.8107452392578125,-0.4324493408203125,0.0838470458984375
1788957792394850800,8.677850830078125,-0.756134033203125,-0.4409027099609375,0.0464935302734375
1788957792404900900,8.68790087890625,-0.7318115234375,-0.436920166015625,0.0214996337890625
1788957792414950700,8.69795068359375,-0.69195556640625,-0.4219970703125,-0.0008392333984375
1788957792425000700,8.708000732421874,-0.8189849853515625,-0.5054779052734375,0.0372161865234375
1788957792435049700,8.7180498046875,-0.8291015625,-0.5626983642578125,0.0631256103515625
1788957792445099500,8.728099609375,-0.8240203857421875,-0.5252227783203125,0.0700225830078125
1788957792455149600,8.738149658203126,-0.8467254638671875,-0.479217529296875,0.0785675048828125
1788957792465198800,8.74819873046875,-0.8963623046875,-0.46563720703125,0.095062255859375
1788957792475249000,8.758248779296874,-0.90533447265625,-0.4596405029296875,0.09503173828125
1788957792485298700,8.768298583984375,-0.9242401123046875,-0.4539642333984375,0.081329345703125
1788957792495348700,8.7783486328125,-0.8793487548828125,-0.4560699462890625,0.0480194091796875
1788957792505397800,8.788397705078125,-0.899505615234375,-0.4448394775390625,-0.00994873046875
