time,seconds_elapsed,z,y,x
1788957783768385800,0.0513857421875,-0.09891554713249207,0.2592153549194336,0.27575698494911194
1788957783778435000,0.06143505859375,-0.16642090678215027,0.19032321870326996,0.2926686704158783
1788957783788485000,0.071485107421875,-0.2731183171272278,0.18675804138183594,0.35293999314308167
1788957783798535000,0.081534912109375,-0.3671964108943939,0.1767076551914215,0.48711660504341125
1788957783808585000,0.0915849609375,-0.4279654920101166,0.2117982655763626,0.6442955732345581
1788957783818635000,0.101635009765625,-0.46228912472724915,0.2633693218231201,0.799113392829895
1788957783828683800,0.111683837890625,-0.4794619679450989,0.29673632979393005,0.9555530548095703
1788957783838733800,0.12173388671875,-0.4766554534435272,0.2618001103401184,1.140255331993103
1788957783848784000,0.131783935546875,-0.4226260483264923,0.16427303850650787,1.3277539014816284
1788957783858834000,0.141833984375,-0.4073505699634552,0.20120446383953094,1.4640439748764038
1788957783868883000,0.151883056640625,-0.5128090977668762,0.31697791814804077,1.4817569255828857
1788957783878933000,0.16193310546875,-0.7193999290466309,0.35788875818252563,1.4061533212661743
1788957783888983000,0.171983154296875,-1.0019439458847046,0.2975471317768097,1.3056824207305908
1788957783899033000,0.182033203125,-1.3824896812438965,0.11866555362939835,1.1817480325698853
1788957783909083000,0.192082763671875,-1.8161638975143433,-0.17297986149787903,1.0432146787643433
1788957783919132000,0.2021318359375,-2.2424843311309814,-0.29682499170303345,0.9910481572151184
1788957783929182000,0.212181884765625,-2.7089548110961914,-0.06074373051524162,1.0532753467559814
1788957783939232000,0.22223193359375,-3.2195162773132324,0.33885490894317627,1.251460313796997
1788957783949282000,0.232281982421875,-3.5901992321014404,0.6506341099739075,1.5295089483261108
1788957783959332000,0.24233203125,-3.6560633182525635,0.9147286415100098,1.7569730281829834
1788957783969380900,0.252380859375,-3.5112392902374268,1.120570421218872,1.7918716669082642
1788957783979431000,0.262430908203125,-3.3220837116241455,1.1369540691375732,1.6579090356826782
1788957783989481000,0.27248095703125,-3.2414281368255615,1.0488210916519165,1.4596188068389893
1788957783999531000,0.282531005859375,-3.2588155269622803,1.0496783256530762,1.2964606285095215
1788957784009579800,0.292579833984375,-3.338771343231201,1.1064726114273071,1.1972790956497192
1788957784019630000,0.302630126953125,-3.5196750164031982,1.0686322450637817,1.141148567199707
1788957784029680000,0.31268017578125,-3.796966075897217,0.8329092264175415,1.1228950023651123
1788957784039730000,0.32272998046875,-4.092611312866211,0.5127869844436646,1.1206653118133545
1788957784049780000,0.332780029296875,-4.282641410827637,0.24403834342956543,1.1584680080413818
1788957784059829000,0.3428291015625,-4.364727020263672,0.06491710990667343,1.1960475444793701
1788957784069879000,0.352879150390625,-4.32846212387085,-0.08203798532485962,1.2708903551101685
1788957784079928800,0.3629287109375,-4.091794013977051,-0.04718754440546036,1.341396450996399
1788957784089979000,0.372978759765625,-3.924926280975342,0.058441679924726486,1.6552715301513672
1788957784100029000,0.38302880859375,-3.6346499919891357,0.5844531655311584,1.944030523300171
1788957784110078000,0.393077880859375,-3.2389118671417236,1.0894100666046143,2.1889469623565674
1788957784120128000,0.4031279296875,-2.770796537399292,1.2581052780151367,2.3589868545532227
1788957784130178000,0.413177978515625,-2.290825128555298,1.2313951253890991,2.356626510620117
1788957784140228000,0.42322802734375,-1.761810064315796,1.147070050239563,2.1340737342834473
1788957784150276900,0.43327685546875,-1.1264967918395996,0.9987218379974365,1.6571475267410278
1788957784160327000,0.443326904296875,-0.5297923684120178,0.6500718593597412,0.9724254608154297
1788957784170377000,0.453376953125,-0.19630815088748932,0.0873938724398613,0.1758039891719818
1788957784180426800,0.4634267578125,0.007139860186725855,-0.9351909756660461,-0.5557290315628052
1788957784190476800,0.473476806640625,0.12340095639228821,-1.1019741296768188,-1.3870792388916016
1788957784200526000,0.483526123046875,0.39896532893180847,-1.455700397491455,-1.9843462705612183
1788957784210576100,0.493576171875,0.9592193365097046,-1.7905633449554443,-2.235060691833496
1788957784220626000,0.5036259765625,1.54782235622406,-1.7023829221725464,-2.158402919769287
1788957784230676000,0.513676025390625,2.0315704345703125,-1.3644990921020508,-1.8833917379379272
1788957784240725000,0.52372509765625,2.369070291519165,-0.8588771820068359,-1.587898850440979
1788957784250774800,0.53377490234375,2.5000123977661133,-0.5162391066551208,-1.3123133182525635
1788957784260824800,0.543824951171875,2.440554141998291,-0.38764774799346924,-1.0469025373458862
1788957784270875000,0.553875,2.213632822036743,-0.4445030391216278,-0.8278788328170776
1788957784280925000,0.563925048828125,1.8899002075195312,-0.5001174211502075,-0.6634743213653564
1788957784290974000,0.573973876953125,1.6267505884170532,-0.42825523018836975,-0.38206398487091064
1788957784301024000,0.58402392578125,1.4668411016464233,-0.5978593826293945,0.04410131275653839
1788957784311074000,0.594073974609375,1.3415547609329224,-0.5552927255630493,0.4940519332885742
1788957784321123800,0.604123779296875,1.2942545413970947,-0.6513895988464355,0.8789418339729309
1788957784331172900,0.6141728515625,1.5219652652740479,-0.6378434300422668,1.1643704175949097
1788957784341223000,0.624222900390625,1.5352665185928345,-0.7585094571113586,1.3785756826400757
1788957784351273000,0.63427294921875,1.593501329421997,-0.7485114336013794,1.550028681755066
1788957784361322800,0.64432275390625,1.511294960975647,-0.7475124597549438,1.5097357034683228
1788957784371373000,0.654373046875,1.353356957435608,-0.6733362674713135,1.4970958232879639
1788957784381422000,0.664422119140625,1.2975043058395386,-0.2308691293001175,1.6077160835266113
1788957784391471900,0.674471923828125,1.264049768447876,0.4941444993019104,1.7728691101074219
1788957784401522000,0.68452197265625,1.1034858226776123,0.7711623907089233,1.728600025177002
1788957784411572000,0.694572021484375,1.0387558937072754,1.1128206253051758,1.3946599960327148
1788957784421620700,0.704620849609375,1.4500057697296143,1.6643524169921875,1.1778013706207275
1788957784431670800,0.7146708984375,1.1777534484863281,1.568287968635559,0.6120393872261047
1788957784441721000,0.72472119140625,0.9307822585105896,1.2475395202636719,-0.31182485818862915
1788957784451771100,0.734771240234375,0.6537080407142639,1.011342167854309,-1.214435338973999
1788957784461821000,0.744821044921875,0.4155352711677551,0.8628814816474915,-1.4440627098083496
1788957784471870000,0.754869873046875,0.8451921343803406,0.5058961510658264,-1.6085011959075928
1788957784481920000,0.764919921875,1.8177348375320435,1.0981321334838867,-1.295177936553955
1788957784491970000,0.774969970703125,2.0688130855560303,0.4348052442073822,-0.9086382389068604
1788957784502019800,0.785019775390625,2.3557217121124268,0.012368949130177498,-0.24076594412326813
1788957784512070000,0.79506982421875,2.6666946411132812,0.3962250053882599,0.3759726285934448
1788957784522119200,0.805119140625,3.200685739517212,0.9382787942886353,0.5188369750976562
1788957784532169000,0.8151689453125,3.7237486839294434,0.09429322928190231,0.10928571224212646
1788957784542219000,0.825218994140625,3.8705615997314453,0.8570913076400757,0.2722652852535248
1788957784552269000,0.83526904296875,3.894813060760498,1.9520982503890991,0.3905993700027466
1788957784562317800,0.84531787109375,3.607727289199829,2.4176151752471924,0.04860617220401764
1788957784572368000,0.855367919921875,3.549231767654419,1.9488916397094727,-0.4588663578033447
1788957784582418000,0.86541796875,3.438904285430908,1.461264729499817,-0.7693131566047668
1788957784592467500,0.875467529296875,3.183911085128784,0.5401062965393066,-0.8129541277885437
1788957784602517500,0.885517578125,2.5849971771240234,-0.3184147775173187,-0.5868003368377686
1788957784612566500,0.89556640625,2.2062950134277344,-0.797293484210968,-0.32188206911087036
1788957784622616600,0.905616455078125,2.2633118629455566,-0.48604172468185425,0.28079357743263245
1788957784632666600,0.91566650390625,2.4281530380249023,0.06069964915513992,0.886747419834137
1788957784642716700,0.925716552734375,2.585296630859375,0.17372876405715942,1.4028228521347046
1788957784652765400,0.935765380859375,2.702505350112915,0.017149008810520172,1.7107127904891968
1788957784662815500,0.9458154296875,2.7058305740356445,-0.01001170463860035,1.8792747259140015
1788957784672865500,0.955865478515625,2.403899908065796,0.2505205571651459,2.0198299884796143
1788957784682915600,0.96591552734375,1.8870375156402588,0.23799289762973785,1.9804573059082031
1788957784692965600,0.975965576171875,1.1282941102981567,-0.017903326079249382,1.7520173788070679
1788957784703014700,0.9860146484375,0.4164127707481384,-0.26178473234176636,1.4497326612472534
1788957784713064700,0.996064697265625,-0.14387421309947968,-0.48578721284866333,1.1443085670471191
1788957784723114500,1.006114501953125,-0.4063263535499573,-0.8991848826408386,0.908276379108429
1788957784733164500,1.01616455078125,-0.008891114965081215,-1.6896047592163086,0.6839280128479004
1788957784743213600,1.026213623046875,0.47652938961982727,-2.5384695529937744,0.5794399380683899
1788957784753263400,1.036263427734375,0.7431618571281433,-3.029054880142212,0.7409220337867737
1788957784763313400,1.0463134765625,0.6449942588806152,-3.028529644012451,1.1041432619094849
1788957784773363700,1.05636376953125,0.009538492187857628,-1.381363034248352,1.471635341644287
1788957784783413800,1.066413818359375,-0.8241133689880371,-0.2425190955400467,1.5404692888259888
1788957784793462500,1.076462646484375,-1.087724208831787,-0.03912976011633873,1.6632872819900513
1788957784803512600,1.0865126953125,-1.0967763662338257,-0.07420898973941803,1.6223061084747314
1788957784813562600,1.096562744140625,-0.9832944869995117,0.07510432600975037,1.5305966138839722
1788957784823612700,1.10661279296875,-0.9066449999809265,-0.2929411232471466,1.4008300304412842
1788957784833661400,1.116661376953125,-0.7986721992492676,-0.07401756197214127,1.2402368783950806
1788957784843711500,1.12671142578125,-0.48545271158218384,0.2568385899066925,1.2657315731048584
1788957784853761800,1.13676171875,-0.07290272414684296,0.5471199750900269,1.4880664348602295
1788957784863811600,1.1468115234375,0.048360783606767654,1.1061817407608032,1.4698160886764526
1788957784873861600,1.156861572265625,-0.19521617889404297,1.5439577102661133,1.2571178674697876
1788957784883910700,1.16691064453125,-0.5418617129325867,1.4168566465377808,0.7945117354393005
1788957784893960400,1.17696044921875,-0.8210299611091614,1.0539835691452026,0.01712331548333168
1788957784904010500,1.187010498046875,-1.0189695358276367,1.031335473060608,-0.6978543400764465
1788957784914060500,1.197060546875,-1.3341220617294312,1.5065574645996094,-1.0010746717453003
1788957784924109600,1.207109619140625,-1.5793242454528809,1.9652799367904663,-1.0197210311889648
1788957784934159600,1.21715966796875,-1.5868580341339111,1.6971182823181152,-1.0087929964065552
1788957784944209700,1.227209716796875,-1.6192015409469604,1.4140758514404297,-0.8633954524993896
1788957784954259700,1.237259765625,-1.6212966442108154,1.2286911010742188,-0.6897983551025391
1788957784964308500,1.24730859375,-1.3792223930358887,0.7788714170455933,-0.5776679515838623
1788957784974358500,1.257358642578125,-1.0169435739517212,0.26115456223487854,-0.5835226774215698
1788957784984408600,1.26740869140625,-0.8395053744316101,0.12737149000167847,-0.6762380599975586
1788957784994458600,1.277458740234375,-0.8378211855888367,0.2221568524837494,-0.8163504004478455
1788957785004508400,1.28750830078125,-0.8090384006500244,0.33066490292549133,-0.9651910066604614
1788957785014557700,1.2975576171875,-0.6843206882476807,0.3001434803009033,-1.0500012636184692
1788957785024607700,1.307607666015625,-0.5195109248161316,0.2687901556491852,-1.0127935409545898
1788957785034657500,1.317657470703125,-0.38176289200782776,0.2339499145746231,-0.9031556248664856
1788957785044707600,1.32770751953125,-0.35416749119758606,-0.0007939678616821766,-0.778204083442688
1788957785054756600,1.337756591796875,-0.2400512993335724,-0.201772078871727,-0.6418440937995911
1788957785064806400,1.347806396484375,-0.06690967828035355,-0.4047066867351532,-0.4877358675003052
1788957785074856400,1.3578564453125,0.12245997786521912,-0.6227666139602661,-0.3613917827606201
1788957785084906500,1.367906494140625,0.263039767742157,-0.8060528635978699,-0.2814684808254242
1788957785094956500,1.37795654296875,0.28221479058265686,-0.8548627495765686,-0.2575772702693939
1788957785105005600,1.388005615234375,0.2638053297996521,-0.8617042303085327,-0.2957060635089874
1788957785115055600,1.3980556640625,0.0906979963183403,-0.780020534992218,-0.3590235114097595
1788957785125105700,1.408105712890625,-0.1754426807165146,-0.6181256771087646,-0.45234763622283936
1788957785135155700,1.41815576171875,-0.4039141833782196,-0.6369523406028748,-0.5513187050819397
1788957785145204500,1.42820458984375,-0.4533252418041229,-0.7942330837249756,-0.6195202469825745
1788957785155254500,1.438254638671875,-0.4917450547218323,-0.9571043252944946,-0.6606799364089966
1788957785165304600,1.4483046875,-0.5064482688903809,-1.2451696395874023,-0.6730102300643921
1788957785175354400,1.458354248046875,-0.5932729244232178,-1.2991188764572144,-0.6092621684074402
1788957785185404400,1.468404296875,-0.525290846824646,-1.3159836530685425,-0.6018874049186707
1788957785195453700,1.47845361328125,-0.5112834572792053,-1.3702125549316406,-0.6530520915985107
1788957785205503500,1.48850341796875,-0.5560852885246277,-1.3906702995300293,-0.7264420390129089
1788957785215553500,1.498553466796875,-0.6007962822914124,-1.2734171152114868,-0.794880211353302
1788957785225603600,1.508603515625,-0.5987480282783508,-1.0732462406158447,-0.838848352432251
1788957785235652600,1.518652587890625,-0.5717886090278625,-1.0184801816940308,-0.8761909604072571
1788957785245702400,1.528702392578125,-0.5472782254219055,-1.1591289043426514,-0.9102216958999634
1788957785255752400,1.53875244140625,-0.4805748760700226,-1.3470264673233032,-0.9159041047096252
1788957785265802500,1.548802490234375,-0.41780969500541687,-1.4298592805862427,-0.8885242342948914
1788957785275852800,1.558852783203125,-0.3926931619644165,-1.4288204908370972,-0.8581831455230713
1788957785285901600,1.568901611328125,-0.36774706840515137,-1.4231854677200317,-0.829857587814331
1788957785295951600,1.57895166015625,-0.35688722133636475,-1.4409152269363403,-0.8128650188446045
1788957785306001700,1.589001708984375,-0.35824406147003174,-1.510221242904663,-0.8065314888954163
1788957785316051500,1.599051513671875,-0.38045668601989746,-1.5771712064743042,-0.8028813600540161
1788957785326100500,1.6091005859375,-0.4032283425331116,-1.6222352981567383,-0.8036709427833557
1788957785336150500,1.619150634765625,-0.413239449262619,-1.6258026361465454,-0.8203485012054443
1788957785346200600,1.62920068359375,-0.41245734691619873,-1.6234066486358643,-0.822982668876648
1788957785356250600,1.639250732421875,-0.3689271807670593,-1.2536957263946533,-0.7470751404762268
1788957785366300700,1.64930078125,-0.34157896041870117,-0.9451732635498047,-0.837129533290863
1788957785376349700,1.659349609375,-0.3389866352081299,-0.7330381274223328,-0.9402527213096619
1788957785386399500,1.6693994140625,-0.3254896402359009,-0.7550293803215027,-1.0117532014846802
1788957785396449500,1.679449462890625,-0.32801908254623413,-1.041613221168518,-1.0368446111679077
1788957785406499600,1.68949951171875,-0.3068717420101166,-1.3646209239959717,-1.0271074771881104
1788957785416548600,1.699548583984375,-0.3060988783836365,-1.536568284034729,-1.017591953277588
1788957785426598700,1.7095986328125,-0.31107354164123535,-1.4662384986877441,-1.053889274597168
1788957785436648700,1.719648681640625,-0.3219544291496277,-1.2892876863479614,-1.0840868949890137
1788957785446698800,1.72969873046875,-0.3387824296951294,-1.1084970235824585,-1.0764881372451782
1788957785456748500,1.73974853515625,-0.3448126018047333,-0.9508229494094849,-1.0471819639205933
1788957785466797600,1.749797607421875,-0.317027747631073,-0.8389507532119751,-0.9884732961654663
1788957785476847600,1.75984765625,-0.27323979139328003,-0.7784442901611328,-0.942255437374115
1788957785486897400,1.7698974609375,-0.2526642978191376,-0.7846283912658691,-0.9221152663230896
1788957785496947500,1.779947509765625,-0.2394198626279831,-0.8149181604385376,-0.8889783620834351
1788957785506996700,1.789996826171875,-0.22503532469272614,-0.8460670113563538,-0.8593565225601196
1788957785517046800,1.800046875,-0.1965133547782898,-0.8775850534439087,-0.8374643325805664
1788957785527096600,1.8100966796875,-0.17813146114349365,-0.8350740671157837,-0.8292267918586731
1788957785537146600,1.820146728515625,-0.17405976355075836,-0.7715148329734802,-0.8205313086509705
1788957785547195600,1.830195556640625,-0.2059611827135086,-0.7152213454246521,-0.8149327635765076
1788957785557245400,1.840245361328125,-0.260130912065506,-0.6563444137573242,-0.820433497428894
1788957785567295500,1.85029541015625,-0.31273531913757324,-0.616853654384613,-0.8174453973770142
1788957785577345500,1.860345458984375,-0.35666975378990173,-0.5706787109375,-0.7797747254371643
1788957785587395300,1.870395263671875,-0.4017292559146881,-0.513689398765564,-0.7263014912605286
1788957785597444600,1.880444580078125,-0.41002127528190613,-0.4532153904438019,-0.6732297539710999
1788957785607494400,1.890494384765625,-0.4478413760662079,-0.3941352963447571,-0.6427469849586487
1788957785617544400,1.90054443359375,-0.47332248091697693,-0.33799105882644653,-0.6157443523406982
1788957785627594500,1.910594482421875,-0.46579304337501526,-0.29847270250320435,-0.5450572967529297
1788957785637643300,1.920643310546875,-0.48241543769836426,-0.31198611855506897,-0.43850719928741455
1788957785647693300,1.930693359375,-0.48354098200798035,-0.3189912438392639,-0.3314152657985687
1788957785657743400,1.940743408203125,-0.4774852395057678,-0.28595608472824097,-0.26077091693878174
1788957785667793400,1.95079345703125,-0.48720693588256836,-0.26360848546028137,-0.23328126966953278
1788957785677843500,1.960843505859375,-0.4901779592037201,-0.23059889674186707,-0.22369016706943512
1788957785687892500,1.970892578125,-0.4963507056236267,-0.1937279850244522,-0.24015037715435028
1788957785697942500,1.980942626953125,-0.48545145988464355,-0.11607739329338074,-0.26328951120376587
1788957785707992600,1.99099267578125,-0.47322937846183777,0.013876999728381634,-0.2681359350681305
1788957785718042400,2.00104248046875,-0.4179522693157196,0.20109456777572632,-0.22251518070697784
1788957785728091400,2.01109130859375,-0.29898589849472046,0.4140220880508423,-0.15946835279464722
1788957785738141400,2.021141357421875,-0.10197006165981293,0.6164127588272095,-0.19796673953533173
1788957785748191200,2.031191162109375,0.12884168326854706,0.7841911911964417,-0.3754972517490387
1788957785758241500,2.041241455078125,0.2797406315803528,0.8831121921539307,-0.6206454634666443
1788957785768290600,2.05129052734375,0.3514218330383301,0.9700031280517578,-0.8128170371055603
1788957785778340400,2.06134033203125,0.3882001042366028,1.0650653839111328,-0.8568119406700134
1788957785788390400,2.071390380859375,0.38844233751296997,1.1512999534606934,-0.717348575592041
1788957785798440400,2.0814404296875,0.38175806403160095,1.194962739944458,-0.4538484811782837
1788957785808490500,2.091490478515625,0.3833305537700653,1.1532396078109741,-0.207979217171669
1788957785818539300,2.101539306640625,0.37408992648124695,1.0952954292297363,-0.07933735102415085
1788957785828589300,2.11158935546875,0.3423430919647217,1.0451682806015015,-0.0770520567893982
1788957785838639600,2.1216396484375,0.2716752886772156,1.0082498788833618,-0.14769400656223297
1788957785848689700,2.131689697265625,0.21331541240215302,1.0080004930496216,-0.22222232818603516
1788957785858738400,2.141738525390625,0.1952032595872879,0.9877598881721497,-0.25200793147087097
1788957785868788500,2.15178857421875,0.2404443770647049,0.927418053150177,-0.21376335620880127
1788957785878838500,2.161838623046875,0.3144403398036957,0.8642945289611816,-0.14876224100589752
1788957785888888300,2.171888427734375,0.3815104067325592,0.793806791305542,-0.0875779464840889
1788957785898938400,2.1819384765625,0.4573037028312683,0.7363381385803223,-0.03312722593545914
1788957785908987600,2.191987548828125,0.531808614730835,0.7116700410842896,0.030278965830802917
1788957785919037400,2.202037353515625,0.5578567385673523,0.6909876465797424,0.10723846405744553
1788957785929087500,2.21208740234375,0.5320298075675964,0.650216281414032,0.16261550784111023
1788957785939137500,2.222137451171875,0.47258779406547546,0.6343997716903687,0.16236063838005066
1788957785949186600,2.2321865234375,0.3876679837703705,0.6675406098365784,0.1268509179353714
1788957785959236400,2.242236328125,0.297444611787796,0.7441219091415405,0.07332297414541245
1788957785969286400,2.252286376953125,0.2186650186777115,0.8021190166473389,0.034455545246601105
1788957785979336400,2.26233642578125,0.1744333803653717,0.8016101121902466,0.020152509212493896
1788957785989386500,2.272386474609375,0.19327491521835327,0.7622029781341553,0.02330395206809044
1788957785999435500,2.282435546875,0.2556762397289276,0.7380452156066895,0.03718993812799454
1788957786009485600,2.292485595703125,0.3129922151565552,0.7330414652824402,0.053350262343883514
1788957786019535600,2.30253564453125,0.34869375824928284,0.7167453169822693,0.09750360250473022
1788957786029585400,2.31258544921875,0.34032389521598816,0.6697008609771729,0.17245453596115112
1788957786039634400,2.322634521484375,0.31261104345321655,0.6216968297958374,0.24268634617328644
1788957786049684500,2.3326845703125,0.2720041871070862,0.5941457748413086,0.263857901096344
1788957786059734300,2.342734375,0.22797657549381256,0.5216167569160461,0.22425083816051483
1788957786069784300,2.352784423828125,0.17461341619491577,0.4347035586833954,0.1562836617231369
1788957786079833600,2.36283349609375,0.13202041387557983,0.37637126445770264,0.10287237912416458
1788957786089883600,2.372883544921875,0.1142863780260086,0.33884984254837036,0.08152473717927933
1788957786099933400,2.382933349609375,0.1252697855234146,0.3588235676288605,0.07638777047395706
1788957786109983500,2.3929833984375,0.14744943380355835,0.4707680642604828,0.1385187804698944
1788957786120033500,2.403033447265625,0.1943972408771515,0.6141049861907959,0.25619643926620483
1788957786130082300,2.413082275390625,0.2981555759906769,0.7266920208930969,0.3547058701515198
1788957786140132400,2.42313232421875,0.4392589032649994,0.7590190768241882,0.38248664140701294
1788957786150182400,2.433182373046875,0.42079097032546997,0.713415265083313,0.41760507225990295
1788957786160232400,2.443232421875,0.2279203087091446,0.5371052026748657,0.5174816250801086
1788957786170281500,2.453281494140625,0.10822200030088425,0.34582436084747314,0.6279155611991882
1788957786180331500,2.46333154296875,0.10430129617452621,0.245692178606987,0.6532201170921326
1788957786190381600,2.473381591796875,0.0994606763124466,0.20005466043949127,0.5991396307945251
1788957786200431400,2.483431396484375,0.05653665214776993,0.1784665435552597,0.5218086242675781
1788957786210480400,2.49348046875,0.030446121469140053,0.1685885787010193,0.4689323604106903
1788957786220530400,2.503530517578125,0.0414939820766449,0.16136449575424194,0.4404999315738678
1788957786230580500,2.51358056640625,0.07537657767534256,0.1892469972372055,0.43613818287849426
1788957786240630300,2.52363037109375,0.10884452611207962,0.2814032733440399,0.4514614939689636
1788957786250680300,2.533680419921875,0.18844327330589294,0.40362170338630676,0.5199823975563049
1788957786260729600,2.5437294921875,0.20613040030002594,0.42814886569976807,0.610396683216095
1788957786270779400,2.553779296875,0.17150132358074188,0.3017272353172302,0.6852744817733765
1788957786280829400,2.563829345703125,0.13416913151741028,0.19038978219032288,0.7044149041175842
1788957786290879500,2.57387939453125,0.15105289220809937,0.11327531933784485,0.6700294613838196
1788957786300928300,2.58392822265625,0.18921759724617004,0.1157163679599762,0.6284918785095215
1788957786310978300,2.593978271484375,0.19797971844673157,0.19642440974712372,0.6317694783210754
1788957786321028400,2.6040283203125,0.21519093215465546,0.24022887647151947,0.697623610496521
1788957786331078700,2.61407861328125,0.21317611634731293,0.2349240928888321,0.765691876411438
1788957786341128400,2.62412841796875,0.1801832765340805,0.11988085508346558,0.7859894633293152
1788957786351177500,2.634177490234375,0.22548425197601318,-0.008685939013957977,0.777232825756073
1788957786361227500,2.6442275390625,0.1976046860218048,-0.15079595148563385,0.7981290221214294
1788957786371277300,2.65427734375,0.16164802014827728,-0.24939529597759247,0.8809909820556641
1788957786381327400,2.664327392578125,0.16450531780719757,-0.3070388734340668,0.9544166922569275
1788957786391376400,2.67437646484375,0.19493739306926727,-0.32285183668136597,0.9698320031166077
1788957786401426400,2.684426513671875,0.2556401491165161,-0.3163672983646393,0.9178529977798462
1788957786411476500,2.6944765625,0.2857470214366913,-0.3234248757362366,0.8568272590637207
1788957786421526500,2.704526611328125,0.3021659553050995,-0.26923033595085144,0.8618241548538208
1788957786431575600,2.714575439453125,0.3241635859012604,-0.1800432652235031,0.932266891002655
1788957786441625300,2.724625244140625,0.35613590478897095,-0.07955021411180496,1.0133730173110962
1788957786451675400,2.73467529296875,0.3651213049888611,-0.11551617085933685,1.0394800901412964
1788957786461725400,2.744725341796875,0.38532352447509766,-0.21668753027915955,1.0162453651428223
1788957786471775500,2.754775390625,0.40328875184059143,-0.35476619005203247,0.9521634578704834
1788957786481824500,2.764824462890625,0.4285597503185272,-0.47748786211013794,0.8632460832595825
1788957786491874600,2.77487451171875,0.44835126399993896,-0.4990909695625305,0.7806650400161743
1788957786501924600,2.784924560546875,0.45338332653045654,-0.4247991442680359,0.7093008160591125
1788957786511974400,2.794974365234375,0.4656306505203247,-0.3526903986930847,0.6451892256736755
1788957786522023400,2.8050234375,0.480511337518692,-0.3016812801361084,0.5828105211257935
1788957786532073500,2.815073486328125,0.4623209834098816,-0.3192194700241089,0.5448073148727417
1788957786542123500,2.82512353515625,0.4070582687854767,-0.3553444445133209,0.5130131840705872
1788957786552173300,2.83517333984375,0.3484993875026703,-0.40069034695625305,0.4933658540248871
1788957786562222600,2.84522265625,0.2766568958759308,-0.477878600358963,0.485858678817749
1788957786572272600,2.855272705078125,0.20979884266853333,-0.5796844363212585,0.5026247501373291
1788957786582322400,2.865322509765625,0.15661366283893585,-0.6638424396514893,0.5685642957687378
1788957786592372700,2.875372802734375,0.13061712682247162,-0.708529531955719,0.6430273056030273
1788957786602422800,2.8854228515625,0.125580832362175,-0.7190569639205933,0.6705090403556824
1788957786612471800,2.895471923828125,0.13270804286003113,-0.714474618434906,0.6287564039230347
1788957786622521600,2.905521484375,0.1585572063922882,-0.7014440298080444,0.5165608525276184
1788957786632571600,2.915571533203125,0.18226954340934753,-0.6948477625846863,0.39599964022636414
1788957786642621700,2.92562158203125,0.1860232651233673,-0.6491258144378662,0.3399512767791748
1788957786652670700,2.935670654296875,0.18762749433517456,-0.5522083044052124,0.35977914929389954
1788957786662720800,2.945720703125,0.2091602236032486,-0.4167572855949402,0.38386425375938416
1788957786672770800,2.955770751953125,0.20420752465724945,-0.2909497916698456,0.3685450851917267
1788957786682820900,2.96582080078125,0.1909566968679428,-0.20898354053497314,0.34093713760375977
1788957786692869600,2.97586962890625,0.1910455822944641,-0.17447951436042786,0.3460598886013031
1788957786702919700,2.985919677734375,0.19106902182102203,-0.19741597771644592,0.3609589636325836
1788957786712969700,2.9959697265625,0.18345417082309723,-0.22170515358448029,0.3507534861564636
1788957786723019500,3.00601953125,0.182502880692482,-0.2209639996290207,0.32032233476638794
1788957786733069600,3.016069580078125,0.17480318248271942,-0.1996944695711136,0.309963583946228
1788957786743118800,3.026118896484375,0.1614927053451538,-0.16508401930332184,0.3184633255004883
1788957786753168600,3.036168701171875,0.1605747640132904,-0.16868367791175842,0.3260267972946167
1788957786763218700,3.04621875,0.1886519342660904,-0.20088794827461243,0.33624082803726196
1788957786773268700,3.056268798828125,0.24713274836540222,-0.23347845673561096,0.3283986449241638
1788957786783317800,3.06631787109375,0.31939414143562317,-0.27514976263046265,0.2998109459877014
1788957786793367600,3.076367431640625,0.39084669947624207,-0.34522318840026855,0.23864997923374176
1788957786803417600,3.08641748046875,0.4305427074432373,-0.4371853172779083,0.14430908858776093
1788957786813467600,3.096467529296875,0.4593597948551178,-0.4857372045516968,0.06160414591431618
1788957786823516700,3.1065166015625,0.43846625089645386,-0.5062954425811768,-0.015573996119201183
1788957786833566700,3.116566650390625,0.39263010025024414,-0.4988599121570587,-0.09491807222366333
1788957786843616800,3.12661669921875,0.3561996519565582,-0.4532245099544525,-0.1715787649154663
1788957786853666800,3.136666748046875,0.3585768938064575,-0.35404857993125916,-0.23900043964385986
1788957786863716600,3.146716552734375,0.3721001446247101,-0.2305910736322403,-0.3130253851413727
1788957786873765600,3.156765625,0.3877088129520416,-0.12030128389596939,-0.400753378868103
1788957786883815700,3.166815673828125,0.4110138416290283,-0.06892544776201248,-0.5002242922782898
1788957786893865500,3.176865478515625,0.43404051661491394,-0.010141276754438877,-0.6228606700897217
1788957786903915500,3.18691552734375,0.4648681879043579,0.06016404181718826,-0.731702983379364
1788957786913964800,3.19696484375,0.485410213470459,0.15218645334243774,-0.794519305229187
1788957786924014800,3.207014892578125,0.48138564825057983,0.18175740540027618,-0.7831795811653137
1788957786934064600,3.217064697265625,0.47930848598480225,0.16182219982147217,-0.7322067022323608
1788957786944114700,3.22711474609375,0.4738817512989044,0.1287718266248703,-0.6945823431015015
1788957786954163700,3.237163818359375,0.4307630956172943,0.10466691851615906,-0.7048567533493042
1788957786964213500,3.247213623046875,0.3916197121143341,0.0816449522972107,-0.7482369542121887
1788957786974263600,3.257263671875,0.35878488421440125,0.007313624955713749,-0.8024619817733765
1788957786984313600,3.267313720703125,0.3182361125946045,-0.08852608501911163,-0.8294517397880554
1788957786994364000,3.277364013671875,0.30997252464294434,-0.18587183952331543,-0.8413965702056885
1788957787004412700,3.28741259765625,0.30897650122642517,-0.21246881783008575,-0.856230616569519
1788957787014462700,3.297462646484375,0.27957582473754883,-0.21330730617046356,-0.8567648530006409
1788957787024512800,3.3075126953125,0.24414382874965668,-0.1683741807937622,-0.8554511070251465
1788957787034562600,3.3175625,0.19554080069065094,-0.14834390580654144,-0.8258310556411743
1788957787044611600,3.327611572265625,0.16470351815223694,-0.2133878767490387,-0.7960675358772278
1788957787054661600,3.33766162109375,0.14275430142879486,-0.323314905166626,-0.7956642508506775
1788957787064712000,3.3477119140625,0.12127404659986496,-0.40356364846229553,-0.8166672587394714
1788957787074761700,3.35776171875,0.07463768869638443,-0.43421342968940735,-0.8303226828575134
1788957787084810800,3.367810791015625,0.05655136704444885,-0.5085994601249695,-0.8026891946792603
1788957787094860800,3.37786083984375,0.02782546728849411,-0.6327859163284302,-0.7366656064987183
1788957787104910600,3.38791064453125,0.001547256950289011,-0.6702461838722229,-0.6460337042808533
1788957787114960600,3.397960693359375,-0.02056165784597397,-0.6386984586715698,-0.5791297554969788
1788957787125010700,3.4080107421875,-0.05180426687002182,-0.6076170206069946,-0.541606605052948
1788957787135059700,3.418059814453125,-0.04960604012012482,-0.5478492975234985,-0.49211931228637695
1788957787145109800,3.42810986328125,0.002470210660248995,-0.42921367287635803,-0.43855568766593933
1788957787155159800,3.438159912109375,0.04240584746003151,-0.2785002291202545,-0.420408695936203
1788957787165209900,3.4482099609375,0.06587335467338562,-0.07258514314889908,-0.4173916280269623
1788957787175258600,3.458258544921875,0.10809777677059174,0.1439749300479889,-0.3853519558906555
1788957787185308700,3.46830859375,0.1544591635465622,0.274501770734787,-0.32340365648269653
1788957787195358700,3.478358642578125,0.1722920835018158,0.31188035011291504,-0.27577778697013855
1788957787205408800,3.48840869140625,0.18224671483039856,0.28719496726989746,-0.2502439320087433
1788957787215457800,3.498457763671875,0.17341168224811554,0.269355833530426,-0.24134725332260132
1788957787225507800,3.5085078125,0.14987891912460327,0.28263622522354126,-0.21165940165519714
1788957787235558000,3.518557861328125,0.15318922698497772,0.33391273021698,-0.17139746248722076
1788957787245607700,3.528607666015625,0.05713938549160957,0.3403293490409851,-0.14127658307552338
1788957787255656700,3.53865673828125,-0.007184077054262161,0.2976594865322113,-0.120121069252491
1788957787265706800,3.548706787109375,-0.05916871502995491,0.2639646530151367,-0.07670914381742477
1788957787275756500,3.558756591796875,-0.0889865979552269,0.28331848978996277,-0.01784539222717285
1788957787285806600,3.568806640625,-0.09523650258779526,0.34693530201911926,0.045157540589571
1788957787295856600,3.578856689453125,-0.08796346187591553,0.4284762144088745,0.1167609691619873
1788957787305906000,3.588906005859375,-0.07234854996204376,0.4613662362098694,0.18257300555706024
1788957787315955700,3.598955810546875,-0.0578647144138813,0.41958552598953247,0.2447383999824524
1788957787326005800,3.609005859375,-0.05207127332687378,0.34529533982276917,0.3051205277442932
1788957787336055800,3.619055908203125,-0.05455011874437332,0.2664876878261566,0.3507325351238251
1788957787346104600,3.6291044921875,-0.06431913375854492,0.1508399248123169,0.3855522871017456
1788957787356154600,3.639154541015625,-0.08574485033750534,-0.0056012277491390705,0.40178602933883667
1788957787366204700,3.64920458984375,-0.09956879168748856,-0.1322702169418335,0.39096614718437195
1788957787376254700,3.659254638671875,-0.09082569926977158,-0.1929393857717514,0.36474835872650146
1788957787386303700,3.6693037109375,-0.06978779286146164,-0.18879710137844086,0.33414676785469055
1788957787396353800,3.679353759765625,-0.03916509822010994,-0.14230014383792877,0.30176350474357605
1788957787406403800,3.68940380859375,-0.046065881848335266,-0.09711189568042755,0.28561756014823914
1788957787416453600,3.69945361328125,-0.06712543964385986,-0.08669503778219223,0.2772499620914459
1788957787426503700,3.709503662109375,-0.0949445515871048,-0.07218613475561142,0.26869454979896545
1788957787436552700,3.719552734375,-0.10194219648838043,-0.06240538880228996,0.2763407528400421
1788957787446602500,3.7296025390625,-0.08453843742609024,-0.09097897261381149,0.29752087593078613
1788957787456652500,3.739652587890625,-0.05834629386663437,-0.15585611760616302,0.31778860092163086
1788957787466702600,3.74970263671875,-0.03847378492355347,-0.23971346020698547,0.31429028511047363
1788957787476752000,3.759751953125,-0.022034116089344025,-0.34135061502456665,0.2740383744239807
1788957787486801700,3.7698017578125,-0.02652500383555889,-0.4245011508464813,0.20919758081436157
1788957787496851700,3.779851806640625,-0.05967171862721443,-0.4689311981201172,0.14824946224689484
1788957787506901800,3.78990185546875,-0.09244244545698166,-0.4805143475532532,0.10513074696063995
1788957787516950500,3.799950439453125,-0.09636001288890839,-0.4272700548171997,0.07350446283817291
1788957787527000600,3.81000048828125,-0.0867699682712555,-0.33894339203834534,0.03474907949566841
1788957787537050600,3.820050537109375,-0.07995223253965378,-0.3269006907939911,-0.027442652732133865
1788957787547100700,3.8301005859375,-0.08867142349481583,-0.3724934756755829,-0.11524493992328644
1788957787557149700,3.840149658203125,-0.10775547474622726,-0.446477472782135,-0.20025686919689178
1788957787567199700,3.85019970703125,-0.1145758330821991,-0.535997211933136,-0.2733859419822693
1788957787577249800,3.860249755859375,-0.11023720353841782,-0.6418954730033875,-0.33195143938064575
1788957787587299300,3.87029931640625,-0.1000700518488884,-0.7418686747550964,-0.37820205092430115
1788957787597349400,3.880349365234375,-0.10769696533679962,-0.7979512214660645,-0.41641494631767273
1788957787607398100,3.890398193359375,-0.12868933379650116,-0.8068453669548035,-0.41848766803741455
1788957787617448400,3.900448486328125,-0.16695061326026917,-0.7762995362281799,-0.35958102345466614
1788957787627498500,3.91049853515625,-0.21371571719646454,-0.7533484101295471,-0.2565625011920929
1788957787637548500,3.920548583984375,-0.24020612239837646,-0.7427095174789429,-0.15343894064426422
1788957787647597300,3.930597412109375,-0.24086526036262512,-0.7097203731536865,-0.07656120508909225
1788957787657647400,3.9406474609375,-0.2301669418811798,-0.6407175064086914,-0.025278683751821518
1788957787667697400,3.950697509765625,-0.24274851381778717,-0.5836702585220337,-0.005319888703525066
1788957787677747200,3.960747314453125,-0.27822354435920715,-0.5683022141456604,0.016786016523838043
1788957787687796500,3.97079638671875,-0.31102675199508667,-0.5810861587524414,0.08654245734214783
1788957787697846500,3.980846435546875,-0.3170044422149658,-0.5971285104751587,0.17906779050827026
1788957787707896600,3.990896484375,-0.30127954483032227,-0.5891132354736328,0.24576638638973236
1788957787717946400,4.0009462890625,-0.26712584495544434,-0.6032283902168274,0.26325783133506775
1788957787727996400,4.010996337890625,-0.23317267000675201,-0.6512073874473572,0.22912465035915375
1788957787738045400,4.02104541015625,-0.21756158769130707,-0.7042509317398071,0.18094640970230103
1788957787748095200,4.03109521484375,-0.23446521162986755,-0.744918704032898,0.16418367624282837
1788957787758145300,4.041145263671875,-0.27121222019195557,-0.7460925579071045,0.1608685404062271
1788957787768195300,4.0511953125,-0.3171416223049164,-0.6828025579452515,0.16363555192947388
1788957787778244400,4.061244384765625,-0.34734058380126953,-0.5642542839050293,0.17360247671604156
1788957787788294400,4.07129443359375,-0.3589666187763214,-0.4600165784358978,0.18160580098628998
1788957787798344400,4.081344482421875,-0.362564355134964,-0.38204964995384216,0.18218916654586792
1788957787808394500,4.09139453125,-0.3533918857574463,-0.32080787420272827,0.18869420886039734
1788957787818443300,4.101443359375,-0.3129623532295227,-0.30953091382980347,0.20076680183410645
1788957787828493300,4.111493408203125,-0.2641836106777191,-0.31612008810043335,0.2292831391096115
1788957787838543400,4.12154345703125,-0.2159576267004013,-0.25982534885406494,0.27390575408935547
1788957787848593400,4.131593505859375,-0.20699875056743622,-0.18820202350616455,0.3070485293865204
1788957787858642400,4.141642333984375,-0.2489386349916458,-0.16024261713027954,0.30973511934280396
1788957787868692500,4.1516923828125,-0.336515873670578,-0.17222391068935394,0.2911457121372223
1788957787878742500,4.161742431640625,-0.420437753200531,-0.17807908356189728,0.2755752205848694
1788957787888792300,4.171792236328125,-0.4668278992176056,-0.153142049908638,0.27827727794647217
1788957787898841300,4.18184130859375,-0.45398586988449097,-0.12226422131061554,0.2724353075027466
1788957787908891400,4.191891357421875,-0.3986315429210663,-0.12312095612287521,0.2344762086868286
1788957787918941200,4.201941162109375,-0.33811357617378235,-0.1382160186767578,0.16542550921440125
1788957787928991200,4.2119912109375,-0.3052608370780945,-0.13638828694820404,0.0809476301074028
1788957787939041300,4.222041259765625,-0.29581567645072937,-0.10962852090597153,-0.0018775160424411297
1788957787949090600,4.232090576171875,-0.2947455942630768,-0.05513758212327957,-0.09038367867469788
1788957787959140400,4.242140380859375,-0.29482540488243103,0.0169683825224638,-0.17848198115825653
1788957787969190400,4.2521904296875,-0.3015008866786957,0.1014835312962532,-0.2449030727148056
1788957787979240400,4.262240478515625,-0.3191455006599426,0.18630899488925934,-0.3054157495498657
1788957787989289200,4.272289306640625,-0.3294801712036133,0.22180013358592987,-0.35982146859169006
1788957787999339300,4.28233935546875,-0.32703521847724915,0.231903538107872,-0.3691951632499695
1788957788009389300,4.292389404296875,-0.27423352003097534,0.2438105344772339,-0.3216191232204437
1788957788019439400,4.302439453125,-0.18292440474033356,0.2534146308898926,-0.25291508436203003
1788957788029488400,4.31248828125,-0.07775616645812988,0.2552817761898041,-0.2102443277835846
1788957788039538400,4.322538330078125,0.028465939685702324,0.2713424265384674,-0.1931699514389038
1788957788049588500,4.33258837890625,0.0982881635427475,0.3046354055404663,-0.19563497602939606
1788957788059638300,4.34263818359375,0.1369728147983551,0.3537340462207794,-0.19156001508235931
1788957788069687300,4.352687255859375,0.11147172003984451,0.37475866079330444,-0.16724801063537598
1788957788079737300,4.3627373046875,0.03761693835258484,0.3072027862071991,-0.12727609276771545
1788957788089787400,4.372787353515625,-0.042008429765701294,0.22562862932682037,-0.08348862826824188
1788957788099837200,4.382837158203125,-0.09600553661584854,0.10285599529743195,-0.05108628422021866
1788957788109887500,4.392887451171875,-0.10649918764829636,-0.06374656409025192,0.003560448996722698
1788957788119936500,4.4029365234375,-0.09731557965278625,-0.18796801567077637,0.08428671211004257
1788957788129986300,4.412986328125,-0.06036581099033356,-0.1733563095331192,0.1627732515335083
1788957788140036400,4.423036376953125,0.016676586121320724,-0.06280866265296936,0.2040008306503296
1788957788150086400,4.43308642578125,0.09291063249111176,-0.0025274776853621006,0.21943998336791992
1788957788160135200,4.44313525390625,0.15569831430912018,0.051205433905124664,0.2195712924003601
1788957788170185200,4.453185302734375,0.17230764031410217,0.10600423812866211,0.2198738306760788
1788957788180235300,4.4632353515625,0.15405401587486267,0.20432546734809875,0.21539448201656342
1788957788190285600,4.47328564453125,0.11376545578241348,0.3713514804840088,0.180197611451149
1788957788200334300,4.483334228515625,0.06188814342021942,0.5101333260536194,0.10883554071187973
1788957788210384400,4.49338427734375,0.012108069844543934,0.5287981033325195,0.04505683109164238
1788957788220434400,4.503434326171875,-0.024653255939483643,0.4552707076072693,0.012481029145419598
1788957788230484500,4.513484375,-0.05527401715517044,0.3487248420715332,-0.02808690443634987
1788957788240533200,4.523533203125,-0.07957678288221359,0.2470594197511673,-0.1282314509153366
1788957788250583300,4.533583251953125,-0.10236039012670517,0.18283197283744812,-0.2633093595504761
1788957788260633300,4.54363330078125,-0.13794727623462677,0.15862800180912018,-0.36960455775260925
1788957788270683400,4.553683349609375,-0.16413412988185883,0.13488325476646423,-0.419350802898407
1788957788280733400,4.5637333984375,-0.18531811237335205,0.10484843701124191,-0.41432857513427734
1788957788290782500,4.573782470703125,-0.20841331779956818,0.0724382996559143,-0.41620132327079773
1788957788300832300,4.583832275390625,-0.22054068744182587,0.061377424746751785,-0.42692941427230835
1788957788310882300,4.59388232421875,-0.2098052203655243,0.053250521421432495,-0.44549962878227234
1788957788320932400,4.603932373046875,-0.18899908661842346,0.03394843637943268,-0.44527167081832886
1788957788330981400,4.6139814453125,-0.17447154223918915,0.027535544708371162,-0.3870973289012909
1788957788341031400,4.624031494140625,-0.16544227302074432,-0.013420121744275093,-0.2782430052757263
1788957788351081500,4.63408154296875,-0.1523003727197647,-0.08386819064617157,-0.1653878092765808
1788957788361131500,4.644131591796875,-0.13213051855564117,-0.12836697697639465,-0.088918536901474
1788957788371180300,4.65418017578125,-0.12670139968395233,-0.11318296194076538,-0.05473925545811653
1788957788381230300,4.664230224609375,-0.13912799954414368,-0.1072329431772232,-0.048393573611974716
1788957788391280400,4.6742802734375,-0.14000818133354187,-0.17030246555805206,-0.037667423486709595
1788957788401330400,4.684330322265625,-0.057264480739831924,-0.22494962811470032,-0.005175558850169182
1788957788411379500,4.69437939453125,-0.027838418260216713,-0.3565598428249359,-0.0007512494921684265
1788957788421429500,4.704429443359375,-0.08005564659833908,-0.5329733490943909,-0.017147062346339226
1788957788431479600,4.7144794921875,-0.11556649953126907,-0.6758047938346863,-0.009436412714421749
1788957788441529300,4.724529296875,-0.0918717309832573,-0.7414841651916504,0.03274017572402954
1788957788451578400,4.734578369140625,-0.04473457857966423,-0.7206937074661255,0.05796084180474281
1788957788461628400,4.74462841796875,-0.002958696335554123,-0.585778534412384,0.028626780956983566
1788957788471678200,4.75467822265625,0.029781939461827278,-0.349332720041275,-0.018910644575953484
1788957788481728300,4.764728271484375,0.0883495956659317,-0.10821624845266342,-0.04281935468316078
1788957788491778300,4.7747783203125,0.1849464476108551,0.06464740633964539,-0.04113197699189186
1788957788501827600,4.78482763671875,0.2631577253341675,0.12852725386619568,-0.03708702325820923
1788957788511877400,4.79487744140625,0.2948128581047058,0.10360460728406906,-0.0536673329770565
1788957788521927400,4.804927490234375,0.3229590952396393,0.079595185816288,-0.06698516011238098
1788957788531977500,4.8149775390625,0.3342796564102173,0.08335290104150772,-0.0754108726978302
1788957788542026200,4.825026123046875,0.3163260817527771,0.11561784893274307,-0.06320935487747192
1788957788552076300,4.835076171875,0.2929680049419403,0.12026320397853851,-0.04086437076330185
1788957788562126300,4.845126220703125,0.27901315689086914,0.03835690766572952,-0.009388988837599754
1788957788572176400,4.85517626953125,0.2960648238658905,-0.14132177829742432,0.006936721503734589
1788957788582225400,4.865225341796875,0.3247649371623993,-0.3438950777053833,-0.03763424977660179
1788957788592275500,4.875275390625,0.32231003046035767,-0.4675544202327728,-0.12217390537261963
1788957788602325500,4.885325439453125,0.3157801330089569,-0.4122891128063202,-0.17337821424007416
1788957788612375600,4.89537548828125,0.3359338641166687,-0.22468219697475433,-0.18015755712985992
1788957788622424300,4.90542431640625,0.3652481734752655,-0.011101454496383667,-0.1601417511701584
1788957788632474400,4.915474365234375,0.3921799063682556,0.16489221155643463,-0.1357639729976654
1788957788642524400,4.9255244140625,0.41787010431289673,0.29844096302986145,-0.10837629437446594
1788957788652574500,4.935574462890625,0.4256337583065033,0.4159865081310272,-0.07721011340618134
1788957788662624300,4.945624267578125,0.40995490550994873,0.564425528049469,-0.003115688916295767
1788957788672673500,4.955673583984375,0.3943253457546234,0.7470190525054932,0.1348637491464615
1788957788682723600,4.9657236328125,0.3921768367290497,0.9527683854103088,0.3368815779685974
1788957788692773400,4.9757734375,0.3764317035675049,1.1275851726531982,0.5649986267089844
1788957788702823400,4.985823486328125,0.3949055075645447,1.2551804780960083,0.7609743475914001
1788957788712872400,4.99587255859375,0.4366295337677002,1.376976728439331,0.9004456996917725
1788957788722922500,5.005922607421875,0.47114795446395874,1.5033586025238037,0.9711816310882568
1788957788732972300,5.01597216796875,0.4931105375289917,1.652695894241333,1.0018881559371948
1788957788743022300,5.026022216796875,0.47421932220458984,1.8147708177566528,1.0462660789489746
1788957788753071600,5.036071533203125,0.4226189851760864,1.9644383192062378,1.1426851749420166
1788957788763121400,5.046121337890625,0.3858843445777893,2.034871816635132,1.2553328275680542
1788957788773171500,5.05617138671875,0.38968467712402344,2.0132532119750977,1.3276174068450928
1788957788783221500,5.066221435546875,0.4410346448421478,1.8713306188583374,1.3374931812286377
1788957788793270300,5.076270263671875,0.5043686628341675,1.614314317703247,1.3248423337936401
1788957788803320300,5.0863203125,0.5476518869400024,1.276833415031433,1.3351104259490967
1788957788813370400,5.096370361328125,0.6360192894935608,0.8914582133293152,1.4029613733291626
1788957788823420400,5.10642041015625,0.7368609309196472,0.5687576532363892,1.4863150119781494
1788957788833469400,5.116469482421875,0.8557641506195068,0.3211710453033447,1.499492883682251
1788957788843519500,5.12651953125,0.9321908950805664,0.14615607261657715,1.3905056715011597
1788957788853569500,5.136569580078125,0.8718742728233337,0.02280563861131668,1.10679030418396
1788957788863619600,5.14661962890625,0.7109883427619934,0.07713442295789719,0.791411280632019
1788957788873668400,5.15666845703125,0.6408867239952087,0.27456414699554443,0.7408943176269531
1788957788883718400,5.166718505859375,0.7071626782417297,0.41534075140953064,0.8922174572944641
1788957788893768400,5.1767685546875,0.8371691107749939,0.3562625050544739,1.0329481363296509
1788957788903818500,5.186818603515625,0.9180947542190552,0.1608077734708786,1.0580894947052002
1788957788913868500,5.19686865234375,1.0327872037887573,0.25402453541755676,1.0452091693878174
1788957788923917600,5.20691748046875,1.1199809312820435,0.4874262809753418,0.9646875262260437
1788957788933967400,5.21696728515625,1.199422001838684,0.6835153698921204,1.0056767463684082
1788957788944017400,5.227017333984375,1.113221287727356,0.8029845952987671,1.1985009908676147
1788957788954067500,5.2370673828125,0.9269661903381348,0.7037025094032288,1.4640319347381592
1788957788964116200,5.2471162109375,0.6829633712768555,0.46897104382514954,1.6488518714904785
1788957788974166300,5.257166259765625,0.45958271622657776,0.2017931342124939,1.7161227464675903
1788957788984216600,5.267216552734375,0.28600698709487915,-0.09717252105474472,1.6794697046279907
1788957788994266600,5.2772666015625,0.1517953872680664,-0.4755858778953552,1.4430608749389648
1788957789004315400,5.2873154296875,0.0013700416311621666,-0.8510555028915405,0.9720368981361389
1788957789014365400,5.297365478515625,-0.11823970824480057,-1.105190396308899,0.35276249051094055
1788957789024415500,5.30741552734375,-0.1880427896976471,-1.152935266494751,-0.15310102701187134
1788957789034465500,5.317465576171875,-0.23611284792423248,-0.9114089608192444,-0.384904682636261
1788957789044514300,5.327514404296875,-0.2826172113418579,-0.579297661781311,-0.45557257533073425
1788957789054564400,5.337564453125,-0.3165767788887024,-0.38856711983680725,-0.5440276265144348
1788957789064614700,5.34761474609375,-0.3375844955444336,-0.33115166425704956,-0.6635081171989441
1788957789074664400,5.35766455078125,-0.37203115224838257,-0.267871230840683,-0.7084327340126038
1788957789084713500,5.36771337890625,-0.4085777997970581,-0.15240547060966492,-0.6297909021377563
1788957789094763500,5.377763427734375,-0.433169960975647,-0.06418238580226898,-0.4967476427555084
1788957789104813300,5.387813232421875,-0.4245876669883728,-0.0921783372759819,-0.3806211054325104
1788957789114863400,5.39786328125,-0.35263198614120483,-0.21686381101608276,-0.301935076713562
1788957789124912400,5.407912353515625,-0.2874849736690521,-0.3549874722957611,-0.22644782066345215
1788957789134962400,5.41796240234375,-0.3844461441040039,-0.5733352899551392,-0.07014130055904388
1788957789145012500,5.428012451171875,-0.44648271799087524,-0.7393970489501953,0.09698398411273956
1788957789155062500,5.4380625,-0.4573119282722473,-0.8038188815116882,0.2558298110961914
1788957789165112600,5.448112548828125,-0.4596003293991089,-0.788178026676178,0.3399815857410431
1788957789175161300,5.458161376953125,-0.5015398263931274,-0.7322138547897339,0.37120237946510315
1788957789185211400,5.46821142578125,-0.5309045910835266,-0.6839110255241394,0.4016478955745697
1788957789195261400,5.478261474609375,-0.5335014462471008,-0.673036515712738,0.4492689371109009
1788957789205311500,5.4883115234375,-0.49739205837249756,-0.6732001900672913,0.5257561206817627
1788957789215360500,5.498360595703125,-0.44069093465805054,-0.68935626745224,0.6410587430000305
1788957789225410600,5.50841064453125,-0.34997686743736267,-0.7436368465423584,0.7719926238059998
1788957789235460600,5.518460693359375,-0.271017849445343,-0.9241610765457153,0.9094778299331665
1788957789245510400,5.528510498046875,-0.24076630175113678,-1.1400147676467896,0.9676135778427124
1788957789255559400,5.538559326171875,-0.253322571516037,-1.3333173990249634,1.0164899826049805
1788957789265609500,5.548609375,-0.27017349004745483,-1.4416604042053223,1.0709168910980225
1788957789275659500,5.558659423828125,-0.25637564063072205,-1.4991868734359741,1.0479189157485962
1788957789285709300,5.568709228515625,-0.2657015025615692,-1.5189849138259888,0.9184670448303223
1788957789295758600,5.578758544921875,-0.2779560387134552,-1.4739329814910889,0.767023503780365
1788957789305808600,5.58880859375,-0.2739924490451813,-1.395111322402954,0.6326496005058289
1788957789315858400,5.5988583984375,-0.26763230562210083,-1.3270251750946045,0.5150910019874573
1788957789325908500,5.608908447265625,-0.2799767255783081,-1.2458058595657349,0.4277913272380829
1788957789335957500,5.61895751953125,-0.33431267738342285,-1.063260555267334,0.3813612163066864
1788957789346007300,5.62900732421875,-0.37969428300857544,-0.803610622882843,0.34894469380378723
1788957789356057300,5.639057373046875,-0.3681032359600067,-0.5856643915176392,0.3099476099014282
1788957789366107400,5.649107421875,-0.3495887815952301,-0.44860488176345825,0.29447343945503235
1788957789376157400,5.659157470703125,-0.33133628964424133,-0.4157681167125702,0.305145263671875
1788957789386206500,5.66920654296875,-0.30583831667900085,-0.49025052785873413,0.356221079826355
1788957789396256500,5.679256591796875,-0.2585586905479431,-0.6143655776977539,0.41521409153938293
1788957789406306600,5.689306640625,-0.2042911946773529,-0.7084985971450806,0.4513556659221649
1788957789416356600,5.699356689453125,-0.1526908576488495,-0.7007147073745728,0.4604535698890686
1788957789426405400,5.7094052734375,-0.09679163247346878,-0.6342548727989197,0.46485435962677
1788957789436455400,5.719455322265625,-0.07208815217018127,-0.5274953842163086,0.4956144094467163
1788957789446505500,5.72950537109375,-0.04303891584277153,-0.49486759305000305,0.5146448016166687
1788957789456555300,5.73955517578125,0.0030295096803456545,-0.5020765066146851,0.5242968797683716
1788957789466604500,5.7496044921875,0.0514313168823719,-0.49662110209465027,0.5339085459709167
1788957789476654600,5.759654541015625,0.09597188979387283,-0.4861900210380554,0.5360441207885742
1788957789486704400,5.769704345703125,0.11886468529701233,-0.47986188530921936,0.5206547975540161
1788957789496754400,5.77975439453125,0.13413338363170624,-0.5027714967727661,0.5048662424087524
1788957789506803500,5.789803466796875,0.12498350441455841,-0.5230371356010437,0.4843752086162567
1788957789516853200,5.799853271484375,0.10601620376110077,-0.4885289669036865,0.4539653956890106
1788957789526903300,5.8099033203125,0.07739658653736115,-0.4104856848716736,0.4124131500720978
1788957789536953300,5.819953369140625,0.021000156179070473,-0.32583338022232056,0.33361580967903137
1788957789547002600,5.830002685546875,-0.06177952513098717,-0.2526402175426483,0.23416878283023834
1788957789557052400,5.840052490234375,-0.147049680352211,-0.15485639870166779,0.1641092598438263
1788957789567102500,5.8501025390625,-0.20416341722011566,-0.032656751573085785,0.12995348870754242
1788957789577152500,5.860152587890625,-0.2215421497821808,0.08534818142652512,0.09715799987316132
1788957789587201800,5.870201904296875,-0.18197381496429443,0.18157708644866943,0.05168851092457771
1788957789597251600,5.88025146484375,-0.1540287435054779,0.10899502784013748,0.0022043129429221153
1788957789607301600,5.890301513671875,-0.17648784816265106,-0.4667157828807831,-0.09768152236938477
1788957789617351700,5.9003515625,-0.1114734411239624,-1.1559104919433594,-0.2081446498632431
1788957789627400700,5.910400634765625,-0.04013041779398918,-1.130501389503479,-0.20896129310131073
1788957789637450800,5.92045068359375,0.045957330614328384,-0.6615882515907288,-0.12568290531635284
1788957789647500800,5.930500732421875,0.1255267858505249,-0.15928980708122253,-0.021832315251231194
1788957789657550800,5.94055078125,0.13646572828292847,-0.038836635649204254,0.07294319570064545
1788957789667600600,5.9506005859375,0.12253325432538986,-0.23184387385845184,0.12189788371324539
1788957789677649700,5.960649658203125,0.12146639078855515,-0.42426154017448425,0.08696386963129044
1788957789687699700,5.97069970703125,0.13006241619586945,-0.4292364716529846,0.012301867827773094
1788957789697749800,5.980749755859375,0.14278221130371094,-0.28138548135757446,-0.05366223305463791
1788957789707799600,5.990799560546875,0.15146656334400177,-0.10805891454219818,-0.08537910878658295
1788957789717848800,6.000848876953125,0.13763490319252014,0.051082536578178406,-0.08618657290935516
1788957789727899000,6.01089892578125,0.1139649972319603,0.18464305996894836,-0.05474187806248665
1788957789737948700,6.02094873046875,0.08595786243677139,0.28323301672935486,0.0010982174426317215
1788957789747998700,6.030998779296875,0.0710846409201622,0.306121826171875,0.06526628136634827
1788957789758047700,6.0410478515625,0.08642524480819702,0.2588781416416168,0.1539442241191864
1788957789768097500,6.05109765625,0.10489676147699356,0.20935297012329102,0.25291112065315247
1788957789778147600,6.061147705078125,0.1118936836719513,0.14431510865688324,0.34389588236808777
1788957789788197600,6.07119775390625,0.10660304874181747,0.06068972870707512,0.3854829967021942
1788957789798247000,6.081246826171875,0.10310764610767365,0.020688248798251152,0.38182809948921204
1788957789808296700,6.091296630859375,0.07320723682641983,0.06746039539575577,0.38943538069725037
1788957789818346800,6.1013466796875,0.036493703722953796,0.14865164458751678,0.4002203941345215
1788957789828396800,6.111396728515625,0.03595674782991409,0.19851793348789215,0.3898179829120636
1788957789838445600,6.121445556640625,0.049692001193761826,0.16611498594284058,0.34366458654403687
1788957789848495600,6.13149560546875,0.06688299775123596,0.16012874245643616,0.3250041902065277
1788957789858545700,6.141545654296875,0.09339822828769684,0.22371996939182281,0.3580111265182495
1788957789868595700,6.151595703125,0.14921803772449493,0.5158661007881165,0.4208894670009613
1788957789878644700,6.161644775390625,0.1875036358833313,0.39654508233070374,0.45070594549179077
1788957789888694800,6.17169482421875,0.18739601969718933,0.4983866512775421,0.48373228311538696
1788957789898744800,6.181744873046875,0.21281695365905762,0.5165894031524658,0.5261327624320984
1788957789908794600,6.191794677734375,0.18584607541561127,0.4728236496448517,0.5448935627937317
1788957789918843600,6.20184375,0.16236552596092224,0.46980175375938416,0.5277912616729736
1788957789928893700,6.211893798828125,0.15943767130374908,0.446946382522583,0.5153119564056396
1788957789938943700,6.22194384765625,0.16844528913497925,0.4320659637451172,0.4957944452762604
1788957789948993800,6.231993896484375,0.17304246127605438,0.4860009253025055,0.4549221992492676
1788957789959042800,6.242042724609375,0.18775881826877594,0.5901044607162476,0.4334784150123596
1788957789969092900,6.2520927734375,0.21104702353477478,0.6829764246940613,0.4495088458061218
1788957789979142700,6.262142578125,0.1366920918226242,0.7113792896270752,0.45285671949386597
1788957789989192700,6.272192626953125,0.14753249287605286,0.7010412216186523,0.44720521569252014
1788957789999241700,6.28224169921875,0.20829197764396667,0.6492749452590942,0.4063195586204529
1788957790009291800,6.292291748046875,0.2670946419239044,0.5655924677848816,0.33829304575920105
1788957790019341800,6.302341796875,0.28739938139915466,0.46442851424217224,0.2703816294670105
1788957790029392000,6.312391845703125,0.3074711561203003,0.427925705909729,0.19673845171928406
1788957790039440600,6.322440673828125,0.32234305143356323,0.32838794589042664,0.11400681734085083
1788957790049490700,6.33249072265625,0.24784639477729797,0.24317105114459991,-0.03509043902158737
1788957790059540700,6.342540771484375,0.10000766813755035,0.22376778721809387,-0.21853190660476685
1788957790069590800,6.3525908203125,0.012837201356887817,0.22045929729938507,-0.3331429362297058
1788957790079640600,6.362640625,0.06661202013492584,0.1721932291984558,-0.31666091084480286
1788957790089689900,6.37268994140625,0.06895339488983154,0.09000585973262787,-0.2038179337978363
1788957790099740000,6.382739990234375,-0.023886803537607193,0.07711642235517502,-0.13748019933700562
1788957790109790000,6.3927900390625,-0.06368101388216019,0.18078285455703735,-0.13402868807315826
1788957790119839700,6.40283984375,-0.04788155108690262,0.32121747732162476,-0.14798179268836975
1788957790129888800,6.412888671875,-0.02144099771976471,0.34000834822654724,-0.10887224972248077
1788957790139938800,6.422938720703125,0.01621876284480095,0.33315151929855347,-0.040649786591529846
1788957790149988600,6.432988525390625,0.05491947755217552,0.3350452780723572,0.0019517187029123306
1788957790160038700,6.44303857421875,0.08320171386003494,0.380332350730896,-0.01604326069355011
1788957790170088000,6.453087890625,0.09331955015659332,0.4160805344581604,-0.07214483618736267
1788957790180137700,6.4631376953125,0.1105366200208664,0.4702785313129425,-0.11819035559892654
1788957790190187800,6.473187744140625,0.12922224402427673,0.521941065788269,-0.15015903115272522
1788957790200237800,6.48323779296875,0.13704901933670044,0.5165098309516907,-0.1329515427350998
1788957790210286800,6.493286865234375,0.1786932796239853,0.5000522136688232,-0.09434748440980911
1788957790220336600,6.503336669921875,0.19644485414028168,0.4709204137325287,-0.05374333634972572
1788957790230386700,6.51338671875,0.17748993635177612,0.4717649817466736,-0.01800701953470707
1788957790240436700,6.523436767578125,0.18806055188179016,0.514009416103363,0.02518998645246029
1788957790250485800,6.53348583984375,0.20051680505275726,0.5356020927429199,0.0705234706401825
1788957790260535800,6.543535888671875,0.15887215733528137,0.557117223739624,0.052663519978523254
1788957790270585900,6.5535859375,0.20235534012317657,0.6242923736572266,0.006011581048369408
1788957790280636000,6.563635986328125,0.27677762508392334,0.6324642896652222,-0.022294359281659126
1788957790290684700,6.5736845703125,0.3309103846549988,0.5377844572067261,-0.026075558736920357
1788957790300734700,6.583734619140625,0.37585070729255676,0.402479887008667,0.015506772324442863
1788957790310784800,6.59378466796875,0.38228169083595276,0.2665782868862152,0.060830969363451004
1788957790320834600,6.60383447265625,0.33848148584365845,0.12074411660432816,0.12021413445472717
1788957790330883800,6.6138837890625,0.2864381968975067,0.022971147671341896,0.16658586263656616
1788957790340934000,6.623933837890625,0.2507643699645996,-0.07118944078683853,0.17277823388576508
1788957790350984000,6.63398388671875,0.23265264928340912,-0.25671151280403137,0.15217342972755432
1788957790361033700,6.64403369140625,0.27907100319862366,-0.1069667637348175,0.12327387183904648
1788957790371082800,6.654082763671875,0.38025960326194763,0.24243561923503876,0.15712571144104004
1788957790381132800,6.6641328125,0.4413626492023468,0.5047415494918823,0.2967038154602051
1788957790391182600,6.6741826171875,0.476672500371933,0.6764031648635864,0.46790173649787903
1788957790401232600,6.684232666015625,0.5175637006759644,0.8298448324203491,0.6122989058494568
1788957790411282000,6.694281982421875,0.5686770677566528,1.0384560823440552,0.7578147053718567
1788957790421331700,6.704331787109375,0.5937458872795105,1.168096899986267,0.8449733257293701
1788957790431381800,6.7143818359375,0.5002343058586121,1.1948341131210327,0.8541236519813538
1788957790441431800,6.724431884765625,0.35805371403694153,1.106481909751892,0.8046128749847412
1788957790451480600,6.73448046875,0.1867508888244629,0.9852286577224731,0.7736735343933105
1788957790461530600,6.744530517578125,-0.031025109812617302,0.864039421081543,0.734788715839386
1788957790471580700,6.75458056640625,-0.23265641927719116,0.796800434589386,0.6543319225311279
1788957790481630700,6.764630615234375,-0.2788284420967102,0.663652241230011,0.5855472683906555
1788957790491679700,6.7746796875,-0.20510412752628326,0.49827340245246887,0.5817872285842896
1788957790501729800,6.784729736328125,-0.13015104830265045,0.30212172865867615,0.5664500594139099
1788957790511779800,6.79477978515625,-0.0552176907658577,0.09267618507146835,0.5479301810264587
1788957790521830000,6.804829833984375,-0.06846611946821213,-0.09568306803703308,0.52497398853302
1788957790531878700,6.814878662109375,-0.07948365807533264,-0.19511158764362335,0.47674819827079773
1788957790541928700,6.8249287109375,0.0005472606280818582,-0.2215684950351715,0.3916623294353485
1788957790551978800,6.834978759765625,0.04626093804836273,-0.24700510501861572,0.24109290540218353
1788957790562028500,6.845028564453125,0.04283105209469795,-0.3784800171852112,0.07002929598093033
1788957790572077800,6.855077880859375,0.03414556756615639,-0.33511462807655334,-0.01348825078457594
1788957790582127900,6.8651279296875,0.03279481455683708,-0.31379973888397217,-0.03869213908910751
1788957790592177400,6.875177490234375,0.017502155154943466,-0.14460258185863495,-0.009746057912707329
1788957790602227500,6.8852275390625,-0.05673585459589958,-0.09711868315935135,-0.004504957236349583
1788957790612276500,6.8952763671875,-0.08502805233001709,-0.08077389746904373,-0.006112249568104744
1788957790622326300,6.905326171875,-0.07943487912416458,-0.04720634967088699,-0.009093126282095909
1788957790632376300,6.915376220703125,-0.05389510467648506,-0.011391283944249153,0.0016613909974694252
1788957790642426400,6.92542626953125,0.010046594776213169,-0.033249709755182266,0.06034201756119728
1788957790652475600,6.9354755859375,0.0672512948513031,-0.08230060338973999,0.17091166973114014
1788957790662525400,6.945525390625,0.09954946488142014,-0.06853535026311874,0.2492186725139618
1788957790672575500,6.955575439453125,0.11198010295629501,-0.025695860385894775,0.25326037406921387
1788957790682625500,6.96562548828125,0.13137590885162354,0.052592817693948746,0.20559406280517578
1788957790692674300,6.97567431640625,0.15097643435001373,0.13495351374149323,0.16466280817985535
1788957790702724400,6.985724365234375,0.151480570435524,0.23024089634418488,0.11599993705749512
1788957790712774400,6.9957744140625,0.09245873242616653,0.37086576223373413,0.030583208426833153
1788957790722824400,7.005824462890625,0.000062492152210325,0.49060308933258057,-0.03596918657422066
1788957790732873500,7.01587353515625,-0.041400667279958725,0.5587881207466125,-0.019301638007164
1788957790742923500,7.025923583984375,-0.03870820999145508,0.5937495827674866,0.05316217243671417
1788957790752973600,7.0359736328125,-0.028871938586235046,0.6947018504142761,0.06294528394937515
1788957790763023400,7.0460234375,-0.06357159465551376,0.8108066320419312,0.0019999099895358086
1788957790773072400,7.056072265625,-0.12797163426876068,0.8658689260482788,-0.05309788137674332
1788957790783122400,7.066122314453125,-0.1540013700723648,0.8351043462753296,-0.06535081565380096
1788957790793172500,7.07617236328125,-0.11531370133161545,0.7627379894256592,-0.03516630083322525
1788957790803222500,7.086222412109375,-0.03892039507627487,0.7330061793327332,-0.03755488991737366
1788957790813271600,7.096271484375,0.028412766754627228,0.7454543709754944,-0.061108432710170746
1788957790823321600,7.106321533203125,0.03943558782339096,0.7148455381393433,-0.0985836386680603
1788957790833371400,7.116371337890625,0.05822712555527687,0.7372758388519287,-0.1626414805650711
1788957790843421400,7.12642138671875,0.05828225240111351,0.6953896284103394,-0.23315107822418213
1788957790853470500,7.136470458984375,0.04529809579253197,0.6003088355064392,-0.3158004879951477
1788957790863520300,7.146520263671875,0.02051924541592598,0.5736263394355774,-0.38360244035720825
1788957790873570600,7.156570556640625,0.030081642791628838,0.7315259575843811,-0.45148783922195435
1788957790883620600,7.16662060546875,0.08867517858743668,0.731525182723999,-0.47177526354789734
1788957790893669600,7.176669677734375,0.18835382163524628,0.8456491827964783,-0.5805189609527588
1788957790903719400,7.186719482421875,0.28916510939598083,0.8938819766044617,-0.7408532500267029
1788957790913769500,7.19676953125,0.29450544714927673,0.692184329032898,-0.8862634301185608
1788957790923819500,7.206819580078125,0.21740320324897766,0.6510617136955261,-0.9677258133888245
1788957790933868300,7.216868408203125,-0.1588127166032791,0.689609169960022,-0.9417800903320312
1788957790943918600,7.226918701171875,-0.6549420356750488,0.6973344683647156,-0.8124324679374695
1788957790953968600,7.23696875,-1.0249483585357666,0.6947476863861084,-0.6739800572395325
1788957790964018700,7.247018798828125,-1.3220559358596802,0.6123787760734558,-0.5075212717056274
1788957790974067500,7.2570673828125,-1.6010090112686157,0.9289039373397827,-0.36543387174606323
1788957790984117500,7.267117431640625,-1.5708385705947876,0.9333013296127319,-0.37015965580940247
1788957790994167600,7.27716748046875,-1.2185723781585693,1.0324445962905884,-0.34178218245506287
1788957791004217300,7.28721728515625,-1.0372726917266846,0.978516697883606,-0.1901300996541977
1788957791014266400,7.297266357421875,-0.6979478001594543,0.7267777323722839,-0.5940563678741455
1788957791024316700,7.307316650390625,-0.37450820207595825,0.9997019171714783,-1.051231861114502
1788957791034366700,7.31736669921875,-0.32679685950279236,1.0139724016189575,-1.209712028503418
1788957791044416500,7.32741650390625,-0.30206888914108276,1.1019134521484375,-1.2245171070098877
1788957791054465500,7.337465576171875,-0.22040297091007233,1.056545376777649,-1.0984545946121216
1788957791064515600,7.347515625,-0.3832419514656067,0.9429857730865479,-1.0515110492706299
1788957791074565400,7.3575654296875,-0.4701114594936371,0.8344694972038269,-1.058858871459961
1788957791084615400,7.367615478515625,-0.5197834372520447,0.7952869534492493,-1.101441740989685
1788957791094664400,7.37766455078125,-0.6385679244995117,0.6513047814369202,-1.112552285194397
1788957791104714500,7.387714599609375,-0.9951270818710327,0.34132376313209534,-1.0428533554077148
1788957791114764500,7.3977646484375,-1.3799911737442017,0.3146125078201294,-0.9889194965362549
1788957791124814600,7.407814697265625,-1.5655685663223267,0.27929046750068665,-0.9370608329772949
1788957791134863400,7.41786328125,-1.6987749338150024,0.2623373568058014,-0.795524537563324
1788957791144913400,7.427913330078125,-2.5182876586914062,0.4835277795791626,-0.5472899675369263
1788957791154963500,7.43796337890625,-3.4140894412994385,1.0460293292999268,-0.13782760500907898
1788957791165013500,7.448013427734375,-3.7665746212005615,0.5596418380737305,0.4520180821418762
1788957791175062500,7.4580625,-3.934771776199341,0.043384257704019547,1.1480858325958252
1788957791185112600,7.468112548828125,-3.9491281509399414,-0.07690805941820145,1.9476062059402466
1788957791195162600,7.47816259765625,-3.9808425903320312,-0.3107883930206299,2.5405995845794678
1788957791205212700,7.488212646484375,-4.171615123748779,-0.601874053478241,3.133434772491455
1788957791215261400,7.498261474609375,-4.517999649047852,-0.8770354390144348,3.664980411529541
1788957791225311500,7.5083115234375,-4.833745956420898,-1.0746196508407593,3.9708070755004883
1788957791235361500,7.518361572265625,-5.029427528381348,-0.9343141913414001,4.135128498077393
1788957791245411300,7.528411376953125,-4.87426233291626,-0.7939770221710205,4.279053688049316
1788957791255460600,7.538460693359375,-4.4018473625183105,-1.0997484922409058,4.412404537200928
1788957791265510700,7.5485107421875,-3.6949024200439453,-1.573459267616272,4.470685958862305
1788957791275560400,7.558560546875,-2.6506357192993164,-2.3578410148620605,2.825577735900879
1788957791285610500,7.568610595703125,-2.037924289703369,-2.140420436859131,1.774027705192566
1788957791295659500,7.578659423828125,-1.818557858467102,-2.234510660171509,0.7171725630760193
1788957791305709600,7.58870947265625,-1.7371634244918823,-2.628235101699829,-0.11782034486532211
1788957791315759400,7.59875927734375,-1.6136828660964966,-2.661959409713745,-0.7617904543876648
1788957791325809400,7.608809326171875,-1.721217155456543,-2.407621145248413,-0.9965707659721375
1788957791335858700,7.618858642578125,-1.755665898323059,-2.521472930908203,-0.8975649476051331
1788957791345908500,7.628908447265625,-1.8877233266830444,-2.714826822280884,-0.6646137237548828
1788957791355958500,7.63895849609375,-2.212244987487793,-3.130764961242676,-0.32525280117988586
1788957791366008600,7.649008544921875,-2.603172540664673,-3.822449207305908,-0.027091171592473984
1788957791376057300,7.659057373046875,-2.877596139907837,-4.460593223571777,0.36259201169013977
1788957791386107400,7.669107421875,-3.1672604084014893,-4.84089469909668,1.2217961549758911
1788957791396157400,7.679157470703125,-3.1823959350585938,-5.80388069152832,2.010903835296631
1788957791406207500,7.68920751953125,-3.010138988494873,-6.180727481842041,2.6403648853302
1788957791416256500,7.699256591796875,-2.6941654682159424,-5.796748161315918,3.242311716079712
1788957791426306600,7.709306640625,-2.2454960346221924,-4.823196887969971,3.783949136734009
1788957791436356600,7.719356689453125,-1.7619147300720215,-3.269918441772461,4.207793712615967
1788957791446406700,7.72940673828125,-1.0530753135681152,-0.46155503392219543,3.9903669357299805
1788957791456455400,7.739455322265625,0.25598809123039246,4.0730462074279785,1.7496675252914429
1788957791466505500,7.74950537109375,1.10576331615448,4.44993257522583,0.786931574344635
1788957791476555500,7.759555419921875,0.9936728477478027,2.493455171585083,1.0312517881393433
1788957791486605300,7.769605224609375,0.4449799358844757,1.1239222288131714,0.7811732292175293
1788957791496654600,7.779654541015625,0.2529705762863159,0.4435662627220154,-0.17650088667869568
1788957791506704600,7.78970458984375,0.6246986389160156,-0.6232419610023499,-0.9477027654647827
1788957791516754400,7.79975439453125,0.9462260603904724,-1.7275506258010864,-1.3394657373428345
1788957791526804500,7.809804443359375,0.9327920079231262,-2.1649816036224365,-1.4835898876190186
1788957791536853500,7.819853515625,0.9038997292518616,-2.1953299045562744,-1.3596550226211548
1788957791546903600,7.829903564453125,1.1267421245574951,-1.7247395515441895,-1.0659732818603516
1788957791556953300,7.839953369140625,1.4254224300384521,-1.5301408767700195,-0.6659202575683594
1788957791567003400,7.85000341796875,1.5857999324798584,-1.241719126701355,-0.17399469017982483
1788957791577052700,7.860052734375,1.6160295009613037,-1.1433382034301758,0.17390227317810059
1788957791587102500,7.8701025390625,1.5637245178222656,-1.1476277112960815,0.14613908529281616
1788957791597152800,7.88015283203125,1.4471367597579956,-1.320145845413208,0.06047295778989792
1788957791607201800,7.890201904296875,1.339613437652588,-1.823433518409729,0.025904063135385513
1788957791617251600,7.90025146484375,1.189479947090149,-2.1490566730499268,-0.19204816222190857
1788957791627301600,7.910301513671875,0.8909130692481995,-2.35681414604187,-0.47180336713790894
1788957791637351700,7.9203515625,0.49804461002349854,-2.346954584121704,-0.605147659778595
1788957791647400700,7.930400634765625,0.07763081789016724,-2.095965623855591,-0.5416035652160645
1788957791657450800,7.94045068359375,-0.3164929449558258,-1.7625783681869507,-0.3136589527130127
1788957791667500800,7.950500732421875,-0.587505578994751,-1.3089615106582642,-0.02182072214782238
1788957791677550800,7.96055078125,-0.7904075980186462,-0.915111780166626,0.2799954116344452
1788957791687599600,7.970599609375,-1.0537614822387695,-0.6582927703857422,0.3734992444515228
1788957791697649700,7.980649658203125,-1.1397677659988403,-0.5741880536079407,0.3760230243206024
1788957791707699700,7.99069970703125,-1.0966118574142456,-0.46962228417396545,0.2011244148015976
1788957791717749500,8.00074951171875,-0.9940087199211121,-0.03629860654473305,-0.5194761157035828
1788957791727798800,8.010798828125,-0.9955334067344666,0.10051409900188446,-1.3655208349227905
1788957791737848800,8.020848876953124,-0.7992796897888184,0.06125033274292946,-2.292975425720215
1788957791747899000,8.03089892578125,-0.43270355463027954,0.02068665809929371,-3.2117133140563965
1788957791757948700,8.04094873046875,-0.04367225244641304,-0.2015897035598755,-3.9034430980682373
1788957791767997700,8.050997802734376,0.3952702283859253,-0.5570666193962097,-4.075001239776611
1788957791778047700,8.0610478515625,0.8478994965553284,-0.759208083152771,-3.8199543952941895
1788957791788097500,8.07109765625,1.146028995513916,-0.6278932094573975,-3.560490846633911
1788957791798147600,8.081147705078125,1.2953273057937622,-0.6565466523170471,-3.3084659576416016
1788957791808196900,8.09119677734375,1.2832586765289307,-0.7395504713058472,-3.1941843032836914
1788957791818246700,8.10124658203125,1.058729648590088,-0.6288143992424011,-3.207914113998413
1788957791828296700,8.111296630859375,0.7075188755989075,-0.385312020778656,-3.284494400024414
1788957791838346800,8.1213466796875,0.3223320245742798,-0.08452867716550827,-3.401266574859619
1788957791848395500,8.1313955078125,-0.025380408391356468,0.22502918541431427,-3.4976282119750977
1788957791858445600,8.141445556640624,-0.18875187635421753,0.6182819604873657,-3.5294220447540283
1788957791868495600,8.15149560546875,0.03688843548297882,1.146156668663025,-3.442477226257324
1788957791878545700,8.161545654296875,0.6124148964881897,1.5646770000457764,-3.1896462440490723
1788957791888594700,8.1715947265625,1.2817537784576416,1.6946102380752563,-2.8125762939453125
1788957791898644700,8.181644775390625,1.9785467386245728,1.580660343170166,-2.3974156379699707
1788957791908694800,8.19169482421875,2.634678840637207,1.414319634437561,-2.0018107891082764
1788957791918744800,8.201744873046875,3.0654351711273193,1.3105742931365967,-1.5919737815856934
1788957791928793600,8.211793701171874,3.2356936931610107,1.108721137046814,-1.1770460605621338
1788957791938843600,8.22184375,3.117114305496216,0.8158363699913025,-0.7250046133995056
1788957791948893700,8.231893798828125,2.7589988708496094,0.4113214313983917,-0.25482431054115295
1788957791958943500,8.241943603515624,2.214515209197998,0.057240888476371765,0.23328645527362823
1788957791968992800,8.25199267578125,1.6407333612442017,-0.26716968417167664,0.6920830607414246
1788957791979042800,8.262042724609374,1.250633955001831,-0.6235132813453674,1.0524938106536865
1788957791989092600,8.272092529296875,1.2212902307510376,-1.1145678758621216,1.2159740924835205
1788957791999141600,8.2821416015625,1.3986449241638184,-1.8492172956466675,1.2542885541915894
1788957792009191700,8.292191650390626,1.5876574516296387,-3.0412726402282715,1.1739250421524048
1788957792019241700,8.30224169921875,1.7299761772155762,-4.090688228607178,0.9945803880691528
1788957792029291500,8.31229150390625,1.8080934286117554,-4.580745220184326,0.6407676935195923
1788957792039340800,8.3223408203125,1.971897840499878,-3.4762890338897705,-0.326510488986969
1788957792049390800,8.332390869140625,1.9833742380142212,-1.5920366048812866,-1.0874415636062622
1788957792059440600,8.342440673828126,1.9552788734436035,-1.0958348512649536,-0.9940565824508667
1788957792069490700,8.35249072265625,2.049941301345825,-1.4745928049087524,-0.6429377198219299
1788957792079539700,8.362539794921876,2.2449231147766113,-1.6705503463745117,-0.3969056308269501
1788957792089589500,8.372589599609375,2.5002479553222656,-1.4701080322265625,-0.3951639235019684
1788957792099639600,8.3826396484375,2.6006999015808105,-1.2031341791152954,-0.5391969084739685
1788957792109689600,8.392689697265626,2.5103142261505127,-1.1150301694869995,-0.8416638374328613
1788957792119739000,8.40273876953125,2.209399461746216,-1.13761568069458,-1.2547858953475952
1788957792129788700,8.41278857421875,1.8038698434829712,-1.3635214567184448,-1.643047571182251
1788957792139838700,8.422838623046875,1.4861739873886108,-1.8424700498580933,-2.0515143871307373
1788957792149888800,8.432888671875,1.1847134828567505,-2.449657440185547,-2.535087823867798
1788957792159937500,8.4429375,0.7834144234657288,-3.0920543670654297,-2.821002721786499
1788957792169987600,8.452987548828125,0.3977479636669159,-3.735344171524048,-2.8779773712158203
1788957792180037600,8.46303759765625,0.08186695724725723,-4.148396015167236,-2.8198745250701904
1788957792190087700,8.473087646484375,-0.132188618183136,-4.251712322235107,-2.646538734436035
1788957792200136700,8.48313671875,-0.18471598625183105,-4.043628692626953,-2.2205564975738525
1788957792210186800,8.493186767578125,-0.09271176904439926,-3.534609794616699,-1.5981254577636719
1788957792220236800,8.50323681640625,0.03987256810069084,-2.6188385486602783,-0.8516866564750671
1788957792230286600,8.51328662109375,0.1076420247554779,-1.462248682975769,-0.0962115153670311
1788957792240335600,8.523335693359375,0.14941193163394928,-0.4588121175765991,0.4419540464878082
1788957792250385700,8.5333857421875,0.12997698783874512,0.18784573674201965,0.6706239581108093
1788957792260435700,8.543435791015625,-0.022453444078564644,0.46849119663238525,0.6666502356529236
1788957792270485800,8.55348583984375,-0.28088340163230896,0.4735437333583832,0.5486090779304504
1788957792280534800,8.56353466796875,-0.5572018623352051,0.17200340330600739,0.4098634123802185
1788957792290584800,8.573584716796875,-0.7758434414863586,-0.3714825212955475,0.2647610902786255
1788957792300634600,8.583634521484376,-0.9219983220100403,-0.8365272283554077,0.12142530083656311
1788957792310683600,8.59368359375,-0.977443516254425,-1.1231043338775635,0.019169244915246964
1788957792320733700,8.603733642578124,-0.9512007832527161,-1.2280904054641724,0.0187128446996212
1788957792330783500,8.613783447265625,-0.8012621998786926,-1.160796046257019,0.13945098221302032
1788957792340833500,8.62383349609375,-0.5204617977142334,-0.9297832250595093,0.33860257267951965
1788957792350882800,8.6338828125,-0.23104195296764374,-0.5853413939476013,0.5807079076766968
1788957792360932600,8.6439326171875,-0.058455776423215866,-0.29344987869262695,0.8404852747917175
1788957792370982700,8.653982666015626,-0.05057468265295029,-0.13406872749328613,1.0135571956634521
1788957792381032700,8.66403271484375,-0.19503220915794373,-0.10646997392177582,1.1230379343032837
1788957792391081700,8.674081787109374,-0.43902674317359924,-0.2156854122877121,1.1778937578201294
1788957792401131500,8.684131591796875,-0.678310751914978,-0.3408437669277191,1.1857903003692627
1788957792411181600,8.694181640625,-0.783588707447052,-0.4149848520755768,1.2475471496582031
1788957792421231900,8.70423193359375,-0.8636535406112671,-0.23218698799610138,0.998782753944397
1788957792431280600,8.71428076171875,-0.9701797366142273,-0.04112062603235245,0.644565761089325
1788957792441330700,8.72433056640625,-0.9946303963661194,0.05653756856918335,0.3458439111709595
1788957792451380700,8.734380615234375,-0.9426454901695251,0.07636319845914841,0.1355668306350708
1788957792461430800,8.7444306640625,-0.8771120309829712,0.07038448005914688,0.006162037141621113
1788957792471479600,8.7544794921875,-0.7752306461334229,0.031290870159864426,-0.024776704609394073
1788957792481529600,8.764529541015625,-0.6433871984481812,0.07609928399324417,-0.010368536226451397
1788957792491579600,8.77457958984375,-0.44627436995506287,0.19608508050441742,0.14619044959545135
