time,seconds_elapsed,z,y,x
1789548289251301000,0.074301025390625,0.5454290657043457,-0.5424272535398602,-0.764719466882944
1789548289261271000,0.08427099609375,0.5828735379576683,-0.47981443776041266,-1.0769728139191865
1789548289271240000,0.094239990234375,-0.07910860802829266,-0.3335179611220956,-0.9277740399681031
1789548289281209000,0.104208984375,0.4240186085194349,-0.5317147208675742,-0.5619954024387523
1789548289291179000,0.114178955078125,0.7034241634428501,-0.6823118173092604,-0.5885657947825268
1789548289301148000,0.12414794921875,0.3691507077783346,-0.5401689532190561,0.2822472080901265
1789548289311117000,0.134116943359375,-0.2541553783327341,0.37836423406451936,-0.6038092123501002
1789548289321087000,0.1440869140625,-0.28892215580940245,0.07894581868201493,-0.45741555894762276
1789548289331055900,0.154055908203125,0.486031704840064,-0.8855988859310746,-0.7548016647849232
1789548289341024800,0.164024658203125,0.29673019921183585,-0.00227612823843956,-0.560270076483488
1789548289350995000,0.173994873046875,0.30185002644360065,0.17731617654114962,-0.65640273841843
1789548289360964000,0.183964111328125,-0.382906261408329,0.18305939636826515,-0.9611245939712971
1789548289370933000,0.19393310546875,-0.9452268406808376,0.377081793038547,-0.6395851668693124
1789548289380903000,0.20390283203125,-0.9157996706664562,0.34580198089480396,-0.963654550840333
1789548289390872000,0.2138720703125,-0.7532406260132789,0.05126578459590673,0.2779155538276769
1789548289400841000,0.223841064453125,-0.8850555728346109,0.531901767872274,-0.7268375530604273
1789548289410811000,0.233810791015625,0.4692103338986635,-0.14132833283692597,0.09409171242555603
1789548289420780000,0.243780029296875,0.2513297995179891,-0.4915963532298803,-0.45227191244885323
1789548289430749000,0.2537490234375,0.9527969836741685,-0.5516662065282464,0.8444093088652939
1789548289440718800,0.26371875,1.5754384683966636,-0.780648565159738,-0.46758642249125987
1789548289450688000,0.27368798828125,0.22295359986126423,0.15295096609145403,1.239508039305359
1789548289460658200,0.283658203125,0.01657470270395279,0.8551476335659622,1.1075119637634605
1789548289470627000,0.293626953125,0.4337076433628797,0.03899491656571626,0.1267902231276501
1789548289480596000,0.303595947265625,-0.8558388307005167,0.5146709393471479,0.16409889450632034
1789548289490566000,0.31356591796875,-1.2537363250136375,0.7961547618493438,0.5296966225108132
1789548289500535000,0.32353515625,-0.5346656796276569,0.4737205047994852,0.21542126812767237
1789548289510504000,0.33350390625,-0.9297551307827234,0.4286924455493688,0.2400535320157185
1789548289520473900,0.343473876953125,-0.0808802938759327,-0.2478554014056921,0.13767613047230987
1789548289530443000,0.353443115234375,0.38960371322035786,-0.28083208059519527,0.32968802757039667
1789548289540412000,0.363411865234375,-0.4539046282172203,0.5283285855606198,0.4057052454546094
1789548289550381800,0.3733818359375,-0.20781915909349918,0.15647241821587085,0.19436702712317927
1789548289560351000,0.38335107421875,0.6212509071469307,-0.3207613554015755,-0.9000871377497911
1789548289570320000,0.39331982421875,0.10593933180868625,0.1875382953479886,0.15002372613367623
1789548289580290000,0.4032900390625,0.5043763398259878,-0.18415625169426203,0.48007151779402046
1789548289590259200,0.41325927734375,1.2450994295716284,-1.2313801162987947,-0.2718637977743521
1789548289600228000,0.42322802734375,-0.1397656135648489,0.14773527726978064,-0.8467599636446684
1789548289610198000,0.433197998046875,-0.777787622770667,0.4149605650559067,-0.9443778226360678
1789548289620167000,0.4431669921875,0.5955640927046537,-0.7776783171772956,-1.093183505616337
1789548289630136000,0.453135986328125,-0.01762333497405052,-0.4160115354135632,-2.290433096515387
1789548289640106000,0.46310595703125,0.49485681633055206,-0.24248364523947238,0.5799077469546348
1789548289650075000,0.473074951171875,-0.21888766559660433,0.007177928805351257,0.7351724698811769
1789548289660044000,0.4830439453125,0.18256255276203154,-0.19355010298341513,-0.5990391118714585
1789548289670014000,0.493013916015625,-0.1076186631977558,0.005312427194416523,-0.3461556531706825
1789548289679982800,0.50298291015625,0.5973842938691377,-0.4406304283633828,0.500170777894929
1789548289689952000,0.512951904296875,0.04962707747817039,0.02994417962580919,0.2556633717428893
1789548289699922000,0.522921875,-0.6200514682292938,0.0373944956317544,0.7839635349266231
1789548289709890800,0.532890869140625,0.4529050957858562,-1.1703189138755201,0.8737168710879981
1789548289719860000,0.54285986328125,-0.39947278080582616,-0.4171083907395601,-0.09006961730262264
1789548289729830100,0.552830078125,-0.5904471880823373,-0.14236585919111966,-0.13924738011071458
1789548289739799000,0.562799072265625,0.3176157508522272,-0.3508364679306745,-0.6018279388723895
1789548289749768000,0.572767822265625,-0.10986614986360073,0.07228343818336724,-0.3358445043735206
1789548289759737900,0.58273779296875,0.08557984986901283,0.19586101027429104,0.5148085942521691
1789548289769707000,0.59270703125,-0.28267420133054255,0.5752300374671816,-0.14903568321070634
1789548289779676000,0.602676025390625,-0.1927034230262041,1.0912854169100523,-0.9769225401490926
1789548289789645800,0.612645751953125,-0.2112292597979307,0.993520331467688,-0.09745625695521011
1789548289799615000,0.622614990234375,-0.08072890270650386,1.0547232804492115,0.6102017263988032
1789548289809583900,0.632583984375,0.019176994156837462,0.4629313997596502,1.3924689422689378
1789548289819553800,0.6425537109375,0.13933540545403958,0.04223141426891088,2.0935601327195763
1789548289829523000,0.65252294921875,-0.12962825043201445,0.33138416396379466,1.9633874001473188
1789548289839491800,0.662491943359375,-0.6961684932261705,0.6078530809134245,1.13464145129472
1789548289849462000,0.6724619140625,-0.19349545018672942,-0.12093582541048525,1.3175504794068633
1789548289859431000,0.682430908203125,0.024675591573119163,-0.651299131669104,1.7380463206276298
1789548289869401000,0.692401123046875,1.0382646053403615,-1.2184668587118386,1.6245277857363223
1789548289879370000,0.702369873046875,2.2806565295189616,-1.630539301110804,1.6975804547265172
1789548289889339000,0.7123388671875,1.8207096985280513,-0.8991980799555778,-0.5852157537022605
1789548289899308000,0.72230810546875,1.717291994151473,-0.9839727509215473,-2.9773674590587613
1789548289909278000,0.73227783203125,-0.2655225755214691,-0.06685907504707575,-3.488263848303258
1789548289919246800,0.742246826171875,-0.8373737842053175,-0.47522652544826266,-0.6936420434884727
1789548289929216800,0.752216796875,-1.125946980446577,-0.5929860589101911,1.4888682923160492
1789548289939186000,0.76218603515625,0.24355507386326788,-0.5566670835554599,1.5978183502480388
1789548289949154800,0.77215478515625,0.9583300678819417,-1.0833797583520413,1.0863852968435734
1789548289959124000,0.7821240234375,-0.6100783557474613,-0.6325643283218145,1.9311165311396121
1789548289969094100,0.79209423828125,0.037387189108133316,-1.4379799627304077,1.6916154088422655
1789548289979063000,0.80206298828125,0.3387029625445604,-1.3946964090600609,1.8440534569755196
1789548289989032000,0.812031982421875,0.8077905468463897,-0.9825888953477143,0.775407011244446
1789548289999001900,0.822001953125,-0.15955284857451915,0.20010639275908468,1.2513107053019106
1789548290008971000,0.831970947265625,0.43654199000597,0.11451017627716063,0.22640861741965634
1789548290018940000,0.84193994140625,-0.1643956124305725,0.7170473228648304,0.05247654862515628
1789548290028909000,0.851908935546875,0.2259481055021286,0.6711255296453833,-0.10528183601433411
1789548290038878000,0.8618779296875,0.5019458978086709,0.9550389173820615,0.11697490415656939
1789548290048846800,0.871846923828125,-0.39597032564282414,1.7933011748597025,0.1710733183625154
1789548290058817000,0.881817138671875,-0.7306494394987821,1.7024243876263498,0.3373791665948927
1789548290068786000,0.891785888671875,-0.42774259747862814,1.543387379619479,-0.6780585437789559
1789548290078754800,0.9017548828125,0.6769160957455634,0.6617945144593715,-0.5629306009296328
1789548290088724700,0.911724853515625,-0.40482466322779653,1.5268874957174061,-0.4277895784255117
1789548290098694000,0.92169384765625,0.3381464977055788,0.5462310297369957,-0.3692061277600005
1789548290108662800,0.931662841796875,-0.8540753281593322,0.8696341318190097,-1.3551064492106437
1789548290118633000,0.941633056640625,-0.48037470199167726,0.15425620347112418,-0.4807120076546445
1789548290128602000,0.95160205078125,-0.5516776047050953,-0.42608810826987026,-0.7292123924329876
1789548290138571000,0.961571044921875,0.11173077469170092,-1.0212871670544146,-0.11778894221950321
1789548290148541000,0.971541015625,0.05035656079649925,-0.5572136115223169,0.19413836946645752
1789548290158510000,0.981510009765625,0.039158290433883663,-0.3172089236170053,-0.4454364769382402
1789548290168479000,0.99147900390625,0.40914252642691135,-1.2796098941996692,-0.3713561819333583
1789548290178449000,1.001448974609375,-0.03436579546034336,-0.8168319314360618,-0.6632024084959178
1789548290188417800,1.011417724609375,0.11385609628260135,-0.6295294906705617,-0.8920589487906545
1789548290198387000,1.021386962890625,0.6439537373423576,-0.7154290740132332,0.04834052653266117
1789548290208356900,1.03135693359375,0.7296522451549768,-0.4925678286105394,0.11867524180104955
1789548290218325800,1.04132568359375,0.974685574877262,-0.6682526045575737,0.13442092806864528
1789548290228295000,1.051294921875,0.3475520394325256,-0.5112772052556276,-0.17567675703736021
1789548290238265000,1.06126513671875,-0.40894612707197664,0.24571488224565982,-0.19074068985218182
1789548290248234000,1.07123388671875,-0.2824620198845863,0.06556523584425449,-0.8955039016127586
1789548290258203100,1.081203125,-0.2785357863515615,-0.7051239530980586,-0.2571075426692143
1789548290268173000,1.091173095703125,-0.5041173966288567,-0.15156535695195197,-0.5117694822845981
1789548290278142000,1.101141845703125,0.5645154589682817,0.018328560633957384,-0.7876443423312157
1789548290288110800,1.11111083984375,1.4592203191578388,0.06811433580517769,-0.3911361104194075
1789548290298081000,1.1210810546875,1.7888269520550966,-0.7374719789952039,-1.1028875918984413
1789548290308050000,1.1310498046875,-0.5613748228549957,0.7228267830491065,-0.8877337060026824
1789548290318018800,1.141018798828125,-1.595984412819147,0.7210641572907567,-0.32589743964839724
1789548290327988700,1.15098876953125,-1.9791788435190916,0.9706760469749569,-0.6307941768441349
1789548290337958000,1.1609580078125,-0.277082080411911,-0.39677170515358445,-1.4272516479671
1789548290347926800,1.1709267578125,0.674679130473733,-0.6244409353598952,-1.1621055776078253
1789548290357897000,1.18089697265625,0.49016836625337595,-0.3265431536734104,-1.5202264303930102
1789548290367866000,1.1908662109375,0.5757990695267915,-0.5457052522972226,-1.74024646102041
1789548290377835000,1.2008349609375,0.2226893959671259,-0.9159253428727387,-0.972635583544895
1789548290387804000,1.210803955078125,-0.44398470722734923,-0.8997361323550342,-0.7714465831808746
1789548290397774000,1.220774169921875,-0.27361937273740766,-0.6458452501773834,-0.6181773449204861
1789548290407743000,1.230742919921875,0.792245187190175,-0.835647691065073,-0.39640104521028696
1789548290417711900,1.2407119140625,1.2422259199619292,-1.5534183597683906,-0.9044849343173206
1789548290427682000,1.25068212890625,0.4828571664571762,-0.7151116786271333,-0.8584511320907622
1789548290437651000,1.26065087890625,0.3199035695284605,-0.8918456713661551,-0.23304524242253974
1789548290447619800,1.270619873046875,0.34432723216712474,-0.5569312874495983,-0.5043286282267421
1789548290457589800,1.28058984375,0.5169856460303068,-0.04471972395330667,-0.8177481694981455
1789548290467559000,1.290558837890625,1.555271294158697,-0.6038464756205678,-0.4123272939428687
1789548290477527800,1.30052783203125,0.9021031537473201,0.29261954902261494,-0.562307537127845
1789548290487498000,1.310498046875,0.23743162254691122,0.48106356103867287,-0.3513310830472037
1789548290497467100,1.320467041015625,-0.4120797489225864,0.3673328447014093,0.10825467781266197
1789548290507436000,1.33043603515625,-1.4641986920922994,0.8275248826250433,0.32450134564749894
1789548290517406000,1.340406005859375,-0.6047685589015483,0.7273121117696165,-0.43333172272257503
1789548290527375000,1.350375,-0.5258820691913366,0.9499217204988002,-0.03973479341389611
1789548290537344000,1.360343994140625,-0.35266192979216576,0.7548004226759075,0.03069541811821982
1789548290547313000,1.37031298828125,0.14123685516119003,0.8358005435392261,0.21706253252867608
1789548290557282800,1.38028271484375,0.1714233191102743,1.2036673489868641,0.5890189088448882
1789548290567252000,1.390251953125,0.16435528042018413,0.9324275648623704,1.1305339429106562
1789548290577220900,1.400220947265625,0.22069325371384618,0.7679170938804746,0.024597484835609792
1789548290587190800,1.410190673828125,-0.1097059908658266,0.21706658764928577,0.22680468579884616
1789548290597160000,1.420159912109375,-0.287177357968688,0.19425912803560494,0.14627101340349763
1789548290607128800,1.43012890625,-0.5393780951023102,1.1082716230243443,-0.02100154270287603
1789548290617099000,1.44009912109375,-0.20381109249591825,0.24631752431392667,-0.6839974323086441
1789548290627068200,1.450068115234375,0.07350596571564674,-0.3658569269299507,0.4602303971726447
1789548290637037000,1.460037109375,-0.7567074253410101,0.20115736311674118,0.21898067764230073
1789548290647007000,1.470007080078125,-0.9513011921584605,-0.19457447759509086,0.6215706406205892
1789548290656976000,1.479975830078125,-0.5241045381247997,-0.8675009191825985,-0.10870981943532824
1789548290666945000,1.489945068359375,-0.8368588204205035,-0.24963088664561509,0.34194450174905355
1789548290676914000,1.499913818359375,-0.20843875229656694,-1.0102318122938274,0.25093060759995134
1789548290686883800,1.5098837890625,0.45140813522636886,-1.8761314337596295,0.2448532969802618
1789548290696853000,1.51985302734375,0.2509223877608776,-0.5685118351280689,0.1428096209032461
1789548290706822000,1.52982177734375,0.9352584043741226,-0.7702230327352881,-0.7313207628890872
1789548290716791800,1.539791748046875,1.198354045009613,-1.5501511746659875,-1.2541098345011472
1789548290726761000,1.549760986328125,0.3842904092431068,-0.6622428427487611,-1.2190910550247878
1789548290736729900,1.559729736328125,-0.17922434825003147,0.2632467395439744,-1.6477058322280644
1789548290746700000,1.569699951171875,-0.08259820370972155,-0.302350961703062,-1.9370172796159981
1789548290756669000,1.5796689453125,0.27398645248413084,-0.021075228993594645,-1.3791414047926664
1789548290766638000,1.58963818359375,0.3308130860775709,-0.1431309983447194,-1.4925741610966623
1789548290776608000,1.59960791015625,0.5827578026235103,-0.1393301447570324,-2.238180785100162
1789548290786577000,1.609576904296875,-0.11787234618663787,0.2110010040000081,-2.093866714450717
1789548290796546000,1.619546142578125,0.8419149347662925,-0.8110939723059535,-0.6134563808131963
1789548290806515000,1.629514892578125,-0.041188334956765174,0.07269932550787925,-1.1128928530842066
1789548290816484900,1.63948486328125,-0.4231038317620754,0.8137550082087517,-0.9829377087853849
1789548290826454000,1.6494541015625,0.4991062904685735,0.323272753700614,-0.22803444678951054
1789548290836423000,1.6594228515625,0.5229483538269997,0.11643646816462278,0.019002039448730645
1789548290846392800,1.669392822265625,0.07957739458382129,0.7339426358252763,-0.0939913025246933
1789548290856362000,1.679362060546875,-0.3125444389373064,1.2268766673997045,0.3737142893668264
1789548290866331000,1.689330810546875,0.6718360160022974,0.30176176363825796,0.42819655179120597
1789548290876301000,1.699301025390625,-0.14531681795120238,0.6863958717525005,-0.29211927135027943
1789548290886270000,1.70927001953125,-0.359966699847579,0.6358911346569657,-1.0301808868017046
1789548290896239000,1.719239013671875,-0.21331717198789119,0.11383066958039999,-0.42949035446140915
1789548290906208000,1.7292080078125,-0.461947064897418,-0.2893029718205333,-0.846419114317745
1789548290916178000,1.739177978515625,-0.4362234255760908,-0.43843817901611326,-0.3379799820322543
1789548290926147000,1.74914697265625,-0.9333271440505981,-0.1723494940444827,-0.6696179746266454
1789548290936116000,1.759115966796875,-0.341273689815402,-0.5799935986071825,-0.8105152225699275
1789548290946086000,1.7690859375,0.3061515230298042,-0.9645797759264707,-0.6858990281462669
1789548290956055000,1.779054931640625,-0.4145154516369104,-0.6759165633141994,-0.5526309964397922
1789548290966024000,1.78902392578125,0.20492869834899902,-1.0928361534833908,0.034391879749670624
1789548290975993900,1.798993896484375,0.7919757225990295,-1.3734841096833348,-0.39123135095480827
1789548290985962800,1.808962646484375,0.3248644068062305,-0.36881226960420604,-0.7763789980817586
1789548290995932000,1.818931884765625,-0.07073533195853234,-0.3026262715131044,-0.2696393266579136
1789548291005902000,1.828902099609375,0.6929203050851821,-1.312852238588035,0.5156469447724521
1789548291015871000,1.83887109375,0.2143617126047611,-0.604834609875083,0.4352109971305355
1789548291025840600,1.848840576171875,0.5032318459659815,-0.3712926882430911,0.6765439744975418
1789548291035809500,1.8588095703125,0.234587923553586,-0.3486290210142731,0.27618388946317135
1789548291045779500,1.868779541015625,-0.27969956943392754,-0.29134324547648427,0.741338006773591
1789548291055748600,1.87874853515625,-1.1265876164376736,0.27269816623926163,0.511984695937857
1789548291065717800,1.8887177734375,-0.5165186130404472,0.8674038885489106,-0.05091711728870869
1789548291075687700,1.898687744140625,0.19040157582461834,-0.12699001088291406,0.757044986732304
1789548291085656600,1.908656494140625,0.9778542680412531,-0.2725526202887297,1.1830725969865918
1789548291095625700,1.918625732421875,0.5645692349821329,0.36363837409764527,1.5463728251710533
1789548291105594600,1.9285947265625,0.6853735429674387,0.4603773313626647,1.4706412923604248
1789548291115564500,1.938564453125,0.8266606670111417,0.8019318839460611,0.332858583897911
1789548291125533700,1.94853369140625,0.18481997630000113,0.928677856940031,0.5467155253183096
1789548291135502600,1.958502685546875,-0.3232487883031368,0.1875125763848424,1.340829209794104
1789548291145472500,1.968472412109375,-0.9025123190701008,0.9329925052687525,0.8618521727059036
1789548291155441400,1.97844140625,-0.5528115771710872,0.8635811153903603,1.0642769984751939
1789548291165410600,1.98841064453125,-0.0337409415602684,0.3845104817345738,1.8657988403156398
1789548291175380500,1.99838037109375,-0.1743739856094122,0.6269380128726363,1.053152085609734
1789548291185349600,2.008349609375,-0.009008651363849639,0.3367968366622925,0.6560046790115535
1789548291195318800,2.01831884765625,0.09404664944112301,-0.14185557158142328,1.1530831899795682
1789548291205287700,2.02828759765625,-0.3037123131841421,-0.02183218484073877,0.16150789163243023
1789548291215257600,2.038257568359375,0.4114180701434612,-0.7359419929489492,-0.20210755824735388
1789548291225226800,2.048226806640625,0.07016016241908073,-1.1345236701339483,0.17735278222449122
1789548291235195600,2.058195556640625,0.03558861525356769,-0.8539584237813949,0.5888043162461369
1789548291245165600,2.06816552734375,-0.2947837413191795,-0.17617840468287466,-0.35966282153017815
1789548291255134500,2.078134521484375,0.19101415476500988,-1.1671946443751453,-1.1700327173452825
1789548291265103600,2.088103515625,0.10848843176960944,-1.316513391444087,-0.58140397686176
1789548291275072500,2.098072509765625,-0.17918869241476057,-0.5000032393082976,-0.49376507557108995
1789548291285042400,2.10804248046875,0.4373918848335743,-0.4473474616587162,-0.5824683546902611
1789548291295011600,2.118011474609375,0.7336153035670518,-0.6637023939073086,0.05683542882124893
1789548291304980500,2.12798046875,1.3432061680585146,-0.735515584230423,0.0965149301176425
1789548291314950400,2.137950439453125,0.1628442913353443,0.3126058137357235,-0.3142665500221774
1789548291324919800,2.147919921875,0.31865444625020023,-0.3222840349242091,-1.3030420615829528
1789548291334888700,2.157888671875,-0.08106091113984584,-0.6084586455911397,-1.214619024177268
1789548291344857600,2.167857666015625,-0.6947568728625774,-0.18341916959136723,-0.38041700187586247
1789548291354827500,2.17782763671875,-1.2292594708830118,0.27588001114577054,-0.6837521523106843
1789548291364796700,2.187796630859375,0.2963449992865324,-0.28871844993084667,-0.7823729047343134
1789548291374765600,2.197765625,0.44415831022858615,0.11173486634492874,-0.8306786704808473
1789548291384735500,2.207735595703125,0.3311012553691864,0.41835868306159973,-0.7754355066865682
1789548291394704600,2.21770458984375,0.11754326036274433,0.20191344218105076,-0.14882435114812104
1789548291404673500,2.227673583984375,0.42621991795599456,-0.04233838177472353,0.2764164926426485
1789548291414642700,2.237642578125,0.7535527607023715,-0.16256722795963285,-0.13997132873740045
1789548291424612600,2.247612548828125,0.8486123865783214,0.373491659592092,-0.4300999011944979
1789548291434581500,2.25758154296875,0.523027848803997,0.04477203866243362,-1.071782697930187
1789548291444550400,2.26755029296875,-0.9118845430493354,0.25907062290310856,-0.993694665121287
1789548291454520600,2.2775205078125,-1.0495423706799745,0.2600543732434511,-0.23218539245650172
1789548291464489700,2.28748974609375,-1.0679559792488813,0.07698796261250972,0.33464740354344247
1789548291474458600,2.297458740234375,0.36215105814933773,-0.99757311398983,-0.340701150624454
1789548291484427800,2.307427734375,0.6506003357499838,-0.39833588573038575,-0.6225358323909342
1789548291494397700,2.317397705078125,1.1699953810095787,-0.5307479216620326,-0.4112369048902765
1789548291504366600,2.32736669921875,1.0733511162906884,-0.8774614644438028,-0.46821898477375506
1789548291514335700,2.337335693359375,1.1778063470214604,-0.9748106625616549,-0.2699598638491705
1789548291524305700,2.3473056640625,0.011023498317599295,0.015367080479860304,-0.20155436307769267
1789548291534274600,2.357274658203125,-0.6195528710573911,0.1814274112522602,-0.611721373714134
1789548291544243500,2.367243408203125,-1.0367238056391477,0.1565814315482974,-0.09641669390755706
1789548291554212600,2.377212646484375,-0.5911959606230258,-0.7917249627083539,-0.16377477711848915
1789548291564182500,2.3871826171875,-1.2382149307549,-0.4306201987415552,0.6904998730052262
1789548291574151400,2.3971513671875,-1.177592412009835,-0.3011561989605427,0.47561304054781794
1789548291584120600,2.40712060546875,-1.9149971709877252,-0.09276859232932329,0.3661388491438701
1789548291594090800,2.4170908203125,-0.818442873764038,-0.8164920319572091,0.1685770993662998
1789548291604059600,2.4270595703125,-0.8847638964116573,-0.2709016382113099,-0.024827626629942097
1789548291614028800,2.43702880859375,0.9655524203509092,-1.7617454683840275,0.16142602203525602
1789548291623997700,2.446997802734375,2.1699276253461837,-1.1749115023627876,0.02902165795341134
1789548291633967600,2.456967529296875,2.9183161351531743,-0.7666729390382766,0.3075658468071371
1789548291643936500,2.4669365234375,2.941556725487113,-0.3948749316215515,-0.5594508690550923
1789548291653905700,2.47690576171875,2.836925553667545,-0.40065205371826884,-0.8432985711444169
1789548291663874600,2.48687451171875,-0.12550503302216529,1.0247729633435607,-0.41644510452523825
1789548291673844500,2.496844482421875,-1.0035288075238467,0.3897963131830096,-1.8503339985497296
1789548291683813600,2.506813720703125,-2.0127251392900942,0.9833332839742303,-1.1489692518547177
1789548291693782500,2.516782470703125,-3.1396400879859923,1.4591124748691915,-1.0343804573833941
1789548291703752400,2.52675244140625,-3.91705361674726,1.1924386834859848,0.11102394159659743
1789548291713721600,2.5367216796875,-0.853188023930788,-0.5960702886611223,-0.33871735639609396
1789548291723690500,2.5466904296875,-1.2048784783422946,0.6605246406540274,0.7341850662790238
1789548291733659400,2.556659423828125,1.4191735554516314,-0.5522884300798178,-0.7358426242277025
1789548291743629600,2.566629638671875,3.3498388356924056,-2.067820126785338,0.64999184846282
1789548291753598700,2.5765986328125,1.92571204174757,-0.20267536646425724,1.1145181892637164
1789548291763567600,2.586567626953125,-0.0441238038867712,2.0220964864864945,0.6018711569596081
1789548291773537500,2.59653759765625,0.9767314014911651,1.0052496399670838,-0.05003190911912825
1789548291783506700,2.606506591796875,5.733658802565932,-3.353774421575665,1.3206766486033796
1789548291793475600,2.6164755859375,1.7172428943127394,-1.0478022490143775,1.27252621954903
1789548291803444700,2.62644482421875,1.0620949782609939,0.57265025010705,-0.11310887637818232
1789548291813414700,2.63641455078125,6.56517450839281,-1.4531205409780144,-0.5642737226342782
1789548291823383600,2.646383544921875,-2.8125954145312306,2.120351693533361,-0.07273209526631981
1789548291833352400,2.6563525390625,-7.02519849627316,1.6330582981944084,-0.935196518119052
1789548291843321600,2.666321533203125,-8.587952839663624,2.099403598050773,-0.763992686978355
1789548291853291500,2.67629150390625,-0.567271479678154,-2.6058824631139634,0.5146332742178812
1789548291863260400,2.686260498046875,2.0535767896384,-2.675739258672297,0.03005296462937258
1789548291873229600,2.6962294921875,1.5838947465747595,0.0025488076999783515,0.6881010682351887
1789548291883199700,2.70619970703125,1.1670640037328004,0.788683110794425,-0.037851208156999196
1789548291893168600,2.716168701171875,0.8919465013921261,0.34560908867120743,-1.6749736322514712
1789548291903137800,2.7261376953125,0.4541963046401739,0.052984863473474975,-0.49280978414025156
1789548291913106700,2.736106689453125,0.5699772315055132,-0.11585048497021197,-0.19457626769337802
1789548291923076600,2.74607666015625,1.149787290239334,0.13883505471646784,-0.5686671718202531
1789548291933045500,2.75604541015625,1.7430051120787857,0.3186366183325648,0.03159842223939486
1789548291943014700,2.7660146484375,1.5356319431871175,0.31580870143026113,-0.4589903705162927
1789548291952983600,2.775983642578125,0.8675812909424304,-0.5786868999227881,-0.46018615617211905
1789548291962953500,2.785953369140625,-0.9481184704691171,-0.9967731957837939,0.7129097116034477
1789548291972922600,2.795922607421875,-2.44869663593173,0.5232207410275935,-0.4283411478936672
1789548291982891500,2.8058916015625,-2.6756314143836497,1.5971826826930045,-0.504857474406436
1789548291992860700,2.815860595703125,-1.4212386712878942,0.7431164146229624,-1.165321690110117
1789548292002830600,2.82583056640625,-0.24772329945862293,0.10811579906493425,-0.831686386218667
1789548292012799500,2.835799560546875,1.3032926753431557,-0.6544564266562461,0.6370278836019336
1789548292022768400,2.845768310546875,0.444516622146964,0.5035264449983835,1.4294871519342065
1789548292032738600,2.855738525390625,1.0645733510732651,0.48492082098871464,-1.071765746795386
1789548292042707700,2.865707763671875,0.6813058551371097,-0.35772915005385875,-1.601967578881979
1789548292052676600,2.875676513671875,0.22915128545761107,-0.1406850664973259,-0.7139631661791354
1789548292062645800,2.885645751953125,0.20018939486742018,-0.3871984056442976,0.5622961024183779
1789548292072615700,2.89561572265625,-0.5468892013847828,0.5068120425403118,0.8507464759975671
1789548292082584600,2.90558447265625,-0.17403613195717332,-1.0147861145973205,0.37247039025295525
1789548292092553700,2.9155537109375,0.27936171578168867,-1.7626403713971375,0.5924491755545139
1789548292102522600,2.925522705078125,0.22032208231389522,-1.409444773119688,-0.6708999041959643
1789548292112492500,2.935492431640625,-0.806518042692542,-1.1850552952364086,-2.4534496756777164
1789548292122461400,2.94546142578125,-0.23419687840938566,-1.8939204806894063,-2.129097163916379
1789548292132430600,2.9554306640625,0.7332493928641081,-0.7807008798688649,-0.18445370027087626
1789548292142399500,2.9653994140625,0.858189777740836,0.032875556902587415,-0.20261938022701068
1789548292152369400,2.975369384765625,2.7519828326582907,-1.1087141060948371,1.7031509483352303
1789548292162338600,2.985338623046875,1.7838538398176431,-0.4419745364487171,1.4478995914593338
1789548292172307500,2.995307373046875,-0.5190010775059462,1.449801625688374,0.5851411906287074
1789548292182277600,3.005277587890625,-0.5134861134767532,1.053407521675527,0.07807794980630278
1789548292192246800,3.015246826171875,-0.7656447650343179,0.9410013319402932,-0.46308797856085
1789548292202215700,3.025215576171875,-0.206209970331192,-0.26648966698795556,-0.2588019985621795
1789548292212184600,3.0351845703125,-1.315319797745347,1.1011021697863936,0.6382398166749627
1789548292222154500,3.045154541015625,-1.2974036173045636,1.944164228761196,0.48574295102655884
1789548292232123600,3.05512353515625,0.401679350939393,-0.0716688134163618,0.3878540200088173
1789548292242092500,3.065092529296875,-0.6377981373220681,0.4198074205651879,0.4756750364007428
1789548292252061700,3.075061767578125,-0.9072609749019146,0.7420663210481405,-0.018958364703785625
1789548292262031600,3.085031494140625,-0.2383563361763954,-0.18223259015530346,0.8559500359900295
1789548292272000500,3.09500048828125,-0.07239478960335254,0.7238292380899191,0.9665968148373066
1789548292281969700,3.1049697265625,0.182419929420948,1.0138482492253185,1.561306482669711
1789548292291938600,3.1149384765625,0.35015023923218247,-0.14239713111221788,0.9185895936459303
1789548292301908500,3.124908447265625,-0.10398059895634651,-0.5312894811928272,1.4098615372270344
1789548292311877400,3.13487744140625,-0.24519056611061094,0.13486235169321298,0.2850461180936545
1789548292321846500,3.144846435546875,0.567146391993761,-0.992037691694498,0.46243802675213663
1789548292331815400,3.1548154296875,0.6706430068254471,-1.4850436194613574,0.3636546676453203
1789548292341785600,3.16478564453125,1.0219009150385856,-1.4798241312474012,0.05638034199750982
1789548292351754800,3.174754638671875,0.7736673279702663,-0.7340051796674728,0.034848071685107423
1789548292361723600,3.1847236328125,0.8580991768479347,-0.6584343903765082,-0.05975574584789574
1789548292371692500,3.194692626953125,-0.3248006939202547,-0.3465837789222598,-1.2669833445996046
1789548292381662700,3.204662841796875,-0.936024128049612,-0.032901860387623307,-1.5895594943381846
1789548292391631600,3.214631591796875,-0.8982534925818443,0.0019447043269872665,-1.694993214712292
1789548292401600500,3.2246005859375,-0.6638099459350109,0.10231821870207786,-1.1557939102429895
1789548292411569700,3.234569580078125,-0.5186825130760669,0.2899459458991885,-1.0656585159614682
1789548292421539600,3.24453955078125,-0.29275661940574643,0.6470835598006844,-0.6730133892185985
1789548292431508500,3.254508544921875,0.43256607211232184,-0.5039388251915574,-0.4115173292668536
1789548292441477600,3.2644775390625,1.2433207294613122,-0.2679319747507572,-0.7878408878166228
1789548292451446500,3.274446533203125,1.0708242281615734,0.19736498509645461,0.31474004928544164
1789548292461416400,3.28441650390625,0.9303367300629615,-0.5109662396103143,0.40706414925027634
1789548292471385600,3.294385498046875,0.20402970368266105,0.0038151743739843367,0.3893256634639576
1789548292481354500,3.3043544921875,0.565005288311839,-0.8607254336982965,0.11076801234045996
1789548292491323400,3.314323486328125,0.14038696033358572,-0.48903585509210823,-0.197743225558009
1789548292501293600,3.32429345703125,0.8872089514762163,-0.7442167770802974,-0.7183193155620247
1789548292511262700,3.3342626953125,0.0016676409512758254,-0.021066461165249347,-0.4003362657673657
1789548292521231600,3.344231689453125,0.0356231020450592,0.12952420553565025,-0.9304217779979109
1789548292531200800,3.35420068359375,0.46648120119571684,-0.3638499710217118,-1.1386264292776584
1789548292541170700,3.364170654296875,-0.7025602400898933,0.24468816954642533,-0.9213640998605638
1789548292551139600,3.3741396484375,-1.0414590174674987,1.2471700983658431,-0.3070631579820067
1789548292561108500,3.3841083984375,-0.4703478134959936,0.48753714096695183,0.010065649603493512
1789548292571077600,3.39407763671875,0.1757370906561613,0.14316957678943873,0.09256871324251405
1789548292581047600,3.404047607421875,-0.18156126676499842,1.00767219093889,0.45815150853935627
1789548292591016400,3.414016357421875,0.18966390919983386,0.2239581007286906,-1.0716728078149258
1789548292600985600,3.423985595703125,-0.26755145100057126,0.3478060141935944,-1.104677544055134
1789548292610954500,3.43395458984375,-0.5224281293451786,-0.5863529045060276,-1.1154826503816992
1789548292620924400,3.44392431640625,-0.6652081222951411,-0.7126575634732842,-1.8737962688103318
1789548292630893600,3.4538935546875,-0.5507657505571842,-0.21763298936039208,-0.7559235084217041
1789548292640862700,3.46386279296875,0.07908055097758769,-0.6454352080717682,-1.4634510885953902
1789548292650831600,3.47383154296875,0.8493073831051587,-1.436793091033399,-0.433797148277238
1789548292660801500,3.483801513671875,0.46000119152665137,-0.9534919802010059,-0.34338490981571373
1789548292670770700,3.493770751953125,1.0732798046201466,-0.9542869299709796,0.9280651318691671
1789548292680739600,3.503739501953125,0.31752456543743607,-0.2792404274895787,0.6973300843514502
1789548292690708700,3.513708740234375,0.6239525673210621,-0.41034371891021726,0.5219541186252609
1789548292700678700,3.5236787109375,0.5561825149089098,-0.7064104857772588,0.35736375080756844
1789548292710647600,3.5336474609375,0.7035077500730752,-1.034233450128138,0.3298364230651408
1789548292720616700,3.54361669921875,-0.2706570158004761,-0.008202303417026996,0.5036965408682823
1789548292730585600,3.553585693359375,-0.43626668019592757,0.19895634594112632,0.3975127327792346
1789548292740555500,3.563555419921875,-0.6011795944988727,0.5917150160610676,0.8456405311606824
1789548292750524400,3.5735244140625,0.9312035760253667,-0.5563321525126695,-0.057378002132195974
1789548292760493600,3.58349365234375,-0.00025017536878585813,0.7882906043455005,-0.8115461730528623
1789548292770462500,3.59346240234375,0.040005847173929215,0.4885591774910688,-0.7215194267775863
1789548292780432600,3.6034326171875,-0.13426117092967033,-0.24733780727237462,0.4136607345037162
1789548292790401800,3.61340185546875,-0.8481646428108215,1.0628703465476632,-0.11138292023525573
1789548292800370700,3.62337060546875,-0.011917232286930084,0.5683315101251005,0.8249075397334993
1789548292810339600,3.633339599609375,0.326219328546524,-0.2358551670104265,-0.2051284587047994
1789548292820309800,3.643309814453125,0.1328811147481203,0.6677934626132249,0.2860815803549252
1789548292830278700,3.653278564453125,-0.4464034588068723,0.7780906973704695,0.000059465969121083615
1789548292840247600,3.66324755859375,-0.6534791060566901,0.27182752088457346,-0.09596843868340366
1789548292850216700,3.673216796875,-0.2827314844757318,0.4470309430554509,0.4374270657448098
1789548292860186600,3.6831865234375,0.010297522130608559,0.13352438108772038,0.42346663719248023
1789548292870155500,3.693155517578125,0.3933703722774982,-0.4225298312664032,0.5309692727951333
1789548292880124700,3.703124755859375,-0.3379360698252916,-0.022849837450683117,0.8425142158336937
1789548292890093600,3.713093505859375,-0.23712124142348764,-0.7244198974594473,-0.8340475623920559
1789548292900062500,3.7230625,-0.5497691407352686,-0.20226766244620084,-0.5524539228398353
1789548292910032400,3.733032470703125,-0.27473990119993685,-0.08958587063997983,-0.7139969223182648
1789548292920001500,3.74300146484375,0.3429500985950231,-0.6079238080620766,0.011456135847512632
1789548292929970400,3.752970458984375,0.19638240379989147,-0.4251972969099879,-0.889481353387609
1789548292939939600,3.762939697265625,-0.3190729639232158,-0.005846095679700374,-0.5539466456156223
1789548292949909800,3.77290966796875,0.14594693254828453,-0.5304989153370261,-1.2570426730826496
1789548292959878700,3.782878662109375,-0.12302782925367355,0.06200023683905601,-1.3244476915746926
1789548292969847600,3.79284765625,0.07373451377451419,0.055315059986710546,-0.8352312922839075
1789548292979816700,3.802816650390625,0.808619983407855,-0.4373869163975119,-1.1048469092726707
1789548292989786600,3.81278662109375,0.3078033818900585,-0.25943361099660395,-0.5735602776240557
1789548292999755500,3.822755615234375,0.2611480136990547,-0.1690077824011445,-0.26954792204741385
1789548293009724700,3.832724609375,0.6119464877068996,-0.06499532700181007,-1.1953040828544645
1789548293019693600,3.842693603515625,0.7367775669902563,-0.09306523718833923,-1.146199202619493
1789548293029663200,3.852663330078125,-0.1399877318829298,0.7483961085915565,-1.0874170510441064
1789548293039632400,3.86263232421875,-0.32363398822844025,0.13388883048593997,-0.8439180912822485
1789548293049601300,3.872601318359375,-0.7288970428735018,0.584808013151586,-1.0743132393211126
1789548293059570400,3.8825703125,-1.067768347722292,0.8866431342869997,-0.9377421840138733
1789548293069539300,3.892539306640625,-0.09309738589227198,0.4121180351063609,-0.3083665687307715
1789548293079509200,3.90250927734375,0.764003427568078,0.12680822457522153,0.21190074758501723
1789548293089478100,3.91247802734375,0.7552987275868653,0.4289920130178332,-0.6238236802443862
1789548293099447300,3.922447265625,0.30416707121431824,0.13104717731922863,-0.25843197793969885
1789548293109416200,3.932416259765625,1.051363740888238,-0.34050884292274713,-0.20492173888524992
1789548293119386400,3.942386474609375,1.2768617645353078,-0.9045935092583298,-0.2756015595305711
1789548293129355500,3.95235546875,0.4186375000029802,-0.5080827931284905,-0.6274004427526145
1789548293139324400,3.962324462890625,-1.1881488773375748,0.7796890724778175,-0.44187487546652554
1789548293149293300,3.972293212890625,-1.5295108299583196,-0.019376023860275746,0.07057338286247104
1789548293159263500,3.982263427734375,-1.38553139809072,-0.6663809654667973,-0.17045854746503755
1789548293169232400,3.992232421875,-0.1717681870251894,-1.0224904053643344,0.5736434989280998
1789548293179201300,4.002201171875,-0.021593992170691488,-0.044216742867231366,1.010777901869267
1789548293189170400,4.01217041015625,1.0371014067798852,-0.7386088740706444,0.6153178638361394
1789548293199139300,4.022139404296875,0.42900282667279244,-0.45574411860406394,0.7208109131820499
1789548293209109200,4.032109130859375,0.9958107804924249,-1.5233362329766154,1.0471149243373423
1789548293219078400,4.042078369140625,0.571851793205738,-0.5165434552207588,-0.09761077166348694
1789548293229047300,4.05204736328125,0.3504723107933998,0.0034632921963930127,1.4380224866978824
1789548293239016200,4.06201611328125,0.027671850779652594,0.08420710021108388,1.202878244435787
1789548293248986400,4.071986328125,-0.2884276502907276,-0.3587736906707287,1.617507531710714
1789548293258955300,4.081955322265625,-0.7111959664881229,0.347167131768167,1.7037853007160126
1789548293268924200,4.091924072265625,-0.6819225257307291,0.5437132016971707,0.3887816562477499
1789548293278893300,4.101893310546875,-0.30327801342010496,0.27652824592143294,0.46930882583707567
1789548293288862200,4.1118623046875,0.40131168667078015,-0.29493922414183615,0.5782945761369541
1789548293298832400,4.121832275390625,-0.07015081006884574,0.06550006165355443,0.8477115652810782
1789548293308801500,4.131801513671875,0.12661387104690075,0.2604202839463949,0.8231700484164058
1789548293318770400,4.1417705078125,0.5895727433353662,-0.03579553600251675,1.8710662593245506
1789548293328739300,4.1517392578125,0.2157780091434717,0.6458315139129758,0.8781285500504076
1789548293338709200,4.161709228515625,0.4442226076364517,0.5319339165762067,1.2145782537754624
1789548293348678400,4.171678466796875,-0.32021804230511186,0.6132230835139751,0.10300945236925035
1789548293358647300,4.181647216796875,-0.6170253984063864,0.2690282455548644,0.007644751732656732
1789548293368616400,4.191616455078125,-0.48358372716605663,0.4423541834160685,0.0456009272346273
1789548293378586400,4.20158642578125,0.1006172600030899,0.4517357597455382,0.9522158958505839
1789548293388555300,4.21155517578125,0.7141168223708868,-0.4949021167770028,-0.7480322437152266
1789548293398524200,4.221524169921875,0.35791093636155125,-0.7330483173340558,-1.1346296877916902
1789548293408493300,4.231493408203125,-0.6715577835828066,0.24654051941484212,-1.3763549889445303
1789548293418462200,4.241462158203125,-0.2257043598741293,-0.6670148794561624,-1.7150702264487743
1789548293428432100,4.25143212890625,-0.4031500080138445,-0.5111050635591149,-1.168275790675357
1789548293438401300,4.2614013671875,-0.45583998019397254,-0.12318418885916471,-0.5926326423626392
1789548293448370200,4.2713701171875,0.30340836180150504,-0.5646580823093652,-1.169533900977671
1789548293458339300,4.28133935546875,0.6399608683139085,-0.08335691312253475,-0.676189535036683
1789548293468308500,4.29130859375,0.6355798767507076,-0.19100743276327847,-0.9639094023842364
1789548293478278400,4.3012783203125,1.0183552052557467,-0.5880287287637591,-0.24365670760683714
1789548293488247300,4.311247314453125,0.9542740704894065,-0.21811054374426603,-0.2816832905970514
1789548293498216400,4.321216552734375,0.5127993002563714,-0.23775924706608056,-1.2536132831558584
1789548293508185300,4.331185302734375,-0.15044775109887124,-0.04059153810739517,-0.9076035777945071
1789548293518155300,4.3411552734375,-1.1491723732113837,0.5281184499412774,-0.5649119109399616
1789548293528124400,4.35112451171875,-0.5600497117310762,-0.1557248147189617,-0.5576126938425005
1789548293538093300,4.36109326171875,-0.7293003629773854,0.20705489672273397,-0.7822121612146496
1789548293548062200,4.371062255859375,-0.5877940432250499,0.3181862442165613,-1.5856788535125552
1789548293558031400,4.38103125,0.0722919137507677,0.36200931159108873,-1.346230192054808
1789548293568001300,4.391001220703125,0.0004664484679698944,0.5579278972715139,-0.9542241669330745
1789548293577970200,4.40097021484375,0.13368892399966717,-0.09595715923756361,-1.0245946841672062
1789548293587939300,4.410939208984375,0.36791970467865465,0.005429916094243526,0.0010909918407909572
1789548293597908200,4.420908203125,0.16802373979985713,0.27464491639286276,-1.1197544094167649
1789548293607878400,4.43087841796875,0.19259294838905333,0.16634294710606334,-0.8137813116937875
1789548293617847600,4.44084765625,1.063217260289192,-0.7291042558833957,-0.11805944799026474
1789548293627816400,4.45081640625,0.3467161731302738,-0.5350120088472962,-0.06783104361807928
1789548293637785300,4.460785400390625,0.39736499487161636,-0.4332020319283008,-1.2036043667532503
1789548293647754500,4.47075439453125,-0.5913999587625265,0.08868483014702797,-0.8784004988595843
1789548293657724400,4.480724365234375,-1.010824225229025,-0.7471738733202219,-1.059728614455834
1789548293667693300,4.490693359375,-1.2535451863557099,-0.7098112341314554,0.2936263879776001
1789548293677662500,4.500662353515625,0.16589257299005986,-1.41886872728616,0.11591359506798908
1789548293687631400,4.51063134765625,1.2370102311402558,-1.3610796784013508,-0.051177868850436056
1789548293697600300,4.520600341796875,1.5669804366528988,-0.3117980044841766,-0.7025565137628466
1789548293707570400,4.5305703125,0.9902776962846517,-0.6731856770455836,-0.34724275428764523
1789548293717539300,4.540539306640625,0.9379068730562925,-1.4050345554620027,-0.8489047205884009
1789548293727508200,4.55050830078125,0.3915501711130142,-0.5640741449415684,-0.05851396562587469
1789548293737477400,4.560477294921875,-0.0010574000984430313,0.31279490656703707,0.12398282842356712
1789548293747446300,4.5704462890625,0.4789069675266742,-0.3274813113063574,-0.4112967818513512
1789548293757416200,4.580416259765625,-0.3340758872658014,-0.009400573290884494,-0.9821083452891558
1789548293767385300,4.59038525390625,-0.5711871918171644,0.46216070764809847,-0.2856543131198734
1789548293777354200,4.600354248046875,-0.20033377177417278,-0.5572653417095541,-1.159851003614068
1789548293787323100,4.6103232421875,-0.29935236440896984,-0.7024465505823493,-0.8244719247952104
1789548293797293300,4.620293212890625,-0.9547896187961101,1.0026356580764055,-0.7416705997288227
1789548293807262500,4.630262451171875,-0.20823300059139727,0.8540592538073658,-1.6072152702771125
1789548293817231400,4.6402314453125,0.20241642326712608,-0.27774960440993307,-0.5172795144103467
1789548293827200500,4.650200439453125,-0.4173030365288257,0.7454509950503706,-1.0156178892463446
1789548293837169400,4.66016943359375,0.643320700135827,0.2631096691608429,0.2725129823980853
1789548293847139300,4.670139404296875,0.7500970672905445,0.4033689114615321,-0.08835220065917819
1789548293857108500,4.6801083984375,0.12784721223413945,0.5707558146625756,-1.3231528294585644
1789548293867077400,4.690077392578125,-0.44956513770818707,0.5081704714119434,-0.230467884481512
1789548293877046300,4.70004638671875,-1.0765957973003386,0.6017512569069862,-0.2368015444824472
1789548293887015400,4.710015380859375,-0.16676000347435474,0.10423135884702205,0.49617188098449255
1789548293896985300,4.7199853515625,0.25196926646530626,-0.24718495479822158,0.46754788057915864
1789548293906954200,4.729954345703125,-0.6567717178612947,0.46627398818582294,-0.6837384891115128
1789548293916923400,4.73992333984375,-0.2177735668748617,0.7666913514778018,0.22699684737008063
1789548293926892300,4.749892333984375,0.15015022945702075,-0.3932502530291676,0.6432850443005561
1789548293936861200,4.759861083984375,-0.7314929045855999,0.22596242628842592,1.6929944421105085
1789548293946831000,4.7698310546875,-0.6180857211142778,0.22871552438884973,1.528404330021143
1789548293956800300,4.77980029296875,-0.11787293070852756,0.31500235348343847,0.8449483111128211
1789548293966769200,4.78976904296875,0.49494157200455663,-0.32236645251065493,1.252708297140151
1789548293976738600,4.799738525390625,0.4524813174158335,-1.0002817884266375,0.8100402985345572
1789548293986707500,4.80970751953125,-0.042616906455159184,-0.8310667930155992,1.631803914219141
1789548293996677400,4.819677490234375,-0.17827800731062887,-0.933765535467863,0.5188535587940365
1789548294006646300,4.829646240234375,0.31619653170406814,-1.0886106447428465,-0.03253799551129341
1789548294016615400,4.839615478515625,0.04845861822068691,-0.5224392352610826,-0.38218974716942755
1789548294026584300,4.849584228515625,0.7269055767953395,-1.3956734373986721,-1.5306993090905248
1789548294036553500,4.859553466796875,-0.27623335462808607,-0.1308949093669653,-0.7706221150554716
1789548294046523400,4.8695234375,-0.26859540709555146,-0.20699761357754468,-0.2183230905164033
1789548294056492300,4.8794921875,0.5401116700738668,-0.5734188963919877,-0.9217265034321696
1789548294066461400,4.88946142578125,0.5982967325389384,-0.4139882128924131,-0.17518636143822222
1789548294076430300,4.899430419921875,0.5464648384928703,-0.11100976694077253,-0.13827891867104916
1789548294086399200,4.909399169921875,1.0993798760384321,0.4016068702250719,0.14665215820819139
1789548294096369200,4.919369140625,1.0541975030094384,0.5649944746568799,0.5823656249681487
1789548294106338300,4.92933837890625,0.34765491528511044,0.38562078106403347,0.9219541016429662
1789548294116307200,4.93930712890625,-0.11804770275354384,-0.0013163432955741882,0.5546845679687336
1789548294126276600,4.949276611328125,-0.3194412127137184,-0.03151099055111408,0.5658494109857827
1789548294136245500,4.95924560546875,-1.2177625098347664,1.2760089470982552,-0.6477548831909895
1789548294146215400,4.96921533203125,-0.6586556319117546,0.3924731311768293,-0.32202699142321944
1789548294156184300,4.979184326171875,-0.4451765473604202,-0.13217530456632376,1.2916957610517739
1789548294166153500,4.989153564453125,-0.9452712643444537,0.38084085331112144,0.1773505537347868
1789548294176122400,4.999122314453125,0.30971769107878205,0.08430383858382702,0.40152083590943366
1789548294186091500,5.009091552734375,1.1796914301156998,-0.40755321140885353,-0.5183652638204396
1789548294196061400,5.0190615234375,0.4056453319609165,-0.013131576512753963,-0.03174204109432176
1789548294206030300,5.0290302734375,-0.2654389888912439,-0.356762643109262,0.18741309806574136
1789548294215999500,5.03899951171875,0.5087579159110784,-1.0942799225509166,-0.21991578480163587
1789548294225968400,5.048968505859375,-0.10772913783490658,0.03553045532554388,-0.44823425443060694
1789548294235937300,5.058937255859375,0.6690133597970008,-0.4370221747383475,0.6206425659902394
1789548294245907200,5.0689072265625,0.8074825038105249,-0.9548568388134241,0.28748087095990776
1789548294255876400,5.07887646484375,0.09213584738373756,-0.37215135089904067,0.7629003616970031
1789548294265845200,5.08884521484375,-1.3773720570325851,0.9234121914967894,0.09815318971080705
1789548294275814400,5.098814453125,0.2462906363070011,-0.9050748630344867,0.10269309816276655
1789548294285783300,5.108783203125,-0.17236849100589752,-0.18161738086640833,1.3947703510791063
1789548294295753500,5.11875341796875,0.19320786541700363,0.05065145208984613,0.4079475810213014
1789548294305722400,5.128722412109375,-0.05735387233793735,0.11414835722744464,0.9534330165553837
1789548294315691500,5.13869140625,0.4246685968607664,0.1661108919158578,1.6537505192197859
1789548294325660400,5.148660400390625,-0.36645138569176194,0.7997156692013144,1.715718607354909
1789548294335629600,5.158629638671875,0.0958989993095398,0.14309534250944853,0.9896430516429245
1789548294345598500,5.168598388671875,-0.3923533041894436,0.7534776496395468,0.6926290670536458
1789548294355568400,5.178568359375,0.2837573203921318,-0.16399872206747532,0.5904797751776873
1789548294365537300,5.188537353515625,0.358940863931179,-0.08823854768425225,1.1394484862502663
1789548294375506400,5.19850634765625,-0.8893407028079032,0.7240604164972901,1.3710203499183058
1789548294385475300,5.208475341796875,1.1498884125262498,-0.5049550164967775,1.3458207344710826
1789548294395444500,5.218444580078125,0.7405383808284998,0.16536884137690067,0.8497668173104524
1789548294405414400,5.228414306640625,0.5224971029281615,0.6928598070695996,-0.12561899652434513
1789548294415383300,5.23838330078125,0.19662264229655266,-0.007277005265653133,0.20603247660612686
1789548294425352400,5.2483525390625,-1.4062994608312844,0.9395949722737074,0.5248307700401171
1789548294435321300,5.2583212890625,-1.0607792194873094,0.5288184149041771,-0.028329159344336947
1789548294445290200,5.268290283203125,-0.6477905390262604,-0.27753274678885936,-0.4460271728403866
1789548294455260200,5.27826025390625,-1.1300877335131168,0.03775017720162868,-0.09171256220405921
1789548294465229300,5.288229248046875,0.4879010058432817,-1.1119555722340941,-0.8962212561018764
1789548294475198200,5.2981982421875,0.5913572886645794,-0.6469418132424354,-0.6471919155459851
1789548294485167400,5.30816748046875,1.0813438686102628,-0.6228183025941252,-1.2383543392255902
1789548294495136300,5.31813623046875,1.31055828243196,-1.1742460241913795,-0.9418255078047514
1789548294505105400,5.32810546875,-0.5246563267886638,0.16183277620524167,-0.8615101543352007
1789548294515075300,5.338075439453125,-0.1489759249806404,-0.5936597203880548,-0.7440435394052416
1789548294525044500,5.34804443359375,-0.4600046986579895,0.21839754399210212,-0.4907166843185201
1789548294535014400,5.358014404296875,-0.4604144485026598,0.21994068178087472,-0.4934561557523906
1789548294544983300,5.3679833984375,-0.3842880711555481,-0.3285679374992847,-0.8120951121725142
1789548294554952400,5.377952392578125,-0.14445055651068686,0.08227671667039393,-0.2648913649458438
1789548294564921300,5.38792138671875,-0.5471002137869596,-0.04547375719100236,0.41211445490978654
1789548294574890500,5.397890380859375,0.23660803120434282,-0.08261486258357763,0.3623500147875398
1789548294584860400,5.4078603515625,1.3635761713922023,-0.3906172741770744,0.3446477328257635
1789548294594829300,5.417829345703125,0.9182172532021999,0.07438917829096317,0.03695031379451975
1789548294604798200,5.427798095703125,0.6470669009268284,0.26520751822292804,0.010092035286920145
1789548294614767400,5.437767333984375,1.0063052864998578,-0.33979806430488824,-0.146867938117031
1789548294624736300,5.447736328125,0.29361937371492386,0.4529346141412854,-0.23755316656734793
1789548294634706200,5.4577060546875,-1.0262088413655757,0.9370569782286882,-0.8507669342637062
1789548294644675600,5.467675537109375,-1.1023211901873349,0.43242783268541096,-0.07685135802025907
1789548294654644500,5.47764453125,-1.8586703036099672,0.48933980647474523,0.3034279980837367
1789548294664613400,5.48761328125,-0.9168740218997001,0.23704496131688355,0.2970164140083827
1789548294674582500,5.49758251953125,-0.08806991311907768,-0.05929477727264165,0.46825347156524655
1789548294684551400,5.507551513671875,0.7511901232242584,-0.2157949602782726,-0.5552934571146965
1789548294694521300,5.517521240234375,1.4005688082247971,-1.091108891299367,-0.6065009356521069
1789548294704490500,5.527490478515625,1.524730025422573,-1.0067799182742834,0.07045987145144027
1789548294714459400,5.53745947265625,1.5139327370762825,-0.25855945851057766,-0.3255149066042155
1789548294724428300,5.54742822265625,1.669051402595639,-0.6337243120118975,0.9841564369253814
1789548294734397400,5.5573974609375,0.5167454075336456,-0.10054331798404455,0.13048923290921374
1789548294744367400,5.567367431640625,-0.9107879799842834,0.3150090754851699,0.11190652398425154
1789548294754336300,5.577336181640625,-1.242082712098956,0.2672439924865961,-0.7293313426375388
1789548294764305400,5.587305419921875,0.3391220647394657,-1.6517267583072184,-0.5108848449371755
1789548294774274300,5.5972744140625,-0.46169922761619087,-0.757722155341506,-0.0717757489561336
1789548294784243500,5.607243408203125,-0.37435119903087616,0.015635376027226446,-0.7567463691119104
1789548294794212400,5.61721240234375,-0.3458621866494417,-0.4620464336186647,-0.8732660585805774
1789548294804182300,5.627182373046875,-0.3693015144258737,-0.5153133289039135,-0.6961613328330218
1789548294814151200,5.637151123046875,-0.1071481230765581,-0.2158183411538601,0.05078047616383992
1789548294824120300,5.647120361328125,0.6850421190559863,-0.8865168775588274,-0.2278296083997935
1789548294834089200,5.657089111328125,0.5409685791641473,-0.34923107856065033,-0.6009963103538378
1789548294844058400,5.667058349609375,0.48546822573840615,0.335947234095633,-1.1289116754710673
1789548294854027300,5.67702734375,0.0834288093149662,0.1835606238886714,-1.7662841347269713
1789548294863997400,5.68699755859375,0.14458616558909415,-0.34322979231923817,-0.09205654420298523
1789548294873966300,5.69696630859375,0.4016489558011293,-0.46996465939730403,-1.3893147160217165
1789548294883935500,5.706935546875,0.4647790734529495,0.6041437050014734,0.09363407745170406
1789548294893904400,5.716904296875,-0.32832126926183697,1.395848793965578,-1.2440598573908208
1789548294903873500,5.72687353515625,-0.46635435994565483,-0.00156505735963583,-1.1496255968715996
1789548294913842400,5.736842529296875,-1.6364742441177367,1.1765776820093392,-0.06557393060736358
1789548294923812400,5.746812255859375,-0.6384089626967907,0.9640624740540981,0.24811743160905314
1789548294933781500,5.756781494140625,-0.04756956042647362,0.8078694573014974,-0.08526513963034375
1789548294943750400,5.76675048828125,-0.018173954594135282,0.5367296264201402,0.15959034930700436
1789548294953719300,5.77671923828125,0.1323456926971674,0.08598843066990375,0.24523298048023134
1789548294963688400,5.7866884765625,0.4759019404917955,-0.3751584237605333,1.0863974987380205
1789548294973657300,5.7966572265625,-0.1198141279041767,0.6200649122327566,1.3845337653554974
1789548294983626200,5.806626220703125,0.5552081169188022,-0.686131960119307,0.4320167676664889
1789548294993595400,5.816595458984375,-0.10408698194026947,-0.6597194617509842,0.8464473174989223
1789548295003565300,5.8265654296875,-0.8566302733391523,0.06296294439136982,0.24891616250500082
1789548295013534200,5.8365341796875,0.9736462949573993,-1.3334654030278323,0.7274654757004231
1789548295023503400,5.84650341796875,-0.1380354287713766,-0.21801731250286102,0.38419315941371024
1789548295033472500,5.856472412109375,-0.20257424417734146,-0.35510230868160725,-0.0027225202990695833
1789548295043441400,5.86644140625,-0.4520733211368322,-0.2223062418684363,-0.058373479442950335
1789548295053410600,5.87641064453125,-0.6311228973418473,-0.34916795019656416,0.24733992616422473
1789548295063380500,5.88638037109375,0.22570552891790865,-0.7577537195235491,-0.839535200022906
1789548295073349400,5.896349365234375,0.5432271717458963,-0.1676359095260501,-0.2065001854494214
1789548295083318500,5.906318603515625,0.6983949371039867,-0.4889972766473889,-0.10659883689703419
1789548295093287400,5.916287353515625,1.013393783456087,-0.6251397312790155,0.020362459348049013
1789548295103256600,5.926256591796875,1.1516402246296404,-0.43315468565523624,0.5216730731941759
1789548295113225500,5.9362255859375,0.7000462114423514,0.5530398329690098,-0.19326799810640513
1789548295123195400,5.9461953125,0.784967889663577,-0.13446458454728125,0.42922366634923964
1789548295133164300,5.956164306640625,-0.9701415017068385,0.3650549628973007,0.938691666758433
1789548295143133400,5.966133544921875,-1.8415221849322319,0.7680339982584118,0.7042208667784929
1789548295153102300,5.976102294921875,-1.3168857318878173,0.4810685294747352,0.1693393159104511
1789548295163071500,5.986071533203125,-0.24776129338145256,0.006710895815491676,0.7062215390764176
1789548295173041400,5.99604150390625,0.19767302813231943,-0.3198217364639044,0.04047874364899471
1789548295183010600,6.006010498046875,0.5458820701688528,-0.24470804329067466,1.0875536830358206
1789548295192979500,6.0159794921875,1.1797224097758532,-0.37580928888469933,0.5980854278758168
1789548295202948600,6.025948486328125,1.265531392225623,-0.3028928134948015,0.6455396913595497
1789548295212917500,6.03591748046875,2.088513662984967,-0.9461816571876406,0.024269330593477932
1789548295222886700,6.04588671875,0.3996411231100559,0.16547025592476128,0.23149726406186819
1789548295232856600,6.055856689453125,-0.72102996276021,0.47530806625187394,-0.6621418665923178
1789548295242825500,6.065825439453125,-0.4825976387381553,-0.8101534765854478,-0.11679065189715473
1789548295252794600,6.075794677734375,-1.3682663750350474,0.4551815162852406,-0.36558987349160016
1789548295262763500,6.085763427734375,-0.21102526165843008,-0.3505474218562245,-0.7031643434628844
1789548295272732400,6.095732421875,0.39333705452978607,-0.9242170781388879,0.41694538219757377
1789548295282701600,6.10570166015625,-0.15283376945257185,-0.2782958401158452,0.9370553707934915
1789548295292671500,6.11567138671875,0.35737376074492927,-0.09065320761054754,0.9106659610398113
1789548295302640400,6.125640380859375,0.7999211286455392,-0.6063590429633855,0.011070187003538012
1789548295312609500,6.135609619140625,0.9687345575183629,-0.18823124604821204,0.11932437162585556
1789548295322578400,6.145578369140625,0.5201666141539811,0.312865925976634,0.4950921594563871
1789548295332547300,6.15554736328125,-0.511475942698121,0.6569421059921383,-0.2903624177455902
1789548295342517200,6.165517333984375,-1.0368845491588115,0.5295668951839209,-0.2184313914627768
1789548295352486400,6.175486328125,-0.10755319674611091,-0.2711716873243451,-0.27261185792898757
1789548295362455300,6.185455322265625,-0.30977029804885386,0.3752110307306051,0.712832846974954
1789548295372424400,6.195424560546875,-0.6725017864346504,1.1667635594815016,-0.17064742110064252
1789548295382393300,6.205393310546875,0.24325638317763804,-0.4172083439826965,0.18140160095756871
1789548295392362200,6.2153623046875,-0.745230338037014,0.4486608823448419,0.7504231574397534
1789548295402332700,6.225332763671875,0.7362877376466989,-0.2525818454056978,0.22859436396090313
1789548295412301600,6.235301513671875,0.38529929402470586,0.25900837132185695,1.188850449735671
1789548295422270500,6.2452705078125,0.12575228578150272,0.3128793699800968,-0.1907407263847999
1789548295432239600,6.255239501953125,-0.1690355471909046,-0.17072773806154726,0.28042404778357594
1789548295442208500,6.26520849609375,-0.5376455722212791,-0.08773410529345274,-0.31909400671124455
1789548295452177400,6.275177490234375,0.03644143269062042,-0.37830548961460586,-0.22023844088474287
1789548295462147600,6.285147705078125,0.19838789840340612,-0.8044897517353296,-0.795140104914084
1789548295472116500,6.295116455078125,-0.03149228585064411,-0.7147010519996285,-0.7312455787610262
1789548295482085400,6.30508544921875,-0.10198854835629463,-0.6362807184964419,-1.9299543554924428
1789548295492054500,6.315054443359375,1.0175865589708089,-1.3014625373065472,-2.318732723804563
1789548295502023400,6.3250234375,0.5356833322376012,-0.8401675065770745,-2.1770713596209883
1789548295511993300,6.334993408203125,-0.18718495186567305,-0.012333411872386933,-1.7154051574915647
1789548295521962500,6.34496240234375,-0.22539164066314696,0.24823329480737447,-1.6124854657649994
1789548295531931400,6.354931396484375,0.024079379245638848,-0.007265022566914558,-0.875798718863353
1789548295541900300,6.364900390625,0.11844926929175853,0.2714350144356489,-0.8162005016647279
1789548295551869400,6.374869384765625,0.1442746154218912,0.2343982462003827,-0.5155445803765207
1789548295561838300,6.38483837890625,0.526069700717926,-0.410174499823153,-0.40957255187463015
1789548295571808500,6.39480859375,0.2659720728546381,0.09688158060610294,0.1351722944252193
1789548295581777700,6.404777587890625,0.7268640757411718,0.2356950080126524,-0.03871525937411934
1789548295591746600,6.41474658203125,0.9929021995693444,-0.24519144289344547,0.2958422739287838
1789548295601715500,6.424715576171875,-0.5414192455410957,0.646879269400239,0.05252177600637078
1789548295611684600,6.4346845703125,-0.39411329959928987,0.21007190645635127,-0.2983013940513134
1789548295621653500,6.444653564453125,-1.7369745997428894,0.923349355393648,-0.5357530730055645
1789548295631623400,6.45462353515625,-1.057993388161063,0.48648880095779895,-0.6745756700992583
1789548295641592600,6.464592529296875,-0.7507599151134491,0.8153104209572076,-0.11229776092469691
1789548295651561500,6.4745615234375,0.8191027989774942,-0.24315496862977742,-0.9151991474900394
1789548295661530400,6.4845302734375,0.8731593833357095,-0.6311918709248304,-0.5905210205035284
1789548295671499500,6.49449951171875,0.20226970827281474,0.6189996210888028,0.22366543792504817
1789548295681468400,6.504468505859375,0.6748883893102408,-0.3263081758737564,0.13280512690246105
1789548295691438300,6.514438232421875,1.0836924775630234,-0.7670791817516088,0.36302320134136823
1789548295701407500,6.524407470703125,0.1289431907773018,-0.1932712860420346,-0.27444431578684597
1789548295711376400,6.53437646484375,-0.32501988962888717,0.1018959016367793,-1.1976885668382047
1789548295721345500,6.544345458984375,-0.08506780869364738,-0.9180877816036344,-0.02947736583165824
1789548295731314400,6.554314453125,-0.17907178803682325,-0.3427908163800835,0.22344408679194747
1789548295741283300,6.564283447265625,-0.005150222370028495,-0.3837310217946768,0.414237000021711
1789548295751253200,6.574253173828125,0.18147300395965574,-1.0649980062261224,-0.028263642660342155
1789548295761222400,6.584222412109375,-0.5460813921332359,-0.4583937563300132,-0.5962920416530222
1789548295771191300,6.59419140625,-0.3671159870803356,-0.445264517904818,-0.08043240397796034
1789548295781160400,6.604160400390625,-0.2978442979335785,-1.1643404239878057,-0.15775997380837797
1789548295791129300,6.61412939453125,0.23847440959811209,-0.923621742594242,0.5989310849197208
1789548295801098200,6.62409814453125,1.1038438697099684,-1.0337696320086718,-0.526056877768971
1789548295811068400,6.634068359375,0.5656938550978898,-0.5404749504283071,-0.8287702065110206
1789548295821037600,6.64403759765625,1.0014753821253777,-1.2568129559800028,-0.43939146115295585
1789548295831006500,6.65400634765625,0.2576858905464411,-0.4017646911352873,-0.17044731368497013
1789548295840975600,6.6639755859375,0.35741117014586926,0.31138883916139604,-0.23193759170789272
1789548295850944500,6.673944580078125,0.046425066566467284,0.14480740712434054,-0.2025704813176766
1789548295860913400,6.683913330078125,-0.898041311135888,0.3294312763303518,-0.4510715602157637
1789548295870882600,6.693882568359375,-1.0337257928669452,0.6576008621618151,0.040601036588102574
1789548295880852500,6.7038525390625,-0.8218933064788579,0.9393889283075928,-0.23354550182856618
1789548295890821400,6.7138212890625,-0.30296529420912266,0.8043743086621165,0.6853833337090909
1789548295900790500,6.72379052734375,-0.03336801659464836,0.5737184638604521,0.504682081306912
1789548295910759400,6.733759521484375,-0.38270401683449745,-0.10373802237212658,-0.029130269427038728
1789548295920728300,6.743728271484375,0.3947182797551155,-0.4734381807267666,0.0699494057452306
1789548295930697500,6.753697509765625,0.45131753433346744,0.48667935509383675,0.691241119826585
1789548295940667400,6.76366748046875,0.670611442643404,0.4132023232117295,0.2673948721993714
1789548295950636300,6.77363623046875,0.7384510531604289,-0.5753422656700015,-0.3520056943731382
1789548295960605400,6.78360546875,-0.639818244972825,0.12528583731353282,0.023195289887487886
1789548295970574300,6.79357421875,-1.169759818688035,0.7229203065514564,-0.3142890175823122
1789548295980543500,6.80354345703125,-1.0178034165918826,0.2885533224970102,0.3383998148795217
1789548295990512400,6.813512451171875,-1.1385288141220808,0.007792261311411857,0.13761387889105825
1789548296000482600,6.823482666015625,-0.7533698053508997,-0.2540501643925905,-0.24877079921755937
1789548296010451500,6.833451416015625,-0.17157237219214438,-0.19819559070169926,-0.42889147525280713
1789548296020420600,6.843420654296875,0.989132033380866,-0.44456835233420133,-0.03341682417243719
1789548296030389500,6.853389404296875,1.7410843731492758,-0.7380980019390583,0.81756740610376
1789548296040358700,6.863358642578125,0.8294868303477764,-0.4770440962642431,-0.656569765548408
1789548296050327600,6.87332763671875,0.3565133445233106,0.41337943334430455,-0.8919055848598479
1789548296060296400,6.88329638671875,0.3774275377362966,0.3743351246789098,-0.510297948427312
1789548296070266400,6.893266357421875,0.30948446684479713,-0.3845627964437008,-0.2281388570120558
1789548296080235500,6.903235595703125,-0.18434359095990657,-0.13922025464177132,-0.7189378858517855
1789548296090204400,6.913204345703125,-0.571322216373682,0.22777999710440636,-0.4982177075983956
1789548296100173600,6.923173583984375,-0.7123568269610404,0.6137704882636666,-1.4184857193179428
1789548296110142500,6.933142578125,-0.033633974054455756,0.4512234263092279,-1.1625734143152833
1789548296120111400,6.943111328125,0.9821902514189481,0.017032383343577383,0.14258731992207466
1789548296130081500,6.95308154296875,1.8207716578483581,-0.6999947735160589,-0.14764825657345354
1789548296140050400,6.963050537109375,1.2539648730725048,0.5019698632061481,0.8277147061087191
1789548296150019300,6.973019287109375,0.770253135612607,0.41080461442023514,0.29635683585479855
1789548296159988500,6.982988525390625,0.610811930719018,0.257307412622869,0.19118088963404298
1789548296169957400,6.992957275390625,0.07856324910521507,0.5847244265213608,-0.5207781336484477
1789548296179926300,7.00292626953125,-0.19359131177663802,-0.37449820628613234,-0.735732587981969
1789548296189895400,7.0128955078125,-0.5364660070478916,-0.054524786391854284,0.487736828257516
1789548296199865600,7.022865478515625,-1.0422662421971558,0.6128712013363837,0.3262664190912619
1789548296209834500,7.03283447265625,0.4458551772743463,-1.088928332389891,-0.7110241170525551
1789548296219803600,7.0428037109375,0.09950666841268539,-0.6304176716819405,-0.2986972249684855
1789548296229772500,7.0527724609375,0.7557049703001976,-0.8401862112775444,0.4254574456835165
1789548296239741400,7.062741455078125,1.668342962065339,-0.33567572367787357,0.1699921537959948
1789548296249710600,7.072710693359375,1.3275602706372738,-0.4563303940594196,0.12725253427661953
1789548296259679500,7.082679443359375,-0.029145430463552474,-0.42791473917514083,0.17285134261939675
1789548296269649400,7.0926494140625,-1.5230360809862613,0.13168255261331796,0.12615096624288707
1789548296279618600,7.10261865234375,-2.5587398959279057,0.2887538135051727,0.2893420617219061
1789548296289587500,7.11258740234375,-1.388532333472371,-1.098207032866776,-0.666762804391235
1789548296299556600,7.122556640625,-1.2887439255088566,-0.19840864893049,0.06390420729685574
1789548296309525500,7.132525390625,-0.2047591870009899,0.17124065601974725,0.2678476209355518
1789548296319494400,7.142494384765625,0.37592473195791243,-0.753654467511177,-0.0859023598216474
1789548296329463600,7.152463623046875,-0.4995686472833156,0.60180941683501,0.3280814691565931
1789548296339433500,7.16243359375,-0.007909165689349174,0.12377718631625174,-0.4916968179296702
1789548296349402400,7.17240234375,0.28428514365851876,0.12482085015028714,0.8390249124132096
1789548296359371500,7.18237158203125,0.29410744949281215,0.43843028797060246,0.12464074434302747
1789548296369340400,7.19234033203125,-0.336842429369688,0.252568401402235,-0.16187548283580688
1789548296379309300,7.202309326171875,-0.05357493832111358,-0.10396920077949762,0.43652032616343345
1789548296389278500,7.212278564453125,-0.03642448155581951,0.1791623889297247,-0.07099657671060412
1789548296399248600,7.22224853515625,0.4679314000040292,-0.25963965496271846,0.2565990451578051
1789548296409217500,7.232217529296875,0.403303737270832,-0.39933220329135655,-0.07585746074523776
1789548296419186700,7.242186767578125,0.2959603838831186,-0.19280425305217502,-0.5831443542556837
1789548296429155600,7.252155517578125,0.5325497103869915,-0.3116314157456159,-0.3686738840468228
1789548296439124500,7.26212451171875,0.19061492631435392,-0.2483490301415324,-1.4032770442701876
1789548296449093600,7.27209375,-0.23629648103713988,-0.33745763865858314,-0.7173064852576703
1789548296459062500,7.2820625,-0.37490824839174747,-0.05073854585140943,-1.573419529789686
1789548296469031700,7.29203173828125,0.07404898655116558,-0.11399930414557456,-1.180971825315058
1789548296479001600,7.302001708984375,0.03344809609353542,-0.09267857595831155,-1.0133465102482586
1789548296488970500,7.311970458984375,0.26935820816159245,-0.449861782567203,-1.4252306635335088
1789548296498939400,7.321939453125,0.9768985747516155,-1.0985609608709812,-0.8106292043384165
1789548296508908500,7.331908447265625,1.6062480326801538,-1.2764151898115872,-0.8255501484859734
1789548296518877400,7.34187744140625,1.2712895173609255,-0.18589900370836257,-0.9222234201036393
1789548296528846600,7.3518466796875,1.582142349949479,-0.16657529455721376,-0.2214015115810558
1789548296538815500,7.3618154296875,-0.014685527956485747,0.58088411770612,-1.6657279572613537
1789548296548785400,7.371785400390625,-1.2536989156126974,1.1277551989123225,-1.0030107749991117
1789548296558754600,7.381754638671875,-2.003410198456049,1.268209671524167,-0.4343577413020655
1789548296568723500,7.391723388671875,-2.1664473820149897,1.4721151643052697,-0.7260553897067904
1789548296578692400,7.4016923828125,-0.9859902282238006,0.44304684185534715,0.22347276489716023
1789548296588661500,7.41166162109375,-0.5013549461781979,0.33348347433060405,-0.6862343975804746
1789548296598630400,7.42163037109375,0.07063537871539592,0.4404758223235607,-0.8534021050728857
1789548296608599600,7.431599609375,0.7531868499994278,0.51402358135432,0.4332004244931042
1789548296618568400,7.441568359375,1.6270838999599218,-0.24438275685906408,-0.0723586953766644
1789548296628538600,7.45153857421875,1.2735387575924395,0.42204613940268754,0.18888262262903152
1789548296638507500,7.461507568359375,0.7009130574047565,0.30335517030954356,-0.48397433391883965
1789548296648476700,7.4714765625,0.1054103394985199,-0.22805209204405544,-0.6977160149291157
1789548296658445600,7.481445556640625,-0.8967997866421937,0.9978118911817669,0.2900418074890971
1789548296668414700,7.491414794921875,-0.829582691937685,0.42835079250484703,-0.5000338536422699
1789548296678383600,7.501383544921875,-0.3990314667791128,-0.47543461524099107,-0.7406769125163555
1789548296688352500,7.5113525390625,-1.178172842246294,0.578021129490435,-0.4032176298899576
1789548296698322400,7.521322509765625,-0.1762900483638048,-0.41034021177887914,-0.37708939182311296
1789548296708291600,7.53129150390625,0.1672282055079937,-0.7728866989865899,0.0018910744436085223
1789548296718260500,7.541260498046875,0.7234037061542272,-1.1531988522484897,0.38121885631065816
1789548296728229600,7.551229736328125,0.848885358300805,-1.2287477219685912,-0.01873535133656114
1789548296738198500,7.561198486328125,0.2899573440760374,-1.1986679332643746,-0.6548818124614656
1789548296748167400,7.57116748046875,0.2716390125751495,-1.5988137910261748,-0.15964480117429047
1789548296758136600,7.581136474609375,0.3095721451282501,-1.354298347698152,-0.35385490243639794
1789548296768105500,7.59110546875,0.3896837927192449,-1.0590259460791944,-0.3885117897978052
1789548296778075400,7.601075439453125,0.6485925030589104,-0.951990343466401,0.5193821127127856
1789548296788044500,7.61104443359375,-0.024963760864734647,0.12147650815844535,-0.26343214258085934
1789548296798013400,7.621013427734375,0.22614041320383546,-0.5543257811263204,0.16492197439223527
1789548296807982300,7.630982421875,-0.38281741408109665,0.09386515539437532,-0.33310938032120463
1789548296817951500,7.640951416015625,-0.26984219228625295,0.16042904688715934,1.2637697893805802
1789548296827920400,7.65092041015625,-0.245162509059906,0.29228958641588687,1.05719244704172
1789548296837889500,7.6608896484375,0.06924012496471404,-0.07240764908492564,0.5937528054989873
1789548296847858400,7.6708583984375,0.43736207421720025,-0.525075721244514,0.23814439219245687
1789548296857828600,7.68082861328125,-0.23721008875072,0.525972670084238,0.13348510852325707
1789548296867797500,7.690797607421875,0.1270645374238491,0.20696225000321863,-0.6526173015955835
1789548296877766700,7.7007666015625,0.12697042939960956,0.20823300059139727,-0.6428801167614757
1789548296887735600,7.710735595703125,-0.2696475464969873,0.23540742324292657,0.12837777544688433
1789548296897704700,7.72070458984375,-0.42566812929213044,0.49789048493802546,-0.5844997874526306
1789548296907673600,7.730673583984375,-0.6354565426319837,0.6735039492145181,-0.4613915864391252
1789548296917642500,7.740642578125,-0.17994447921812534,0.2911334021180868,0.4033014722485095
1789548296927611600,7.750611572265625,-0.06896189254522324,0.5536117876380682,0.158724489725288
1789548296937581600,7.76058154296875,-0.15870353826880454,0.16968465874940156,0.13250020740544421
1789548296947550500,7.770550537109375,-0.5454869333714246,-0.20623568929433822,0.16292130209431052
1789548296957519600,7.78051953125,-0.747591221949458,0.011000994224846362,0.0014406089960597454
1789548296967488500,7.790488525390625,0.45979485529959196,-0.5091992299377918,0.9486332881234586
1789548296977457400,7.80045751953125,0.8658329859703778,-0.39010494074076413,0.5276735191853716
1789548296987426600,7.810426513671875,0.8882558301806449,-0.38156595271527766,-0.337823914687708
1789548296997395500,7.8203955078125,0.6191542271286249,-0.2514899585157633,-0.4446021815385669
1789548297007364600,7.830364501953125,-0.5792798973798752,0.5071674318492412,-1.6824029054693876
1789548297017333500,7.84033349609375,-1.4172417106062174,1.031425114709139,-0.42688729582354423
1789548297027303400,7.850303466796875,-1.336138713890314,0.14453794253319502,-1.6297200936824083
1789548297037272000,7.86027197265625,-0.8694196122854948,0.2644315654143691,-0.9783074186362326
1789548297047241000,7.870240966796875,-0.00998246483206749,-0.017908289395272732,-0.9773119778580963
1789548297057209900,7.8802099609375,0.9812088391661643,0.09170330118536948,-1.1404784868851303
1789548297067179000,7.890178955078125,1.529778540983796,-0.07932254303991794,-0.1654787497584708
1789548297077148000,7.90014794921875,2.042373843100667,-0.9086661655247211,-0.16229316025860607
1789548297087117000,7.910116943359375,2.048734610304236,-0.11941899110674857,-0.30724750157296654
1789548297097086000,7.9200859375,1.663973076418042,0.2030918383106589,-0.7239456310112029
1789548297107055900,7.930055908203125,1.5264251389026642,-0.7273664723053574,-0.793966604155302
1789548297117025000,7.94002490234375,-1.226232232016325,1.4016104262322187,-0.2902466276125051
1789548297126994000,7.949993896484375,-1.81750418048501,0.8759756098002195,-0.7574557594902813
1789548297136962800,7.959962890625,-1.432958919698,-0.10689970127344131,-1.0272568891137839
1789548297146932000,7.969931884765625,-1.5728496209472418,0.6997486898005009,0.10462987491162493
1789548297156900900,7.97990087890625,-0.11353460924327373,-0.43788522130846974,-0.18141294433549046
1789548297166870000,7.9898701171875,0.038729835888743396,-0.1689835247427225,0.4255639382652938
1789548297176839200,7.999839111328125,0.6910375600785017,-0.7904407681167125,0.505403308253549
1789548297186808000,8.00980810546875,1.0215198067665099,-0.7008303475573658,0.5128677258500829
1789548297196778000,8.019778076171875,1.2430161935567856,-1.1869222581520675,-0.009471081243827938
1789548297206747100,8.0297470703125,1.8472674505859612,-1.6665367894262075,-0.537022033495456
1789548297216716000,8.039716064453126,1.6179460692584513,-0.392268548515439,-0.8161439491719007
1789548297226685000,8.049684814453125,0.609961451369524,0.10480945099592208,-0.7855312956999987
1789548297236654000,8.059654052734375,-0.7241185764253139,0.35547903303951023,-0.927428149139881
1789548297246623000,8.069623046875,-2.951213611626625,1.2913549847900867,-0.10155592909269034
1789548297256592100,8.079592041015625,-2.277912783768773,0.0670762249290943,-0.19683248565495012
1789548297266561000,8.08956103515625,-1.3210048576444386,0.46727059800773857,-0.36702165986038743
1789548297276530000,8.099530029296876,0.29363574032783507,-0.12816636118590832,0.1283621394863352
1789548297286500000,8.1095,1.0451613791167735,-0.3704232119321823,0.05125760128945112
1789548297296469000,8.119468994140625,0.8012666980355978,-0.02650426830500364,-0.0014729951620101928
1789548297306438000,8.12943798828125,-0.10002864646017551,0.17875117778033017,0.022136720745265483
1789548297316407000,8.139406982421875,-0.3781967685431242,0.25756957069039343,-0.6978696711208671
1789548297326376000,8.1493759765625,-0.42872576329708095,0.25633622950315477,-0.16023812742494045
1789548297336344800,8.1593447265625,-0.38007483737468717,-0.4466624020040035,-0.8988024317014962
1789548297346314000,8.16931396484375,-1.0914397306889294,0.44526276433914896,-0.03621741467639804
1789548297356283000,8.179282958984375,-0.1315951665908098,0.04081745581775904,-0.541227705024369
1789548297366252000,8.189251953125,0.4808259528905153,-0.6028200551822781,-0.6936020037390291
1789548297376222000,8.199221923828125,0.014280454286932944,-0.4788470540329814,-0.897668386170268
1789548297386190800,8.20919091796875,0.9073650197982788,-0.72067574249506,-1.238249271415919
1789548297396160000,8.219159912109374,-0.4472293882369995,-0.005473170714080333,-0.9297226898178458
1789548297406129000,8.22912890625,-0.03363981927335262,-0.7192655834361911,-0.6017256110090762
1789548297416098000,8.23909814453125,0.16373101104199886,-1.1134186305239795,-0.5590014813197777
1789548297426067200,8.249067138671874,0.23196692740023134,-0.9222805571183562,-0.16336970344893634
1789548297436036000,8.2590361328125,0.5989069733917712,-0.0649435968145728,-0.3662122431736439
1789548297446005000,8.2690048828125,0.5971639291167259,-0.06021919864118099,-0.37346367560662325
1789548297455974100,8.27897412109375,0.43938510447740553,-0.37056817336082454,-0.8762428824342787
1789548297465943000,8.288943115234375,-0.0366296487390995,-0.05830196684300899,-1.017401850053668
1789548297475913000,8.298912841796875,-0.9943144044548272,0.3766261582255363,-0.34766916300617157
1789548297485882000,8.308882080078124,-1.8165093242287635,0.6684709234833717,-0.7258873396635055
1789548297495851000,8.31885107421875,-0.6062456457167863,0.0947244025722146,-0.6265645033851266
1789548297505820200,8.328820068359375,-0.037619244298338884,1.0427803291991353,-0.7544454717583954
1789548297515789000,8.3387890625,0.4639297631472349,1.1875693238839506,-0.652773442005366
1789548297525758000,8.348758056640625,1.6831985858917236,0.0609700170084834,-0.11588044171705841
1789548297535727000,8.35872705078125,1.4234025713235139,0.4517509573146701,0.15940649890638886
1789548297545696000,8.368696044921874,0.9940998849213123,0.42978345565646886,-0.0625328458784148
1789548297555665000,8.378664794921875,0.5120107802271843,-0.0965519102603197,-0.2221514896981418
1789548297565635000,8.388635009765625,-0.736867583361268,0.7259440382868051,-0.36601854723244903
1789548297575604000,8.39860400390625,-1.2168354581177234,1.3705828352838754,-0.23354371173027902
1789548297585572900,8.40857275390625,-0.6590349866181612,0.008723696942627429,-0.4806200185222551
1789548297595542000,8.4185419921875,-1.034060139387846,0.7921008102834224,-0.1541984819345176
1789548297605511000,8.428510986328124,-0.6945335855007171,0.46051089461445804,0.22319701669570058
1789548297615480000,8.43847998046875,-0.018809914410114287,-0.005123626624047756,-0.7145537524834275
1789548297625449000,8.448448974609375,0.6952087082833052,-0.8220388524293899,0.5483265407115221
1789548297635417900,8.45841796875,0.7385439921408892,-0.8753715064272284,0.4996474116079509
1789548297645387000,8.468386962890625,-0.28864216982424257,0.11803688909858465,-0.07217135611101985
1789548297655356000,8.47835595703125,1.1489712976813315,-2.1417773433998226,-0.21502353751435874
1789548297665326000,8.488326171875,0.3980506390482187,-1.1225950396701694,-0.9353118881270289
1789548297675295200,8.498295166015625,0.18916472750604152,-0.3553007538631558,-0.4576643460769206
1789548297685264100,8.50826416015625,1.0616922426789999,-1.4358561024442313,-0.24463512418493627
1789548297695233000,8.51823291015625,-0.34440906523168086,-0.29712241339981554,-0.0464380356458947
1789548297705202200,8.5282021484375,-1.3165771043300627,-0.28886136553287506,-0.45796753027457743
1789548297715171000,8.538171142578125,-1.7219015337735413,0.2100701528906822,-0.6284764014210552
1789548297725140000,8.548139892578124,-0.47053252241313454,-0.6654349167883395,0.43315501444879917
1789548297735109000,8.558109130859375,0.4272732264012098,-1.0102782817840577,0.5187724563818424
1789548297745078000,8.568078125,-0.0737473732560873,-0.19832272421270608,-0.057266267119720576
1789548297755047200,8.578047119140624,1.1570242557555437,-0.8239414711803197,-0.12168879920225589
1789548297765017000,8.58801708984375,1.0080927544385194,0.1813707126289606,-0.3119910063056275
1789548297774986000,8.597986083984376,1.6047347055077552,-0.6249176129609346,0.25142894904352725
1789548297784955100,8.607955078125,0.5286147090256214,-0.41508857534974813,0.11160123002789914
1789548297794924000,8.617924072265625,0.2963064208418131,0.17427987758517263,-0.23427377957049755
1789548297804893000,8.627892822265625,-0.43446167660057544,1.365984693838656,-0.19660485091153532
1789548297814862000,8.637862060546874,-0.5537737002015114,0.6247729437932372,-0.9063757895652205
1789548297824831000,8.6478310546875,-0.8054150498867034,0.36834815922379494,0.1595774350265041
1789548297834800000,8.657800048828125,-0.9206529559165239,0.8275728134199977,0.014022460937872528
1789548297844769000,8.66776904296875,-0.9138806853026151,0.4771130698472261,-0.4423585673302412
1789548297854738000,8.677738037109375,-0.6405208402842283,0.5052347102209925,0.28017847552467134
1789548297864707800,8.687707763671876,0.6296797127962112,-0.28739187750220296,0.7292432259626687
1789548297874677000,8.697677001953124,1.3011153313040733,-0.5657005770996213,0.39175654387269165
1789548297884646000,8.70764599609375,1.0948580146998166,-0.36309798361063,0.6476101409580558
1789548297894615000,8.717614990234376,0.7965542825609445,0.13751871142089367,1.1277603865440935
1789548297904584000,8.727583984375,0.19220833298563955,0.5556295572012663,0.5609816588189452
1789548297914552800,8.737552734375,-0.5913502744019031,0.10823796413987874,-1.033301576105505
1789548297924522000,8.74752197265625,-1.3965806153714655,0.19206629416644572,-0.6418697706751525
1789548297934491000,8.757490966796874,-2.074475785282254,0.4943061967104673,-0.46425731460116804
1789548297944460000,8.7674599609375,-0.8255582587271928,-0.3221922649875283,-0.5785549441061913
1789548297954429000,8.777428955078125,0.006023498073220252,-0.6046940323606134,-0.05211388932522386
1789548297964399000,8.787399169921875,0.6214981599062681,-0.12346183675676584,-0.6898445509016513
1789548297974368000,8.797367919921875,1.0793775369733571,-0.07549801631569862,-1.058229681134969
1789548297984337200,8.807337158203126,1.1107143400013446,0.2599038588568568,-0.5513022320540621
1789548297994306000,8.81730615234375,1.1613123083382844,0.44887920127063985,-1.2804552589826286
1789548298004275200,8.827275146484375,0.9069722210884094,-0.5106228330001235,-0.7248496671788394
1789548298014244000,8.837244140625,0.20091069487929342,0.04571808734089136,-0.7757989331714809
1789548298024213000,8.847212890625,-0.7573889778643846,1.167480475579202,-0.6019966830354183
1789548298034182100,8.85718212890625,-0.6436065313398838,0.11340016920864582,-0.99041367068924
1789548298044150500,8.867150634765625,-1.3676567187041044,0.9215990045949816,-1.0737136659927666
1789548298054119700,8.87711962890625,-1.1570353616714477,0.17187807714045047,0.48498099021073426
1789548298064088600,8.887088623046875,-0.7001198612004518,-0.35482553756684065,0.06656064008977264
1789548298074058500,8.89705859375,-0.20879297256171703,0.6297089388906956,-0.2974540017080493
1789548298084027600,8.907027587890624,1.5972814668923616,-0.7287298696130514,-0.2986033178736456
1789548298093996500,8.91699658203125,0.8700982421994209,0.17917904780358074,-0.5364253097113222
1789548298103965400,8.92696533203125,0.9381728305160999,-0.9270654533073306,0.5627672270614653
1789548298113934600,8.9369345703125,0.2253507241308689,0.1916732031956315,-0.6448229213923216
1789548298123903500,8.946903564453125,-0.17417992434203625,0.6489394168004393,-1.8257910934455692
1789548298133872400,8.956872314453125,0.3831663736492395,-0.8429699967771768,-0.4942142806433141
1789548298143841800,8.966841796875,-0.15724866328537462,-0.07828501668572425,0.5429604105684906
1789548298153810700,8.976810791015625,-0.26254034484028815,-0.17779577675163744,0.9079341979883611
1789548298163779800,8.98677978515625,-0.699440646764636,0.5935889932394027,-0.28055023144651203
1789548298173748700,8.996748779296874,-0.12686170832812785,-0.15326456208527087,-0.5870400099873543
1789548298183718700,9.00671875,-0.7126251225084066,-0.3084320351824164,-0.5191739133222029
1789548298193687600,9.0166875,-0.6506225475817918,-0.35514556330144403,-0.014673143398948013
1789548298203656700,9.02665673828125,-0.11796528516709803,-0.5815323524817824,0.28955111962901425
1789548298213625600,9.03662548828125,1.009020390677452,-0.7014823817253112,0.018042108375392853
1789548298223594800,9.0465947265625,1.7069892113238572,-0.7087129175007343,0.13200279754363
1789548298233563600,9.056563720703124,1.3949445386022328,-0.9446475794881581,-0.7134427225016057
1789548298243532500,9.066532470703125,0.3553957386702299,0.2742413040280342,-0.501769153002277
1789548298253501700,9.076501708984376,0.1353776077389717,0.6821715320557356,-0.7520700478639453
1789548298263470600,9.086470703125,-0.3830500537931919,0.06314706878662109,-0.5846480368169025
1789548298273439700,9.096439697265625,-1.4472902273893355,0.6209112999290227,-0.26449863930121065
1789548298283408600,9.10640869140625,-1.1053303088754416,-0.08907616755217314,0.8606851747531443
1789548298293378600,9.116378662109375,-0.8412783904284238,-0.026442601245641708,0.5118576720247044
1789548298303347700,9.12634765625,0.3007528788566589,-0.5613710234627127,0.6495148055355996
1789548298313316600,9.136316650390626,0.30035072779655453,-0.5597001676410436,0.6519242778301239
1789548298323285500,9.146285400390624,0.7590642176002264,-0.1297527535945177,-0.24110066644847392
1789548298333254700,9.156254638671875,1.5551374386459589,-0.7064820897087455,0.4254206208044663
1789548298343223600,9.1662236328125,0.8653495863676071,-0.5174240374475717,-0.008164382559433579
1789548298353192400,9.1761923828125,0.8994599457621574,-0.6069859426900744,-0.5816859721409157
1789548298363161600,9.18616162109375,-0.8426718906134366,0.3831277952045202,-0.43372609233502296
1789548298373130500,9.196130615234376,-1.2999451184809208,0.6203367149114608,-1.609253936497867
1789548298383099600,9.206099609375,-1.2739607823967933,0.03073153061121702,-0.6632279082633554
1789548298393068500,9.216068603515625,-1.5084826549768446,0.35143092669248577,-0.7686877129267901
1789548298403037400,9.226037353515625,-0.2495978611588478,0.09546382276266813,0.0033437392036430535
1789548298413007600,9.236007568359375,0.6445405973196029,0.12229951497912406,0.17967435703985393
1789548298422976800,9.245976806640625,1.2015958034098149,-0.022499708838760853,-0.2693995265526697
1789548298432945700,9.255945556640626,0.956167921411991,0.7326239544421433,1.0208286096319557
1789548298442914800,9.265914794921875,0.9466513205260038,0.9541749940291047,-0.1254064680185169
1789548298452883700,9.2758837890625,1.1669371624827385,0.27629005325138567,0.3010133929563686
1789548298462852600,9.2858525390625,0.16887597271502017,0.9757686939388514,0.6566244183450937
1789548298472821800,9.29582177734375,-0.4996048876404762,1.2706243314504622,0.230402728557121
1789548298482790700,9.305790771484375,-0.43331952082812786,0.08604103763997555,0.6248289117641747
1789548298492759800,9.315759765625,-0.9426444229722023,0.7138274840354919,0.27224958222154527
1789548298502728700,9.325728759765624,-1.2966110056221485,0.5007406136721372,0.5581410285655409
1789548298512697600,9.335697509765625,-0.6705763713300228,-0.14805004230737684,0.5172225235261023
1789548298522666800,9.345666748046876,-0.1601426311612129,-0.061733987118303774,1.2961205917567014
1789548298532636700,9.35563671875,1.5153700764030218,-0.400983769890666,0.8983861790508031
1789548298542605600,9.36560546875,0.7811796032965183,-0.5753583400219678,-0.7048653021618724
1789548298552574700,9.37557470703125,0.8441881403952837,-1.4591969382822512,-0.44403318601157515
1789548298562543600,9.385543701171875,-0.12431786906421184,0.11296966883689165,-0.37802360393330453
1789548298572512500,9.395512451171875,0.27487901740968224,-0.03333879050016403,-0.9222022311851382
1789548298582481700,9.405481689453126,1.4181564873635768,-1.4047218362510203,0.2440400078359991
1789548298592450600,9.415450439453124,-0.17570728003978728,0.007319383102655411,0.11729070124062708
1789548298602419700,9.425419677734375,-0.4808621932476759,-0.24354513699114322,-0.3450751279249787
1789548298612388600,9.435388671875,-0.9463900392413139,0.36931174355894325,0.21306911551095545
1789548298622357500,9.445357421875,-0.37513562740683554,-0.4971420046582818,-0.4042916523296386
1789548298632326700,9.45532666015625,-0.41901919279694555,-0.6419654861345887,0.3841702899947762
1789548298642295600,9.465295654296876,0.15958265919089315,-0.799610163000226,-0.6855297564424574
1789548298652264700,9.4752646484375,1.0871744744598866,-1.1548857824221253,0.18335578549895434
1789548298662234600,9.485234619140625,1.1821277173519134,-0.17954145137518643,-0.2984064618609846
1789548298672203500,9.49520361328125,1.385850547042489,-0.6464736112087964,0.2845505896616727
1789548298682172400,9.50517236328125,0.7379974641740321,-0.391173739016056,-0.4315183896902948
1789548298692141600,9.5151416015625,-0.4910550859600305,0.6180170397922397,-0.7233317368965596
1789548298702110500,9.5251103515625,-0.13207389001846312,0.5495794633820653,-1.035844684717059
1789548298712079600,9.53507958984375,-0.40815176182389257,0.23980887307226656,0.522251530669257
1789548298722048500,9.545048583984375,-0.8255307861983776,0.45791561742424963,-0.27234155308762564
1789548298732017400,9.555017333984376,-0.7764981674820184,0.004036123648285866,0.6139972827568649
1789548298741986600,9.564986572265624,-0.3687280984520912,0.07232844636887312,-0.11110460561737417
1789548298751955500,9.57495556640625,0.5814595795065164,-0.5025608148366213,0.15033033526428044
1789548298761924900,9.5849248046875,1.1754320191055536,-0.44700902348458765,0.5411872999487445
1789548298771893800,9.594893798828124,1.1631003607988357,-0.2766185545533895,0.050151736106513994
1789548298781862700,9.604862548828125,0.8556897776186466,-0.29273440757393837,-0.16833892496256156
1789548298791832600,9.61483251953125,-0.27220658333003517,0.18805092104524374,0.3493430875677615
1789548298801801700,9.6248017578125,-0.6547901886552572,0.2868079401344061,-0.2854282310127281
1789548298811770600,9.6347705078125,-0.6096206751078367,-0.016675532729923725,0.08404158918475732
1789548298821739800,9.64473974609375,-0.9667898531913757,0.8360922199621796,-1.309959732016921
1789548298831708700,9.654708740234375,-1.273657415536046,0.3617974224060774,-0.1557967291777022
1789548298841677600,9.664677490234375,-0.8012474088132381,-0.1168342353105545,-0.6513835220169275
1789548298851646700,9.674646728515626,0.24033318920731542,-0.15859014102220534,0.34864790837783366
1789548298861615600,9.68461572265625,1.0704717614620924,-0.4531146468833089,-0.6480341385237872
1789548298871584800,9.694584716796875,1.2477619267791509,0.5461781305059791,-0.4881550171369686
1789548298881553700,9.7045537109375,0.4551759633272886,1.325250532390177,-0.18940297497501596
1789548298891522600,9.7145224609375,1.34517308421731,0.005160159242153167,-1.6838726857610047
1789548298901491700,9.72449169921875,0.7618383584886789,-0.3050619742274284,0.5729348392020911
1789548298911460600,9.734460693359376,-0.5412000498324633,1.0021212788134812,-0.18341584512311965
1789548298921429800,9.7444296875,-0.4828092356622219,0.6408069637492299,-0.9955366397261619
1789548298931399700,9.754399658203125,-0.29660920318067074,0.6390031291976571,-0.704106885010004
1789548298941368600,9.76436865234375,-0.83738781273067,0.7441364053204655,-0.9850106426019221
1789548298951337500,9.77433740234375,-0.7261971362650395,0.20320611234009264,-0.25950108674224465
1789548298961306600,9.784306640625,-0.5308803158700466,0.20901041470468043,0.10239484586855396
1789548298971275500,9.794275634765626,0.13022680084705351,0.3747708857476711,-1.2908365138739346
1789548298981244700,9.80424462890625,0.6385656145632267,0.1408437641903758,-0.498792109952867
1789548298991213600,9.814213623046875,0.7947422647029161,-0.8360898818746209,-0.25397602144414555
1789548299001182500,9.824182373046876,0.33400866724848743,-0.6248670518174767,-0.11144698931425809
1789548299011151600,9.834151611328124,0.09900982480645179,0.013782149375975132,-0.09750632490832357
1789548299021120500,9.84412060546875,0.22874621178805826,-0.9616890229210256,-1.3675222786694765
1789548299031089700,9.854089599609376,-1.088663836234808,0.2641290753364563,-0.36775698839761317
1789548299041058800,9.864058837890624,-0.26713351784944533,-0.27015958767235276,0.39699185071028764
1789548299051027700,9.87402783203125,-0.021663550275564193,-0.08161182302087545,0.38103243036046625
1789548299060996900,9.883996826171876,-0.09194938490092754,0.1580693320184946,0.0524689315742813
1789548299070966800,9.893966796875,-0.11855272966623305,-0.18460399546176193,-0.4559059215696528
1789548299080935700,9.903935791015625,-0.2812508905291557,-0.42125498902499675,0.99384539870359
1789548299090904800,9.91390478515625,0.05340601149499416,-0.44580110899955033,0.5762631068419665
1789548299100874000,9.9238740234375,1.020094742399454,-0.6935615255981683,0.50139038281776
1789548299110843000,9.9338427734375,1.1536281835764646,-0.35344723495095964,0.28408742912933227
1789548299120812000,9.94381201171875,0.9605009821802377,-0.4703162493139505,-0.0338149018456228
1789548299130781000,9.953781005859375,-0.3402987073034048,0.44660541111975904,0.669376640151441
1789548299140749800,9.963749755859375,-0.4964706812679767,0.3236132377013564,-0.9976634226217865
1789548299150719000,9.973718994140626,-1.0068892238676548,0.6412775038704276,-0.3922770240828395
1789548299160687900,9.98368798828125,-0.4903682727396488,0.3438619527429342,-0.6029595367182046
1789548299170657000,9.993656982421875,-0.3013940993696451,0.2305611522555351,-0.2647420013367198
1789548299180626000,10.0036259765625,-0.3030494653612375,0.2310100650668144,0.5937280363839119
1789548299190594800,10.0135947265625,-0.041291795331239695,-0.0973214333280921,0.21510482258964328
1789548299200564000,10.02356396484375,0.46549160563647746,-0.6675228289783001,-0.01936979504888877
1789548299210532900,10.033532958984376,0.25429858619570733,-0.2587526429951191,0.368806351320073
1789548299220502800,10.043502685546875,0.704539431208372,-0.4935317052066326,-0.32962519146725533
1789548299230472000,10.053471923828125,0.835013484814763,-1.0160372837021947,1.0662516595490277
1789548299240440800,10.06344091796875,0.04267594316601753,-0.6823863438501954,0.024845212518982588
1789548299250409700,10.07340966796875,-0.49233518889844413,-0.25858342390805483,0.13278180082580074
1789548299260379000,10.08337890625,-0.693142423403263,-0.14146949487328528,-0.8875341648425906
1789548299270347800,10.09334765625,-1.539071854507923,-0.12049947981983422,-1.1617347715340554
1789548299280317000,10.10331689453125,-1.6081354538619517,-0.4463584506213665,-0.9128425013612955
1789548299290285800,10.113285888671875,0.060302200749516484,-0.7341486797913909,-1.088997598233819
1789548299300254700,10.123254638671876,0.6383066713660955,-0.0004994739547371864,-0.03525560217322782
1789548299310224000,10.133223876953124,2.319939323115349,-1.000066684371233,-0.4114565024577081
1789548299320192800,10.14319287109375,1.358272804287076,0.568306375683844,-0.384476579464972
1789548299330162000,10.153161865234376,0.8159604092985391,0.8699185017183423,-1.1299795969635247
1789548299340130800,10.163130859375,1.4099737654298543,-0.3127060592398047,-0.5949976544609293
1789548299350099700,10.173099609375,-0.12526187191605567,1.1199778429090976,0.14180528443260118
1789548299360068900,10.18306884765625,-0.8219804002404213,1.2201102420046925,-0.8150981664460152
1789548299370037800,10.193037841796874,-0.6030015492290258,0.8314230591073631,-0.14181007020557299
1789548299380007700,10.203007568359375,-1.4666437471568583,1.7868343169331549,-0.18869694559751077
1789548299389976800,10.212976806640626,-0.8500707686930894,0.9297472397372126,-0.3236920750912279
1789548299399945700,10.22294580078125,-0.8433312313050031,0.6957973218262196,0.7843159285608678
1789548299409914600,10.23291455078125,-0.3603524842947721,1.0225900663465262,0.0548729239760898
1789548299419883800,10.2428837890625,0.5339087237805128,0.23076836526542902,0.09127948628272861
1789548299429852700,10.252852783203124,0.4052800057798624,-0.3580632043138146,0.23364786622449754
1789548299439821800,10.26282177734375,0.10054536381065846,-0.3658013973504305,-0.02570171975046396
1789548299449790700,10.272790771484376,-0.05191606519818306,-0.05419686961174011,-0.5655161604434251
1789548299459759900,10.282759765625,0.43908349118232726,-0.6175692960247398,-0.7156857521880418
1789548299469729000,10.29272900390625,0.2151812122941017,-0.12343348744511604,-0.23765613375147804
1789548299479698000,10.302697998046876,0.4920101947277784,-0.6192176477536558,-0.6748465229298919
1789548299489666800,10.312666748046874,0.5486047731310129,-0.47945671036392445,-0.23869731336748226
1789548299499636000,10.322635986328125,-0.38938568655550476,0.16670739650428293,-0.2798087654294446
1789548299509604900,10.33260498046875,-0.6713818424940109,0.32647388782948256,-0.7519606692053378
1789548299519574000,10.342573974609374,-0.9652993223726749,0.03166851920038462,-0.2173429203726351
1789548299529543000,10.35254296875,-0.787217129895091,-0.5849582352772354,-0.5660036516994238
1789548299539511800,10.36251171875,-0.27444121051430703,-0.5235524571999908,-0.3159882227156311
1789548299549482000,10.37248193359375,0.6814402951717377,-0.5753969184666872,0.05296853339318186
1789548299559451000,10.382450927734375,1.2532552634984253,-1.1664330123528837,-0.9346106810551136
1789548299569419800,10.392419677734376,1.484555835944414,-0.8028817320168018,-0.32569479321576655
1789548299579389000,10.402388916015624,1.5614029287815092,-0.7000482572689652,-1.2898457492709159
1789548299589357800,10.41235791015625,-0.038618776729702944,0.2891539187386632,-1.3424085879400371
1789548299599327000,10.422326904296876,-0.539902411237359,0.44625703607350586,-0.5670674084734171
1789548299609296000,10.4322958984375,-0.49466158601939675,-0.11907266188710927,-0.7857835168953985
1789548299619264800,10.4422646484375,-1.1166916608452797,0.39671296070367096,-0.2076141380406916
1789548299629234000,10.45223388671875,-0.8177005309641361,-0.48535482849180694,0.009034735653176904
1789548299639202800,10.462202880859374,-0.31941900088191033,-1.0160320230051874,-0.7638676723591983
1789548299649171700,10.472171630859375,-0.0884352393001318,0.22173984015733003,0.6299046075932682
1789548299659140900,10.482140869140625,0.9849608851760625,-0.7986357650101185,-0.5717334640556946
1789548299669109800,10.49210986328125,1.12407651039958,-1.0759373333916067,0.8124623380497098
1789548299679079000,10.502078857421875,0.8781126218289136,-0.5283814847916365,-0.026775121135637164
1789548299689047800,10.5120478515625,0.8192004141330719,0.10967238085716963,-0.22897823044564575
1789548299699016700,10.5220166015625,0.24602643241286276,0.3783858613744378,-0.8904052632994949
1789548299708985900,10.53198583984375,-1.5786761351436376,0.735461223694682,-1.056909611512348
1789548299718954800,10.541954833984375,-1.8852800781160592,0.2000450179606676,-1.1004815536700188
1789548299728924700,10.551924560546874,-2.2760873219072817,0.9883727394461631,-0.4353188779518008
1789548299738893800,10.561893798828125,-0.8470154727756977,0.22519290322065352,-0.07771163724455982
1789548299748862700,10.57186279296875,-0.4263543579906225,0.26437925070524215,-0.4732133224623277
1789548299758831600,10.58183154296875,0.24079846863150595,0.44763826129883527,-0.20731194022372365
1789548299768800800,10.59180078125,1.606948874425888,-0.268855519336462,-0.39203327845484015
1789548299778769700,10.601769775390625,2.3439532359093427,-0.539893058887124,0.0994129257146269
1789548299788738800,10.61173876953125,1.072273842447996,1.131639054608345,0.17801047894824296
1789548299798707700,10.621707763671875,0.6028899055480956,0.5920686518043279,-0.7847448945626616
1789548299808676600,10.631676513671875,-0.18909049322605131,0.6686804745808244,-0.73833707139194
1789548299818646000,10.64164599609375,-1.463569162017107,1.3676783460140227,-1.0371471456177532
1789548299828615000,10.651614990234375,-0.7814344548404216,0.23754940370768307,-0.24520558101665227
1789548299838584000,10.661583984375,-0.9723141695708036,0.5338309823691845,-0.5776319109771401
1789548299848553000,10.671552978515624,-0.5673918911874294,0.24387130020558834,-0.175722769869864
1789548299858521900,10.68152197265625,-0.4388502669483423,0.582103722628951,-0.7669581857204437
1789548299868491000,10.691490966796875,1.090388760331273,-0.8502847037047148,-0.2535788570864126
1789548299878460000,10.7014599609375,0.7981786688923835,-0.8479466161459683,-0.998455157521367
1789548299888428800,10.7114287109375,-0.33312077849805355,0.5436237698480486,-0.5199534463273361
1789548299898398000,10.72139794921875,-0.025056699845194815,0.1046475384324789,-0.9314000484455376
1789548299908366800,10.731366943359374,-0.4468804286688566,0.06268734232038259,-1.3318842713162302
1789548299918336000,10.7413359375,-0.3733452368587255,-0.2753060106500983,0.3518914203437045
1789548299928305000,10.751304931640625,0.10612520976960658,-0.12524959695637225,0.6483921581812202
1789548299938274800,10.76127490234375,-0.2747469154626131,0.3910778774261474,0.9422039126630872
1789548299948244000,10.771243896484375,-0.05702127938270569,-0.21450638177245854,0.1993177996646613
1789548299958212900,10.781212890625,-0.1275315704137087,-0.8249103162124752,0.07519998321719468
1789548299968181800,10.791181640625,-0.06571370440423488,-0.9364119583234191,0.473228994955495
1789548299978151000,10.80115087890625,-0.1381663616746664,-0.26707243531197306,-0.2491646208407357
1789548299988119800,10.811119873046875,0.7960077545940876,-0.10130436548441647,0.3334937034636736
1789548299998089000,10.8210888671875,0.6366390304148197,-0.4656836210772395,0.08912481073318049
1789548300008057900,10.831057861328125,0.10715163020789623,-0.06876958484351635,0.059244599721673875
1789548300018026800,10.84102685546875,-0.03252455150783062,0.27032617641091344,0.061896703399345276
1789548300027996000,10.850995849609374,-0.054417234364151953,0.17410335197448729,-0.1388012437784113
1789548300037964800,10.86096484375,0.08669102598130703,0.2997144757196307,0.5975393017677589
1789548300047934000,10.870933837890625,-0.14821955365538597,0.04281827424615621,-0.2853801723536104
1789548300057903000,10.880903076171874,-0.584813566109538,0.5748559434577822,0.5481664547789842
1789548300067872000,10.8908720703125,-0.25570494586229325,-0.21613690558373927,0.5558483510510995
1789548300077841200,10.900841064453125,-0.13646072680056096,-0.4319751204818487,-0.11304547401946037
1789548300087810000,10.91081005859375,-0.22158991029262542,0.30282559347748755,-0.21313549527805298
1789548300097779000,10.920779052734375,1.0009025506734848,-0.519939527399838,0.35790333757698534
1789548300107748000,10.930748046875,0.9707155022025108,-0.5960960076242685,0.5095265621960163
1789548300117717000,10.940717041015626,0.986754198333621,-0.1032096145838499,0.46382498759850854
1789548300127686100,10.95068603515625,0.7567495109170674,0.01808744535446167,-0.038837077389191836
1789548300137655000,10.960655029296875,0.14287760810554026,0.5057932208865881,0.19822985829748213
1789548300147625000,10.970625,-1.1483896984010935,0.29394729049503804,-0.20230132725378497
1789548300157594000,10.980593994140625,-1.6399509803175925,-0.12051029347479343,0.5628660112608224
1789548300167563300,10.990563232421875,-2.914149663123488,0.9270409033879637,0.4497164923449978
1789548300177532200,11.0005322265625,-1.0442810891509056,-0.5931421262547374,0.35621494609862564
1789548300187501300,11.010501220703125,-0.3371791139781475,-0.9113008979424834,0.6592197686005383
1789548300197470200,11.02047021484375,1.0924147132009268,-0.6331511882990598,0.036107908153627064
1789548300207439000,11.030439208984374,1.813669716888666,-1.082729477749765,0.11174697690783068
1789548300217408300,11.040408203125,2.299341356244683,-1.5103212685808538,0.7786553455159068
1789548300227377200,11.050377197265625,0.9467635487288236,0.40890053436458107,-0.517008588514477
1789548300237346000,11.060345947265626,0.7382172444045543,0.12829437147974967,0.12174359812941402
1789548300247315200,11.070315185546875,-0.5745937853902578,0.5462020959034561,0.08253377843769266
1789548300257284000,11.0802841796875,-0.975614380159974,1.2740429077222943,0.1074951464159414
1789548300267253200,11.090253173828126,-0.4506459186822176,0.6404518667012453,0.3048134062938392
1789548300277222100,11.10022216796875,-0.4353045571655035,1.192335515372455,0.6552393937274813
1789548300287191000,11.11019091796875,0.10990531283020973,0.8140227192342281,0.46781106155999
1789548300297160200,11.12016015625,0.03950315834879875,1.301678810405731,-0.11175924273435957
1789548300307129000,11.130129150390625,0.30711773771345613,0.533716123817861,0.5156404419664293
1789548300317098200,11.14009814453125,-0.6664385408729314,1.0408508224412798,-0.08926724227801897
1789548300327067100,11.150067138671876,-1.6356360397279261,1.5303212695583701,0.12885255335178225
1789548300337036000,11.1600361328125,-0.9025228404641151,0.7652186485767364,-0.3006837774095125
1789548300347005200,11.170005126953125,-0.8077128054350614,0.7324217098683118,-0.45755346958097065
1789548300356974000,11.17997412109375,-0.13456979848742484,-0.22315409086942672,0.4342663001589477
1789548300366943200,11.189943115234374,0.7581038481354713,-0.04973462950587272,0.8554981275040656
1789548300376912100,11.199912109375,0.7569961791545152,-0.04611380866020918,0.863126649621129
1789548300386881000,11.209881103515626,0.982774188786745,-0.6600213673070072,0.45504207128193225
1789548300396851000,11.219850830078125,0.35877661328017707,-0.8101201588377356,-0.7929710172466933
1789548300406820000,11.229820068359375,-0.12395955714583397,-0.53549920784235,0.044370554322609675
1789548300416789000,11.2397890625,0.0010965630650520324,-0.43696752194166183,-0.2552892229345627
1789548300426758100,11.249758056640625,0.49943245368301864,-0.671636986298859,0.07108679401101545
1789548300436727000,11.25972705078125,1.037858947148919,-1.0259987057462334,-0.5700098186008632
1789548300446696000,11.269696044921876,1.0054729273289442,-0.6172197519347071,-0.7124415095698088
1789548300456665000,11.2796650390625,0.5700181480377913,-0.0038262802898883816,-0.8264169213831424
1789548300466634000,11.289634033203125,0.13638766156435012,-0.04060644341558218,-0.7911457015156745
1789548300476603100,11.29960302734375,-0.1218102701574564,0.09644377371072768,-0.3058400824604556
1789548300486572000,11.309572021484374,0.13554185838997362,-0.19527064316570758,-0.39242143752221015
1789548300496541000,11.319541015625,-0.670005293443799,0.2020899677917361,-0.7361754363786429
1789548300506510000,11.329510009765626,-0.9493056344270706,0.22474340588748454,-0.5569852095939218
1789548300516479000,11.33947900390625,-0.010994272223114967,-0.5325196075096726,-0.8124525473080575
1789548300526448000,11.3494482421875,0.11362930178940296,-0.17431436437666414,-0.7149135257065296
1789548300536417000,11.3594169921875,0.8193804468750954,-0.7341030870839953,-0.08695473668510094
1789548300546386000,11.369385986328124,0.7471914089769125,-0.7096595507010817,-0.508775780361332
1789548300556355000,11.37935498046875,0.9341811305314301,-0.5738286462366581,0.021312695577857085
1789548300566324000,11.389323974609376,0.6207242529243231,0.18546616524904966,0.00466527013098821
1789548300576292900,11.39929296875,0.4479664703398943,0.3732692490130663,-0.22594658939847723
1789548300586262000,11.409261962890625,-0.5755266823261976,-0.01906242786645889,-0.6549338349096476
1789548300596231000,11.41923095703125,-1.5559996084332466,0.6933043359667063,-0.6092452659241855
1789548300606200000,11.429199951171874,-2.4487539190769194,1.1084618848994374,-0.30786234553568065
1789548300616169000,11.4391689453125,-1.1325725360661745,-0.25349516085833307,-0.1451170941280201
1789548300626137900,11.449137939453125,-0.27183833453953266,-0.1447451555430889,0.17680148675097151
1789548300636107000,11.45910693359375,0.3516787639737129,0.20054478417634963,-0.1801968465439975
1789548300646076200,11.469076171875,1.5035224022209643,-0.8662462429463863,-0.09339885305687784
1789548300656045300,11.47904541015625,1.2980991983532906,-0.016327742205560207,0.2523813178649172
1789548300666014200,11.48901416015625,1.4504846395164728,0.7037436046555637,0.17605908915214238
1789548300675984100,11.498984130859375,2.2390935160309073,-0.040408290494978426,0.43555352695789185
1789548300685953000,11.508953125,1.222151684704423,0.48883331825733184,-0.1703397981898859
1789548300695922200,11.518922119140624,-0.33541970309019087,1.6493974385768173,-0.3211092189911753
1789548300705891000,11.52889111328125,-1.0602326915204525,1.260516778934002,-0.47427390089854593
1789548300715860200,11.538860107421876,-0.8795575599402189,0.2870651297658682,0.05740869866455905
1789548300725829000,11.5488291015625,-1.4118272843420505,0.6586696604371071,0.3499304955342784
1789548300735798000,11.558798095703125,-1.2016197688072918,0.7042009930342435,-1.1861448440387845
1789548300745767200,11.56876708984375,-0.35513562642931934,0.3906462080106139,-0.17485848119072614
1789548300755736000,11.578736083984374,0.2619336111187935,0.34946810218691826,-0.4294733667939901
1789548300765705200,11.588705322265625,0.599592033046484,0.11343874765336513,-1.0547440309762954
1789548300775674000,11.598674072265625,0.995325627323985,-0.17434096012264488,-0.488628224139288
1789548300785643000,11.60864306640625,-0.17830664888322353,1.0726119883611798,-0.5883895249001682
1789548300795612200,11.618612060546875,0.15011457362174987,0.5311372132405638,-0.6053043462786823
1789548300805581000,11.6285810546875,-0.17534721455574034,0.07046732867211103,-0.16489267523251472
1789548300815550200,11.63855029296875,-0.9359306045472622,0.015338146646320818,-0.09860193812530488
1789548300825519000,11.64851904296875,-1.8333377094328402,0.2631622761309147,-0.31336189280003307
1789548300835488000,11.658488037109375,-1.66979549896121,-0.14927373888343573,-1.0210697249114513
1789548300845457200,11.66845703125,-0.5859557218819856,-1.0762079670265317,-0.5945824247235432
1789548300855426000,11.678426025390625,0.5908996080249548,-0.947770095422864,0.09098320674989371
1789548300865395000,11.68839501953125,1.4426391867130994,-0.7940235950395464,-0.9255285991288721
1789548300875364000,11.698364013671876,2.986243423953652,-1.5724419169291852,-0.28720291253505276
1789548300885333000,11.7083330078125,2.0038158566474915,0.03458294534236193,-0.1982628107190132
1789548300895302100,11.71830224609375,0.23544833977520466,0.6049558981671929,0.3230942553285509
1789548300905271000,11.72827099609375,-1.301298871177435,0.574854482153058,-0.1338759162054397
1789548300915240000,11.738239990234375,-1.8584587066859006,1.182490120923519,-1.0342797734878957
1789548300925209000,11.748208984375,-1.5617600716561078,0.18585896395891904,-0.40593751984052356
1789548300935178000,11.758177978515626,-1.2507114242345094,0.04235884004086256,-0.10398067202158272
1789548300945147100,11.768147216796875,-1.0204811113685368,-0.17380144641846418,0.3643246758613735
1789548300955116000,11.778115966796875,-0.04503916516602039,-0.6518211097165941,0.06958197893863544
1789548300965085000,11.7880849609375,-0.0319938056319952,-0.2424494507089257,0.18388198306383563
1789548300975054000,11.79805419921875,0.5106786548405885,-1.1886270162433386,0.6440278985571116
1789548300985023000,11.80802294921875,0.41686756772100925,-0.4505719766631722,-0.21483080968754364
1789548300994992000,11.8179921875,0.622356238040328,-0.4618216849520802,0.2541337510228157
1789548301004961000,11.8279609375,-0.40843525494039057,0.32141572765707965,-0.7376091955088079
1789548301014930000,11.837929931640625,1.1446879212737082,-0.5434519204124808,-0.21334395039696244
1789548301024900000,11.847900146484376,2.402316577550769,-1.1474497872024774,-0.44308198623396455
1789548301034869200,11.857869140625,3.6434301523566246,-1.1201575833901762,-0.012509919216763227
1789548301044837600,11.867837646484375,4.337274586549401,-0.6217994809404015,0.5100890549169853
1789548301054806800,11.877806884765626,6.24706132941246,-0.47833179798722264,-0.20994762248955665
1789548301064775700,11.887775634765624,3.4809266372829675,0.9068336894005536,-0.06393723278362304
1789548301074744600,11.89774462890625,-4.6907677064687014,4.305808019661903,-0.18848116568867115
1789548301084713700,11.907713623046876,-8.583229902794956,3.725298580487072,-1.66573497152403
1789548301094682600,11.9176826171875,-5.788100002327561,0.14188801254630087,0.48110981133319436
1789548301104651800,11.92765185546875,-4.30312798679769,-0.21008242785036563,0.5650283769264817
1789548301114620700,11.93762060546875,-2.459659343972802,-0.040972061857581135,1.1550829124294222
1789548301124589600,11.947589599609374,-0.17844225796163082,-0.3017868980795145,0.4842508127726614
1789548301134558700,11.957558837890625,1.3973153593868017,-0.7185591887325048,0.11940876197367906
1789548301144527600,11.967527587890626,2.508293318760395,-2.440009179346263,0.15215576059315353
1789548301154496800,11.977496826171874,2.1379443411082026,-1.4081144012987612,-0.7620157608821988
1789548301164465700,11.987465576171875,2.410313421523571,-0.48149113880097866,0.7639911526083946
1789548301174434600,11.9974345703125,1.6638976730942725,0.003389642438292503,-0.7435933114197105
1789548301184403700,12.00740380859375,1.57505326847136,-0.9422294124305247,-1.4161153369247912
1789548301194372600,12.01737255859375,-0.25249884329736233,0.15609364803135395,-0.44221879353336985
1789548301204341800,12.027341796875,-1.0783417641848325,0.8431114510744809,-1.4039106659986078
1789548301214310700,12.037310546875,-0.7834756052792072,1.3422569045096635,-0.35937596741281447
1789548301224279600,12.047279541015625,-1.5244734203130006,1.8386247099250554,-0.6142685009136796
1789548301234248700,12.057248779296875,-1.0366267750054596,0.918535817632079,-0.9390293742801994
1789548301244217600,12.067217529296874,-1.4925257919102906,2.0155738067194817,0.9494175703689456
1789548301254186800,12.077186767578125,-1.2123054134726523,2.554571378071606,1.2701983611233532
1789548301264155600,12.08715576171875,-1.3825287091434002,2.7522891221284866,1.0238112056393176
1789548301274124500,12.09712451171875,-1.0151707300007342,1.9190435237690806,-0.14583826627573
1789548301284093700,12.10709375,-0.848717600518465,0.8199813353776931,-0.12476868157163262
1789548301294062600,12.1170625,1.0410475140571593,-0.7769687076032161,0.594353620936349
1789548301304031500,12.127031494140626,1.8726146578103302,-2.1566677462786434,-0.214959514101129
1789548301314000600,12.137000732421875,2.945575313478708,-4.968098208683729,-0.0025083295591175553
1789548301323969500,12.146969482421875,1.3501549642831085,-2.3819769693553448,-0.9966031729791313
1789548301333938700,12.156938720703126,1.3346066820174456,-0.059147185495495795,-1.699523990009725
1789548301343907600,12.166907470703125,1.2519202155023812,0.9404977663323283,-1.9423754456482827
1789548301353876700,12.176876708984375,2.199776235643029,0.08124415875226258,-1.467595641054213
1789548301363846000,12.186845947265626,1.5517700080394743,-0.28971126036047934,0.11114455403527244
1789548301373814800,12.196814697265625,-0.8282406296789646,0.36465719575136896,-0.7915774439964443
1789548301383784000,12.206783935546875,-2.2515946856856344,0.46544104449301954,-0.1715982738183811
1789548301393752800,12.2167529296875,-1.8391192154437301,0.14178104504048825,-0.438243314031139
1789548301403721700,12.2267216796875,-0.8891308594495058,-0.49614071866124865,-0.566814383560419
1789548301413691000,12.23669091796875,-0.5672790784627199,-1.409222947062552,-0.273104847344011
1789548301423659800,12.24665966796875,-0.2992319528996944,-1.2819906518563629,-0.25772567456755785
1789548301433628700,12.256628662109375,0.38350598086714743,-0.8158022961273789,-0.5902008486384526
1789548301443597800,12.266597900390625,1.244749885481596,-0.6115098498553038,-0.2937480781285092
1789548301453566700,12.276566650390626,1.9662188241809606,-0.7007485144928097,0.2121692257954739
1789548301463535900,12.286535888671875,1.4036907396376133,-1.1408777153357863,-0.5895072768837213
1789548301473504800,12.2965048828125,-0.6062292791038751,0.987496248872578,-1.4980493776373565
1789548301483473700,12.3064736328125,-1.771026506948471,1.7379948827013372,-0.37919118640795346
1789548301493442800,12.31644287109375,-1.2104045482873915,0.009732581724226474,0.365654974617064
1789548301503411700,12.32641162109375,-0.6210632756203412,0.03941080389022827,0.33082959882095453
1789548301513380900,12.336380859375,-0.5954314062356949,0.9348913246273994,1.1093724238730966
1789548301523349800,12.346349853515624,1.3144547053486109,-0.3094309830918908,-0.9967788948722183
1789548301533319700,12.356319580078125,1.081662433040142,0.3399678679138422,0.10306976772174238
1789548301543288800,12.366288818359376,1.1522487119168043,0.5144494055509568,0.48719373435676094
1789548301553257700,12.3762578125,1.3492857802331446,-0.3748746383830905,0.08160457129618152
1789548301563226600,12.3862265625,0.8467711426258087,0.2959796731054783,0.11979975231895222
1789548301573195800,12.39619580078125,0.1577607044607401,1.9087427867680786,-0.3463886947415769
1789548301583164700,12.40616455078125,0.09726268887817859,0.6467758090257645,-0.2967844318834133
1789548301593133600,12.416133544921875,-0.17962474574446677,-0.11263970623016356,-0.2880379203207791
1789548301603102700,12.426102783203126,-0.593223082536459,0.4179670533955097,-0.21358565019834785
1789548301613071600,12.436071533203124,-1.3236720310270786,0.8064800487697124,0.10312725179633125
1789548301623040800,12.446040771484375,-1.3636930757701395,-0.2683350025936961,-1.1374191723797469
