time,seconds_elapsed,z,y,x
1789548289250055200,0.07305517578125,0.15575870871543884,0.08511116355657578,-0.015056447125971317
1789548289260025000,0.083025146484375,0.14259763062000275,0.09025559574365616,-0.0403578095138073
1789548289269994000,0.092993896484375,0.09133976697921753,0.06844217330217361,-0.0015454323729500175
1789548289279963100,0.102963134765625,0.07341189682483673,0.06279627233743668,0.015276158228516579
1789548289289933000,0.11293310546875,0.017007213085889816,0.09020872414112091,-0.01019830908626318
1789548289299902000,0.12290185546875,0.006403038278222084,0.05542623996734619,-0.02612347900867462
1789548289309870800,0.132870849609375,-0.09570282697677612,0.06847120076417923,0.0154929393902421
1789548289319841000,0.142841064453125,-0.13686729967594147,0.06390228122472763,0.024864602833986282
1789548289329810000,0.152809814453125,-0.15797339379787445,0.08095796406269073,0.020973192527890205
1789548289339778800,0.16277880859375,-0.1666976362466812,0.04812145605683327,0.03280455246567726
1789548289349748700,0.172748779296875,-0.12982723116874695,0.0751461461186409,0.010702711530029774
1789548289359718000,0.1827177734375,-0.14884620904922485,0.0705772340297699,-0.0030828751623630524
1789548289369686800,0.192686767578125,-0.1438588947057724,0.08045355975627899,0.03057948127388954
1789548289379657000,0.202656982421875,-0.15448544919490814,0.08541955798864365,0.016115853562951088
1789548289389626000,0.212626220703125,-0.1833232194185257,0.06961023807525635,0.06351426243782043
1789548289399595000,0.222594970703125,-0.1797865480184555,0.07390858232975006,0.05588696897029877
1789548289409565000,0.23256494140625,-0.1452762335538864,0.06445169448852539,0.0578095018863678
1789548289419534000,0.2425341796875,-0.12759897112846375,0.04831719771027565,0.08031055331230164
1789548289429503000,0.2525029296875,-0.08327704668045044,0.04577867314219475,0.0752452164888382
1789548289439473000,0.262472900390625,-0.05390717461705208,0.06418963521718979,-0.001931058126501739
1789548289449441800,0.27244189453125,-0.021556423977017403,0.0520528145134449,-0.004025368019938469
1789548289459412000,0.282411865234375,0.01852814480662346,0.01056422758847475,0.0394294299185276
1789548289469380900,0.292380859375,0.04050108790397644,0.05224349722266197,0.026208167895674706
1789548289479349800,0.302349853515625,0.03259176388382912,0.039328232407569885,0.009949303232133389
1789548289489320000,0.31231982421875,-0.016769126057624817,0.01678404025733471,0.020809674635529518
1789548289499289000,0.3222890625,-0.044667068868875504,0.015666045248508453,-0.007000385317951441
1789548289509258000,0.332258056640625,-0.04592940956354141,0.010085124522447586,-0.011387676931917667
1789548289519228000,0.342227783203125,-0.03814472258090973,-0.019946543499827385,0.0043742419220507145
1789548289529197000,0.352197021484375,-0.04509131237864494,-0.007325024344027042,0.017431188374757767
1789548289539166000,0.362166015625,-0.028359469026327133,-0.032947562634944916,0.037701305001974106
1789548289549136000,0.372135986328125,-0.008992696180939674,-0.0024738102219998837,0.019092468544840813
1789548289559105000,0.38210498046875,-0.023971645161509514,0.03958842158317566,0.012469985522329807
1789548289569074000,0.392073974609375,-0.028745627030730247,0.026098977774381638,0.01853586733341217
1789548289579043800,0.4020439453125,0.00020293287525419146,-0.015994679182767868,0.03061836212873459
1789548289589012700,0.4120126953125,0.00632021389901638,0.007444334216415882,-0.012123774737119675
1789548289598982000,0.42198193359375,-0.01053040474653244,0.00948138628154993,-0.038297586143016815
1789548289608952000,0.4319521484375,-0.05401316657662392,0.025014540180563927,-0.03236140310764313
1789548289618921000,0.4419208984375,0.11862997710704803,-0.062370967119932175,0.029814355075359344
1789548289628890000,0.45189013671875,-0.1703786551952362,0.09449321776628494,0.009660882875323296
1789548289638860000,0.461860107421875,-0.22671569883823395,-0.004882107023149729,0.033828005194664
1789548289648829000,0.471828857421875,-0.1135081872344017,-0.11706909537315369,0.0012998889433220029
1789548289658798000,0.481798095703125,-0.1604733020067215,-0.09697634726762772,-0.02646782621741295
1789548289668768000,0.49176806640625,-0.28137069940567017,-0.00012250541476532817,-0.02720791846513748
1789548289678737000,0.50173681640625,-0.19865183532238007,-0.09160448610782623,0.012716860510408878
1789548289688706000,0.5117060546875,-0.1368981897830963,-0.07127337902784348,0.02786199189722538
1789548289698676000,0.521676025390625,-0.16031111776828766,-0.008577242493629456,0.02948652021586895
1789548289708644900,0.531644775390625,-0.07334824651479721,-0.017357951030135155,-0.013190902769565582
1789548289718613800,0.54161376953125,-0.006090649403631687,-0.042998068034648895,-0.0039278962649405
1789548289728584000,0.551583984375,0.003994741477072239,-0.026332538574934006,-0.016438094899058342
1789548289738553000,0.561552978515625,-0.012255867011845112,-0.009016931056976318,-0.027481691911816597
1789548289748522000,0.57152197265625,-0.009005745872855186,-0.04815234988927841,-0.00040293627534992993
1789548289758492000,0.581491943359375,0.025379657745361328,-0.051174502819776535,-0.04276876896619797
1789548289768461000,0.5914609375,-0.019781693816184998,-0.04157940298318863,-0.03315528854727745
1789548289778430000,0.601429931640625,-0.0975651741027832,-0.051773447543382645,-0.0007560714147984982
1789548289788399900,0.61139990234375,-0.10855124145746231,-0.07773847132921219,0.010940798558294773
1789548289798369000,0.621369140625,-0.12107822299003601,-0.060141634196043015,0.007967112585902214
1789548289808338000,0.631337890625,-0.11528398096561432,-0.08982948958873749,-0.012416988611221313
1789548289818307800,0.641307861328125,-0.1349218636751175,-0.14656654000282288,0.0167374350130558
1789548289828277000,0.651277099609375,-0.05006769299507141,-0.17387592792510986,-0.005155080929398537
1789548289838246000,0.661245849609375,-0.09617819637060165,-0.11766191571950912,-0.006256031803786755
1789548289848216000,0.671216064453125,-0.046662576496601105,-0.13808943331241608,0.007521831896156073
1789548289858185000,0.68118505859375,0.05890033394098282,-0.17933860421180725,-0.008387892507016659
1789548289868155000,0.69115478515625,0.09589456766843796,-0.17805016040802002,-0.034095652401447296
1789548289878124000,0.7011240234375,0.1997879445552826,-0.18503643572330475,-0.03988749533891678
1789548289888093000,0.711093017578125,0.3750990331172943,-0.1448432058095932,-0.0674954205751419
1789548289898062000,0.72106201171875,0.35566142201423645,-0.03254036605358124,-0.026524018496274948
1789548289908032000,0.731031982421875,0.3120551109313965,0.0331110805273056,0.003049319377169013
1789548289918001000,0.7410009765625,0.44671064615249634,-0.07733579725027084,-0.07012023031711578
1789548289927970800,0.750970703125,0.1942879855632782,-0.05985081568360329,-0.05944841355085373
1789548289937940000,0.76093994140625,0.10027280449867249,-0.10783432424068451,-0.009379120543599129
1789548289947908900,0.770908935546875,0.20096400380134583,-0.16824759542942047,-0.06721685081720352
1789548289957877800,0.780877685546875,0.15803037583827972,-0.13171781599521637,0.015019696205854416
1789548289967848000,0.790847900390625,0.21641512215137482,-0.08130630850791931,-0.040279779583215714
1789548289977817000,0.800817138671875,0.4155609905719757,-0.11083996295928955,-0.03473933786153793
1789548289987786000,0.810785888671875,0.4815988540649414,-0.0758976936340332,-0.06528206914663315
1789548289997756000,0.820755859375,0.44402751326560974,-0.04692995920777321,0.0038930089212954044
1789548290007725000,0.83072509765625,0.503070056438446,-0.0858970656991005,-0.019756393507122993
1789548290017694000,0.84069384765625,0.5205414891242981,-0.027826305478811264,-0.037101563066244125
1789548290027663000,0.8506630859375,0.4930049180984497,-0.000050333743274677545,-0.075250543653965
1789548290037632000,0.860632080078125,0.46505555510520935,0.005590241402387619,-0.055026501417160034
1789548290047601000,0.870600830078125,0.4367794692516327,0.006668289192020893,-0.03206845372915268
1789548290057570800,0.88057080078125,0.37107208371162415,0.017102021723985672,-0.03110785223543644
1789548290067540000,0.8905400390625,0.3063279688358307,0.04339620843529701,-0.05132044479250908
1789548290077508900,0.9005087890625,0.29784339666366577,0.052920740097761154,-0.08382006734609604
1789548290087478800,0.910478759765625,0.25688186287879944,0.052745770663022995,-0.03323465213179588
1789548290097448000,0.920447998046875,0.27073028683662415,0.027349065989255905,-0.003683950752019882
1789548290107416800,0.930416748046875,0.23395630717277527,0.06801766902208328,-0.0023254721891134977
1789548290117387000,0.940386962890625,0.18027976155281067,0.11883930116891861,-0.019754795357584953
1789548290127356200,0.950356201171875,0.13736557960510254,0.0958772599697113,0.012860405258834362
1789548290137325000,0.960324951171875,0.13816159963607788,0.09133976697921753,0.02863137796521187
1789548290147295000,0.970294921875,0.15471288561820984,0.09603199362754822,0.0019438412273302674
1789548290157264000,0.980263916015625,0.13953979313373566,0.09780032932758331,-0.0034072482958436012
1789548290167233000,0.99023291015625,0.13519030809402466,0.08809603750705719,-0.019542807713150978
1789548290177203000,1.000202880859375,0.07902956753969193,0.11061172932386398,-0.014722220599651337
1789548290187171800,1.010171875,0.024868331849575043,0.13868491351604462,-0.00016484966909047216
1789548290197141000,1.02014111328125,0.01943148858845234,0.13286350667476654,0.010237457230687141
1789548290207111000,1.03011083984375,0.0365351065993309,0.11715858429670334,0.022189991548657417
1789548290217079800,1.040079833984375,0.026141056790947914,0.08235213160514832,0.00043888893560506403
1789548290227049000,1.050049072265625,0.005607285536825657,0.09172432869672775,0.017482321709394455
1789548290237019100,1.06001904296875,-0.0054906392470002174,0.11928271502256393,0.02834482304751873
1789548290246988000,1.069988037109375,0.009458749555051327,0.13039103150367737,0.019843745976686478
1789548290256957000,1.07995703125,-0.030488399788737297,0.17898572981357574,0.021455224603414536
1789548290266927000,1.089927001953125,-0.06527061760425568,0.12749537825584412,0.05234469845890999
1789548290276896000,1.09989599609375,-0.09920168668031693,0.11161547899246216,0.01599814184010029
1789548290286865000,1.109864990234375,-0.14039519429206848,0.0842064917087555,0.022334067150950432
1789548290296835000,1.1198349609375,-0.13637515902519226,0.14619795978069305,-0.09669139236211777
1789548290306804000,1.129803955078125,-0.22878924012184143,0.11912132799625397,-0.04074769467115402
1789548290316772900,1.13977294921875,-0.25125086307525635,0.08900630474090576,-0.0033420007675886154
1789548290326742800,1.14974267578125,-0.2566187381744385,0.05108422413468361,0.036728452891111374
1789548290336712000,1.1597119140625,-0.2603974938392639,0.08997995406389236,0.011514975689351559
1789548290346680800,1.169680908203125,-0.23566178977489471,0.10246086120605469,0.022171348333358765
1789548290356651000,1.179651123046875,-0.19613595306873322,0.1367703676223755,0.010241186246275902
1789548290366620200,1.1896201171875,-0.24759142100811005,0.15337224304676056,0.04754727706313133
1789548290376589000,1.199589111328125,-0.2618121802806854,0.13915416598320007,0.028068119660019875
1789548290386558000,1.209557861328125,-0.2774880528450012,0.11028949171304703,0.01954467222094536
1789548290396528000,1.219528076171875,-0.3452964127063751,0.09668739140033722,0.002918558195233345
1789548290406497000,1.2294970703125,-0.3652850389480591,0.07574935257434845,0.033016007393598557
1789548290416466000,1.2394658203125,-0.32306647300720215,0.07308406382799149,-0.020058397203683853
1789548290426435800,1.249435791015625,-0.3878382742404938,0.10449551790952682,0.005879194475710392
1789548290436405000,1.259405029296875,-0.32600313425064087,0.085364431142807,0.008006527088582516
1789548290446374000,1.269373779296875,-0.2558687925338745,0.04563246667385101,-0.0025832662358880043
1789548290456343800,1.27934375,-0.2774856686592102,0.06596410274505615,0.002305232221260667
1789548290466313000,1.28931298828125,-0.2673073410987854,0.05312127619981766,-0.009942378848791122
1789548290476281900,1.29928173828125,-0.20807330310344696,0.0764273926615715,-0.040893372148275375
1789548290486252000,1.309251953125,-0.20331662893295288,0.05061604082584381,-0.02045147866010666
1789548290496221200,1.31922119140625,-0.19639934599399567,0.08206610381603241,-0.034273549914360046
1789548290506190000,1.329190185546875,-0.09691562503576279,-0.007349791936576366,0.014138988219201565
1789548290516160000,1.339159912109375,-0.07438501715660095,0.028968269005417824,-0.020118584856390953
1789548290526129000,1.34912890625,-0.07841198146343231,0.04020627588033676,-0.04602102190256119
1789548290536098000,1.35909814453125,-0.04809775575995445,0.066396065056324,-0.030288662761449814
1789548290546067000,1.36906689453125,0.0036788906436413527,0.022311164066195488,-0.026880616322159767
1789548290556036900,1.379036865234375,-0.0526413731276989,0.05751335993409157,-0.010161823593080044
1789548290566006000,1.389006103515625,0.015014369040727615,0.0014748586108908057,-0.00881985668092966
1789548290575975000,1.398974853515625,0.07915154099464417,0.04039349406957626,-0.039800677448511124
1789548290585944800,1.40894482421875,0.0818762257695198,0.049790460616350174,-0.04171974956989288
1789548290595914000,1.4189140625,0.07921625673770905,0.07821810245513916,-0.031736891716718674
1789548290605883000,1.4288828125,0.10183874517679214,0.040236636996269226,-0.002665824256837368
1789548290615853000,1.43885302734375,0.027348000556230545,0.07960055023431778,0.0011747203534469008
1789548290625822000,1.448822021484375,0.06229346618056297,0.053641658276319504,0.01506763231009245
1789548290635791000,1.458791015625,0.10138068348169327,0.04652515798807144,-0.009710151702165604
1789548290645761000,1.468760986328125,0.019942017272114754,0.042878489941358566,0.015358716249465942
1789548290655730000,1.47872998046875,-0.015260179527103901,0.06059996411204338,-0.0016226640436798334
1789548290665699000,1.488698974609375,-0.01458666566759348,0.01016981340944767,0.05796077102422714
1789548290675668000,1.49866796875,-0.02449069544672966,0.03458567336201668,0.00512738386169076
1789548290685638000,1.508637939453125,-0.052439507097005844,0.009081113152205944,-0.016289224848151207
1789548290695607000,1.51860693359375,-0.07892091572284698,-0.012317386455833912,0.019690880551934242
1789548290705576000,1.528575927734375,-0.08216118067502975,-0.009494435973465443,0.02544357441365719
1789548290715545900,1.5385458984375,-0.06763043999671936,0.027241740375757217,0.008963135071098804
1789548290725515000,1.548514892578125,-0.06766320019960403,0.06410388648509979,-0.011533351615071297
1789548290735484000,1.55848388671875,-0.09631375223398209,0.08488480001688004,0.003959854133427143
1789548290745454000,1.5684541015625,-0.11042957007884979,0.06095949187874794,0.003070358419790864
1789548290755423000,1.578423095703125,-0.12670788168907166,0.05271727219223976,0.047693487256765366
1789548290765392100,1.58839208984375,-0.0708581954240799,0.05261074751615524,0.050760116428136826
1789548290775362000,1.598362060546875,-0.05753626301884651,0.09427856653928757,-0.006786533165723085
1789548290785331000,1.6083310546875,-0.17301465570926666,0.15378797054290771,0.020423516631126404
1789548290795300000,1.618300048828125,-0.13715599477291107,0.07477517426013947,0.03681660443544388
1789548290805269000,1.62826904296875,-0.1272684782743454,0.038180407136678696,0.02081792987883091
1789548290815239000,1.638239013671875,-0.23979581892490387,0.10246592015028,0.00908430851995945
1789548290825208000,1.6482080078125,-0.2436792403459549,0.10100331157445908,0.0007219829712994397
1789548290835177000,1.658177001953125,-0.19920951128005981,0.031190676614642143,-0.01413712464272976
1789548290845147000,1.66814697265625,-0.2612382471561432,0.041850510984659195,-0.020688500255346298
1789548290855115800,1.67811572265625,-0.34136077761650085,0.04536242038011551,-0.0136036928743124
1789548290865085000,1.6880849609375,-0.2792593240737915,-0.004473311826586723,-0.028566131368279457
1789548290875055000,1.69805517578125,-0.2650282084941864,-0.0144135607406497,-0.023546071723103523
1789548290885024000,1.70802392578125,-0.33655059337615967,0.0139568280428648,0.026499250903725624
1789548290894993200,1.7179931640625,-0.3088390529155731,0.00780519237741828,0.024748489260673523
1789548290904962000,1.727962158203125,-0.29942506551742554,0.002332396572455764,0.04763489589095116
1789548290914932000,1.737931884765625,-0.30683183670043945,0.017847441136837006,0.012690761126577854
1789548290924901000,1.747901123046875,-0.30479344725608826,-0.01677871309220791,-0.014156032353639603
1789548290934870000,1.7578701171875,-0.3367553949356079,-0.0161275714635849,0.008177235722541809
1789548290944840000,1.76783984375,-0.3177303075790405,-0.02484090067446232,0.0015542207984253764
1789548290954808800,1.777808837890625,-0.30963134765625,-0.028652949258685112,-0.005476790945976973
1789548290964778000,1.787778076171875,-0.30746033787727356,-0.07119561731815338,0.06731725484132767
1789548290974748000,1.797747802734375,-0.2615077793598175,-0.07542285323143005,-0.009639844298362732
1789548290984716800,1.807716796875,-0.2998029589653015,-0.041202299296855927,-0.03527756407856941
1789548290994686000,1.81768603515625,-0.30992430448532104,-0.053225938230752945,-0.010039051994681358
1789548291004656000,1.82765625,-0.24531708657741547,-0.10065257549285889,-0.020599285140633583
1789548291014625000,1.837625,-0.2509153187274933,-0.11715192347764969,-0.004379035905003548
1789548291024594200,1.84759423828125,-0.24040567874908447,-0.09368414431810379,0.007570834364742041
1789548291034563600,1.8575634765625,-0.189461812376976,-0.12066676467657089,-0.06735507398843765
1789548291044533500,1.867533447265625,-0.20152272284030914,-0.1375701129436493,-0.02748834900557995
1789548291054502400,1.87750244140625,-0.1497602015733719,-0.17632310092449188,0.03882516175508499
1789548291064471600,1.887471435546875,-0.0932449921965599,-0.1416681855916977,0.05236387252807617
1789548291074441700,1.897441650390625,-0.021867481991648674,-0.13826173543930054,0.012286493554711342
1789548291084410600,1.90741064453125,0.013555489480495453,-0.12054905295372009,-0.04614725336432457
1789548291094379800,1.9173798828125,0.04302949085831642,-0.18864794075489044,-0.005118329077959061
1789548291104348700,1.9273486328125,0.13260145485401154,-0.2236804962158203,0.0029254823457449675
1789548291114318600,1.937318603515625,0.17737211287021637,-0.18747135996818542,-0.04334640875458717
1789548291124287500,1.94728759765625,0.15707989037036896,-0.10782766342163086,-0.04887033626437187
1789548291134256600,1.957256591796875,0.24232688546180725,-0.18024513125419617,-0.02935655787587166
1789548291144226600,1.9672265625,0.25518515706062317,-0.1684665083885193,-0.003204049076884985
1789548291154195500,1.977195556640625,0.264011949300766,-0.17789676785469055,-0.02815733477473259
1789548291164164600,1.98716455078125,0.31440266966819763,-0.1817314475774765,-0.05223151296377182
1789548291174134500,1.997134521484375,0.3512275218963623,-0.17573507130146027,-0.020649351179599762
1789548291184103400,2.007103515625,0.351845920085907,-0.14765790104866028,0.006402239203453064
1789548291194072600,2.017072509765625,0.3685910701751709,-0.17380428314208984,0.0029403960797935724
1789548291204041500,2.02704150390625,0.3496783673763275,-0.13174977898597717,-0.009542904794216156
1789548291214011600,2.03701171875,0.3520858585834503,-0.13093271851539612,-0.014719824306666851
1789548291223980500,2.04698046875,0.3498762547969818,-0.13641856610774994,-0.020386498421430588
1789548291233949700,2.05694970703125,0.3504136800765991,-0.12959420680999756,0.024874722585082054
1789548291243919600,2.066919677734375,0.3626716732978821,-0.11594471335411072,0.03812847658991814
1789548291253888500,2.076888427734375,0.33804967999458313,-0.0752372294664383,-0.026802320033311844
1789548291263857700,2.086857666015625,0.2548069953918457,-0.0727359876036644,-0.002514556748792529
1789548291273826600,2.09682666015625,0.2240820974111557,-0.10329549759626389,0.003991013392806053
1789548291283796500,2.10679638671875,0.1869664192199707,-0.0670703798532486,-0.009303486905992031
1789548291293765600,2.116765625,0.18078894913196564,-0.020960675552487373,-0.0112236263230443
1789548291303734500,2.126734619140625,0.20399680733680725,-0.031558990478515625,-0.05059659853577614
1789548291313704400,2.136704345703125,0.14796416461467743,-0.06427885591983795,-0.007252320181578398
1789548291323673600,2.146673583984375,0.12978915870189667,-0.062131546437740326,0.0006748450105078518
1789548291333642500,2.156642578125,0.09705357998609543,-0.021080518141388893,-0.046480417251586914
1789548291343611400,2.166611328125,0.07389526069164276,-0.01834704913198948,-0.02455594204366207
1789548291353581600,2.17658154296875,0.061885472387075424,-0.034985415637493134,0.024653946980834007
1789548291363550700,2.18655078125,0.06795401871204376,-0.04319567233324051,0.010729876346886158
1789548291373519600,2.19651953125,0.03925206512212753,-0.012117116712033749,-0.04496241360902786
1789548291383489500,2.206489501953125,0.0019060244085267186,-0.005134574603289366,0.01834465190768242
1789548291393458700,2.216458740234375,-0.009275257587432861,0.010072873905301094,0.03056936152279377
1789548291403427600,2.226427490234375,-0.018034394830465317,0.00009054747351910919,0.029287047684192657
1789548291413396500,2.236396484375,-0.01793505810201168,-0.007926632650196552,-0.025409752503037453
1789548291423366700,2.24636669921875,-0.043350402265787125,-0.02467072568833828,0.007778028026223183
1789548291433335600,2.25633544921875,-0.026216955855488777,-0.01227584108710289,-0.002716158051043749
1789548291443304400,2.266304443359375,-0.04343242943286896,0.015037539415061474,0.02214578166604042
1789548291453274400,2.2762744140625,-0.05097796395421028,0.0026964505668729544,0.04061586782336235
1789548291463243500,2.286243408203125,-0.0441320426762104,-0.008931975811719894,0.04213333874940872
1789548291473212400,2.29621240234375,-0.005146558862179518,-0.01949433982372284,-0.022160695865750313
1789548291483181600,2.306181640625,-0.03831862658262253,-0.01672678254544735,-0.005286374595016241
1789548291493151700,2.31615185546875,-0.029441777616739273,0.006016613449901342,0.006274939980357885
1789548291503120600,2.32612060546875,-0.016775785014033318,0.016562199220061302,-0.008328770287334919
1789548291513089500,2.336089599609375,-0.012686766684055328,0.020497018471360207,-0.023807061836123466
1789548291523059700,2.346059814453125,-0.028189826756715775,-0.024700552225112915,-0.00765978405252099
1789548291533028600,2.356028564453125,-0.0296095572412014,0.003777960315346718,-0.02034149132668972
1789548291542997500,2.36599755859375,-0.02544384077191353,-0.024891767650842667,0.019027220085263252
1789548291552966700,2.375966552734375,-0.026142921298742294,0.026320820674300194,-0.0019446401856839657
1789548291562936600,2.3859365234375,0.005688245873898268,0.011926700361073017,-0.021330855786800385
1789548291572905500,2.395905517578125,0.03512416407465935,-0.037880804389715195,0.0537889301776886
1789548291582874600,2.40587451171875,0.04250058904290199,-0.04367770627140999,0.10887748003005981
1789548291592844500,2.415844482421875,0.0667465403676033,-0.038363367319107056,0.09582985937595367
1789548291602813400,2.4258134765625,0.09745864570140839,0.016871923580765724,0.08139339089393616
1789548291612782600,2.435782470703125,0.1286674290895462,-0.006819023750722408,0.01423646043986082
1789548291622751500,2.44575146484375,0.06052566319704056,0.001261273049749434,0.004983573220670223
1789548291632721700,2.4557216796875,0.12508973479270935,-0.05458441376686096,-0.030653515830636024
1789548291642690600,2.465690673828125,0.09872444719076157,-0.01828552968800068,-0.04129950329661369
1789548291652659700,2.47565966796875,0.057904843240976334,0.03266287222504616,-0.08583661168813705
1789548291662628600,2.485628662109375,0.08666485548019409,-0.04679413512349129,-0.060572799295186996
1789548291672598500,2.4955986328125,0.09304339438676834,0.04129364341497421,-0.10501323640346527
1789548291682567700,2.505567626953125,0.07770251482725143,0.0816759541630745,-0.06456541270017624
1789548291692536600,2.51553662109375,0.09099488705396652,0.14170654118061066,-0.09440373629331589
1789548291702506500,2.525506591796875,0.07952838391065598,0.09569723159074783,0.03659795969724655
1789548291712475600,2.5354755859375,0.06771619617938995,0.04854516685009003,0.0919906422495842
1789548291722444500,2.545444580078125,0.1023697778582573,-0.041497908532619476,0.1550670862197876
1789548291732413400,2.555413330078125,0.13657622039318085,0.05396736040711403,0.05449759587645531
1789548291742383400,2.56538330078125,0.06034936010837555,0.10722818225622177,0.017614413052797318
1789548291752352500,2.5753525390625,0.05860605463385582,0.06378190964460373,0.009514675475656986
1789548291762321400,2.5853212890625,0.04579385370016098,0.04165982827544212,-0.0105341337621212
1789548291772291600,2.59529150390625,-0.05326535180211067,0.0655052438378334,0.059609003365039825
1789548291782260700,2.6052607421875,0.020351078361272812,0.05788274109363556,-0.016452210023999214
1789548291792229600,2.615229736328125,0.057023338973522186,0.03429751843214035,-0.0960727334022522
1789548291802198500,2.625198486328125,-0.012136823497712612,0.04464736208319664,-0.03531910851597786
1789548291812168700,2.635168701171875,0.07245049625635147,0.06834816187620163,-0.1470208764076233
1789548291822137600,2.6451376953125,0.012399145402014256,0.010634002275764942,-0.06810395419597626
1789548291832106500,2.6551064453125,-0.03045031800866127,0.09346230328083038,-0.0541527159512043
1789548291842075600,2.66507568359375,-0.015364042483270168,0.11547919362783432,0.0392930768430233
1789548291852045600,2.675045654296875,0.1059890165925026,0.04168699309229851,0.06768104434013367
1789548291862014500,2.685014404296875,0.13901248574256897,0.002697782125324011,0.03157550469040871
1789548291871983600,2.694983642578125,0.13070741295814514,0.013436180539429188,0.014451110735535622
1789548291881953500,2.70495361328125,0.1661365032196045,0.06580724567174911,-0.03303438425064087
1789548291891922400,2.71492236328125,0.13960769772529602,0.09778488427400589,-0.05746515840291977
1789548291901891600,2.7248916015625,0.04397278279066086,0.08334602415561676,-0.039633963257074356
1789548291911860500,2.734860595703125,0.04857232794165611,0.018805911764502525,-0.040460873395204544
1789548291921830700,2.74483056640625,0.040341831743717194,0.051485829055309296,-0.023865917697548866
1789548291931799600,2.754799560546875,0.042273156344890594,0.0603400394320488,-0.03224928304553032
1789548291941768700,2.764768798828125,-0.005714877508580685,0.08677057921886444,-0.012898754328489304
1789548291951737600,2.774737548828125,-0.0035116442013531923,0.10032767057418823,-0.12481597065925598
1789548291961707500,2.78470751953125,-0.013798370026051998,0.07944129407405853,-0.21338337659835815
1789548291971676700,2.7946767578125,-0.09099994599819183,0.0512075275182724,-0.13901939988136292
1789548291981645600,2.8046455078125,-0.13344940543174744,0.03413666412234306,-0.018437862396240234
1789548291991614500,2.814614501953125,-0.10318976640701294,0.03953675553202629,-0.04315679147839546
1789548292001584600,2.824584716796875,-0.1378191113471985,0.08136489987373352,-0.05019659176468849
1789548292011553500,2.834553466796875,-0.12333844602108002,0.06069503724575043,-0.11774527281522751
1789548292021522400,2.8445224609375,-0.07304517924785614,-0.055099472403526306,0.0566725991666317
1789548292031492400,2.854492431640625,-0.061402905732393265,-0.0005446164286695421,0.0571594275534153
1789548292041461500,2.86446142578125,-0.16735942661762238,0.11560142785310745,-0.024785241112113
1789548292051430700,2.8744306640625,-0.22547653317451477,0.07536426186561584,0.014795457944273949
1789548292061399800,2.88439990234375,-0.19049671292304993,0.004334294702857733,0.017240239307284355
1789548292071369700,2.89436962890625,-0.1994185596704483,0.0025923210196197033,-0.03700888529419899
1789548292081338600,2.904338623046875,-0.27965107560157776,0.012825250625610352,-0.016767261549830437
1789548292091307500,2.9143076171875,-0.26263242959976196,-0.10498873144388199,0.12215733528137207
1789548292101276700,2.924276611328125,-0.16662439703941345,-0.15394775569438934,0.12731854617595673
1789548292111246600,2.93424658203125,-0.2040197104215622,-0.021938854828476906,0.04880109429359436
1789548292121215500,2.944215576171875,-0.22255663573741913,0.061744324862957,0.021470405161380768
1789548292131184600,2.9541845703125,-0.10471069812774658,-0.021518342196941376,0.054363105446100235
1789548292141153500,2.964153564453125,-0.13408349454402924,-0.014969628304243088,0.02052098698914051
1789548292151123500,2.97412353515625,-0.16168610751628876,-0.03152889758348465,-0.00008788431296125054
1789548292161092600,2.984092529296875,-0.08453938364982605,-0.06511109322309494,-0.06978441029787064
1789548292171061500,2.9940615234375,-0.10205978900194168,-0.04114397615194321,-0.0013648699969053268
1789548292181031700,3.00403173828125,-0.06762085855007172,-0.08472234755754471,0.02870115265250206
1789548292191000600,3.01400048828125,-0.05199981853365898,-0.06406180560588837,0.029028987511992455
1789548292200969700,3.0239697265625,0.016098275780677795,-0.04886101558804512,-0.028181303292512894
1789548292210938600,3.033938720703125,-0.0014077469240874052,-0.03424692153930664,0.023734623566269875
1789548292220908500,3.043908447265625,0.015719041228294373,-0.07160947471857071,0.0785701721906662
1789548292230877700,3.053877685546875,0.06555584073066711,-0.08375907689332962,0.007183876819908619
1789548292240846600,3.0638466796875,0.0795411616563797,-0.1042366549372673,-0.030103040859103203
1789548292250815700,3.073815673828125,0.058399394154548645,-0.058574896305799484,-0.00791571382433176
1789548292260785700,3.08378564453125,0.12889912724494934,-0.027368241921067238,-0.01757659763097763
1789548292270754600,3.093754638671875,0.16844280064105988,-0.0758122056722641,0.007363107521086931
1789548292280723500,3.103723388671875,0.1844944804906845,-0.07919202744960785,-0.026760241016745567
1789548292290692600,3.113692626953125,0.19587336480617523,-0.057320546358823776,-0.04685725271701813
1789548292300662500,3.12366259765625,0.24428777396678925,-0.10531124472618103,-0.011975436471402645
1789548292310631400,3.13363134765625,0.20690524578094482,-0.08019790053367615,0.007926899008452892
1789548292320600600,3.1436005859375,0.1756032556295395,-0.06334914267063141,0.016706807538866997
1789548292330569500,3.153569580078125,0.18557599186897278,-0.09953324496746063,0.02965642884373665
1789548292340539600,3.16353955078125,0.182590052485466,-0.048941709101200104,0.0034730283077806234
1789548292350508800,3.1735087890625,0.19505098462104797,-0.009147425182163715,-0.006366286426782608
1789548292360477700,3.183477783203125,0.19492661952972412,-0.06382425129413605,0.028976790606975555
1789548292370446600,3.193446533203125,0.16742148995399475,-0.05092469975352287,-0.030656179413199425
1789548292380416500,3.20341650390625,0.13379321992397308,-0.037459492683410645,-0.011598599143326283
1789548292390385700,3.2133857421875,0.11362510174512863,0.028981583192944527,-0.022911973297595978
1789548292400354600,3.2233544921875,0.122172512114048,0.030851922929286957,-0.027635356411337852
1789548292410323700,3.23332373046875,0.12750203907489777,-0.019894879311323166,0.0062275356613099575
1789548292420293600,3.243293701171875,0.09882032126188278,-0.026152241975069046,0.0315169133245945
1789548292430262500,3.253262451171875,0.10482441633939743,0.022769227623939514,-0.0003299656673334539
1789548292440231700,3.263231689453125,0.041916292160749435,0.09407003968954086,0.010037453845143318
1789548292450200600,3.27320068359375,0.020802482962608337,0.023129820823669434,0.027043335139751434
1789548292460170500,3.28317041015625,0.014123808592557907,-0.009212139993906021,-0.011264372617006302
1789548292470139400,3.293139404296875,-0.018622687086462975,0.02207813784480095,-0.010306699201464653
1789548292480108500,3.303108642578125,-0.03412707895040512,0.03905525803565979,0.003169161733239889
1789548292490077400,3.313077392578125,-0.03876017779111862,0.006947122048586607,0.013335246592760086
1789548292500047600,3.323047607421875,-0.04065768048167229,-0.0032687638886272907,-0.008539958856999874
1789548292510016800,3.333016845703125,-0.04777444526553154,-0.0109253516420722,-0.009591907262802124
1789548292519985700,3.342985595703125,-0.03260987624526024,0.033365946263074875,-0.006381999235600233
1789548292529954600,3.35295458984375,-0.026203108951449394,0.056525859981775284,-0.05367041751742363
1789548292539924700,3.3629248046875,-0.0880611464381218,0.04588999226689339,-0.028356540948152542
1789548292549893600,3.3728935546875,-0.09289425611495972,0.05391356348991394,0.004668787587434053
1789548292559862500,3.382862548828125,-0.04904690384864807,0.061399444937705994,-0.004848018288612366
1789548292569831700,3.392831787109375,-0.09006650745868683,0.052505552768707275,0.0051747881807386875
1789548292579801600,3.402801513671875,-0.09186440706253052,0.025432921946048737,0.02985510043799877
1789548292589770500,3.4127705078125,-0.05218863487243652,-0.02641243301331997,0.011529357172548771
1789548292599739600,3.42273974609375,-0.1257491409778595,0.027417508885264397,0.012513927184045315
1789548292609708500,3.43270849609375,-0.08774503320455551,0.0442713238298893,0.01667485013604164
1789548292619678500,3.442678466796875,-0.07209309935569763,0.043837230652570724,-0.04926501587033272
1789548292629647600,3.452647705078125,-0.12123055756092072,-0.0020000338554382324,0.018917232751846313
1789548292639616500,3.462616455078125,-0.08861082792282104,0.006844590418040752,0.014398380182683468
1789548292649585400,3.47258544921875,-0.07432669401168823,0.03412121906876564,0.0035712989047169685
1789548292659555600,3.4825556640625,-0.13460202515125275,0.06119731068611145,-0.019234415143728256
1789548292669524700,3.492524658203125,-0.1348656713962555,0.020795559510588646,-0.02359107881784439
1789548292679493600,3.50249365234375,-0.07177192717790604,-0.05558815971016884,0.012446283362805843
1789548292689462800,3.512462890625,-0.10632430762052536,-0.00452817277982831,0.041788727045059204
1789548292699432700,3.5224326171875,-0.09191127866506577,0.02918451651930809,0.0032826124224811792
1789548292709401600,3.532401611328125,-0.05290050059556961,-0.04788283631205559,-0.024525050073862076
1789548292719370500,3.54237060546875,-0.05756742134690285,-0.02641110122203827,-0.02322622574865818
1789548292729339600,3.552339599609375,-0.034319356083869934,0.00036272252327762544,-0.03224848210811615
1789548292739309600,3.5623095703125,-0.013937121257185936,-0.0012386362068355083,0.0037116475868970156
1789548292749278500,3.572278564453125,0.05927877128124237,-0.0742499977350235,0.023366842418909073
1789548292759247600,3.58224755859375,0.05487310141324997,-0.02407417632639408,-0.0019347865600138903
1789548292769216500,3.592216552734375,0.07157324999570847,0.05667340010404587,-0.028840169310569763
1789548292779186400,3.6021865234375,0.1400548368692398,0.048172853887081146,-0.03508767858147621
1789548292789155600,3.612155517578125,0.10560791939496994,-0.007029413711279631,-0.020682908594608307
1789548292799124500,3.62212451171875,0.07862503826618195,-0.023660855367779732,-0.012204201892018318
1789548292809093400,3.63209326171875,0.1270868480205536,-0.025412682443857193,-0.010392719879746437
1789548292819063600,3.6420634765625,0.13012631237506866,0.019216304644942284,-0.02913205325603485
1789548292829032700,3.65203271484375,0.11988858878612518,-0.009704026393592358,-0.049257561564445496
1789548292839001600,3.662001708984375,0.06481228768825531,-0.007200388703495264,-0.008205199614167213
1789548292848970800,3.671970703125,0.08482594043016434,-0.014890000224113464,0.007542870938777924
1789548292858940700,3.681940673828125,0.08185198903083801,0.047018639743328094,-0.02509789541363716
1789548292868909600,3.69190966796875,0.09709272533655167,0.004125769250094891,-0.016763268038630486
1789548292878878700,3.701878662109375,0.1235504299402237,-0.07068508863449097,-0.012572250328958035
1789548292888847600,3.71184765625,0.04983013868331909,-0.010579939931631088,0.006265618838369846
1789548292898816500,3.72181640625,0.04905010014772415,0.04338102787733078,0.004089283756911755
1789548292908786400,3.731786376953125,0.08107727766036987,0.037406228482723236,-0.024828117340803146
1789548292918755600,3.741755615234375,0.06847093999385834,-0.0020421119406819344,-0.019060242921113968
1789548292928724500,3.751724365234375,0.05548989027738571,0.010944793000817299,0.009726130403578281
1789548292938693600,3.761693603515625,0.07101105898618698,0.04889989644289017,0.0016285229939967394
1789548292948663600,3.77166357421875,0.08552608639001846,0.04803463816642761,-0.022286662831902504
1789548292958632400,3.781632568359375,0.006100769154727459,0.043595146387815475,-0.012645487673580647
1789548292968601600,3.7916015625,0.002629871480166912,0.0220352616161108,0.053288787603378296
1789548292978570800,3.80157080078125,0.03423893079161644,0.0661017894744873,0.03380376845598221
1789548292988540700,3.811540771484375,-0.03178109973669052,0.10932968556880951,-0.011979697272181511
1789548292998509600,3.821509521484375,-0.052613142877817154,0.03334890305995941,0.002079928759485483
1789548293008478700,3.831478759765625,-0.06487993150949478,0.01805117167532444,0.023387081921100616
1789548293018447600,3.841447509765625,-0.08931735903024673,0.09545888006687164,-0.019273828715085983
1789548293028417500,3.85141748046875,-0.15164625644683838,0.0805390477180481,0.007296795025467873
1789548293038386400,3.861386474609375,-0.14558063447475433,0.0430353507399559,0.02022271417081356
1789548293048355300,3.871355224609375,-0.12377414107322693,0.08192389458417892,-0.01762453280389309
1789548293058324200,3.88132421875,-0.17211930453777313,0.09188598394393921,0.010359430685639381
1789548293068293400,3.89129345703125,-0.20777742564678192,0.08023039251565933,0.04412378370761871
1789548293078263300,3.90126318359375,-0.14841769635677338,0.013499563559889793,0.032952889800071716
1789548293088232200,3.911232177734375,-0.20141513645648956,0.014033527113497257,0.025885924696922302
1789548293098201300,3.921201416015625,-0.2686799168586731,0.055681370198726654,0.02435913495719433
1789548293108170200,3.931170166015625,-0.21808333694934845,0.02815547212958336,-0.02628886140882969
1789548293118140200,3.94114013671875,-0.2071119099855423,-0.015280419029295444,-0.051481831818819046
1789548293128109300,3.951109375,-0.25260427594184875,-0.008993228897452354,-0.03776788339018822
1789548293138078500,3.961078369140625,-0.23644688725471497,0.015304653905332088,-0.025420937687158585
1789548293148047400,3.97104736328125,-0.1439523845911026,-0.023629695177078247,-0.007478688843548298
1789548293158017300,3.981017333984375,-0.14188550412654877,-0.012486763298511505,0.01290168333798647
1789548293167986400,3.990986328125,-0.13971875607967377,-0.013656689785420895,-0.008133560419082642
1789548293177955300,4.000955322265625,-0.09373288601636887,-0.006938866339623928,-0.00569969741627574
1789548293187924500,4.010924560546875,-0.07716349512338638,-0.05453701317310333,0.03831702843308449
1789548293197893400,4.020893310546875,-0.11575429886579514,-0.05722999945282936,0.048280179500579834
1789548293207863300,4.03086328125,-0.04002011939883232,-0.10414610803127289,0.0026940538082271814
1789548293217832400,4.04083251953125,-0.05637938529253006,0.007340204436331987,-0.08634687215089798
1789548293227801300,4.05080126953125,-0.030419956892728806,-0.05025438219308853,-0.0408419705927372
1789548293237770200,4.060770263671875,-0.010550378821790218,-0.10486063361167908,-0.008125304244458675
1789548293247740200,4.070740234375,0.017251158133149147,-0.11589251458644867,-0.05669976398348808
1789548293257709300,4.080709228515625,0.08987316489219666,-0.09795186668634415,-0.04703222215175629
1789548293267678200,4.09067822265625,0.12367214262485504,-0.0680706650018692,0.0005065332516096532
1789548293277647400,4.1006474609375,0.14960627257823944,-0.08258435875177383,0.009739712812006474
1789548293287616300,4.1106162109375,0.1999083161354065,-0.10497941076755524,0.0035694348625838757
1789548293297586400,4.12058642578125,0.22626961767673492,-0.08640147000551224,-0.008469651453197002
1789548293307555300,4.130555419921875,0.18082916736602783,-0.04218260571360588,-0.014542191289365292
1789548293317524500,4.1405244140625,0.2728821337223053,-0.13543638586997986,-0.03772660717368126
1789548293327493400,4.150493408203125,0.26242974400520325,-0.12874972820281982,-0.05674503743648529
1789548293337463300,4.16046337890625,0.2463304102420807,-0.08612902462482452,-0.02009195275604725
1789548293347432400,4.170432373046875,0.2962905168533325,-0.05555780231952667,-0.011767176911234856
1789548293357401300,4.1804013671875,0.2997502386569977,-0.0880046933889389,-0.025770610198378563
1789548293367370200,4.190370361328125,0.22943559288978577,-0.029550701379776,-0.03416728973388672
1789548293377340400,4.20034033203125,0.3125661611557007,-0.06028278172016144,0.023304257541894913
1789548293387309300,4.210309326171875,0.3438471257686615,-0.03474120423197746,-0.006327936891466379
1789548293397278200,4.2202783203125,0.266556054353714,-0.02406192570924759,-0.022768694907426834
1789548293407247400,4.230247314453125,0.23647059500217438,-0.030485205352306366,-0.011996475048363209
1789548293417216300,4.24021630859375,0.24274952709674835,0.01721413992345333,-0.020084494724869728
1789548293427186200,4.250186279296875,0.1829940527677536,0.07327208667993546,-0.028736039996147156
1789548293437155300,4.2601552734375,0.15037831664085388,0.015275625512003899,0.0011249192757532
1789548293447124200,4.270124267578125,0.12196052819490433,-0.0010751180816441774,-0.009167665615677834
1789548293457093000,4.280093017578125,0.08711972087621689,0.04511634632945061,0.029891319572925568
1789548293467062300,4.290062255859375,0.061465490609407425,0.10355941206216812,0.013945642858743668
1789548293477032400,4.300032470703125,0.05010764300823212,0.03831915929913521,-0.024514131247997284
1789548293487001300,4.31000146484375,0.003022687742486596,0.00720464950427413,0.006735400762408972
1789548293496970500,4.319970458984375,-0.04104916751384735,0.07968417555093765,-0.0028184233233332634
1789548293506939400,4.329939453125,-0.09456805139780045,0.09265296906232834,-0.04518771916627884
1789548293516909300,4.339909423828125,-0.11966221779584885,0.0625227689743042,-0.02509922720491886
1789548293526878500,4.34987841796875,-0.09433183073997498,0.023735156282782555,-0.008774849586188793
1789548293536847400,4.359847412109375,-0.12230700254440308,0.029436718672513962,0.002778742229565978
1789548293546816300,4.369816162109375,-0.15657763183116913,0.08671651780605316,0.020143883302807808
1789548293556785400,4.379785400390625,-0.11242561042308807,0.06977082788944244,-0.02479110099375248
1789548293566755300,4.38975537109375,-0.16364406049251556,0.052627526223659515,0.04007577896118164
1789548293576724200,4.39972412109375,-0.1706809252500534,0.07607932388782501,0.03724457323551178
1789548293586693400,4.409693359375,-0.14332786202430725,0.04314187914133072,0.01702478900551796
1789548293596662300,4.419662353515625,-0.13753202557563782,0.031016506254673004,-0.03133555129170418
1789548293606632200,4.429632080078125,-0.2093271166086197,0.06464796513319016,0.02002883516252041
1789548293616601300,4.439601318359375,-0.15433816611766815,0.029288645833730698,0.034748926758766174
1789548293626570200,4.4495703125,-0.09390652179718018,0.01720402017235756,-0.008247011341154575
1789548293636539100,4.4595390625,-0.12176638096570969,0.07569742202758789,-0.03483548015356064
1789548293646508300,4.46950830078125,-0.10775149613618851,0.0874350368976593,-0.038727689534425735
1789548293656478500,4.479478515625,-0.12987278401851654,0.06894524395465851,0.045633263885974884
1789548293666447400,4.489447265625,-0.10540445148944855,0.058828696608543396,0.03068041428923607
1789548293676416500,4.49941650390625,-0.05693332478404045,0.019697537645697594,0.0047026099637150764
1789548293686385400,4.509385498046875,-0.06521495431661606,0.06738968938589096,-0.026761040091514587
1789548293696354300,4.519354248046875,-0.10319908708333969,0.07530540972948074,-0.004065048880875111
1789548293706324200,4.52932421875,-0.08371593803167343,0.011918178759515285,0.009723734110593796
1789548293716293400,4.53929345703125,-0.08502940833568573,0.04814516007900238,-0.03454732522368431
1789548293726262300,4.54926220703125,-0.10419697314500809,0.08232256770133972,-0.036367326974868774
1789548293736231400,4.5592314453125,-0.07664124667644501,0.05820711329579353,-0.025248099118471146
1789548293746200300,4.569200439453125,-0.06865096837282181,0.03361468389630318,-0.04561808332800865
1789548293756170200,4.579170166015625,-0.156645268201828,0.05206213518977165,-0.008703210391104221
1789548293766139400,4.589139404296875,-0.17573241889476776,0.056109074503183365,0.023929301649332047
1789548293776108300,4.5991083984375,-0.12829352915287018,0.04862266406416893,-0.008225705474615097
1789548293786077200,4.6090771484375,-0.1489063948392868,0.04276290908455849,-0.04674646630883217
1789548293796047400,4.61904736328125,-0.17086148262023926,0.028734974563121796,-0.018610170111060143
1789548293806016500,4.6290166015625,-0.1914575845003128,0.0642508938908577,0.021613681688904762
1789548293815985400,4.6389853515625,-0.12783466279506683,0.033429063856601715,-0.01793825440108776
1789548293825954600,4.64895458984375,-0.17226018011569977,0.062439143657684326,-0.017405355349183083
1789548293835923500,4.65892333984375,-0.15745753049850464,0.08704808354377747,-0.048222389072179794
1789548293845893400,4.668893310546875,-0.07973530888557434,0.013853231444954872,-0.006080795545130968
1789548293855862300,4.6788623046875,-0.1083294004201889,0.022536467760801315,0.008215585723519325
1789548293865831400,4.68883154296875,-0.15107393264770508,0.048703089356422424,-0.01588841900229454
1789548293875800300,4.69880029296875,-0.12546125054359436,0.06149345263838768,-0.020415792241692543
1789548293885769500,4.70876953125,-0.10405343025922775,0.0396675169467926,-0.031789619475603104
1789548293895739400,4.718739501953125,-0.06767918169498444,-0.02810194157063961,-0.024466460570693016
1789548293905708300,4.728708251953125,-0.11340458691120148,0.01643250323832035,-0.03581738471984863
1789548293915677200,4.73867724609375,-0.14750796556472778,0.05355483666062355,-0.02924523688852787
1789548293925646300,4.748646240234375,-0.10457860678434372,-0.034993138164281845,-0.08559346199035645
1789548293935615200,4.758615234375,-0.17602109909057617,-0.09902218729257584,-0.029592780396342278
1789548293945585200,4.768585205078125,-0.1619446873664856,-0.07802768796682358,-0.007130081299692392
1789548293955554300,4.77855419921875,-0.10366594046354294,-0.09592147171497345,0.01613023318350315
1789548293965523200,4.788523193359375,-0.0837087482213974,-0.114056795835495,-0.00917485635727644
1789548293975492400,4.798492431640625,-0.11119389533996582,-0.08318756520748138,0.006078132428228855
1789548293985461200,4.808461181640625,-0.0046908920630812645,-0.07997286319732666,0.027341609820723534
1789548293995431400,4.818431396484375,0.07022063434123993,-0.10407047718763351,0.009268599562346935
1789548294005400300,4.828400390625,0.036919135600328445,-0.09863656014204025,0.01721254177391529
1789548294015369500,4.838369384765625,0.0964794009923935,-0.11275371164083481,0.04677895829081535
1789548294025338400,4.84833837890625,0.12830470502376556,-0.042081672698259354,0.022915968671441078
1789548294035307500,4.8583076171875,0.13662202656269073,-0.04782238230109215,0.01697445660829544
1789548294045277400,4.86827734375,0.17175577580928802,-0.06410708278417587,0.013160010799765587
1789548294055246300,4.878246337890625,0.1691586673259735,-0.04150909185409546,0.03500858321785927
1789548294065215200,4.88821533203125,0.16088183224201202,-0.047200001776218414,0.013818610459566116
1789548294075184400,4.898184326171875,0.14275449514389038,-0.03448127955198288,-0.003126551164314151
1789548294085153300,4.9081533203125,0.1113038882613182,-0.0013552826130762696,-0.006116748321801424
1789548294095123200,4.918123291015625,0.09376111626625061,-0.038607046008110046,0.01673237420618534
1789548294105092400,4.92809228515625,0.10354849696159363,-0.05937890335917473,-0.009059274569153786
1789548294115061200,4.938061279296875,0.08916209638118744,-0.033247701823711395,-0.015558719635009766
1789548294125030400,4.948030517578125,0.08706193417310715,-0.041260089725255966,-0.04285398870706558
1789548294134999300,4.957999267578125,0.05355031043291092,-0.06477020680904388,0.020981447771191597
1789548294144969500,4.967969482421875,0.019306587055325508,-0.05128049850463867,0.00281975488178432
1789548294154938400,4.9779384765625,0.02634824998676777,-0.04838191345334053,-0.01059378869831562
1789548294164907500,4.987907470703125,0.010937335900962353,-0.09017569571733475,0.014932077378034592
1789548294174876400,4.99787646484375,0.04387717694044113,-0.1129760891199112,0.009236641228199005
1789548294184845600,5.007845458984375,0.024453677237033844,-0.06351372599601746,-0.020082099363207817
1789548294194815500,5.0178154296875,0.001597896683961153,-0.017109744250774384,-0.05555140972137451
1789548294204784400,5.027784423828125,-0.015507320873439312,-0.09098529815673828,0.0027683558873832226
1789548294214753300,5.037753173828125,0.030818898230791092,-0.09778434783220291,-0.018332134932279587
1789548294224722400,5.047722412109375,0.02365286462008953,-0.05269783362746239,-0.02466273494064808
1789548294234691300,5.05769140625,0.029269471764564514,-0.059417787939310074,-0.018013354390859604
1789548294244661200,5.0676611328125,0.03556518629193306,-0.11621502041816711,0.011321363970637321
1789548294254630400,5.07763037109375,0.08915410935878754,-0.11329806596040726,-0.06861793994903564
1789548294264599300,5.087599365234375,0.049975547939538956,-0.05627365782856941,-0.024652348831295967
1789548294274568200,5.097568115234375,0.055871788412332535,-0.06013870611786842,-0.02105282060801983
1789548294284537300,5.107537353515625,0.12180739641189575,-0.12873800098896027,-0.0009289105655625463
1789548294294507300,5.11750732421875,0.13516022264957428,-0.08571144193410873,-0.023624636232852936
1789548294304476200,5.12747607421875,0.13350026309490204,-0.048528652638196945,0.0019595539197325706
1789548294314445600,5.137445556640625,0.1872955858707428,-0.10927322506904602,0.019160645082592964
1789548294324414500,5.14741455078125,0.2402658611536026,-0.13409627974033356,0.05716262012720108
1789548294334383400,5.15738330078125,0.28236937522888184,-0.09098450094461441,-0.007140733767300844
1789548294344352500,5.1673525390625,0.2702075242996216,-0.024593226611614227,-0.010729343630373478
1789548294354322400,5.177322509765625,0.299878865480423,-0.11265677213668823,0.003102849004790187
1789548294364291300,5.187291259765625,0.29992440342903137,-0.09237892925739288,-0.023014770820736885
1789548294374260500,5.197260498046875,0.2999425232410431,-0.06463038921356201,-0.01787353865802288
1789548294384229400,5.2072294921875,0.3374456763267517,-0.13353489339351654,-0.020356403663754463
1789548294394198500,5.217198486328125,0.35148027539253235,-0.14609196782112122,-0.03476357460021973
1789548294404168400,5.22716845703125,0.327705442905426,-0.03575586527585983,-0.09591720998287201
1789548294414137300,5.237137451171875,0.2969975769519806,-0.00407463638111949,-0.1188744530081749
1789548294424106200,5.247106201171875,0.29746097326278687,-0.11034088581800461,-0.020673053339123726
1789548294434075400,5.257075439453125,0.31422823667526245,-0.08486322313547134,0.020071180537343025
1789548294444044300,5.267044189453125,0.33924171328544617,0.026021746918559074,-0.024685638025403023
1789548294454014200,5.27701416015625,0.33709707856178284,-0.0025835325941443443,0.033004287630319595
1789548294463983400,5.2869833984375,0.312694787979126,-0.032762739807367325,0.04372271150350571
1789548294473952300,5.2969521484375,0.2541382610797882,-0.001344363670796156,0.060394901782274246
1789548294483921400,5.30692138671875,0.20134589076042175,0.08218115568161011,-0.003677825443446636
1789548294493890300,5.316890380859375,0.17327111959457397,0.04061027616262436,-0.03747866675257683
1789548294503859200,5.326859130859375,0.104183129966259,0.0065010422840714455,-0.015078552067279816
1789548294513829400,5.336829345703125,0.07606387138366699,0.05903269350528717,-0.01441302802413702
1789548294523798500,5.346798583984375,0.06673402339220047,0.02592374198138714,-0.0062975771725177765
1789548294533768400,5.3567685546875,0.025623871013522148,0.015993613749742508,0.014657505787909031
1789548294543737300,5.3667373046875,0.004900216590613127,0.057208430022001266,0.006924485322088003
1789548294553706500,5.37670654296875,-0.01636885292828083,0.060985323041677475,0.027097929269075394
1789548294563675400,5.38667529296875,-0.02943059243261814,0.03935033455491066,0.025107484310865402
1789548294573644300,5.396644287109375,-0.03465225175023079,0.038302648812532425,0.0717809796333313
1789548294583613400,5.406613525390625,0.004756671842187643,0.04874703288078308,0.006238454952836037
1789548294593583400,5.416583251953125,-0.03435903787612915,0.031438350677490234,0.018008828163146973
1789548294603552300,5.42655224609375,-0.0034434671979397535,0.037688788026571274,0.033723074942827225
1789548294613521400,5.436521484375,0.04205184429883957,0.02273460663855076,-0.007562045939266682
1789548294623490300,5.446490234375,0.03358032926917076,0.023726368322968483,-0.01955239661037922
1789548294633459500,5.45645947265625,0.041857436299324036,0.06918253004550934,-0.020590495318174362
1789548294643429400,5.466429443359375,0.03929920122027397,0.06769701838493347,0.0013100089272484183
1789548294653398300,5.476398193359375,0.06948906183242798,0.023023294284939766,0.016023973003029823
1789548294663367200,5.4863671875,0.07043661922216415,0.039258722215890884,0.06180637702345848
1789548294673336300,5.49633642578125,0.14747947454452515,0.03269163519144058,0.07272693514823914
1789548294683305200,5.50630517578125,0.1649460792541504,0.057362623512744904,0.045217011123895645
1789548294693274400,5.5162744140625,0.14485332369804382,0.09055786579847336,0.0007840346079319715
1789548294703244500,5.52624462890625,0.19848725199699402,0.0934886708855629,-0.03579181805253029
1789548294713213400,5.53621337890625,0.1535767763853073,0.12688976526260376,-0.03506344556808472
1789548294723182300,5.546182373046875,0.1224534809589386,0.055565789341926575,-0.06372039020061493
1789548294733151500,5.5561513671875,0.07012476027011871,0.0686136782169342,-0.07172851264476776
1789548294743120400,5.566120361328125,0.04454323276877403,0.08382698893547058,-0.029155222699046135
1789548294753090300,5.57609033203125,-0.024459270760416985,0.05937118083238602,-0.00509782275184989
1789548294763059500,5.5860595703125,-0.05432821810245514,0.11025114357471466,-0.03503148630261421
1789548294773028400,5.5960283203125,-0.024270718917250633,0.06466474384069443,-0.020000340417027473
1789548294782997200,5.605997314453125,-0.03145486116409302,0.11856473237276077,-0.006582268979400396
1789548294792966400,5.61596630859375,-0.05836344137787819,0.1125451847910881,0.02888358011841774
1789548294802935300,5.625935302734375,-0.10395622253417969,0.09537684917449951,0.024229971691966057
1789548294812905200,5.6359052734375,-0.13097132742404938,0.10923434793949127,0.020190754905343056
1789548294822874400,5.645874267578125,-0.13569578528404236,0.09837184101343155,0.00891067087650299
1789548294832843300,5.65584326171875,-0.11613140255212784,0.024445421993732452,-0.039802804589271545
1789548294842812400,5.6658125,-0.18291549384593964,0.07014846056699753,-0.012767193838953972
1789548294852781300,5.67578125,-0.22063757479190826,0.08542648702859879,0.023688284680247307
1789548294862750200,5.685750244140625,-0.13637621700763702,0.00899615790694952,-0.015781093388795853
1789548294872720400,5.695720458984375,-0.182290181517601,0.09779740124940872,-0.03798466548323631
1789548294882689500,5.705689453125,-0.15712064504623413,0.09203671663999557,-0.022592393681406975
1789548294892658400,5.715658447265625,-0.09994018077850342,0.0511593259871006,-0.036849893629550934
1789548294902627600,5.725627685546875,-0.11225543171167374,0.11066365987062454,-0.06700380146503448
1789548294912596500,5.735596435546875,-0.1476517766714096,0.1191658079624176,-0.03930479660630226
1789548294922566400,5.74556640625,-0.12120924890041351,-0.0009350358741357923,-0.0089980224147439
1789548294932535300,5.755535400390625,-0.09897984564304352,-0.012532835826277733,0.023728765547275543
1789548294942504400,5.76550439453125,-0.09406337887048721,0.06442160159349442,-0.0323781780898571
1789548294952473300,5.775473388671875,-0.1218755692243576,0.03442348912358284,-0.006220611743628979
1789548294962442500,5.7854423828125,-0.1123792752623558,-0.028603948652744293,0.046962715685367584
1789548294972411400,5.795411376953125,-0.0660455971956253,-0.013422331772744656,0.021273862570524216
1789548294982381300,5.80538134765625,-0.11823210120201111,0.015598666854202747,0.0008799084462225437
1789548294992350500,5.8153505859375,-0.09633186459541321,-0.05571972206234932,-0.006381999235600233
1789548295002319400,5.8253193359375,-0.05859753116965294,-0.04565217345952988,-0.0006562029011547565
1789548295012288300,5.835288330078125,-0.05374818295240402,-0.011355452239513397,-0.0034434671979397535
1789548295022257400,5.84525732421875,-0.03533109277486801,-0.08880124241113663,0.03966165706515312
1789548295032226600,5.8552265625,-0.020173711702227592,-0.05572318285703659,0.02273833565413952
1789548295042196500,5.865196533203125,0.01996811479330063,0.029937924817204475,-0.0025712819769978523
1789548295052165600,5.87516552734375,0.0907813012599945,-0.055510930716991425,0.04336824640631676
1789548295062134500,5.885134521484375,0.10034897178411484,-0.028374915942549706,0.07930201292037964
1789548295072103400,5.895103515625,0.0981430783867836,0.003610979998484254,0.08536683022975922
1789548295082072600,5.905072509765625,0.16495592892169952,-0.008298942819237709,0.04001319780945778
1789548295092042500,5.91504248046875,0.22965210676193237,-0.00035606464371085167,0.038839805871248245
1789548295102011400,5.925011474609375,0.2400946170091629,0.013974404893815517,0.015384549275040627
1789548295111980500,5.93498046875,0.20944297313690186,0.01932709291577339,0.0440518781542778
1789548295121949400,5.944949462890625,0.2649669349193573,0.03839372843503952,-0.0325387679040432
1789548295131918300,5.95491845703125,0.2394930124282837,0.0484013557434082,-0.06471987068653107
1789548295141887500,5.964887451171875,0.20022523403167725,-0.0012785836588591337,0.02382916584610939
1789548295151857400,5.974857421875,0.1891382336616516,0.03489939495921135,0.024292556568980217
1789548295161826300,5.984826416015625,0.24058811366558075,0.04707669839262962,0.020601416006684303
1789548295171795500,5.99479541015625,0.2448640763759613,0.04525110125541687,-0.007233412005007267
1789548295181764400,6.004764404296875,0.20910900831222534,0.03442508354783058,0.007641141768544912
1789548295191733200,6.014733154296875,0.19241204857826233,0.031157121062278748,-0.004747617058455944
1789548295201702400,6.024702392578125,0.15961122512817383,0.0019262643763795495,0.0012564794160425663
1789548295211672600,6.034672607421875,0.1314552277326584,0.01261033397167921,-0.03266526758670807
1789548295221641500,6.044641357421875,0.11594551056623459,0.044509679079055786,-0.055218782275915146
1789548295231610600,6.054610595703125,0.08725261688232422,0.06286498159170151,-0.037171870470047
1789548295241579500,6.06457958984375,0.1013503223657608,0.022486666217446327,-0.04472432658076286
1789548295251548400,6.07454833984375,0.08851096034049988,0.048645034432411194,0.029111279174685478
1789548295261518600,6.0845185546875,0.08397825807332993,0.07941945642232895,0.00552259711548686
1789548295271487500,6.094487548828125,0.05853495001792908,0.04238074645400047,0.023841949179768562
1789548295281456400,6.104456298828125,0.04326997697353363,0.03356222063302994,0.045876942574977875
1789548295291425500,6.114425537109375,0.0907602608203888,0.05878528580069542,-0.007450725883245468
1789548295301394400,6.12439453125,0.05669417232275009,0.03653883561491966,-0.012809271924197674
1789548295311363600,6.134363525390625,0.03916258364915848,0.05263418331742287,-0.030826089903712273
1789548295321333500,6.14433349609375,0.10697225481271744,0.06259254366159439,-0.05041869729757309
1789548295331302400,6.154302490234375,0.11471939086914062,0.02082032710313797,-0.02895122393965721
1789548295341271300,6.164271240234375,0.07403481006622314,0.049916960299015045,-0.012925918214023113
1789548295351240400,6.174240478515625,0.11058243364095688,0.08281552046537399,-0.0076182386837899685
1789548295361209300,6.184209228515625,0.15003237128257751,0.010747186839580536,-0.02586382068693638
1789548295371179300,6.19417919921875,0.13142088055610657,0.05908515676856041,-0.028440162539482117
1789548295381148700,6.204148681640625,0.1308608055114746,0.11018935590982437,-0.06963846832513809
1789548295391117600,6.21411767578125,0.09908264130353928,0.057423077523708344,-0.04695073142647743
1789548295401086500,6.22408642578125,0.04478371515870094,0.018874354660511017,-0.04903065785765648
1789548295411055600,6.2340556640625,0.01655580662190914,0.042579419910907745,-0.020778780803084373
1789548295421024500,6.2440244140625,-0.004933505784720182,0.03827202320098877,-0.0526467002928257
1789548295430994400,6.253994384765625,-0.018499914556741714,-0.022761505097150803,-0.039635561406612396
1789548295440963600,6.263963623046875,-0.056284043937921524,0.07134901732206345,-0.015781093388795853
1789548295450932500,6.273932373046875,-0.05601852759718895,0.026858512312173843,0.01775449514389038
1789548295460901400,6.2839013671875,-0.08421207964420319,0.008569519966840744,0.0029979203827679157
1789548295470870500,6.29387060546875,-0.07578317821025848,0.09036079049110413,-0.020145481452345848
1789548295480839400,6.30383935546875,-0.0892569050192833,0.07662739604711533,0.01429478358477354
1789548295490809300,6.313809326171875,-0.15715792775154114,0.030641797930002213,0.007474694401025772
1789548295500778500,6.323778564453125,-0.21022513508796692,0.07499407976865768,-0.028931517153978348
1789548295510747400,6.333747314453125,-0.24842312932014465,0.07860080152750015,-0.004573446698486805
1789548295520716500,6.343716552734375,-0.27000537514686584,0.01690281741321087,0.0057558901607990265
1789548295530685400,6.353685546875,-0.2988783121109009,0.023481890559196472,0.012120045721530914
1789548295540654300,6.363654296875,-0.3256042003631592,0.06464184075593948,0.01386947650462389
1789548295550624300,6.373624267578125,-0.31040501594543457,0.03955353423953056,0.0048855687491595745
1789548295560593400,6.383593505859375,-0.3251037895679474,0.02702096477150917,0.032278046011924744
1789548295570562300,6.393562255859375,-0.3341343104839325,0.010330934077501297,0.04975876957178116
1789548295580531500,6.403531494140625,-0.33652156591415405,-0.030531810596585274,0.013999705202877522
1789548295590500400,6.413500244140625,-0.31457552313804626,-0.019001120701432228,-0.033777136355638504
1789548295600469200,6.42346923828125,-0.3110199272632599,-0.04578506574034691,0.008518652990460396
1789548295610439400,6.433439453125,-0.2662423253059387,-0.05172764137387276,-0.04664340242743492
1789548295620408600,6.44340869140625,-0.24602122604846954,-0.03653537482023239,-0.027300329878926277
1789548295630377500,6.45337744140625,-0.1638302057981491,-0.0662304162979126,0.005283711478114128
1789548295640346600,6.4633466796875,-0.09981181472539902,-0.10053912550210953,0.071363665163517
1789548295650315500,6.4733154296875,-0.03864593058824539,-0.02515382319688797,0.02070208266377449
1789548295660284400,6.483284423828125,-0.02642068825662136,-0.01998649165034294,-0.027665182948112488
1789548295670254600,6.493254638671875,0.0011299792677164078,-0.012401541694998741,-0.021558821201324463
1789548295680223500,6.503223388671875,0.02586648426949978,-0.015606390312314034,0.004174238536506891
1789548295690192400,6.5131923828125,0.05578922852873802,-0.06936123222112656,0.00009720538218971342
1789548295700161500,6.52316162109375,0.08936929702758789,-0.03385996073484421,-0.023259783163666725
1789548295710130400,6.53313037109375,0.05452236533164978,0.01618163287639618,-0.0060054282657802105
1789548295720099300,6.543099365234375,0.041485391557216644,-0.032036494463682175,-0.005932990461587906
1789548295730069500,6.553069580078125,0.01979660801589489,-0.008889098651707172,-0.0049316417425870895
1789548295740038400,6.563038330078125,0.07155567407608032,-0.02363874949514866,-0.027234284207224846
1789548295750007300,6.57300732421875,0.03458913415670395,-0.03302958980202675,-0.0028336034156382084
1789548295759976400,6.5829765625,-0.000005858954409632133,-0.018387263640761375,0.025064872577786446
1789548295769945300,6.5929453125,0.019887953996658325,0.0006210491410456598,0.032046880573034286
1789548295779914500,6.60291455078125,0.011262241750955582,-0.008162588812410831,0.018183264881372452
1789548295789884700,6.612884765625,0.07072343677282333,-0.027585288509726524,-0.026732278987765312
1789548295799853600,6.622853515625,0.07456052303314209,-0.02695145644247532,-0.034925758838653564
1789548295809822500,6.632822509765625,-0.03586186096072197,0.0015640745405107737,0.012325641699135303
1789548295819791600,6.64279150390625,0.019031215459108353,-0.01925705187022686,-0.03172250837087631
1789548295829760500,6.652760498046875,0.04488971084356308,0.029350165277719498,-0.03779984265565872
1789548295839729700,6.662729736328125,0.04565563425421715,0.00101120222825557,-0.07624443620443344
1789548295849699600,6.672699462890625,0.03365702927112579,0.0003126551164314151,-0.07665722817182541
1789548295859668500,6.68266845703125,0.006174805108457804,-0.017117468640208244,-0.0013057478936389089
1789548295869637400,6.692637451171875,0.05469413846731186,-0.015499064698815346,-0.020771058276295662
1789548295879606500,6.7026064453125,0.08529332280158997,0.03916364908218384,-0.014691594056785107
1789548295889575400,6.712575439453125,0.090957872569561,0.055456068366765976,-0.0007459514308720827
1789548295899544600,6.722544677734375,0.13612374663352966,-0.03418460115790367,0.02756345085799694
1789548295909514500,6.732514404296875,0.0949302390217781,0.020385432988405228,0.07548437267541885
1789548295919483400,6.7424833984375,0.08624673634767532,0.0021201425697654486,0.01437893882393837
1789548295929452500,6.75245263671875,0.10617836564779282,-0.01878434047102928,-0.018061824142932892
1789548295939421400,6.76242138671875,0.12532995641231537,0.029200762510299683,-0.0225649643689394
1789548295949390300,6.772390380859375,0.06577901542186737,-0.01338424813002348,-0.011156514286994934
1789548295959359500,6.782359375,0.05818873643875122,-0.01101403497159481,-0.01432487741112709
1789548295969329400,6.792329345703125,0.07602019608020782,0.05089567229151726,-0.016289757564663887
1789548295979298300,6.80229833984375,0.05240115523338318,0.012231632135808468,0.004033357370644808
1789548295989267500,6.812267333984375,0.04411712661385536,0.00755006168037653,0.03003539703786373
1789548295999236400,6.822236328125,0.04568573087453842,-0.014738732017576694,0.0581224262714386
1789548296009205200,6.832205322265625,0.010750914923846722,-0.03659849241375923,0.036078643053770065
1789548296019174700,6.842174560546875,-0.039260588586330414,0.02142246812582016,0.04003237187862396
1789548296029143600,6.8521435546875,0.0218520350754261,-0.048661813139915466,0.0589863546192646
1789548296039113500,6.862113525390625,0.03876310959458351,-0.033613353967666626,-0.0019888486713171005
1789548296049082600,6.87208251953125,-0.000003462109361862531,0.054784417152404785,-0.0057316552847623825
1789548296059051500,6.882051513671875,0.026987409219145775,0.00917166005820036,0.020129237323999405
1789548296069020400,6.8920205078125,0.04412192106246948,-0.009605223312973976,-0.007305849809199572
1789548296078989600,6.901989501953125,0.026698721572756767,0.031558725982904434,-0.04302576556801796
1789548296088958500,6.91195849609375,0.04126781225204468,0.007529288996011019,-0.0065231467597186565
1789548296098928400,6.921928466796875,0.05788806825876236,0.02136920392513275,0.009988452307879925
1789548296108897500,6.9318974609375,-0.010937602259218693,0.048054877668619156,0.04521381855010986
1789548296118866400,6.941866455078125,0.014127536676824093,0.027512317523360252,0.03268151357769966
1789548296128835300,6.95183544921875,0.029442576691508293,0.04340366646647453,-0.0036794233601540327
1789548296138804500,6.961804443359375,0.0059540290385484695,0.06704694777727127,0.008275773376226425
1789548296148773400,6.9717734375,0.01653902977705002,0.07544682174921036,-0.04465987905859947
1789548296158742500,6.981742431640625,0.04223879799246788,0.06024682894349098,-0.024146614596247673
1789548296168712700,6.991712646484375,0.0011587414192035794,0.037512753158807755,-0.007982558570802212
1789548296178681600,7.001681640625,-0.06383490562438965,0.05383926257491112,-0.05517483875155449
1789548296188650500,7.011650390625,-0.07705004513263702,0.05024692416191101,-0.06993460655212402
1789548296198619600,7.02161962890625,-0.04966023191809654,-0.027592478320002556,-0.0062459115870296955
1789548296208588500,7.031588623046875,-0.07399406284093857,-0.02105068974196911,-0.0070858728140592575
1789548296218557700,7.0415576171875,-0.09106652438640594,0.026155704632401466,-0.030289728194475174
1789548296228526600,7.051526611328125,-0.05456177890300751,-0.014639396220445633,-0.0568491667509079
1789548296238496500,7.06149658203125,-0.05475405976176262,-0.006616623606532812,-0.07383400946855545
1789548296248465700,7.071465576171875,-0.06538806110620499,0.05679430812597275,-0.08207915723323822
1789548296258434600,7.0814345703125,-0.00965875294059515,-0.007220895029604435,-0.08051348477602005
1789548296268403500,7.091403564453125,-0.033966220915317535,-0.04231709614396095,-0.0529114194214344
1789548296278372600,7.10137255859375,-0.04619545862078667,0.022355638444423676,-0.0041404166258871555
1789548296288341500,7.111341552734375,0.007222226355224848,-0.0037388119380921125,-0.023516245186328888
1789548296298311400,7.1213115234375,0.0038163098506629467,-0.004977980628609657,0.003996872343122959
1789548296308280600,7.131280517578125,0.013651363551616669,0.024753550067543983,0.00983452145010233
1789548296318249500,7.14124951171875,0.03736840933561325,-0.019765449687838554,-0.020953485742211342
1789548296328218400,7.15121826171875,0.02875787764787674,0.023810790851712227,-0.020981181412935257
1789548296338187500,7.1611875,-0.017676731571555138,0.037454698234796524,-0.026201777160167694
1789548296348156400,7.171156494140625,-0.026513099670410156,-0.0478476844727993,0.014548050239682198
1789548296358125600,7.18112548828125,0.004234958905726671,-0.011756524443626404,0.02045360952615738
1789548296368094500,7.191094482421875,-0.006140983197838068,-0.02756824530661106,0.02936348132789135
1789548296378064400,7.201064453125,0.007132211700081825,-0.03218776360154152,0.018914036452770233
1789548296388033300,7.211033203125,0.018728148192167282,0.03659316524863243,-0.0022447784431278706
1789548296398002400,7.22100244140625,0.006117014680057764,-0.0684560239315033,0.008522914722561836
1789548296407971600,7.2309716796875,0.003917243797332048,-0.04129737243056297,0.02635490894317627
1789548296417940700,7.240940673828125,0.005048820748925209,-0.03292039781808853,0.05139261856675148
1789548296427909600,7.25090966796875,-0.0029760824982076883,-0.053227003663778305,0.02371145412325859
1789548296437878500,7.26087841796875,-0.01805330254137516,-0.002207760466262698,0.0027092336677014828
1789548296447848400,7.270848388671875,-0.05684996768832207,-0.016821324825286865,0.046479351818561554
1789548296457817600,7.280817626953125,-0.06607302278280258,-0.011363442055881023,0.045349106192588806
1789548296467786500,7.290786376953125,-0.04617681726813316,0.024115988984704018,0.06891462206840515
1789548296477755600,7.300755615234375,-0.046301983296871185,-0.011150388978421688,0.07227952033281326
1789548296487724500,7.310724609375,-0.10995659232139587,0.017112141475081444,0.06702457368373871
1789548296497693400,7.320693359375,-0.1436743438243866,0.02058570273220539,0.10714136809110641
1789548296507662600,7.33066259765625,-0.12354697287082672,-0.036199551075696945,0.055691223591566086
1789548296517632500,7.340632568359375,-0.19810563325881958,0.016569921746850014,0.012330436147749424
1789548296527601400,7.350601318359375,-0.1821136176586151,0.012619921006262302,-0.056717339903116226
1789548296537570600,7.360570556640625,-0.21725481748580933,-0.0096286591142416,-0.05759884789586067
1789548296547539500,7.37053955078125,-0.2764481008052826,0.020143084228038788,-0.014069479890167713
1789548296557508400,7.38050830078125,-0.21288137137889862,-0.014631673693656921,-0.005960420705378056
1789548296567477500,7.3904775390625,-0.21022140979766846,-0.003993410151451826,-0.004283960908651352
1789548296577446400,7.4004462890625,-0.2175501585006714,-0.02798662707209587,0.02129596658051014
1789548296587416300,7.410416259765625,-0.17735907435417175,-0.07058282196521759,0.01600666344165802
1789548296597385500,7.420385498046875,-0.21479032933712006,-0.03723152354359627,0.015750467777252197
1789548296607354400,7.430354248046875,-0.21779172122478485,-0.04917367175221443,-0.01641812175512314
1789548296617323500,7.440323486328125,-0.1795889288187027,-0.08279874175786972,-0.015504657290875912
1789548296627292400,7.45029248046875,-0.15467000007629395,-0.0627581924200058,-0.042447060346603394
1789548296637261300,7.46026123046875,-0.12426868826150894,-0.07038921117782593,-0.09150035679340363
1789548296647230500,7.47023046875,-0.1376183182001114,-0.06633215397596359,-0.09318800270557404
1789548296657199400,7.480199462890625,-0.11891599744558334,-0.06933246552944183,-0.043483562767505646
1789548296667169500,7.49016943359375,-0.03863048180937767,-0.1037125438451767,-0.05072655901312828
1789548296677138700,7.500138671875,-0.04050694778561592,-0.062425825744867325,-0.07918217033147812
1789548296687107600,7.510107666015625,-0.060088369995355606,-0.04689294099807739,-0.014562697149813175
1789548296697076500,7.520076416015625,-0.011098191142082214,-0.07102304697036743,-0.0178181454539299
1789548296707045600,7.530045654296875,-0.00936047825962305,-0.07063262164592743,0.01974440924823284
1789548296717014500,7.5400146484375,-0.013581588864326477,-0.0644274577498436,0.04990284517407417
1789548296726983400,7.5499833984375,0.08043065667152405,-0.10918960720300674,-0.006738596595823765
1789548296736952600,7.55995263671875,0.04110189527273178,-0.028862807899713516,-0.03995327651500702
1789548296746922500,7.569922607421875,0.012966398149728775,-0.025854233652353287,-0.005371063016355038
1789548296756891400,7.579891357421875,0.09628445655107498,-0.0787973403930664,0.006927148438990116
1789548296766860500,7.589860595703125,0.051665324717760086,-0.028001807630062103,-0.031193073838949203
1789548296776829400,7.599829345703125,0.0829998105764389,-0.07140227407217026,-0.07011038064956665
1789548296786798600,7.609798583984375,0.06474730372428894,-0.08483313024044037,-0.01552036963403225
1789548296796767500,7.619767578125,0.0563729964196682,-0.055204134434461594,-0.014732606709003448
1789548296806736400,7.629736328125,0.059896089136600494,-0.065264493227005,-0.00006844323797849938
1789548296816705500,7.63970556640625,0.08388504385948181,0.0009898969437927008,-0.012375176884233952
1789548296826675500,7.649675537109375,0.133164182305336,-0.0774732232093811,-0.01763997972011566
1789548296836644400,7.659644287109375,0.1329876184463501,-0.057319216430187225,0.020721789449453354
1789548296846613500,7.669613525390625,0.15056100487709045,-0.06989599019289017,0.012740829028189182
1789548296856582400,7.67958251953125,0.1420532763004303,-0.06632016599178314,-0.017614146694540977
1789548296866551300,7.68955126953125,0.20803309977054596,-0.04289553686976433,-0.020801419392228127
1789548296876520400,7.6995205078125,0.198730930685997,-0.06585757434368134,-0.028629779815673828
1789548296886489300,7.7094892578125,0.19716019928455353,-0.09236295521259308,0.026128806173801422
1789548296896458500,7.71945849609375,0.2371624857187271,-0.007703992538154125,-0.004668254870921373
1789548296906428700,7.7294287109375,0.23181511461734772,-0.01344683300703764,-0.003917776048183441
1789548296916397600,7.7393974609375,0.22160881757736206,0.00720491586253047,0.002517486223950982
1789548296926366500,7.749366455078125,0.1903265416622162,-0.003349990351125598,0.025681661441922188
1789548296936335600,7.759335693359375,0.2333938479423523,-0.0028133634477853775,0.08992855995893478
1789548296946304500,7.769304443359375,0.15703675150871277,-0.004477572627365589,0.024211330339312553
1789548296956273700,7.779273681640625,0.1456136554479599,0.0030397321097552776,0.02857039123773575
1789548296966242600,7.78924267578125,0.05133828893303871,-0.04138259217143059,-0.003943875432014465
1789548296976211500,7.79921142578125,0.14470045268535614,-0.004191815387457609,0.005343366414308548
1789548296986181400,7.809181396484375,0.04761172831058502,-0.09036265313625336,-0.00430100504308939
1789548296996150500,7.819150634765625,0.1284828782081604,0.04601862281560898,-0.013043629936873913
1789548297006119400,7.829119384765625,0.016710536554455757,-0.029744047671556473,-0.04002171754837036
1789548297016088600,7.839088623046875,0.10057374835014343,0.0821867510676384,0.019053319469094276
1789548297026057500,7.849057373046875,0.0943792313337326,-0.00014540860138367862,0.02154310792684555
1789548297036026400,7.8590263671875,0.16989663243293762,0.07833235710859299,0.06193473935127258
1789548297045995000,7.8689951171875,0.06108945235610008,0.059545885771512985,0.02858450636267662
1789548297055964000,7.8789638671875,0.1307111382484436,0.07346542924642563,0.09815586358308792
1789548297065933800,7.888933837890625,0.018205635249614716,0.035888493061065674,0.004889297299087048
1789548297075903000,7.898903076171875,0.1098274290561676,0.12312539666891098,-0.005361742340028286
1789548297085871900,7.908871826171875,-0.011373828165233135,0.002923884429037571,-0.028056135401129723
1789548297095841000,7.918841064453125,0.06441280990839005,0.15005448460578918,-0.03959561139345169
1789548297105810000,7.928809814453125,-0.039267245680093765,0.03863128274679184,-0.13200384378433228
1789548297115778800,7.93877880859375,-0.004255465231835842,0.13416872918605804,-0.02658766880631447
1789548297125748000,7.948748046875,-0.06556010246276855,0.07143476605415344,-0.048417866230010986
1789548297135716900,7.958716796875,0.04520555958151817,0.15680132806301117,-0.02671150490641594
1789548297145686000,7.96868603515625,-0.10350615531206131,0.05168796330690384,0.05794931948184967
1789548297155656200,7.97865625,0.02852059155702591,0.15953586995601654,0.0512690469622612
1789548297165625000,7.988625,-0.06060981750488281,0.010210293345153332,0.008874451741576195
1789548297175594000,7.998593994140625,-0.02263447269797325,0.15969166159629822,0.03981399163603783
1789548297185563100,8.008563232421874,-0.1350017637014389,0.019537482410669327,0.012444685213267803
1789548297195532000,8.018531982421875,0.0014998923288658261,0.1116570234298706,-0.039270974695682526
1789548297205501200,8.028501220703125,-0.16222885251045227,0.039813194423913956,-0.049620550125837326
1789548297215470000,8.038469970703124,-0.059712864458560944,0.12013652920722961,-0.04927434027194977
1789548297225439000,8.04843896484375,-0.15429289638996124,0.045167479664087296,-0.10642684251070023
1789548297235408100,8.058408203125,-0.05266933515667915,0.15272723138332367,-0.09507005661725998
1789548297245378000,8.0683779296875,-0.18048375844955444,0.04494110867381096,-0.10747772455215454
1789548297255347000,8.078346923828125,-0.028746426105499268,0.15513312816619873,-0.04098818078637123
1789548297265316000,8.088316162109376,-0.1403682976961136,-0.02696530520915985,-0.020339360460639
1789548297275285000,8.098284912109374,-0.0844632163643837,0.10572216659784317,0.05451224371790886
1789548297285254000,8.10825390625,-0.18278951942920685,-0.005431517027318478,-0.028929652646183968
1789548297295223000,8.11822314453125,-0.07651261985301971,0.09325245022773743,-0.07013913989067078
1789548297305192000,8.12819189453125,-0.17302849888801575,0.04379115626215935,-0.035061314702034
1789548297315161000,8.1381611328125,-0.174257293343544,0.03917749598622322,-0.01648842915892601
1789548297325130000,8.1481298828125,-0.1400337964296341,0.03463707119226456,0.028369588777422905
1789548297335100000,8.158099853515624,-0.09020446240901947,0.0832618698477745,-0.009317069314420223
1789548297345069000,8.168069091796875,-0.13892672955989838,0.03671354055404663,0.0003414172388147563
1789548297355038000,8.178037841796876,-0.13448910415172577,0.029527798295021057,0.06785361468791962
1789548297365006800,8.1880068359375,-0.10057348012924194,0.011431085877120495,0.04771745577454567
1789548297374976000,8.19797607421875,-0.11965768784284592,0.02352716401219368,0.014664163812994957
1789548297384945000,8.20794482421875,-0.1483953297138214,0.07070107012987137,-0.03257445618510246
1789548297394913800,8.217913818359374,-0.18327315151691437,0.014534734189510345,0.011944010853767395
1789548297404883000,8.227883056640625,-0.20090381801128387,0.015353922732174397,0.04734780639410019
1789548297414851800,8.237851806640625,-0.1897028237581253,-0.024922925978899002,0.08277823776006699
1789548297424822000,8.247822021484374,-0.17742778360843658,-0.0037587855476886034,0.04110642522573471
1789548297434791200,8.257791259765625,-0.23857448995113373,0.033421874046325684,0.06024390086531639
1789548297444760000,8.267760009765626,-0.22019575536251068,-0.022816099226474762,0.07382415980100632
1789548297454729000,8.27772900390625,-0.2120073288679123,-0.006615558639168739,0.08630026876926422
1789548297464698000,8.287697998046875,-0.2697819471359253,0.004334561061114073,0.056725066155195236
1789548297474667000,8.2976669921875,-0.26135435700416565,0.011086206883192062,0.04285212606191635
1789548297484636200,8.30763623046875,-0.22469143569469452,-0.03266153857111931,0.04934810847043991
1789548297494605000,8.31760498046875,-0.23827195167541504,-0.0486716665327549,0.08399610221385956
1789548297504574000,8.327573974609376,-0.2572126090526581,-0.032171785831451416,0.06817186623811722
1789548297514543000,8.337543212890624,-0.2581700384616852,-0.04381885379552841,0.05861564353108406
1789548297524513000,8.347512939453125,-0.2341374009847641,-0.06197335571050644,0.028477713465690613
1789548297534482000,8.35748193359375,-0.22694580256938934,-0.08944545686244965,0.038782283663749695
1789548297544451000,8.367451171875,-0.22976315021514893,-0.08861908316612244,0.023077622056007385
1789548297554420000,8.377419921875,-0.20754386484622955,-0.06847333163022995,-0.02183738723397255
1789548297564388900,8.387388916015626,-0.17726746201515198,-0.08307438343763351,-0.007792143151164055
1789548297574358000,8.39735791015625,-0.14086124300956726,-0.04779042676091194,0.01840217597782612
1789548297584327000,8.407326904296875,-0.07729025930166245,-0.051714591681957245,-0.03532203659415245
1789548297594296000,8.417296142578126,-0.07966047525405884,-0.06746932119131088,0.02995789796113968
1789548297604265000,8.427264892578124,-0.055987369269132614,-0.09410545974969864,0.08266451954841614
1789548297614235000,8.43723486328125,-0.0704917460680008,-0.06046734005212784,0.025530127808451653
1789548297624204000,8.4472041015625,-0.03230680525302887,-0.0793297067284584,0.03388020396232605
1789548297634173000,8.4571728515625,0.0018764632986858487,-0.0973486602306366,-0.038905322551727295
1789548297644141800,8.467141845703125,-0.03765203803777695,-0.0968967154622078,-0.05819246545433998
1789548297654111000,8.477111083984376,-0.03394198790192604,-0.11421418935060501,-0.016039686277508736
1789548297664080000,8.487079833984374,-0.007843275554478168,-0.11583472043275833,0.020671190693974495
1789548297674049000,8.497049072265625,0.051904741674661636,-0.06882460415363312,-0.06900782883167267
1789548297684018000,8.507017822265626,0.0463818795979023,-0.06883632391691208,-0.08534712344408035
1789548297693986800,8.51698681640625,0.04400847107172012,-0.10617703944444656,-0.04255997762084007
1789548297703956000,8.5269560546875,0.018676482141017914,-0.07049200683832169,-0.05630534887313843
1789548297713926100,8.536926025390626,-0.015145663172006607,-0.09886026382446289,-0.00009880327706923708
1789548297723895000,8.54689501953125,0.026501648128032684,-0.09039008617401123,0.05096651241183281
1789548297733864200,8.5568642578125,0.08759802579879761,-0.13600178062915802,0.014401310123503208
1789548297743833000,8.5668330078125,0.04645005613565445,-0.09443968534469604,-0.003094326937571168
1789548297753802000,8.576802001953125,0.06810608506202698,-0.05873042345046997,-0.03266313672065735
1789548297763771100,8.586771240234375,0.04308435320854187,-0.09640190005302429,0.00774766830727458
1789548297773740000,8.596739990234376,0.07682740688323975,-0.09994523972272873,-0.020015785470604897
1789548297783709000,8.606708984375,0.05643238127231598,-0.09309452027082443,-0.07981467247009277
1789548297793678000,8.616677978515625,0.03153688833117485,-0.09116026759147644,-0.09104681760072708
1789548297803647000,8.62664697265625,0.08586031198501587,-0.09367962181568146,-0.03247937932610512
1789548297813617000,8.636616943359375,0.12683464586734772,-0.09754599630832672,-0.03014298900961876
1789548297823586000,8.6465859375,0.11234837770462036,-0.06763043999671936,0.01324256882071495
1789548297833555000,8.656554931640626,0.12651266157627106,-0.06816413998603821,0.008431567810475826
1789548297843524000,8.666524169921875,0.15284493565559387,-0.05205308273434639,0.038605716079473495
1789548297853493000,8.676492919921875,0.15043717622756958,-0.07238445430994034,0.051418449729681015
1789548297863462000,8.6864619140625,0.150479257106781,-0.059186890721321106,0.014640461653470993
1789548297873431000,8.69643115234375,0.13856932520866394,-0.057496849447488785,0.006807572208344936
1789548297883400000,8.70639990234375,0.1334371566772461,-0.088202565908432,-0.02087279036641121
1789548297893368800,8.716368896484376,0.12668897211551666,-0.08493220061063766,-0.01979740709066391
1789548297903338000,8.726337890625,0.15556775033473969,-0.06713269650936127,-0.05048474669456482
1789548297913307000,8.736306884765625,0.16351835429668427,-0.09502531588077545,-0.0032112395856529474
1789548297923276800,8.74627685546875,0.08935225009918213,-0.027050793170928955,0.01309156697243452
1789548297933246000,8.756245849609375,0.10407846421003342,-0.07952971011400223,0.051054395735263824
1789548297943214800,8.76621484375,0.11218086630105972,-0.044869471341371536,0.051955342292785645
1789548297953184000,8.77618408203125,0.1471329927444458,-0.04581436142325401,0.012355469167232513
1789548297963153000,8.78615283203125,0.16769659519195557,-0.012500878423452377,0.01679256185889244
1789548297973122000,8.7961220703125,0.11612127721309662,0.008460862562060356,0.012201538309454918
1789548297983091200,8.80609130859375,0.12283883988857269,-0.02942713163793087,-0.005820338614284992
1789548297993060000,8.81606005859375,0.09881952404975891,0.019112974405288696,-0.007455253042280674
1789548298003029000,8.826029052734375,0.09773214906454086,-0.012145878747105598,-0.02689845860004425
1789548298012998100,8.835998046875,0.06338217109441757,0.035424038767814636,-0.028907282277941704
1789548298022968000,8.845968017578125,0.07111971825361252,0.027110179886221886,-0.012479572556912899
1789548298032937000,8.85593701171875,0.08130790293216705,0.030296120792627335,-0.04105689004063606
1789548298042905600,8.865905517578126,0.013396765105426311,0.07557784765958786,0.015211976133286953
1789548298052874500,8.87587451171875,0.021401163190603256,0.039448607712984085,0.020483704283833504
1789548298062843600,8.88584375,0.07680875808000565,0.024025708436965942,0.03533908352255821
1789548298072812500,8.8958125,0.014974421821534634,0.04127500206232071,0.05164268612861633
1789548298082781400,8.905781494140625,-0.02244911715388298,0.034390997141599655,0.0011518171522766352
1789548298092750600,8.91575048828125,-0.05837436020374298,0.08051534742116928,0.017826667055487633
1789548298102719500,8.925719482421876,-0.017166202887892723,-0.023300794884562492,0.015390408225357533
1789548298112688600,8.935688720703125,-0.0019414444686844945,0.04339541122317314,0.004977181553840637
1789548298122657500,8.945657470703125,-0.04435068741440773,0.12833534181118011,-0.0472484715282917
1789548298132627700,8.955627685546874,-0.04941122606396675,0.1066604033112526,-0.04752970114350319
1789548298142596600,8.9655966796875,-0.037811826914548874,0.048655685037374496,-0.008401207625865936
1789548298152565800,8.975565673828125,-0.04081667214632034,0.01641732268035412,-0.050817374140024185
1789548298162534700,8.98553466796875,-0.09665250778198242,0.035825107246637344,0.007641674485057592
1789548298172503800,8.99550390625,-0.10495171695947647,0.018510300666093826,-0.03972956910729408
1789548298182472700,9.00547265625,-0.1126658245921135,0.034938275814056396,-0.027277693152427673
1789548298192441600,9.015441650390626,-0.14955247938632965,0.044859617948532104,0.01576005481183529
1789548298202410800,9.02541064453125,-0.1171516552567482,-0.021082116290926933,0.02653893269598484
1789548298212379600,9.035379638671875,-0.11005779355764389,-0.0038988678716123104,0.0493859238922596
1789548298222348800,9.045348876953126,-0.0881812572479248,-0.004156395327299833,-0.014815697446465492
1789548298232317700,9.055317626953125,-0.08016087859869003,0.026247316971421242,-0.0759565457701683
1789548298242287600,9.06528759765625,-0.14328232407569885,0.025058215484023094,-0.0062704128213226795
1789548298252256500,9.075256591796874,-0.09963444620370865,-0.030179740861058235,-0.005766542628407478
1789548298262225700,9.0852255859375,-0.10059291869401932,0.027751469984650612,-0.06931595504283905
1789548298272194600,9.095194580078125,-0.16183283925056458,0.03496730327606201,-0.06064071133732796
1789548298282163700,9.105163818359374,-0.10142143070697784,-0.054490406066179276,0.006261890754103661
1789548298292132600,9.115132568359375,-0.12107129395008087,-0.06071128323674202,0.03657958284020424
1789548298302101500,9.1251015625,-0.11356597393751144,-0.04286224767565727,0.018267154693603516
1789548298312070700,9.135070556640626,-0.09096851944923401,-0.04783010482788086,0.0060083577409386635
1789548298322039600,9.14503955078125,-0.1252625733613968,-0.06039942800998688,0.03913142532110214
1789548298332008700,9.1550087890625,-0.08627203851938248,-0.05536631867289543,0.014574681408703327
1789548298341977600,9.1649775390625,-0.10283556580543518,-0.06875136494636536,-0.01600399985909462
1789548298351946500,9.174946533203125,-0.08512554317712784,-0.06304820626974106,-0.05692799761891365
1789548298361916400,9.18491650390625,-0.0688088908791542,-0.06745573878288269,-0.06732870638370514
1789548298371885600,9.194885498046874,-0.08981510996818542,-0.06435182690620422,-0.018254637718200684
1789548298381854500,9.2048544921875,-0.06887307018041611,-0.07057084143161774,0.005076251458376646
1789548298391823600,9.21482373046875,-0.03949547931551933,-0.0634482130408287,0.0073133064433932304
1789548298401792500,9.22479248046875,-0.006976683158427477,-0.07075139880180359,0.050457313656806946
1789548298411761400,9.234761474609375,-0.004198473412543535,-0.08143866807222366,0.030900390818715096
1789548298421730600,9.24473046875,-0.03561631590127945,-0.06289667636156082,0.011206049472093582
1789548298431699500,9.254699462890626,-0.016271380707621574,-0.0701892077922821,-0.023416642099618912
1789548298441668600,9.264668701171875,-0.01805250346660614,-0.08456575125455856,0.00006205165118444711
1789548298451637800,9.2746376953125,-0.008329036645591259,-0.09020392596721649,-0.027348266914486885
1789548298461606700,9.284606689453126,0.0030716899782419205,-0.08311592787504196,-0.030470823869109154
1789548298471575800,9.294575927734375,0.04073331505060196,-0.09304605424404144,-0.013337376527488232
1789548298481545700,9.304545654296875,0.04976675659418106,-0.09321170300245285,-0.013525396585464478
1789548298491514600,9.3145146484375,0.0583711639046669,-0.07097617536783218,0.0005153216770850122
1789548298501483800,9.32448388671875,0.06943846493959427,-0.06835269182920456,0.021148961037397385
1789548298511452700,9.33445263671875,0.06925683468580246,-0.06367351859807968,0.018756110221147537
1789548298521421600,9.344421630859374,0.11403575539588928,-0.10382413119077682,0.062434080988168716
1789548298531390700,9.354390625,0.1713365912437439,-0.13789288699626923,0.023447269573807716
1789548298541359600,9.364359619140625,0.16358600556850433,-0.07075326889753342,-0.04466493800282478
1789548298551328800,9.374328857421874,0.17087773978710175,-0.04879044368863106,-0.06907680630683899
1789548298561297700,9.384297607421875,0.1958448737859726,-0.11248712986707687,-0.01471795979887247
1789548298571266600,9.3942666015625,0.17477314174175262,-0.06344235688447952,-0.0006894923863001168
1789548298581235700,9.404235595703126,0.17619766294956207,-0.05662599578499794,-0.035161182284355164
1789548298591204600,9.41420458984375,0.22728748619556427,-0.04868844151496887,-0.0812610313296318
1789548298601174500,9.424174560546875,0.18833422660827637,-0.015854597091674805,-0.047877777367830276
1789548298611143700,9.434143798828124,0.18582552671432495,-0.03753618896007538,0.009958358481526375
1789548298621112600,9.444112548828125,0.16579589247703552,0.007368966471403837,-0.010761833749711514
1789548298631081500,9.45408154296875,0.17387139797210693,-0.06040874868631363,0.016747288405895233
1789548298641050600,9.464050537109374,0.14866749942302704,0.007675230037420988,-0.002852778183296323
1789548298651019500,9.47401953125,0.1539866328239441,-0.00971494521945715,-0.0017209346406161785
1789548298660988700,9.48398876953125,0.15391606092453003,-0.0029907298739999533,-0.03297233209013939
1789548298670957600,9.49395751953125,0.13502226769924164,0.006931941956281662,-0.025833727791905403
1789548298680926500,9.503926513671875,0.1359999179840088,-0.004765460267663002,-0.08097421377897263
1789548298690895600,9.5138955078125,0.10661379247903824,0.027832962572574615,-0.03741208836436272
1789548298700864500,9.523864501953126,0.08363177627325058,0.03418486937880516,-0.05365443974733353
1789548298710833700,9.533833740234375,0.11618998646736145,0.016563797369599342,-0.03472575545310974
1789548298720802600,9.543802490234375,0.08898899704217911,0.006896788254380226,0.0034179009962826967
1789548298730772700,9.553772705078124,0.11191827803850174,0.006396380253136158,-0.014957111328840256
1789548298740741600,9.56374169921875,0.09312861412763596,0.04670465365052223,-0.010040916502475739
1789548298750710800,9.573710693359375,0.08432473242282867,-0.004977980628609657,0.015899604186415672
1789548298760679700,9.5836796875,0.09443995356559753,0.03293105214834213,0.011891546659171581
1789548298770648800,9.59364892578125,0.11414521187543869,0.001442900625988841,-0.03856523707509041
1789548298780617700,9.60361767578125,0.043115511536598206,0.05456018075346947,-0.06698702275753021
1789548298790586600,9.613586669921874,0.042379945516586304,0.0486849807202816,-0.05221686512231827
1789548298800555800,9.6235556640625,0.10814590752124786,-0.005096757784485817,-0.05089540407061577
1789548298810524700,9.633524658203125,0.10842341184616089,0.01836382783949375,-0.04055914282798767
1789548298820493800,9.643493896484374,0.04803064092993736,0.062195729464292526,-0.028690500184893608
1789548298830462700,9.653462646484375,0.0915946289896965,0.054909586906433105,-0.01829911209642887
1789548298840431600,9.663431640625,0.06380640715360641,0.020989438518881798,0.00373055599629879
1789548298850400800,9.67340087890625,0.04544391483068466,-0.005705023650079966,0.03484613075852394
1789548298860370700,9.68337060546875,0.01284442562609911,0.04950843006372452,-0.049439188092947006
1789548298870339600,9.693339599609375,0.006040315609425306,0.06792046129703522,-0.050937749445438385
1789548298880308700,9.703308837890624,0.06595531105995178,0.03584854304790497,-0.0017102820565924048
1789548298890277600,9.713277587890625,-0.00022210762836039066,0.0880315899848938,-0.007849667221307755
1789548298900246500,9.72324658203125,-0.0021142836194485426,0.06965631246566772,-0.02653626911342144
1789548298910215700,9.733215576171874,0.022582007572054863,0.02677062712609768,-0.03139680624008179
1789548298920184600,9.7431845703125,-0.013962686993181705,0.09477710723876953,-0.026202576234936714
1789548298930153700,9.75315380859375,-0.014416489750146866,0.06913912296295166,-0.00586721021682024
1789548298940122600,9.76312255859375,-0.022215023636817932,0.0875902995467186,0.004049070179462433
1789548298950091500,9.773091552734375,-0.03287059813737869,0.10902874916791916,0.01599787548184395
1789548298960060700,9.783060791015625,0.008884571492671967,0.06600937992334366,0.007398793939501047
1789548298970029600,9.793029541015626,-0.02334526926279068,0.10807880014181137,0.008636631071567535
1789548298979998500,9.80299853515625,-0.09390892088413239,0.1104479506611824,0.03874047100543976
1789548298989967600,9.812967529296875,-0.029207419604063034,0.06381706148386002,0.029222600162029266
1789548298999937500,9.8229375,-0.040821731090545654,0.07992839068174362,-0.007467770017683506
1789548299009906400,9.832906494140625,-0.062481220811605453,0.06627915799617767,0.001243696198798716
1789548299019875600,9.84287548828125,-0.0571807324886322,0.11082372069358826,-0.05585740506649017
1789548299029844500,9.852844482421874,-0.09462317824363708,0.09244471043348312,0.008127701468765736
1789548299039813600,9.862813720703125,-0.06909038871526718,0.07576826214790344,-0.00959909800440073
1789548299049782800,9.87278271484375,-0.061941929161548615,0.05319664254784584,0.0016964336391538382
1789548299059751700,9.882751708984374,-0.040468864142894745,0.09035839140415192,0.017249027267098427
1789548299069720800,9.892720947265625,-0.06197362393140793,0.08430130034685135,-0.015213307924568653
1789548299079689700,9.902689697265625,-0.09477950632572174,0.048296693712472916,0.01329929381608963
1789548299089658600,9.91265869140625,-0.09007476270198822,0.028777852654457092,0.01673104241490364
1789548299099627800,9.922627685546875,-0.11055154353380203,-0.0056861150078475475,0.00310577847994864
1789548299109596700,9.9325966796875,-0.1017785593867302,0.028728051111102104,-0.005656553898006678
1789548299119565800,9.94256591796875,-0.09192406386137009,0.01184866949915886,-0.07814832776784897
1789548299129534700,9.95253466796875,-0.06267669796943665,0.013697702437639236,-0.04048271104693413
1789548299139503600,9.962503662109375,-0.051355600357055664,0.022469889372587204,-0.048469532281160355
1789548299149473800,9.972473876953124,-0.031097466126084328,0.023091470822691917,-0.0365217924118042
1789548299159443000,9.98244287109375,-0.04477918893098831,0.027481958270072937,0.0004921521758660674
1789548299169411800,9.992411865234375,-0.07379192858934402,0.024233434349298477,-0.00017257283616345376
1789548299179381000,10.002381103515624,-0.055205732583999634,0.005886118393391371,0.015545137226581573
1789548299189350000,10.012349853515625,-0.033898044377565384,-0.04582847282290459,0.05590134859085083
1789548299199318800,10.02231884765625,-0.0246060099452734,0.0046237800270318985,-0.006364156026393175
1789548299209288000,10.032287841796874,-0.05324165150523186,0.010763165540993214,-0.008506935089826584
1789548299219256800,10.0422568359375,-0.09384899586439133,-0.0011576761025935411,0.014156032353639603
1789548299229226000,10.05222607421875,-0.08103066682815552,-0.017741180956363678,-0.00014034859486855567
1789548299239195000,10.06219482421875,-0.04920110106468201,-0.023610521107912064,-0.06102260574698448
1789548299249163800,10.072163818359375,-0.06834257394075394,-0.011022823862731457,-0.020531639456748962
1789548299259133000,10.0821328125,-0.03617957606911659,-0.025800971314311028,-0.03477182984352112
1789548299269101800,10.092101806640626,-0.03145512938499451,-0.005378520116209984,-0.003081277245655656
1789548299279071000,10.102071044921875,-0.060493968427181244,-0.03615294396877289,0.03847069293260574
1789548299289040000,10.112039794921875,-0.06314674764871597,0.0070304786786437035,0.03340695798397064
1789548299299009800,10.122009765625,-0.03435131534934044,-0.04505455866456032,0.06598541140556335
1789548299308978700,10.131978759765625,-0.03723791614174843,-0.01127875316888094,0.01877581886947155
1789548299318947800,10.14194775390625,-0.030485471710562706,0.010698717087507248,-0.022757243365049362
1789548299328916700,10.151916748046874,-0.06667356938123703,0.008275773376226425,-0.027702201157808304
1789548299338886000,10.161885986328125,-0.08155930787324905,0.015535017475485802,-0.030292658135294914
1789548299348854800,10.171854736328125,-0.04464709758758545,-0.0168524831533432,-0.0421258807182312
1789548299358823700,10.18182373046875,-0.05709497630596161,-0.013203952461481094,-0.01811402291059494
1789548299368792800,10.191792724609375,-0.07793208211660385,-0.006204632576555014,-0.022233400493860245
1789548299378761700,10.20176171875,-0.04119936749339104,0.01435443852096796,-0.004204066004604101
1789548299388731000,10.21173095703125,-0.060212474316358566,0.011628160253167152,0.003683418035507202
1789548299398699800,10.22169970703125,-0.0415000393986702,0.0048738508485257626,0.0336487740278244
1789548299408668700,10.231668701171875,-0.007200655061751604,0.009160474874079227,-0.0028642297256737947
1789548299418637800,10.241637939453126,-0.0667840912938118,-0.026151709258556366,0.04158525913953781
1789548299428606700,10.251606689453125,-0.060494501143693924,-0.02321557328104973,0.04262096434831619
1789548299438575900,10.261575927734375,-0.0005805690889246762,-0.02851979248225689,-0.005062402691692114
1789548299448544800,10.271544677734376,0.007148723118007183,-0.013819143176078796,-0.011284612119197845
1789548299458513700,10.281513671875,-0.03130492568016052,0.016863401979207993,-0.017039703205227852
1789548299468483800,10.29148388671875,0.004521248396486044,-0.018509235233068466,0.020491959527134895
1789548299478453000,10.301452880859374,0.030309170484542847,-0.027291009202599525,-0.0018152105621993542
1789548299488422000,10.311421875,0.009727728553116322,0.009999371133744717,-0.05375564098358154
1789548299498391000,10.32139111328125,0.038423556834459305,0.006104497704654932,-0.058571700006723404
1789548299508360000,10.33135986328125,-0.0024144218768924475,-0.0246046781539917,-0.017885256558656693
1789548299518328800,10.341328857421875,-0.013344833627343178,-0.003406449221074581,0.03140852227807045
1789548299528298000,10.351298095703125,0.011840147897601128,-0.006128732580691576,0.021812088787555695
1789548299538267000,10.361266845703126,-0.004513259045779705,0.009850500151515007,0.05348373204469681
1789548299548235800,10.37123583984375,0.041974615305662155,-0.0028309402987360954,0.05012974515557289
1789548299558205000,10.381204833984375,0.0028812738601118326,-0.013432984240353107,0.028391694650053978
1789548299568173800,10.391173828125,-0.02562999539077282,-0.013202887028455734,0.0318218469619751
1789548299578143000,10.40114306640625,-0.040824662894010544,-0.020507140085101128,-0.06964565813541412
1789548299588112000,10.41111181640625,-0.09829487651586533,0.03239522501826286,-0.04032691568136215
1789548299598080800,10.421080810546876,-0.07287420332431793,-0.03195739910006523,-0.018971027806401253
1789548299608050000,10.4310498046875,-0.09508150815963745,0.011471832171082497,-0.018819760531187057
1789548299618018800,10.441018798828125,-0.11251989006996155,0.006325540132820606,0.015962721779942513
1789548299627988000,10.450988037109376,-0.02526913769543171,-0.018756642937660217,0.046304646879434586
1789548299637958000,10.4609580078125,-0.05481584370136261,-0.0007422229973599315,0.03984595090150833
1789548299647926800,10.4709267578125,-0.09760379046201706,0.024935176596045494,0.04265265539288521
1789548299657895700,10.480895751953126,-0.07901545614004135,-0.002350239548832178,0.009832124225795269
1789548299667864800,10.49086474609375,-0.13121794164180756,-0.027003388851881027,-0.015424496494233608
1789548299677833700,10.500833740234375,-0.11869815737009048,-0.013293967582285404,-0.004463724326342344
1789548299687803000,10.510802978515626,-0.06139491870999336,-0.048952896147966385,-0.061531804502010345
1789548299697771800,10.520771728515625,-0.05426110699772835,0.007543670013546944,-0.070216104388237
1789548299707740700,10.53074072265625,-0.053281065076589584,-0.011084076017141342,-0.05505712702870369
1789548299717709800,10.540709716796876,-0.0852629691362381,-0.02612188085913658,-0.003338006092235446
1789548299727678700,10.5506787109375,-0.09985921531915665,-0.01299329660832882,0.024570589885115623
1789548299737647900,10.56064794921875,-0.01745542325079441,-0.05717380717396736,0.0151592455804348
1789548299747616800,10.57061669921875,-0.03748825192451477,-0.009680590592324734,0.008045409806072712
1789548299757585700,10.580585693359374,-0.023751934990286827,-0.0231681689620018,0.029466012492775917
1789548299767554800,10.590554931640625,-0.056416403502225876,-0.016619989648461342,0.03494493290781975
1789548299777523700,10.600523681640626,-0.07568889856338501,-0.04887060448527336,-0.015924904495477676
1789548299787492900,10.610492919921874,-0.08274973928928375,-0.026885677129030228,-0.026221217587590218
1789548299797461800,10.620461669921875,-0.08893413096666336,-0.014251373708248138,-0.05005890503525734
1789548299807430700,10.6304306640625,-0.04446227476000786,-0.010331999510526657,-0.03110012784600258
1789548299817399800,10.64039990234375,-0.07689371705055237,-0.006431800313293934,-0.004959604702889919
1789548299827368700,10.65036865234375,-0.09562079608440399,0.027968784794211388,-0.019600600004196167
1789548299837339000,10.6603388671875,-0.06254540383815765,-0.03352706879377365,-0.007939948700368404
1789548299847308000,10.67030810546875,-0.07668305933475494,-0.03273531049489975,-0.010989533737301826
1789548299857277000,10.68027685546875,-0.10392000526189804,-0.011581821367144585,0.0679236575961113
1789548299867245800,10.690245849609376,-0.020121512934565544,-0.05355776846408844,0.00657561095431447
1789548299877215000,10.700215087890625,-0.018607506528496742,0.006601177155971527,-0.030060697346925735
1789548299887184000,10.710183837890625,-0.06157281622290611,-0.013464942574501038,-0.007495732977986336
1789548299897153000,10.720153076171876,-0.023668844252824783,-0.007453921716660261,-0.005231780000030994
1789548299907122000,10.730121826171874,-0.056043561547994614,-0.016924655064940453,0.020189689472317696
1789548299917090800,10.7400908203125,-0.096190445125103,-0.01330035924911499,0.03904939815402031
1789548299927060000,10.75006005859375,-0.056825198233127594,-0.04700426012277603,0.022792130708694458
1789548299937028900,10.76002880859375,-0.0324932299554348,-0.053948454558849335,0.03797481209039688
1789548299946997800,10.769997802734375,-0.01601145789027214,-0.022593459114432335,0.02857385389506817
1789548299956967000,10.779966796875,-0.035836558789014816,-0.02742762863636017,0.027056384831666946
1789548299966935800,10.789935791015624,-0.014532869681715965,-0.043232157826423645,0.022494656965136528
1789548299976905000,10.799905029296875,-0.0511326938867569,-0.04424256086349487,0.015730226412415504
1789548299986873900,10.809873779296876,-0.020191553980112076,-0.05889101326465607,0.018190188333392143
1789548299996842800,10.8198427734375,-0.002778475871309638,-0.07531179487705231,-0.02905268967151642
1789548300006812000,10.82981201171875,-0.0012207929976284504,-0.06512787193059921,-0.03790956363081932
1789548300016780800,10.83978076171875,0.018221881240606308,-0.07770545035600662,-0.02503371424973011
1789548300026750000,10.84975,-0.004042944870889187,-0.0727519690990448,-0.014905712567269802
1789548300036718800,10.85971875,0.03689756244421005,-0.05805238336324692,-0.017788318917155266
1789548300046689000,10.86968896484375,0.0335819274187088,-0.08988647907972336,-0.01726500689983368
1789548300056658000,10.879657958984374,-0.017139839008450508,-0.06594838947057724,0.01570093259215355
1789548300066627000,10.889626953125,0.04102839156985283,-0.10554186999797821,0.012569321319460869
1789548300076596000,10.899595947265626,0.061282265931367874,-0.11395266652107239,0.022475214675068855
1789548300086565000,10.909565185546874,-0.015634087845683098,-0.06732924282550812,0.030949126929044724
1789548300096534000,10.919533935546875,0.033495109528303146,-0.08063092827796936,-0.0030663637444376945
1789548300106503000,10.9295029296875,0.03647065907716751,-0.0889090970158577,-0.028249215334653854
1789548300116472000,10.93947216796875,0.008947421796619892,-0.07421191036701202,-0.040649957954883575
1789548300126441000,10.94944091796875,0.031857531517744064,-0.060933925211429596,-0.07945354282855988
1789548300136410000,10.95941015625,0.016999224200844765,-0.11246608942747116,-0.06981663405895233
1789548300146379000,10.96937890625,-0.013252155855298042,-0.07444334030151367,-0.04042918235063553
1789548300156348000,10.979347900390625,0.036971066147089005,-0.11809175461530685,-0.07144328951835632
1789548300166317000,10.989317138671876,0.06523919105529785,-0.10647477954626083,0.017580857500433922
1789548300176286000,10.999285888671874,0.06815668195486069,-0.12070724368095398,0.037576138973236084
1789548300186255000,11.009255126953125,0.11233692616224289,-0.13917545974254608,0.06399043649435043
1789548300196224000,11.01922412109375,0.1291412115097046,-0.10872221738100052,0.03816549479961395
1789548300206193000,11.02919287109375,0.12408279627561569,-0.09328200668096542,0.007980961352586746
1789548300216162000,11.039162109375,0.15294641256332397,-0.10201212018728256,-0.031148064881563187
1789548300226131200,11.049131103515625,0.11127325892448425,-0.1052318811416626,-0.0352778285741806
1789548300236100000,11.05910009765625,0.12202524393796921,-0.061710234731435776,-0.05859966203570366
1789548300246069200,11.0690693359375,0.13584092259407043,-0.10122435539960861,-0.030060430988669395
1789548300256038100,11.0790380859375,0.12137702852487564,-0.0806804671883583,-0.006139118690043688
1789548300266008000,11.089008056640624,0.13601429760456085,-0.07404732704162598,0.010569820180535316
1789548300275977200,11.098977294921875,0.18194156885147095,-0.06981530040502548,0.00022929816623218358
1789548300285946000,11.108946044921876,0.17527541518211365,-0.07805965095758438,-0.022417424246668816
1789548300295915000,11.1189150390625,0.1295071244239807,-0.060880396515131,-0.004449609667062759
1789548300305884200,11.12888427734375,0.1629665493965149,-0.10328005254268646,-0.010907242074608803
1789548300315853000,11.13885302734375,0.1706569641828537,-0.07948577404022217,-0.024873126298189163
1789548300325822200,11.148822265625,0.19136463105678558,-0.03262319043278694,-0.03729410842061043
1789548300335791000,11.158791015625,0.2311706393957138,-0.04712889716029167,-0.018037322908639908
1789548300345760000,11.168760009765625,0.22039228677749634,-0.002513757674023509,0.004805940669029951
1789548300355729200,11.178729248046874,0.2285066694021225,-0.02593359537422657,0.0036312201991677284
1789548300365698000,11.188697998046875,0.22089749574661255,-0.0016410398529842496,0.02323474921286106
1789548300375667200,11.198667236328125,0.20574836432933807,-0.04819788783788681,0.07897737622261047
1789548300385636000,11.208635986328124,0.2522365152835846,-0.018248511478304863,0.02021232806146145
1789548300395605000,11.21860498046875,0.20326070487499237,0.049983005970716476,0.008471515029668808
1789548300405574100,11.22857421875,0.19541050493717194,0.026611637324094772,0.009935455396771431
1789548300415543000,11.23854296875,0.19685927033424377,0.037829671055078506,0.009402289986610413
1789548300425512200,11.24851220703125,0.18945488333702087,-0.008333563804626465,0.051899950951337814
1789548300435481000,11.258481201171875,0.1836308091878891,0.02526674047112465,0.019363844767212868
1789548300445450000,11.268449951171876,0.12034238874912262,0.038003839552402496,-0.009013468399643898
1789548300455419100,11.278419189453125,0.10124725848436356,0.06054643541574478,0.006155630573630333
1789548300465388000,11.288387939453125,0.08377984911203384,0.06975138187408447,-0.020484767854213715
1789548300475357000,11.29835693359375,0.04759308695793152,0.06776866316795349,-0.00589490681886673
1789548300485326000,11.308326171875,0.07444174587726593,0.08176969736814499,-0.02148531749844551
1789548300495295000,11.318294921875,0.04411632940173149,0.05877223610877991,-0.02365659363567829
1789548300505264000,11.32826416015625,0.01519679557532072,0.06607755273580551,0.021155351772904396
1789548300515233000,11.33823291015625,0.042931221425533295,0.01836089789867401,0.029376531019806862
1789548300525202000,11.348201904296875,0.0013456953456625342,0.08102720975875854,0.03105538710951805
1789548300535172000,11.358172119140624,0.005589708685874939,0.07688040286302567,-0.015196263790130615
1789548300545141000,11.36814111328125,-0.008083226159214973,0.11266502737998962,-0.037336986511945724
1789548300555110000,11.37810986328125,-0.02834162674844265,0.08237263560295105,-0.0331646129488945
1789548300565079000,11.3880791015625,-0.006317817140370607,0.060681454837322235,-0.05838341638445854
1789548300575048000,11.3980478515625,-0.041320543736219406,0.06354888528585434,-0.09262154251337051
1789548300585017000,11.40801708984375,-0.07418528199195862,0.08885983377695084,-0.05101471394300461
1789548300594986200,11.417986328125,0.008845689706504345,0.049615491181612015,-0.03994422033429146
1789548300604955100,11.427955078125,-0.026147447526454926,0.09623758494853973,0.0243705864995718
1789548300614924300,11.43792431640625,0.0029494508635252714,0.12558375298976898,0.004658135119825602
1789548300624893200,11.44789306640625,0.03406449407339096,0.049380600452423096,0.03363758698105812
1789548300634862000,11.457862060546875,0.014606639742851257,0.06058771163225174,0.0706440731883049
1789548300644831200,11.467831298828125,-0.014002101495862007,0.0688491016626358,0.02966921217739582
1789548300654800100,11.477800048828126,0.0008165251929312944,0.08546057343482971,-0.015194931998848915
1789548300664769300,11.487769287109375,-0.007711182814091444,0.08546856045722961,-0.0792815089225769
1789548300674738200,11.49773828125,-0.03822861239314079,0.05933469533920288,-0.09926346689462662
1789548300684707000,11.50770703125,-0.057675812393426895,0.058162905275821686,-0.06771966069936752
1789548300694676200,11.51767626953125,-0.031849008053541183,0.06435289233922958,-0.06075442582368851
1789548300704645000,11.52764501953125,-0.015297729521989822,0.10789956897497177,-0.06330546736717224
1789548300714614300,11.5376142578125,-0.057131730020046234,0.07516958564519882,-0.03714150935411453
1789548300724583200,11.547583251953125,-0.025242505595088005,0.05499054864048958,0.004680239129811525
1789548300734552000,11.557552001953125,-0.05826517194509506,0.06752950698137283,-0.004735899157822132
1789548300744521200,11.567521240234376,-0.07872410863637924,0.08395002782344818,0.00018189390539191663
1789548300754490000,11.577489990234374,-0.030099045485258102,0.047937698662281036,0.02129490301012993
1789548300764459000,11.587458984375,-0.04838910326361656,0.053885336965322495,-0.023551931604743004
1789548300774428200,11.59742822265625,-0.07583218067884445,0.10933873802423477,-0.07838242501020432
1789548300784397000,11.60739697265625,-0.08281019330024719,0.03326021879911423,-0.046006374061107635
1789548300794366200,11.6173662109375,-0.12075384706258774,0.0828876942396164,-0.037993986159563065
1789548300804335000,11.627335205078126,-0.10518607497215271,0.06793724000453949,-0.05836290866136551
1789548300814304000,11.637303955078124,-0.07956913113594055,0.05438388139009476,0.026097381487488747
1789548300824273200,11.647273193359375,-0.09413634985685349,0.033257823437452316,0.04598373547196388
1789548300834243000,11.6572431640625,-0.10625586658716202,0.06772365421056747,0.040764741599559784
1789548300844212000,11.6672119140625,-0.10979148000478745,0.08619214594364166,0.03810104727745056
1789548300854181000,11.67718115234375,-0.07261774688959122,0.024031832814216614,0.07866711169481277
1789548300864150000,11.68714990234375,-0.088333860039711,0.06049370393157005,0.061883073300123215
1789548300874119200,11.697119140625,-0.10369257628917694,0.037643782794475555,-0.02467898093163967
1789548300884088000,11.707088134765625,-0.1318081021308899,0.0699058473110199,-0.04580610245466232
1789548300894057000,11.717056884765626,-0.1212068498134613,0.021449631080031395,-0.037041373550891876
1789548300904026000,11.727026123046874,-0.10194473713636398,0.02990010753273964,-0.01996891386806965
1789548300913995000,11.7369951171875,-0.09908157587051392,0.04652275890111923,-0.0133275231346488
1789548300923964000,11.7469638671875,-0.10685614496469498,0.06272729486227036,0.021675201132893562
1789548300933933000,11.75693310546875,-0.07356423139572144,0.04699786752462387,0.05969475582242012
1789548300943902000,11.76690185546875,-0.04694034531712532,0.012264123186469078,0.057188987731933594
1789548300953871000,11.77687109375,-0.06204366311430931,0.01824078895151615,0.06606689840555191
1789548300963840000,11.786840087890624,-0.10901916027069092,-0.006261890754103661,0.08095583319664001
1789548300973809000,11.796808837890625,-0.09146945923566818,-0.013228453695774078,0.07536106556653976
1789548300983778000,11.806778076171875,-0.08335720747709274,0.006613960489630699,0.018577678129076958
1789548300993747000,11.816746826171874,-0.05602492019534111,-0.003114833263680339,0.016809340566396713
1789548301003716000,11.826716064453125,-0.0884944424033165,0.010976218618452549,0.031571775674819946
1789548301013685000,11.83668505859375,-0.04942214488983154,-0.010460097342729568,0.05860072746872902
1789548301023654000,11.84665380859375,-0.05608004704117775,-0.0018287927377969027,0.0255208071321249
1789548301033623000,11.856623046875,-0.04547746852040291,-0.023929568007588387,-0.020809674635529518
1789548301043591700,11.866591796875,-0.06807705760002136,-0.026033464819192886,-0.0680842474102974
1789548301053560800,11.876560791015624,-0.08918660134077072,0.02635251171886921,-0.24559538066387177
1789548301063529700,11.88652978515625,-0.11388662457466125,-0.046850595623254776,-0.17344821989536285
1789548301073498600,11.89649853515625,-0.06701605021953583,-0.01082681491971016,-0.1478792130947113
1789548301083467800,11.9064677734375,-0.06984405964612961,0.08783717453479767,-0.14018000662326813
1789548301093436700,11.916436767578125,-0.0014290522085502744,0.01631718873977661,-0.0425565131008625
1789548301103405800,11.92640576171875,0.036546025425195694,-0.019596071913838387,0.07648199051618576
1789548301113374700,11.936374755859376,0.09821418672800064,-0.08360621333122253,0.09618991613388062
1789548301123343600,11.946343505859375,0.044857487082481384,-0.07233438640832901,0.10014577209949493
1789548301133312800,11.956312744140625,-0.010118946433067322,-0.032757148146629333,0.09742562472820282
1789548301143281700,11.96628173828125,-0.0032570459879934788,-0.08457240462303162,0.036017920821905136
1789548301153250800,11.976250732421875,-0.05113082751631737,0.007501059677451849,-0.026392724364995956
1789548301163219700,11.9862197265625,0.003483681008219719,-0.035175032913684845,-0.03803153708577156
1789548301173188600,11.996188720703126,0.04800800606608391,-0.03380856290459633,-0.031490813940763474
1789548301183157800,12.00615771484375,0.025949042290449142,0.005301554687321186,-0.08019790053367615
1789548301193126700,12.016126708984375,0.037869084626436234,-0.009240370243787766,-0.09095893800258636
1789548301203095600,12.026095458984376,0.02123924158513546,0.002139050979167223,-0.09498696774244308
1789548301213064700,12.036064697265624,-0.002829342382028699,-0.018565693870186806,-0.08213002234697342
1789548301223033600,12.04603369140625,-0.00004660531703848392,0.005652825813740492,-0.05438308045268059
1789548301233003500,12.05600341796875,-0.03471536934375763,0.010771953500807285,-0.10176125168800354
