time,seconds_elapsed,z,y,x
1788849174365983500,0.0569833984375,-0.1494903042435646,0.135826520550251,-0.9374619057677686
1788849174375952400,0.066952392578125,-0.5324643701910973,0.34636019929945466,-1.2927584218472241
1788849174385922300,0.07692236328125,-0.7048433825910091,0.39078970813453195,-1.6002457235254346
1788849174395891500,0.086891357421875,-0.8725345294356346,0.24862404769062996,-1.8392112776413558
1788849174405860400,0.0968603515625,-0.9654331778854132,0.40640754850506783,-1.812400573735684
1788849174415829500,0.10682958984375,-0.7007073056995868,0.7358125213503837,-1.7132283979743719
1788849174425798400,0.11679833984375,-0.08574117791056632,1.0551777462184428,-1.486767666774988
1788849174435767300,0.126767333984375,0.5158323843419551,1.1557920836120843,-1.093184163203463
1788849174445736400,0.136736328125,0.8053577667415142,0.8752151468217373,-0.9754350780703127
1788849174455706400,0.146706298828125,0.9354296692878007,0.6501017385780811,-1.094387109252438
1788849174465675300,0.15667529296875,1.0471405702352523,0.6344108329713344,-1.2512412933275103
1788849174475644400,0.16664453125,1.3013736899793147,0.5627957955688238,-1.5380340358927844
1788849174485613300,0.17661328125,1.659551168322563,0.21116145525872707,-1.7253320927441118
1788849174495582500,0.18658251953125,1.881904464203119,-0.0625929420351982,-1.641663921715319
1788849174505551600,0.196551513671875,1.887117230415344,0.38510815536677834,-1.1970941811416298
1788849174515520500,0.2065205078125,0.9222487006753682,-0.6376572675466537,-1.6682606906093655
1788849174525490700,0.21649072265625,0.37324236100614067,-0.4936702368944883,-1.5690432144016027
1788849174535459800,0.2264599609375,0.3824906663447618,-0.0917594152867794,-1.0998776694927364
1788849174545428700,0.2364287109375,0.607505290389061,0.12169044317007065,-0.9425052336972206
1788849174555397600,0.246397705078125,0.26382512395381924,0.1864332567155361,-0.6545696047071368
1788849174565366800,0.25636669921875,0.10495324338078499,0.13791151013076305,-0.48399311168454584
1788849174575335700,0.266335693359375,0.2746422860443592,0.13941022425591945,-0.39547815821170806
1788849174585304800,0.276304931640625,0.39458910041749473,0.04692249469459057,-0.25320932965427634
1788849174595274800,0.286274658203125,0.29160160415172576,-0.07200783611238003,-0.1299262104652822
1788849174605243600,0.29624365234375,-0.15390987425148486,-0.1754454142332077,-0.16891637779064475
1788849174615212800,0.306212890625,-0.7871458182245492,-0.17738602690696714,-0.24477614009082316
1788849174625181700,0.316181640625,-1.1588450414419174,-0.012093173375725746,-0.22704561841525137
1788849174635150600,0.326150634765625,-1.59489720210433,0.04685001398026943,-0.10427410201020539
1788849174645119700,0.33611962890625,-2.1396827092081305,-0.07119535068571567,-0.09772197695299982
1788849174655088600,0.346088623046875,-2.077025469765067,-0.12310498614311217,-0.276092265656963
1788849174665058600,0.35605859375,-1.454564602306485,-0.03775719146430492,-0.42268144163154064
1788849174675027700,0.36602783203125,-0.7786918781340122,0.010240238985419273,-0.40759551618061957
1788849174684996600,0.37599658203125,-0.3587988251119852,0.03883504982888698,-0.39542405340429393
1788849174694965500,0.385965576171875,-0.10461538972854614,0.06783610338568687,-0.37228904233668
1788849174704934700,0.3959345703125,-0.1624088225275278,-0.002593523624539375,-0.3092598277760669
1788849174714903600,0.405903564453125,-0.4817705402642488,0.030047347739338873,-0.12867113237027078
1788849174724872700,0.415872802734375,-0.6942319722056388,0.2883487398356199,0.120405481393449
1788849174734842600,0.425842529296875,-0.9240817613214254,0.5920826803296804,0.31568525771368294
1788849174744811500,0.4358115234375,-0.8487503337442874,0.937219475314021,0.3418251131530851
1788849174754780400,0.445780517578125,-0.48255789124965665,0.9850035552740096,0.3880133022237569
1788849174764749600,0.45574951171875,-0.25971359698176383,0.8297539568513631,0.29609051306881007
1788849174774718700,0.46571875,-0.45182256124615666,0.3321235841542482,-0.09013912060856819
1788849174784687900,0.47568798828125,-0.921398805847764,-0.289271699899435,-0.6527157204687595
1788849174794656800,0.48565673828125,-1.1354700110733509,-0.4541074573129415,-0.9291989582046866
1788849174804626700,0.495626708984375,-0.9138046974569558,-0.2751215939939022,-0.8543642281033098
1788849174814595600,0.505595703125,-0.19816344199776648,0.038842064091563225,-0.3147098733428865
1788849174824564700,0.515564697265625,0.5845417634308337,0.23147417544722557,0.1745664394415915
1788849174834533600,0.52553369140625,0.99115740172863,0.08275602461993693,0.5895512621559202
1788849174844502800,0.535502685546875,0.6238380010306834,-0.36643735716640946,0.6265052474785596
1788849174854471700,0.5454716796875,0.05866846206784248,-0.4301806382805109,0.21008542352505027
1788849174864441600,0.555441650390625,0.04346387867331505,-0.05191021997928619,0.03082834204919636
1788849174874410800,0.56541064453125,0.2588303844064474,0.07727496286034584,0.11424239218644797
1788849174884379600,0.575379638671875,0.44508302385807036,0.07857143241167068,0.4200640987399965
1788849174894348500,0.5853486328125,0.3507458670377731,-0.010689736318588257,0.8975301467433572
1788849174904317700,0.595317626953125,0.2556722126364708,-0.015514964517951011,1.1570282743435352
1788849174914286600,0.60528662109375,0.3729898475497961,0.06098959849178791,1.0508050110269338
1788849174924255500,0.61525537109375,0.4145668895632028,0.08019757230877876,0.6687302320066839
1788849174934225700,0.6252255859375,0.2743161228299141,-0.05311258150637149,0.07025763144418597
1788849174944194600,0.635194580078125,0.17691197965443134,-0.30573125179111954,-0.3378969068586826
1788849174954163500,0.64516357421875,0.0407774160683155,-0.6484779367685317,-0.362866805203259
1788849174964132600,0.655132568359375,-0.13792846126556396,-0.8092395766109227,-0.17493899908103047
1788849174974101500,0.6651015625,-0.15700725574493407,-0.672933163589239,0.09565839548669755
1788849174984070700,0.675070556640625,-0.12360358331501484,-0.38480771111547946,0.2891067916613072
1788849174994039600,0.68503955078125,-0.12818915753960608,-0.1411988612383604,0.3516941807385534
1788849175004009700,0.695009765625,0.02625906137228012,-0.01239361762702465,0.36452494767382737
1788849175013978600,0.704978515625,0.3099111678242683,0.004353519034385681,0.46354251739531754
1788849175023947800,0.71494775390625,0.6339888081669807,0.03263210353553295,0.6140034202367067
1788849175033916700,0.724916748046875,0.9334849649608135,-0.02778232541680336,0.702759050597623
1788849175043885800,0.7348857421875,1.1990864509373902,-0.21500176407396793,0.6599458909180015
1788849175053854700,0.744854736328125,1.376930158483982,-0.5287450574070215,0.712071434148401
1788849175063823600,0.75482373046875,1.3776958821594714,-0.7785907558470964,0.8683145736530422
1788849175073793500,0.76479345703125,0.7286357615888118,-1.0109212558627128,1.0963035373330117
1788849175083762700,0.7747626953125,0.11734569196403026,-1.2901345030844211,1.28160428288728
1788849175093731600,0.784731689453125,-0.035633038917183876,-1.5009376464247703,1.8850456848382948
1788849175103700700,0.79470068359375,-0.09269348126649855,-1.559978448936343,2.5961352683424948
1788849175113669600,0.804669677734375,0.20528993287682532,-1.2023814008295535,2.4802944279834627
1788849175123638500,0.814638427734375,0.6103606798201799,0.012446224597096442,0.837036442009732
1788849175133608700,0.824608642578125,0.09385434173941612,0.8770143051981926,-0.3196936531048268
1788849175143577600,0.83457763671875,-0.7025152319043875,0.9426830014169215,-0.7334570442654192
1788849175153546500,0.84454638671875,-1.2071458387523888,0.7610767264664172,-0.8028119547162205
1788849175163515600,0.854515625,-1.420852886840701,0.6682084731549024,-0.9174491183739155
1788849175173484500,0.864484619140625,-1.2140911278456448,0.7172936988413333,-1.0852206369783728
1788849175183453400,0.874453369140625,-0.7203057401388883,0.8138988005936145,-1.1798124261468648
1788849175193422600,0.884422607421875,-0.1915092448055744,0.8519821552723645,-1.0598873121488839
1788849175203392800,0.894392822265625,0.24871640214920043,0.8639607623577117,-0.7718301026057451
1788849175213361700,0.904361572265625,0.6120616385191678,0.9117594553649425,-0.4541129737382754
1788849175223330800,0.914330810546875,0.9334685983479022,1.0412731395065784,-0.18039640597039833
1788849175233299700,0.9242998046875,1.0957616855412722,1.2341232775270938,-0.025209075112023856
1788849175243268600,0.9342685546875,1.015199371573329,1.3336241007208824,-0.0877285158028826
1788849175253237800,0.94423779296875,0.8303910857111215,1.2361603363126517,-0.4521690731288865
1788849175263206700,0.95420654296875,0.5856991167724133,1.0685223809599875,-0.8585711782738565
1788849175273176600,0.964176513671875,0.500608511725068,0.8324819205105304,-1.2429112718775868
1788849175283145700,0.974145751953125,0.4684896184086799,0.5238385806649923,-1.5924638374775648
1788849175293114600,0.984114501953125,0.5600117178082465,0.28405484203398224,-1.7197532696984708
1788849175303083800,0.994083740234375,0.636726124176383,0.04481821589171886,-1.7198679821193217
1788849175313052700,1.004052734375,0.7638292400449513,-0.20740297950804232,-1.6249363665372132
1788849175323021600,1.014021484375,0.8896668660223483,-0.3076385467171669,-1.397885268229246
1788849175332991500,1.023991455078125,0.9379799382925033,-0.20749182683527467,-1.1317682339459656
1788849175342960600,1.033960693359375,0.8647171336829662,0.0710766927421093,-0.8928297870326787
1788849175352929500,1.043929443359375,0.6014262627363205,0.2943623010367155,-0.7306658061116933
1788849175362898700,1.053898681640625,0.11305588581562041,0.45919513584077354,-0.7179726210162043
1788849175372867600,1.06386767578125,-0.4173743481993675,0.5516577309608459,-0.7469251592561602
1788849175382836500,1.07383642578125,-0.709017453405261,0.5833107603311538,-0.7905190940499305
1788849175392805600,1.0838056640625,-0.6497071863025426,0.6102320850044488,-0.7016444404192268
1788849175402775600,1.093775634765625,-0.20283260285258292,0.6913549554646015,-0.4438100813128054
1788849175412744700,1.10374462890625,0.27353344801962376,0.8357453062206506,-0.1284963603252545
1788849175422713900,1.1137138671875,0.6812777980864048,0.9882914909034967,0.2965431339408271
1788849175432682800,1.123682861328125,1.0684779572963714,1.2157464938372373,0.8317873623751103
1788849175442651600,1.133651611328125,1.084915297356248,1.3998451701253651,1.3142018996313214
1788849175452620800,1.143620849609375,0.8533622114539146,1.6263251905471086,1.7859378064848481
1788849175462589700,1.153589599609375,0.5923813710153103,1.8531623538434505,2.2943137373410165
1788849175472559600,1.1635595703125,0.32068098364174363,1.9428964007824658,2.831687360753119
1788849175482528800,1.17352880859375,-0.07801204496324061,2.100468889194727,3.2146801314011215
1788849175492497700,1.18349755859375,-0.46592707444429393,2.3106775737732645,3.353183762206137
1788849175502466000,1.193466064453125,-0.6710200234442949,2.6271657819002865,3.3756624282568692
1788849175512435000,1.20343505859375,-0.8217050904303789,3.148389211630821,3.4188477822497485
1788849175522403800,1.21340380859375,-0.7017313880503178,3.430307626157999,3.5837884613424538
1788849175532374000,1.2233740234375,-0.32212124557793137,3.2823540299624203,3.832473591570556
1788849175542343200,1.23334326171875,-0.05538754070103168,3.138597885456681,3.8661686481624837
1788849175552312000,1.24331201171875,-0.12012626259326935,3.37855171995759,3.915829920171201
1788849175562281200,1.25328125,-0.007100187394022941,3.68879548073709,4.0877269942730665
1788849175572250000,1.26325,0.2295639579117298,3.8256092587590214,4.250696373292803
1788849175582219000,1.273218994140625,0.5034738380283117,3.737925714609027,4.171446895489097
1788849175592188200,1.283188232421875,0.6144236914753913,3.426521677878499,3.928357101050019
1788849175602158000,1.293157958984375,0.6671317838340998,3.177289142900705,3.7048414833918213
1788849175612127000,1.303126953125,0.9760001646071672,2.834229154190421,3.340542307297885
1788849175622096100,1.31309619140625,1.4034136762619018,2.2962895674586297,2.823188704738021
1788849175632065000,1.32306494140625,1.4741700510084628,1.7526590756088494,2.178177859558165
1788849175642034200,1.3330341796875,1.1911673483759164,1.5296037689387798,1.7874436810031533
1788849175652003000,1.343003173828125,0.7319459090501069,1.3885124597281218,1.5779595113068818
1788849175661972000,1.352971923828125,0.250640063688159,0.862317379064858,1.1061974470987916
1788849175671942000,1.36294189453125,-0.27118951524198054,-0.0016001286730170248,0.4782420738771557
1788849175681911000,1.3729111328125,-0.8256465215325355,-0.7477826528683305,-0.25942199362404644
1788849175691880000,1.3828798828125,-1.059244849526882,-1.097638000807166,-1.0326353672817348
1788849175701849000,1.39284912109375,-1.447597101381421,-0.9796031575351953,-1.6800174716375766
1788849175711818000,1.40281787109375,-1.986677090319991,-0.6984156876310705,-1.81710349072963
1788849175721787000,1.412786865234375,-2.780431513029337,-0.05899520980417728,-1.4246154542446137
1788849175731757000,1.422757080078125,-3.339288215583563,0.6564028845489025,-0.8054712370533496
1788849175741726200,1.432726318359375,-3.4127579409420488,0.909568959583342,-0.4408963858231902
1788849175751695000,1.442695068359375,-3.499334400632977,0.6857680952429771,-0.49628933335170144
1788849175761664300,1.452664306640625,-17.192395041835308,-0.09405088722482323,-10.627696334260701
1788849175771633200,1.462633056640625,-28.117116174340246,-8.50008283303082,-27.226496537637708
1788849175781602000,1.47260205078125,3.398826446223259,-5.215548536419869,-0.10905410282835364
1788849175791571200,1.4825712890625,4.574942355939745,-2.094558203846216,-1.5256903948873282
1788849175801541000,1.492541015625,3.7404648776978253,0.36231238619089123,-2.75356016497761
1788849175811510000,1.502510009765625,2.6593589094966648,1.301230335985869,-2.7583932842224836
1788849175821479200,1.512479248046875,3.158942754349112,-0.16040873475149273,-2.152698258125782
1788849175831448000,1.522447998046875,0.6594687018603086,-1.076242015426606,-2.3201313385561106
1788849175841417000,1.5324169921875,-1.3456412862509488,-1.5882719387456774,-1.059741108611226
1788849175851386000,1.54238623046875,-1.395518539097905,-1.4013734026059508,-0.694033819285035
1788849175861355000,1.55235498046875,-5.083369432461262,-1.9272049106538294,-0.2694622530579567
1788849175871325000,1.562324951171875,-5.053716636997461,-2.0352295243039724,-0.19784867696017025
1788849175881294000,1.572294189453125,-2.00702605086565,-0.18750673116594552,0.4054664682626724
1788849175891263000,1.582262939453125,-2.0168606316596267,1.791463876429945,0.6591327479042113
1788849175901232000,1.592232177734375,-1.7516203802108763,1.393606129605323,0.1376889534212649
1788849175911201000,1.602200927734375,-1.9415414790421723,-0.04101469542291015,-0.16964958743602038
1788849175921170000,1.612169921875,-1.6011737981557845,-0.9794297006644308,-0.46324031957834955
1788849175931139800,1.622139892578125,-0.9260738119214773,-1.2475487224198878,-1.0658853104546666
1788849175941109200,1.632109130859375,-0.3296364435136318,-1.306873164178431,-1.8560728344626725
1788849175951078100,1.642078125,-0.1661737280189991,-1.5578309155136345,-2.2033405039958653
1788849175961047300,1.65204736328125,-0.4282143066436052,-2.15788165211305,-2.365507334461063
1788849175971016200,1.66201611328125,-1.5996610555052757,-2.394927051821351,-2.096224968014657
1788849175980985000,1.671985107421875,-2.947688944631815,-1.5111730631045996,-0.7128427838470787
1788849175990954200,1.681954345703125,-4.231778322333097,-0.888499502743408,0.2670548996552825
1788849176000924200,1.691924072265625,-5.082919350606203,-0.8993057781137526,0.5281549094941467
1788849176010893000,1.70189306640625,-5.089812032729387,-0.92612948763147,0.6386676866982132
1788849176020862200,1.7118623046875,-4.590118297761679,-0.9226235253371298,0.5059401550766081
1788849176030831000,1.7218310546875,-3.721372639214992,-1.1110850730098782,0.4052949110880494
1788849176040800000,1.731800048828125,-2.562745624437928,-1.5182403711423278,0.017203867452964185
1788849176050769200,1.74176904296875,-1.6446493672668934,-1.3425260768398641,-0.4861470017828047
1788849176060738000,1.751738037109375,-0.9500742807120084,-0.7747087998472154,-0.9414283251807093
1788849176070708000,1.7617080078125,-0.024441782817244528,0.03919336174726486,-1.2273171046435831
1788849176080677000,1.771677001953125,0.19023790969550608,0.5124455183826386,-1.4645327463522553
1788849176090646000,1.78164599609375,0.3364765186667442,0.7242460021972655,-1.6884991765178738
1788849176100615000,1.791614990234375,0.3109153764307499,0.8665710909865796,-1.7218259843192993
1788849176110584000,1.801583984375,-0.6528665271162987,1.041157550302893,-0.09653459379933774
1788849176120553000,1.811552978515625,-1.3743442336440086,0.9616920916609466,1.0611723835233597
1788849176130523000,1.82152294921875,-1.6937018597275018,1.176775542668998,1.2008804216820745
1788849176140492000,1.831491943359375,-1.4306184940516948,1.8622239044383166,0.5770709891587495
1788849176150461000,1.8414609375,-1.1788251686751843,2.3672835503533483,-0.24919103392362593
1788849176160430000,1.85143017578125,-0.6697820060819387,2.477925360764563,-1.19013237930499
1788849176170399000,1.86139892578125,-0.30825171017944814,2.3629729936778543,-2.362975916287303
1788849176180368000,1.871367919921875,-0.2510398766607046,2.096989814907312,-3.1631665095239874
1788849176190337000,1.8813369140625,0.12112287241518496,1.986121210002899,-2.907603894741833
1788849176200307200,1.89130712890625,-0.04509703283309936,1.8155176828429103,-2.7833991306632755
1788849176210276000,1.901276123046875,0.38834991376698014,2.0823513409629464,-2.2215993603944777
1788849176220245200,1.911245361328125,0.30460020193457604,2.1957547250419855,-1.3573108273871242
1788849176230214100,1.921214111328125,0.3400906175106764,2.296673013818264,-0.8761602456521242
1788849176240183000,1.93118310546875,0.2991197246968746,2.4292358563974497,-0.9209569803643971
1788849176250152200,1.941152099609375,1.0179963088154793,2.361039395266771,-0.523511686798185
1788849176260122000,1.9511220703125,2.596150465911627,2.320740994887054,-1.1118063730217516
1788849176270091000,1.961091064453125,2.7504005319029092,2.16231568903774,-1.7049721724130211
1788849176280060200,1.97106005859375,2.7049410954982043,2.278436515381932,-1.7723032488860189
1788849176290029000,1.981029052734375,2.9517350051522255,2.0221005781397223,-2.6287571427449583
1788849176299998000,1.990998046875,2.5848639327436684,2.5160621991962193,-2.401381634788215
1788849176309967000,2.000967041015625,3.0586668551295992,2.606181446060538,-1.9713810292497276
1788849176319936000,2.01093603515625,3.5033845528066156,2.466357088045776,-1.569652578471601
1788849176329906000,2.020906005859375,3.455620931112766,2.552555946595967,-1.6863779465802013
1788849176339875000,2.030875,3.435115318700671,2.206602574531734,-0.2834933356937021
1788849176349844000,2.040843994140625,3.3895150125205515,2.2806080142021177,-0.3862144361082464
1788849176359812900,2.050812744140625,3.297131327855587,2.326502919414639,0.24209786079227924
1788849176369782000,2.060781982421875,3.4421459479898213,2.3310005230948327,0.14529372933655976
1788849176379751000,2.0707509765625,3.3985300936251877,2.380456335659325,0.019212796122580766
1788849176389720000,2.080719970703125,3.1800615302234885,1.6900512282654643,-0.2505515086218715
1788849176399690200,2.090690185546875,2.6886218288600445,1.3915902597382663,-0.5973883855223655
1788849176409659100,2.1006591796875,2.6146616896361112,1.2974690837562084,-0.22859803548902272
1788849176419628000,2.1106279296875,1.4275795647472143,1.260028118634224,0.25493396148979663
1788849176429597200,2.12059716796875,1.3755366582989692,1.314463765437901,0.15439327385425566
1788849176439566000,2.130566162109375,-0.402128848272562,1.3225088324666023,1.577658044142276
1788849176449535200,2.14053515625,-0.4396177441895008,1.3551295378252863,1.5011365299977362
1788849176459505200,2.150505126953125,-0.22438217135965824,0.47631315164119004,1.4456586806647478
1788849176469474000,2.16047412109375,-0.23258827416896818,0.4666027817487716,1.397278096116334
1788849176479443200,2.170443115234375,-0.8104045287370681,-0.029577976661920545,0.8194507356323302
1788849176489412000,2.180412109375,-0.7965601277798414,-0.077470485432446,0.7790928601503372
1788849176499381200,2.19038134765625,-1.4720038128852844,-0.5478834731191397,1.3885446084320545
1788849176509350400,2.200350341796875,-1.425485807338357,-0.7016331883728504,1.6115151594281196
1788849176519319300,2.2103193359375,-1.1365963847547769,-0.9011644115924835,1.6106912758246064
1788849176529289200,2.220289306640625,-0.8470996439278126,-1.1013219500169158,1.7461463327139615
1788849176539258400,2.23025830078125,-0.6927630686968564,-1.1393407150268553,1.9637866285979746
1788849176549227300,2.240227294921875,-0.5594733731478453,-1.232466742491722,1.7997589726969598
1788849176559196200,2.250196044921875,-0.47793432310223577,-1.4826663689360022,1.4107321825817227
1788849176569165300,2.260165283203125,-0.3553706042289734,-1.6011232370123267,1.193407090126723
1788849176579134200,2.27013427734375,-0.254123814150691,-1.4209472871258855,1.0282648971125483
1788849176589104400,2.2801044921875,-0.1641997975975275,-1.3934332572564483,0.7148081656359135
1788849176599073500,2.290073486328125,-0.13865151484310625,-1.428831318373978,0.7500969211600721
1788849176609042400,2.30004248046875,-0.039648704299330706,-1.2339096347764134,0.1823306437022984
1788849176619011300,2.31001123046875,-0.025941081464290618,-0.9981778018847107,0.26480259068384765
1788849176628980500,2.31998046875,0.15290917277634142,-0.805787098069489,0.5500258919753134
1788849176638949400,2.329949462890625,0.6045727440685034,-0.7408876326575875,0.37604178246632214
1788849176648918300,2.339918212890625,0.7780243541359901,-0.5464198303073644,0.04482201528400182
1788849176658888400,2.349888427734375,0.6858078427314758,-0.4265495883017778,-0.3015736937202513
1788849176668857300,2.359857421875,0.522432805520296,-0.4852019760176539,-0.659776598765701
1788849176678826200,2.369826171875,0.5494628512650728,-0.5253314495712519,-0.6168538412317633
1788849176688795400,2.37979541015625,0.279430104842782,-0.6487550001442433,-0.9641165423288941
1788849176698764300,2.389764404296875,0.14234803127348422,-0.7003875722259283,-1.0852486209638417
1788849176708733400,2.3997333984375,0.16141279722750185,-0.7376943895742297,-1.067114413858205
1788849176718702300,2.409702392578125,0.080840546387434,-0.4198316782236099,-1.143797109913826
1788849176728672300,2.41967236328125,-0.044189270338416096,-0.32181904776096343,-1.0470010156340896
1788849176738641200,2.42964111328125,-0.19557167193889616,-0.13524638257473706,-0.8558169111296534
1788849176748610300,2.4396103515625,-0.19465864874720573,-0.16438129164427517,-0.9002544571407138
1788849176758579200,2.4495791015625,-0.5780488942801952,0.2183136651009321,-0.4243953328773379
1788849176768548400,2.45954833984375,-0.4433908329874277,0.3433902435779571,-0.4205249211847782
1788849176778517200,2.469517333984375,-0.4432674988687038,0.32886049070507284,-0.8376919102437794
1788849176788487200,2.479487060546875,-0.35647008990347384,0.16992285141944885,-1.3185495734468102
1788849176798456300,2.489456298828125,-0.3424637763828039,0.13637772469222545,-1.3122456509970128
1788849176808425500,2.499425537109375,-0.35960721888542174,0.17409955258220433,-1.248110301825404
1788849176818394400,2.509394287109375,-0.6729793408185243,0.22959259948432445,-1.034931077003479
1788849176828363500,2.519363525390625,-0.9595914661198854,0.23697774129956958,-0.7967636875279247
1788849176838332400,2.52933251953125,-1.207643851402402,0.27408903607577084,-0.682621906171739
1788849176848301300,2.53930126953125,-1.1866320430338382,0.2310322768986225,-0.6550082153201103
1788849176858271500,2.549271484375,-1.5388345386207103,0.21144056446105242,-1.1036546307481825
1788849176868240400,2.559240478515625,-1.5915134048849344,0.12139467509388922,-1.3545802333794534
1788849176878209300,2.569209228515625,-1.589887849509716,0.023278876517713067,-1.408011087054759
1788849176888178400,2.579178466796875,-1.3811755409687756,-0.04373918848335743,-1.1961464519627392
1788849176898147300,2.589147216796875,-1.4093126711726187,-0.01354687931537628,-1.2710665222600102
1788849176908116200,2.5991162109375,-0.7406067698895931,-0.10583061073720454,-0.31692747632712126
1788849176918085400,2.60908544921875,-0.3285813815027475,-0.27269612041264774,0.10365808900371193
1788849176928055300,2.61905517578125,-0.3599216916620731,-0.23486498692929744,0.03700929570645094
1788849176938024200,2.629024169921875,0.290797302031517,-0.47985681559741494,0.29273440757393837
1788849176947993300,2.638993408203125,0.28111761953830716,-0.4649047456592321,0.2774468220710754
1788849176957962200,2.648962158203125,0.32103871103823184,-0.6264987446725369,0.05257540588974952
1788849176967931400,2.658931396484375,0.24197335762977598,-0.6897714856654406,-0.21461042666882274
1788849176977900300,2.668900390625,0.052364978009462354,-0.5620075678005815,-0.49926791077107185
1788849176987869200,2.678869140625,-0.1702291408896446,-0.46073885815143584,-0.7194821487963199
1788849176997839000,2.688839111328125,-0.15500000757575033,-0.48832303064763544,-0.6990121922194957
1788849177007808300,2.698808349609375,-0.9751444245606661,-0.02493716511875391,-0.8265037228837608
1788849177017777200,2.708777099609375,-1.4541758952498436,0.1984369982421398,-0.5872738187432289
1788849177027746300,2.718746337890625,-1.643202675589919,0.4332435329824686,-0.059531947029381985
1788849177037715200,2.728715087890625,-1.4819979681551456,0.5244859386578202,0.5207493824779987
1788849177047684000,2.73868408203125,-1.209937515297532,0.5371735707953572,0.688468878634274
1788849177057654300,2.748654296875,-1.2226187176942824,0.5613339063227176,0.6734358524143695
1788849177067623400,2.75862353515625,-0.5202046080768108,0.7369500009477138,0.46977089039087294
1788849177077592300,2.76859228515625,-0.2791781759083271,0.8834636274680495,0.4564990286245942
1788849177087561500,2.7785615234375,-0.14815408720374107,1.0732353809565305,0.6309981019183993
1788849177097530400,2.7885302734375,-0.08819675436913967,1.3473524740830063,0.8010323047578334
1788849177107499300,2.798499267578125,-0.007833177843689918,1.6502455798387528,0.8143558967113494
1788849177117468400,2.808468505859375,0.10591419736742973,1.8825044759228824,0.6836918734908104
1788849177127438300,2.818438232421875,0.08457797935009002,1.9229414079904554,0.661023530086875
1788849177137407200,2.8284072265625,0.20715338866114616,2.2180989510580895,0.8007949888706207
1788849177147376400,2.83837646484375,0.48596506934463973,2.2010335422277447,0.9243129397287965
1788849177157345300,2.84834521484375,0.913632848021388,2.1765935129761695,0.9969520594820379
1788849177167314200,2.858314208984375,1.5151397747784852,2.393285129833221,1.285719901512563
1788849177177283300,2.868283447265625,1.4355711480230091,2.494903968094289,1.1758718718275427
1788849177187252200,2.878252197265625,2.533478028899431,3.017223668628931,1.219035013988614
1788849177197222100,2.88822216796875,2.775484704276919,3.294811360475421,1.2345941099092363
1788849177207191300,2.89819140625,2.6813819407343864,3.359511211661994,1.071695750299096
1788849177217160200,2.90816015625,2.6354993104815483,3.7889047912180422,1.3937839703902601
1788849177227129300,2.91812939453125,2.115230404996872,3.770172910480201,1.609082087062299
1788849177237098200,2.92809814453125,2.020159673205018,3.782715873450041,1.4202663191244005
1788849177247067100,2.938067138671875,1.7326649198502302,3.945584130182862,1.479442146192491
1788849177257036300,2.948036376953125,2.108382146537304,3.9244840590089556,1.2311620896339415
1788849177267006500,2.95800634765625,2.0225258178144694,3.898629194523394,1.053631393559277
1788849177276975400,2.967975341796875,3.2506150758743284,4.091609388664365,0.7179407645732164
1788849177286944500,2.977944580078125,3.170812640362978,3.10644742795825,0.9361001158952712
1788849177296913400,2.987913330078125,3.2980706545323133,2.075772254833579,1.4849392823040484
1788849177306882300,2.99788232421875,3.154587481749058,1.749021303628385,1.5562445231050253
1788849177316851500,3.0078515625,2.293183418136835,1.5707506028413771,0.5203799646437168
1788849177326820400,3.0178203125,1.384910635843873,1.7016814603045582,-0.08771919998526573
1788849177336790300,3.027790283203125,0.2234422601610422,1.451205647267401,-0.07271510759890079
1788849177346759400,3.037759521484375,-0.6798837133795023,0.9560489712074398,-0.013733926320075989
1788849177356728300,3.047728271484375,-0.659234893104434,0.6863298207789659,-0.10321370623707771
1788849177366697200,3.057697265625,-0.41174423335790633,0.24872487771660087,0.5116384397834539
1788849177376666400,3.067666259765625,0.08086042013168335,-0.22626915415003895,0.5803723687916994
1788849177386635300,3.07763525390625,0.39666239956021304,-0.9964769893161952,-0.030035072779655454
1788849177396604400,3.0876044921875,0.7003203522086143,-1.7341686024114489,-0.24115853411555288
1788849177406574300,3.09757421875,0.9549170445680618,-1.796027531083673,0.14109715442955492
1788849177416543200,3.107543212890625,0.8885486756473779,-2.0342045651704073,0.021343232280015945
1788849177426512100,3.11751220703125,-1.7295348051309585,-0.8642560920424759,0.9959995810627936
1788849177436481300,3.127481201171875,-2.925013586965203,-0.43277887461278586,-0.057279053536057466
1788849177446450200,3.1374501953125,-3.3589959556162357,0.278078489304427,-0.33247488180994983
1788849177456419300,3.14741943359375,-3.504121050387621,0.2955282395435497,-0.19786065965890884
1788849177466388200,3.15738818359375,-2.6659821270287036,-0.6258294671088457,-0.8356459374994039
1788849177476358400,3.1673583984375,-1.0540858593285083,-1.4744382004253564,-1.4180559495985507
1788849177486327300,3.177327392578125,0.8160510101914406,-2.0074448607996107,-1.0653589484930037
1788849177496296400,3.18729638671875,1.0948241124302147,-2.663929286152124,-0.2332937920898199
1788849177506266000,3.19726611328125,0.6782908912301063,-3.2187685697585344,0.23666063817441463
1788849177516235000,3.207235107421875,-0.2686754865944385,-3.5395118049815295,0.8435241235285997
1788849177526204200,3.2172041015625,-1.1360545329630374,-3.8435596337303517,1.8406436485320328
1788849177536174300,3.22717431640625,-1.9446371069699524,-3.5901503975898024,2.3019424786537885
1788849177546143200,3.237143310546875,-2.9341812282830473,-2.523338327679038,2.516096101465821
1788849177556112400,3.2471123046875,-5.086925079116225,-1.7353195260122418,3.117980629363656
1788849177566081300,3.257081298828125,-6.129788702684641,-1.3145651799857616,3.4766572894006966
1788849177576050200,3.26705029296875,-5.767721815687418,-1.6293993372954427,3.32390710657835
1788849177586019300,3.277019287109375,-3.4944220786720512,-2.014828395179659,3.1288691031247375
1788849177595988200,3.28698828125,-1.9246143096387385,-1.9068750932000575,3.0080221250414847
1788849177605958100,3.296958251953125,-1.865326838889718,-1.5914229501225052,3.0260429349005222
1788849177615927300,3.30692724609375,-1.9872376468122004,-0.7168643675133586,3.0116484988451004
1788849177625896200,3.316896240234375,-2.265966909909248,0.07788155045136809,2.7669670513004063
1788849177635865000,3.326864990234375,-1.7495090871453285,0.3307517112791538,2.7410277234017846
1788849177645834200,3.336834228515625,-0.6111866092503071,-0.2785438235275447,2.7750492354691025
1788849177655803100,3.34680322265625,-0.6928250280171633,-0.1687296961121261,2.6788731727838515
1788849177665772300,3.356772216796875,-0.853587252381444,0.6648425038531423,3.2026141382932662
1788849177675742200,3.3667421875,-1.1480559364020824,1.0061267150625586,3.071227061495185
1788849177685711000,3.376711181640625,-1.406775846171379,1.3657891712665557,2.452618777811527
1788849177695680300,3.38668017578125,-1.7042396203547716,1.9437194076031445,1.3464794906407593
1788849177705649200,3.396649169921875,-2.4503484947919842,2.345642796431482,0.21202362504601477
1788849177715618000,3.4066181640625,-3.1853070296615362,1.2795908972382544,-0.3615010698080063
1788849177725587200,3.416587158203125,-2.646260942992568,0.8569202692616731,-0.4089426199406385
1788849177735556000,3.42655615234375,-1.5837643981933593,1.9300322430342434,-0.6213549520432948
1788849177745526000,3.436526123046875,-1.6635165648221968,2.4015244042597708,-1.976257403114438
1788849177755495200,3.4464951171875,-0.8367524374365806,2.0249626895725727,-2.0855232489973305
1788849177765464000,3.456464111328125,-0.8225783661335706,1.485425019994378,-2.1606004095524547
1788849177775433200,3.46643310546875,-0.716971627280116,1.9230565588027237,-1.9316005152642726
1788849177785402400,3.47640234375,-0.04031213664412498,1.5410256189242004,-1.2022697571486234
1788849177795371300,3.486371337890625,1.3955290604919195,0.38634317705444987,-1.3024877887010573
1788849177805340400,3.49634033203125,2.8216619335621593,0.015419340390060095,-1.6117507217496632
1788849177815310300,3.506310302734375,3.2021617183506486,-0.1382872846405953,-2.085565334573388
1788849177825279200,3.516279296875,3.4314480283647772,0.4125933975331485,-2.4143290869057177
1788849177835248000,3.526248046875,4.808867431670427,2.4583883011236787,-2.7281659037411212
1788849177845217300,3.53621728515625,3.502103280824423,3.3963656090676784,-2.218581473878026
1788849177855186200,3.546186279296875,1.478127264201641,2.688029708185792,-2.4631144528627393
1788849177865155300,3.5561552734375,0.3028314386963844,2.1557143910765646,-1.6648901912629603
1788849177875124200,3.566124267578125,-0.7256921093523502,2.072579596272111,-0.7616273460865021
1788849177885093000,3.576093017578125,-0.7112012271851301,2.9796970710501074,-1.211541443362832
1788849177895063000,3.58606298828125,-0.25281039346456524,3.747307875460386,-2.6472037768006325
1788849177905032200,3.5960322265625,-0.37071138122379776,3.6728038386180994,-2.714230901890993
1788849177915001000,3.6060009765625,2.253993563520908,3.6017011346518992,-5.036331202432513
1788849177924970200,3.61597021484375,2.1250971344947813,3.472227490259707,-5.09750901697278
1788849177934939100,3.625939208984375,3.3510458733946082,3.938864466539025,-5.81309298928678
1788849177944908000,3.635907958984375,1.0320520144358276,2.3958584874525664,-4.033021590617299
1788849177954877200,3.645877197265625,0.9024258098304271,2.1965157725423574,-4.066964776751399
1788849177964847000,3.65584716796875,-0.44075551604777574,3.142473850107193,-3.7890930072665214
1788849177974816000,3.66581591796875,0.9898720380932092,3.535036120872199,-4.989260823699832
1788849177984785200,3.67578515625,0.8991735300362109,3.309759046499431,-4.978548291027546
1788849177994754000,3.685754150390625,2.348622396764159,2.587697110342979,-4.876932667636871
1788849178004723200,3.69572314453125,2.13507726123929,2.36629103218466,-4.101363889959455
1788849178014692000,3.705692138671875,1.0944891813874245,2.6177888817459345,-3.6701802121162412
1788849178024661200,3.7156611328125,0.4734796817809343,2.0554849613472816,-3.3406817157685755
1788849178034631200,3.725631103515625,0.36556232789754867,1.3676017736464738,-2.5955600988030434
1788849178044600300,3.735600341796875,-0.17664368410706519,1.561675608243048,-2.302618185958266
1788849178054569200,3.7455693359375,-1.3706030012890695,2.3841943531438705,-2.101781140837073
1788849178064538400,3.755538330078125,-2.5223469785541295,3.2619562618389724,-1.3015052074044942
1788849178074507300,3.76550732421875,-2.6468954415038226,2.641704302601516,-0.815438431251049
1788849178084476200,3.77547607421875,-2.2012492308050393,1.7802409100174903,-0.2918693151772022
1788849178094445300,3.7854453125,-0.7695821044832467,0.4263958590447902,0.6757949827611446
1788849178104415200,3.795415283203125,0.3994634284555912,-1.1099679055482148,1.7962194003939627
1788849178114384100,3.805384033203125,0.9986030415594577,-1.7726386183202265,2.402204349347949
1788849178124353300,3.815353271484375,0.906197145062685,-2.349685642081499,2.7628859194666147
1788849178134322200,3.825322265625,-0.2268994148775935,-1.9630442857980728,2.8198230276972054
1788849178144291000,3.835291015625,-2.7149162538066505,-1.0847814418435096,2.8859190094172953
1788849178154260200,3.84526025390625,-2.708367270554602,-1.220586919605732,3.0348838284820316
1788849178164229000,3.85522900390625,-2.223396472944319,-1.9087913020849228,3.293029737755656
1788849178174199000,3.865198974609375,-1.5503262389719485,-2.544215696012974,4.67689466393888
1788849178184168200,3.875168212890625,-1.6190929012060165,-2.812001540291309,6.0802463808804745
1788849178194137000,3.88513720703125,-1.8512065436005591,-3.2659307184278963,7.003145069897174
1788849178204106000,3.89510595703125,-1.8876719416886567,-3.6629490918189287,7.073545470812916
1788849178214075100,3.9050751953125,-1.6103496227800844,-3.7256238669186827,7.468337984848022
1788849178224044000,3.9150439453125,-0.11610475199222564,-4.225692280417681,7.327894910413026
1788849178234013200,3.92501318359375,0.8587789758056402,-4.737534718340635,6.39950639180839
1788849178243982000,3.934982177734375,1.6269021136522293,-5.34764288470447,5.528768098139762
1788849178253952300,3.9449521484375,2.5134932254910467,-5.708007643958926,5.359603371611237
1788849178263921200,3.954921142578125,3.0835470293641087,-5.725227074307203,5.105159239464998
1788849178273890300,3.964890380859375,3.6242496510684488,-5.511611796155572,4.384020847894251
1788849178283859200,3.974859130859375,4.062531762740016,-5.234128733727336,3.4551375315099953
1788849178293828400,3.984828369140625,4.007710039228201,-5.0377416537523265,2.6829440754845737
1788849178303797200,3.99479736328125,4.010728510266542,-5.027225520434976,1.6447805924311278
1788849178313766100,4.00476611328125,3.914177769050002,-4.656563823571801,0.8521914141088723
1788849178323736000,4.014736083984375,2.3251152644485233,-3.4838802263915536,-0.16573299851417542
1788849178333705200,4.024705322265625,0.24309973131120202,-2.1737866388618943,-1.8417638847336173
1788849178343674000,4.034674072265625,-1.8553408669263123,-0.3955331032693386,-2.558966982682049
1788849178353643300,4.044643310546875,-3.315930136349797,1.1368062281131743,-3.301610519096255
1788849178363612200,4.054612060546875,-2.51469967867136,1.713341795220971,-3.907353475987911
1788849178373581000,4.0645810546875,-1.3571446770399809,1.5889567061394452,-3.2742870433628557
1788849178383550200,4.07455029296875,0.14052490749955177,0.5929150395005941,-2.5726146920233965
1788849178393519000,4.08451904296875,2.0031033244639636,-0.21708032391369342,-1.87942258425951
1788849178403489000,4.094489013671875,3.3342104739278553,-0.7184832008868456,-1.6432181654199958
1788849178413458200,4.104458251953125,4.734876312786341,-0.5829033485740422,-1.3944880270063875
1788849178423427000,4.114427001953125,5.160786434140801,0.022498247534036633,-1.235032793587446
1788849178433396200,4.124396240234375,4.280829645749926,0.8528770582854748,-2.0238421611100432
1788849178443365000,4.134365234375,2.916203088521957,2.393515431457758,-2.1311413830950854
1788849178453334000,4.144333984375,0.9958107804924249,4.150040534844995,-1.9633114123016595
1788849178463303200,4.15430322265625,-1.1116633112892509,4.977333070018887,-2.268044885227084
1788849178473272000,4.16427197265625,-2.0545009187459944,5.464351447808742,-2.7438196922078726
1788849178483242200,4.1742421875,-1.206390051949024,4.8610564685910935,-3.5619068844020365
1788849178493211400,4.18421142578125,0.28228198714256286,3.414644777601957,-4.273893124485015
1788849178503179500,4.194179443359375,2.33621884226501,1.6196441053479909,-3.448329020538926
1788849178513148700,4.204148681640625,3.0350705832257865,-0.29173312157690523,-0.8696291633829474
1788849178523117600,4.21411767578125,5.0847500731647015,-1.1307488277703523,1.651257679490745
1788849178533086500,4.22408642578125,7.518813788110017,-0.8463046941578388,2.345032555578649
1788849178543055600,4.2340556640625,7.351922267210483,-1.077408282727003,2.364794363886118
1788849178553025500,4.244025634765625,6.597553513950109,0.43940264013409613,3.240126999607682
1788849178562994400,4.253994384765625,3.84706004306674,1.7992518999576568,3.2929286154687403
1788849178572963600,4.263963623046875,0.7316774673722684,3.1747645928591486,3.6016552496835588
1788849178582932500,4.273932373046875,-2.747145914021134,4.298023357135057,3.5442081461042165
1788849178592901400,4.2839013671875,-4.568568144732714,4.434888573083281,3.515071483469009
1788849178602870500,4.29387060546875,-3.90155560336411,4.228174744883179,4.753445988699793
1788849178612839400,4.30383935546875,-4.161501255536079,2.8730297172278165,5.408246698749065
1788849178622808600,4.31380859375,-6.424848338335752,1.2633937956750392,6.73681176251471
1788849178632778500,4.323778564453125,-3.574324467426538,-0.0350263051956892,6.731074680167437
1788849178642747400,4.333747314453125,-0.9886357012312859,-0.0012806874603033065,6.8315276895195245
1788849178652716300,4.34371630859375,1.1408679976593703,0.06413900243341922,6.705844377321005
1788849178662685400,4.353685546875,4.284885643142461,-0.5515536860644817,6.457053156369924
1788849178672654300,4.363654296875,4.967720607542991,0.03649813131392002,6.7304585940957065
1788849178682623500,4.37362353515625,4.838205169835686,0.5177957933694124,6.406769660809636
1788849178692592400,4.38359228515625,4.44833725272119,1.7844705104112624,6.608994945418834
1788849178702561300,4.393561279296875,2.9387445906758307,3.3026743489354846,7.176885433778167
1788849178712531500,4.403531494140625,1.22027361587286,4.24262880217135,6.486641654425859
1788849178722500400,4.413500244140625,-0.3559212238490581,4.8004579152435065,4.718183244399726
1788849178732469200,4.42346923828125,-4.191109627336264,5.240169767457246,-2.169129606836289
1788849178742438700,4.433438720703125,-4.62301285162568,6.61706076297462,-7.16623076877296
1788849178752407600,4.443407470703125,-2.758019774734974,5.967503798797726,-7.611931632268428
1788849178762376400,4.45337646484375,-0.9621697921752929,4.156107287538052,-4.031688296186924
1788849178772345600,4.463345703125,1.6025976934790611,1.976053989496827,0.14716303033977746
1788849178782315500,4.4733154296875,2.3320225596189497,0.3089578126221895,1.7499010090723632
1788849178792284400,4.483284423828125,2.7763696704179046,0.0464765044927597,2.3226748855590817
1788849178802253600,4.493253662109375,3.598224982973933,-0.14483458739221095,1.594287545773387
1788849178812222500,4.503222412109375,3.4899528243035074,-0.20548925484120845,1.0318082688078283
1788849178822191400,4.51319140625,4.069357224845886,0.6544850682288408,0.4889928927332163
1788849178832160500,4.523160400390625,4.536770153933763,0.8246458200573921,-0.8826213314250111
1788849178842129400,4.53312939453125,4.726001516935229,1.401281340408325,-1.4829118681296705
1788849178852098600,4.5430986328125,4.148445374608039,2.187784184554219,-2.148580009151995
1788849178862068500,4.553068359375,2.643465174794197,1.9109587092518805,-2.1442279514223337
1788849178872037400,4.563037353515625,0.7630570866286754,1.566606927165389,-1.224613106381893
1788849178882006500,4.573006591796875,-1.7807015132665633,0.8173334512174129,-0.5861445224523544
1788849178891975400,4.582975341796875,-2.1528630932986736,-0.19928046332895755,-0.09662292966991662
1788849178901944300,4.5929443359375,-1.6827976038753985,-0.4434253197789192,0.26060762321203945
1788849178911913500,4.60291357421875,-0.2533236767489463,-0.6496738685548306,-0.3328355318158865
1788849178921882400,4.61288232421875,1.356100136423111,-1.239236675018072,0.711915805195272
1788849178931851300,4.622851318359375,-0.7042740582704544,1.3412176245898006,-1.3629042634800075
1788849178941821400,4.632821533203125,-0.15690321084856987,2.4939970823824402,-4.4431037359818815
1788849178951790300,4.642790283203125,1.4495382985770702,1.864164809373021,-5.17915912617743
1788849178961759200,4.65275927734375,0.7903215256512165,1.280936466628313,-4.041093545652926
1788849178971728400,4.662728271484375,0.8895055379807949,0.3155640790194273,-1.7892787874758243
1788849178981697300,4.672697265625,0.4439935481209308,-0.8075374488681555,-1.2311270183205605
1788849178991666400,4.68266650390625,0.5329891977827995,-1.0335293935120105,-0.9976321507006883
1788849179001635600,4.692635498046875,0.05250986637286842,-0.9950000486314297,-0.6552817715644836
1788849179011604500,4.7026044921875,-0.4706184471309185,-0.9510159454762935,-1.8358569987773894
1788849179021573600,4.71257373046875,-1.346950030761957,0.4728384612679481,-4.448254250612854
1788849179031543600,4.72254345703125,-2.259626016449928,1.0478057561457157,-4.989909058475494
1788849179041512400,4.732512451171875,-1.869234513852745,0.21882921340763567,-5.186756157177687
1788849179051481600,4.742481689453125,-1.0468903948664665,0.05810089131295681,-5.781467432445288
1788849179061450500,4.752450439453125,-1.3421921687103806,0.28794132807850836,-4.97044564859271
1788849179071419400,4.76241943359375,-0.9318800139822065,1.5598732349961995,-5.50894754538238
1788849179081388500,4.772388427734375,-0.760521430671215,1.5301076268076896,-5.294781647610664
1788849179091357400,4.782357421875,-0.9904806715108454,1.5977333023130893,-5.914160915666819
1788849179101326600,4.79232666015625,-1.7534804749943316,1.8566250615179538,-6.46985477027595
1788849179111296500,4.802296630859375,-1.02551574453488,2.4029233112722634,-5.681421834850311
1788849179121265400,4.812265380859375,-1.0403173000864685,1.8502882597118615,-4.877756843501329
1788849179131234300,4.822234375,-1.6451017872095106,1.5780366681963205,-5.004557761552929
1788849179141203500,4.832203369140625,-0.46554684295505283,2.6653654564350844,-5.32127276417315
1788849179151172400,4.84217236328125,-0.8976350684225559,2.599648244899511,-5.494778734776378
1788849179161141500,4.8521416015625,-1.9533628497391937,3.0417303333759307,-4.732745145976543
1788849179171110400,4.8621103515625,-0.8582219264447688,3.9703997147485612,-4.046211327058076
1788849179181079300,4.872079345703125,-0.06387333723455667,4.458025703042745,-3.7727030134797093
1788849179191049200,4.88204931640625,1.7524971630454063,4.0540030038475985,-3.411284361258149
1788849179201018400,4.892018310546875,2.8857904146015643,3.843610779395699,-3.390912604358792
1788849179210987300,4.9019873046875,3.8010640155673023,2.843257971559465,-3.7649388092190024
1788849179220956400,4.911956298828125,3.9352512444779273,1.77710845721066,-3.412880690538883
1788849179230925300,4.92192529296875,2.0501889007657765,1.4240499293163418,-2.4362486577689646
1788849179240894200,4.931894287109375,-0.4248272945538163,1.3207728024542331,-2.4470623127281663
1788849179250863600,4.941863525390625,-2.845889196845889,3.1841119746580717,-1.8267086466819047
1788849179260832500,4.95183251953125,-4.667875783441961,3.6894273488998413,0.3141816847503185
1788849179270801700,4.9618017578125,-4.077254700097441,4.681834458428621,3.4820290455669163
1788849179280771600,4.971771484375,-3.6223540465801953,5.229404627814889,4.306263946735859
1788849179290740500,4.981740478515625,-3.1570100327208634,2.8792414313495156,4.033160122305155
1788849179300709400,4.99170947265625,-1.0474781316265462,1.915294108107686,4.509205855181813
1788849179310678500,5.001678466796875,0.6944999754920601,2.8286142369180918,3.943282282981276
1788849179320647400,5.0116474609375,-0.22691461244672537,4.850804539167881,2.61595056040287
1788849179330616600,5.021616455078125,2.275228659251332,2.295752976363897,2.6842390837311743
1788849179340585500,5.03158544921875,7.040556808924674,1.6181243484348058,3.0501532938063143
1788849179350554400,5.041554443359375,8.596239606493711,2.036169143241644,1.0422925456821919
1788849179360524300,5.051524169921875,9.880973127317429,-0.16475100173950194,-0.5138204599976539
1788849179370493400,5.061493408203125,10.934108554053307,-1.2242507028102874,-0.8757511533945799
1788849179380462300,5.07146240234375,8.75484143795371,-0.6889619228482246,-0.01996668322980404
1788849179390431500,5.081431396484375,7.807636575198173,-0.3106850748062134,4.433266524839401
1788849179400400400,5.091400390625,6.033726037245988,-1.3639239619165657,6.39919074998796
1788849179410369300,5.101369384765625,4.748690903127193,-1.6399012959569692,3.506711066880822
1788849179420338400,5.11133837890625,4.985470199245214,-1.2374217345505951,2.1759113759309052
1788849179430307300,5.121307373046875,6.451599567139148,-2.328640515965223,0.5655225901842117
1788849179440276500,5.1312763671875,7.860257573795318,-3.7742379679620264,-0.776446729555726
1788849179450246400,5.141246337890625,9.35315336806178,-5.041855518811941,-1.8646879564642904
1788849179460215300,5.15121533203125,8.806863886135815,-5.389541413757205,-4.061032464092969
1788849179470184400,5.161184326171875,7.489387787139416,-4.813530162784457,-4.790853051552176
1788849179480153300,5.1711533203125,5.487119744455814,-2.5325685128390787,-1.4288731116890907
1788849179490122200,5.181122314453125,0.7835654755197465,1.498278656348586,3.400830771782994
1788849179500091600,5.191091552734375,-5.919001925957202,2.1811866859853266,3.333871451231837
1788849179510059800,5.201059814453125,-6.863730753988027,0.687193159610033,1.430159644368291
1788849179520029000,5.21102880859375,-5.365714547967911,1.069700192567706,1.3544167133808136
1788849179529997800,5.220997802734375,-7.006169386154413,0.6141548114061355,1.3103431783765553
1788849179539968000,5.230968017578125,-6.215041220295429,-1.6779191841840744,1.3834206895470618
1788849179549937000,5.24093701171875,-2.4806699832975863,-3.0307419063717127,4.708241403838992
1788849179559906000,5.250906005859375,0.1431809749662876,-3.1976153070926663,4.043465827742219
1788849179569875000,5.260875,0.5448163406334817,-3.1625106759637593,4.733896654099226
1788849179579844000,5.270843994140625,-0.8068482975602149,-3.306209537324309,5.769317560446262
1788849179589813000,5.28081298828125,-0.7003390569090843,-2.8638632449537513,5.295772996735573
1788849179599782000,5.290781982421875,1.0121078352987765,0.1138105035752058,2.6441344523578882
1788849179609751000,5.3007509765625,3.036123599410057,4.21388727633357,0.5887573352992534
1788849179619720000,5.310719970703125,2.452020227396488,5.182283395677804,1.5916507675290106
1788849179629689900,5.32068994140625,-3.3990929882049556,4.768314472007751,3.7132851943492886
1788849179639659000,5.330658935546875,-3.5501124017119405,5.3409454328924415,3.3298183764487503
1788849179649628000,5.3406279296875,-1.3214979018583892,5.288753473362326,3.0835365079700945
1788849179659596800,5.3505966796875,1.188995995686203,3.730064771975577,2.0341759235978127
1788849179669566000,5.36056591796875,1.486911459159851,1.4907678423270583,1.3058160563409327
1788849179679534800,5.370534912109375,1.334670687164366,-0.5536573803454637,0.7158814939558505
1788849179689504000,5.38050390625,-0.25176526832580565,-1.5734733058035373,0.37732583092749117
1788849179699473000,5.390472900390625,-1.388797414149344,-0.4696098546102643,-1.1197837816417218
1788849179709441800,5.40044189453125,0.6149830789238214,1.5690774089321493,-3.5196447827339172
1788849179719412000,5.410411865234375,1.9816078242316841,1.910627577601373,-5.543098236787319
1788849179729380900,5.420380859375,-0.11044541105628013,1.7199723192766307,-7.6864873992979525
1788849179739349800,5.430349853515625,0.01225245559066534,2.8934985047608612,-7.603489967137575
1788849179749319000,5.44031884765625,2.055928028939664,3.1864754889190197,-3.8075545466303824
1788849179759287800,5.450287841796875,-1.8772531312659382,0.7439443898797035,-1.5364339072197675
1788849179769256700,5.460256591796875,-4.03316772108972,-0.5749094272106886,-0.6830383780181407
1788849179779225900,5.470225830078125,-2.2445535350024697,-0.8451017481088637,0.49088908174335955
1788849179789194800,5.48019482421875,-3.5430937551215287,-0.48709977246299385,-0.9500374558329582
1788849179799164000,5.490163818359375,0.7671765046462417,-1.0459214037038385,-1.4023323107659815
1788849179809132800,5.5001328125,-0.15442366899251936,-0.307913418135792,-2.3591133956402537
1788849179819101700,5.510101806640625,-1.5875240429878235,1.3088903492197395,-1.1063497150510548
1788849179829070800,5.52007080078125,-2.6400138652965426,2.236273636304587,-0.1443523568332195
1788849179839039700,5.530039794921875,-4.4638510481953615,4.399803231176734,1.5863035612821579
1788849179849009000,5.5400087890625,-4.268734134286642,6.594860037082434,1.3151280745655298
1788849179858977800,5.549977783203125,-3.683653441673517,4.487867591337859,0.31022797868847846
1788849179868948000,5.559947998046875,-4.447515707205236,2.9010747852340337,2.308900042706728
1788849179878916900,5.569916748046875,-4.129833905379474,2.410892974977195,2.591515207326412
1788849179888886000,5.579885986328125,-0.6941168213933706,0.5980212035331874,1.2725263656795025
1788849179898855000,5.58985498046875,-2.6443048404887315,-0.5579150743225589,2.7007734544247386
1788849179908824000,5.599823974609375,-5.752595558226108,0.17453244584044442,1.3482254575252532
1788849179918793000,5.60979296875,-4.854264908754826,0.7609487161725759,1.3698743947535752
1788849179928761900,5.619761962890625,-2.838155095462501,1.2453417138949037,1.9359271462917327
1788849179938731000,5.62973095703125,-0.645493660260737,2.863322854466736,0.8139683586984873
1788849179948700000,5.639699951171875,-0.06192921742945909,3.3792712664037943,-1.0109680176138878
1788849179958669800,5.649669921875,0.6315279710114002,2.8743215106040236,-1.0993915664762257
1788849179968639000,5.659638916015625,2.1665818220496176,2.275985615098476,-1.5335767642229794
1788849179978607900,5.66960791015625,1.6659262563124297,2.1425692244298755,-3.3379274486243724
1788849179988576800,5.67957666015625,1.1181216936483978,1.1252033955376595,-5.475308895152807
1788849179998546000,5.6895458984375,2.2779167292915283,-0.241055987056531,-6.619432752802967
1788849180008514800,5.699514892578125,4.253776219129562,1.9134939268179236,-5.164962843042612
1788849180018484000,5.70948388671875,4.035786963677406,2.2489019394703207,-4.816876550602912
1788849180028452900,5.719452880859375,3.1332348971188066,2.2602245668649674,-4.307037853717803
1788849180038421800,5.729421875,3.599228607058525,3.455983626945317,-2.5111118833124637
1788849180048391000,5.739390869140625,2.672919232815504,4.245566609188914,0.2574310390025377
1788849180058360800,5.74936083984375,1.7292659250617026,4.999986215853691,2.337797635889053
1788849180068329700,5.759329833984375,1.0331880327284335,5.213315078279376,3.5221640720784664
1788849180078299000,5.769298828125,-0.20286299799084662,5.0985833682060235,4.957325470256805
1788849180088267800,5.779267822265625,-4.481994607651234,4.552321943330765,6.1349909475028515
1788849180098236700,5.789236572265625,-2.363402617266774,2.020509071164578,4.2545495415896175
1788849180108205800,5.799205810546875,-3.951399538463354,-0.17898074875250458,2.2159043636232614
1788849180118174700,5.8091748046875,-6.612977293053269,-1.5942353771947324,1.775439062693715
1788849180128144000,5.819143798828125,-5.103777429717779,-2.703682619869709,1.4483832833230494
1788849180138112800,5.82911279296875,-3.8005753552675245,-3.808060742586851,0.8641507319718599
1788849180148083000,5.8390830078125,-3.122892951324582,-4.493957724906504,1.0153753126621246
1788849180158051800,5.8490517578125,-1.9328759420275687,-4.380583566921949,1.3338286833822726
1788849180168021000,5.85902099609375,-1.0806563978027552,-4.334055332241952,0.8977198240965604
1788849180177990000,5.868989990234375,-1.5111673640161751,-4.297634357817471,0.0868313112348318
1788849180187959000,5.878958984375,-2.2136130378156897,-3.9179873904660343,-0.6251940918147564
1788849180197928000,5.888927978515625,-2.8328420837461947,-3.7419954482659694,-1.1040420226305723
1788849180207896800,5.898896728515625,-2.3799761509269475,-3.608872633716464,-1.2438812859535218
1788849180217866000,5.908865966796875,-1.304695674008876,-3.183594380524754,-1.0190987170994281
1788849180227835000,5.9188349609375,-0.20741686190292238,-2.6100956968948243,-0.5448796151280403
1788849180237804800,5.9288046875,0.5842576857924461,-1.9279652275018393,-0.10264145930707454
1788849180247774000,5.93877392578125,1.0849220193579792,-1.271815440931171,0.4867693714648485
1788849180257742800,5.948742919921875,1.4433099255815147,-0.7954583040177822,1.2348515918016434
1788849180267712000,5.9587119140625,1.8068492232188582,-0.7406297123737633,1.3464064254045485
1788849180277681000,5.968680908203125,2.1687674955256284,-0.8536972886271774,0.7854992200613021
1788849180287649800,5.97864990234375,2.2717969312369823,-0.9718430449277162,0.3584872749447822
1788849180297619000,5.988618896484375,2.416915596267581,-1.189773994321376,-0.37488486751616
1788849180307587800,5.998587890625,2.246823233500123,-1.5580378362625837,-1.2604869683176279
1788849180317556700,6.008556640625,2.167169412679225,-1.6544782489724457,-1.612706415039301
1788849180327526000,6.01852587890625,1.8291753290563821,-1.474697582013905,-1.5673235510021448
1788849180337495800,6.028495849609375,1.6310872903823852,-1.590571301729232,-1.5709703830718993
1788849180347464700,6.038464599609375,1.3278098614841698,-0.6302947759546339,-0.2572264563411474
1788849180357433900,6.048433837890625,0.9779507141530513,-0.5957394492715596,-0.6074281334996223
1788849180367402800,6.05840283203125,0.6702852794289589,-0.989919092105329,-0.24605741207301615
1788849180377372000,6.068371826171875,0.3139507986038923,-1.0173454436913132,0.5871861404597759
1788849180387340800,6.0783408203125,-0.008091244257986544,-0.9525602523088454,1.2665730102330446
1788849180397309700,6.088309814453125,-0.3513648757189512,-0.6039987435728311,1.9547434904426335
1788849180407278800,6.09827880859375,-0.5674737242519855,0.08549136786796152,2.7869723129749295
1788849180417248000,6.108248046875,-0.5374783989608287,0.40860469322316345,3.3086469936043024
1788849180427217000,6.118216796875,-0.4386404235899448,0.21790837223567067,2.821401821321249
1788849180437187000,6.12818701171875,0.07530687765777111,0.16974186882935463,1.9323545485019682
1788849180447156000,6.138156005859375,0.4521167218871414,0.14354571662545204,1.216383038175106
1788849180457124900,6.148124755859375,0.46878202548399567,0.15114603556133807,0.8987082506120204
1788849180467094000,6.158093994140625,0.6922656405687332,0.2717131737899035,0.7391577401250601
1788849180477063000,6.16806298828125,0.876556624558568,0.3861672359656542,0.36812896351516244
1788849180487032000,6.178031982421875,0.6853723739236592,0.4855358841471374,0.056987377113103865
1788849180497001000,6.1880009765625,0.3823731774449348,0.5058103912170976,-0.3140513363689184
1788849180506970400,6.197970458984375,0.2005938840150833,0.5500923082750291,-0.7118740118801593
1788849180516939500,6.207939453125,-0.04320595838949084,0.6864948020823299,-1.1241507446795702
1788849180526908400,6.217908447265625,-0.3006014876872301,0.8199135308384895,-1.4208727605849503
1788849180536878300,6.22787841796875,-0.6017835517413914,1.0399392605543136,-1.4727613532543182
1788849180546847200,6.23784716796875,-0.748925831554085,1.1767999464578927,-1.4684037425667047
1788849180556816400,6.24781640625,-0.6180461197562516,1.3808679363243281,-1.0658423480957746
1788849180566785300,6.257785400390625,-0.37526889839768407,1.6333856304526329,-0.951766471582651
1788849180576754400,6.26775439453125,-0.49951304463855917,1.6650589719586073,-1.1864321365475654
1788849180586723300,6.277723388671875,-0.47285417029373344,1.511602248302102,-1.2119389182478189
1788849180596692200,6.287692138671875,-0.6517443181533366,1.5796664613552391,-1.2853905234277248
1788849180606661400,6.297661376953125,-0.8502893798798322,1.7723444576792418,-0.582355651563406
1788849180616630300,6.30763037109375,-0.8687439049810171,2.0971485126003624,-0.03001519903540611
1788849180626599400,6.317599365234375,-0.6040618719369173,2.199369262277335,0.276496389478445
1788849180636569300,6.3275693359375,-0.5924965218275785,2.2604721118852495,0.48331250900924205
1788849180646538200,6.337538330078125,-0.6441945603609085,2.3146346408359704,0.5226964248925448
1788849180656507100,6.347507080078125,-0.9328408218383788,1.7817369937941432,-0.6193599788337946
1788849180666476300,6.357476318359375,-1.4040905526101588,-0.22483517582416532,-2.927901125100255
1788849180676445200,6.367445068359375,-1.5361504141032696,0.4881270331514999,-1.067980529168248
1788849180686414300,6.377414306640625,-1.3214192836642265,0.652685033069551,-1.2219827578783033
1788849180696383200,6.38738330078125,-1.1935282322883605,-1.0857978523444383,-2.1142092452555894
1788849180706352000,6.39735205078125,-1.659064261588454,0.6229854758545756,-0.7427239081740379
1788849180716321300,6.4073212890625,-1.7122756272941826,4.149150892528891,0.448241195628047
1788849180726290200,6.417290283203125,-2.657158184581995,4.520568083934486,-0.6465022527813911
1788849180736259300,6.42725927734375,-3.178208595833182,2.330255842207372,-1.61623283559978
1788849180746229500,6.4372294921875,-2.7599171327888965,0.8935704493321478,-1.345195296049118
1788849180756198400,6.447198486328125,-2.001685858881473,0.306347264797613,-1.375454825234413
1788849180766167300,6.457167236328125,-1.5395219363629817,0.02686170344054699,-0.4794534954935312
1788849180776136400,6.467136474609375,-1.1050175896644592,0.4979194187715649,0.19581717113256453
1788849180786105300,6.477105224609375,-0.5518202280461788,0.5421157033726572,0.6767950997143983
1788849180796074500,6.487074462890625,-0.1274655194401741,0.3944936041537672,1.0997738437920808
1788849180806043400,6.49704345703125,0.24333761345399543,-0.13741042874082923,1.1605080062180757
1788849180816012300,6.50701220703125,0.4230395343542099,-0.7176140168368816,1.1321972730129957
1788849180825981400,6.5169814453125,0.457847812885046,-1.008093631221354,1.2669213852792978
1788849180835950300,6.526950439453125,0.619929887676239,-1.2335752882555127,1.2399597285956143
1788849180845920300,6.536920166015625,0.8115794177353381,-1.3833499623984098,1.3567606461584567
1788849180855889400,6.546889404296875,0.976222282925248,-1.3137138238534332,1.6737357610195873
1788849180865858300,6.5568583984375,1.377845519763231,-1.2511688126131892,1.9793372489511964
1788849180875827200,6.5668271484375,1.4194202236890792,-1.0883240828864276,2.025741857251525
1788849180885796400,6.57679638671875,1.301179044190049,-1.157653055178374,2.03280112811327
1788849180895765200,6.58676513671875,1.2860218070685863,-1.3434051977619528,1.689208639961481
1788849180905734400,6.596734375,0.9835674580562859,-1.5089688310585916,1.3959908327847719
1788849180915703300,6.606703369140625,0.7028495784252882,-1.6726972117520869,1.0887152741611004
1788849180925672200,6.616672119140625,0.534680292674899,-1.7935802840620279,0.6818781020671129
1788849180935641300,6.626641357421875,0.4178577478021383,-1.8005379942454396,0.08873042285442352
1788849180945610200,6.6366103515625,0.2721680048853159,-1.7508857823260127,-0.5727110403835773
1788849180955580200,6.646580078125,0.20447510936260221,-1.438382113790512,-1.0622995609223842
1788849180965549300,6.65654931640625,0.03854702666774392,-1.19748792969957,-1.3454150762796402
1788849180975518200,6.666518310546875,-0.04114741842448711,-0.6751634068593383,-1.3803127866595983
1788849180985487000,6.676487060546875,0.28454218715950846,-0.21718042328730225,-0.9334183294653892
1788849180995456300,6.686456298828125,0.623587241140008,-0.22046923569962382,-0.4644944112926721
1788849181005425200,6.696425048828125,0.6981142204664648,-0.20708923738375304,-0.26570436182916163
1788849181015394300,6.706394287109375,0.5609913764953613,-0.24696955848187208,-0.2906757214784622
1788849181025363200,6.71636328125,0.4928776252120733,-0.33506957447826863,-0.327392463979125
1788849181035332000,6.72633203125,0.5780665760673582,-0.27354280036985873,-0.5379541997790336
1788849181045301200,6.73630126953125,0.6977464100673795,0.08239172135218978,-0.679494421800971
1788849181055270100,6.746270263671875,0.4999883340001106,0.14329685643091797,-0.7812000615626573
1788849181065239600,6.756239501953125,0.3926194077797234,0.00808627582192421,-1.0441752906888724
1788849181075209500,6.76620947265625,0.43579628620520233,-0.07709288429170846,-1.1445470514982938
1788849181085178400,6.776178466796875,0.44822073736190793,-0.07287015203014016,-1.260704994982481
1788849181095147300,6.786147216796875,0.43957039791643615,-0.02274652320668101,-1.215508008906245
1788849181105116400,6.796116455078125,0.4763144668154418,0.08179901615604758,-0.8609346925348043
1788849181115085300,6.806085205078125,0.4654647176295519,0.2885110907904804,-0.3970294793069362
1788849181125054500,6.816054443359375,0.37318960790559647,0.293384103654325,0.1124596734881401
1788849181135023400,6.8260234375,0.21025880733057856,0.20513152744472027,0.5032411983162164
1788849181144992300,6.8359921875,0.019307780929654836,0.23165552336350081,0.813226600420475
1788849181154961400,6.84596142578125,0.10215630613863468,0.25744959757253527,0.9244850814253092
1788849181164930300,6.855930419921875,0.3611876199446618,0.29174072036147114,0.9134756116330623
1788849181174899500,6.8658994140625,0.3166604959540069,0.34100115648433565,1.1235574549615381
1788849181184869400,6.875869384765625,0.22575331358239054,0.3460997947975993,1.4030617940843104
1788849181194838300,6.88583837890625,0.47201297022923827,0.19092939909100531,1.2652186730146406
1788849181204807200,6.89580712890625,0.7576449984520673,-0.034144553925096986,1.1053934372395275
1788849181214776300,6.9057763671875,0.932738968899101,-0.01278422437980771,1.314674485579133
1788849181224745200,6.9157451171875,0.8991806173641234,0.06729483611583709,1.4331214167833328
1788849181234714400,6.92571435546875,0.6578963379770517,-0.012615005292743444,1.1343874765336512
1788849181244683300,6.935683349609375,0.34872634390890594,-0.10462620338350534,0.6573825432360172
1788849181254652200,6.945652099609375,-0.18661328945755956,-0.028520722693949938,0.5965098491221666
1788849181264621300,6.955621337890625,-0.39651524617448447,0.21064809890910982,0.321072028785944
1788849181274590200,6.965590087890625,-0.6963030063260346,0.3015332155793905,0.07894260381162166
1788849181284559400,6.975559326171875,-1.2228034266114234,0.3780005153186619,-0.08081248933672905
1788849181294528300,6.9855283203125,-1.5873212138921022,0.30238121071085333,-0.24100597390234468
1788849181304498200,6.995498291015625,-1.3696476002603768,0.20499431093111634,-0.5128378787010908
1788849181314467300,7.00546728515625,-0.6617377427708357,0.1847008799649775,-0.5823579896509647
1788849181324436500,7.0154365234375,-0.594595539933443,0.35053017846047874,-0.6078232702970504
1788849181334405400,7.0254052734375,-0.7773037117112428,0.3235274591140449,-0.7434352713137865
1788849181344374500,7.03537451171875,-0.8600906429260968,0.28005335130766035,-1.1098790582209825
1788849181354343400,7.045343505859375,-1.0794874270886181,0.3135394413240254,-1.087566688647866
1788849181364312300,7.055312255859375,-1.2245645910650491,0.3523132624849677,-1.1370815379232166
1788849181374281500,7.065281494140625,-1.5908458808869121,0.44272637772932644,-1.0699012680977582
1788849181384250400,7.07525048828125,-2.0141163013875483,0.524417257335782,-1.1120090559870004
1788849181394219500,7.085219482421875,-2.0911837589770554,0.3569093581035733,-1.2601608051031827
1788849181404188400,7.0951884765625,-1.867648559835553,0.40301483732685445,-1.292381989750266
1788849181414157300,7.1051572265625,-1.6351275056838988,0.5264478863805532,-0.8684598273426294
1788849181424126500,7.11512646484375,-1.1009580851405858,0.5722974911466241,-0.4704243858635425
1788849181434096400,7.125096435546875,-0.8411024493396282,0.5258712555363774,-0.6774515177965164
1788849181444065300,7.135065185546875,-1.086132856452465,0.40073914747983214,-0.9312836555242537
1788849181454034400,7.145034423828125,-1.0942261465370655,0.4147445842176676,-0.6411901178479195
1788849181464003300,7.15500341796875,-0.8478302962899208,0.5901800615787506,-0.3922083427608013
1788849181473972200,7.16497216796875,-0.8933107754826545,0.709388624805212,-0.13399345990419387
1788849181483941400,7.17494140625,-0.8645020296275615,0.7990718183398247,0.1886298899769783
1788849181493910300,7.18491015625,-0.6679740798771381,0.605953384771943,0.25556407608687876
1788849181503879400,7.19487939453125,-0.5155424614846706,0.32813802164942024,0.06129354987442493
1788849181513848600,7.2048486328125,-0.2966881136357784,0.19173019407987593,0.2624199333310127
1788849181523817500,7.2148173828125,0.4596189142107963,0.24334493824392556,0.7208049218326806
1788849181533786600,7.22478662109375,1.0586311015427112,0.051338849832117554,0.736183108228445
1788849181543755500,7.234755615234375,1.44291800365448,-0.40567280448973175,0.3502420091688633
1788849181553725700,7.2447255859375,1.6376526402473448,-0.5520937842905521,0.5648948136746883
1788849181563694600,7.254694580078125,1.9084926113992928,-0.6049205345928669,0.8137082464575767
1788849181573663700,7.264663818359375,1.783451104235649,-0.7548448463395238,1.00462244797945
1788849181583632600,7.274632568359375,1.4929343727111815,-0.905447203478217,1.1477683516323567
1788849181593601800,7.284601806640625,1.2885194691032171,-1.0020502594038843,1.0966612647294998
1788849181603570700,7.29457080078125,1.081433373524621,-1.1466726653501391,1.0973463243842125
1788849181613539600,7.30453955078125,0.9504841766871511,-1.2033338792487978,1.193988251015544
1788849181623508700,7.3145087890625,0.7251346216000616,-1.42444506611377,1.1620780320137738
1788849181633477600,7.3244775390625,0.4921336749769747,-1.7514058606773615,1.1852291904985903
1788849181643446800,7.33444677734375,0.23529636408388613,-2.0178958199262618,1.2089794839203356
1788849181653415700,7.344415771484375,0.030548136868327854,-2.257733626832068,1.0147352611929177
1788849181663384600,7.354384521484375,-0.2913034979879856,-2.4408234183385966,0.7456085236996411
1788849181673353700,7.364353759765625,-0.6344882821217179,-2.4434742251083255,0.7488233940929174
1788849181683322600,7.374322509765625,-0.8698857684925198,-2.5339488612815737,0.6842682120740413
1788849181693292500,7.38429248046875,-0.9925494406089186,-2.6506521636888385,0.6258119314521551
1788849181703261700,7.39426171875,-0.6662924104005098,-2.547305186460912,0.5929296525478363
1788849181713230600,7.404230712890625,0.23015286371558905,-2.265754436202347,0.1629933444172144
1788849181723199500,7.414199462890625,1.197420709682256,-1.6654568852350116,0.1780675794303417
1788849181733168600,7.424168701171875,2.204875020086765,-1.1259794214114547,0.4457388574182987
1788849181743137500,7.434137451171875,2.8175661886811256,-0.6525888792186975,0.6133633687674999
1788849181753106700,7.444106689453125,2.4223475581884384,-0.41738749994188545,0.7364040575027465
1788849181763075600,7.45407568359375,1.3016041377343237,-0.24302900416254997,0.8308587032228708
1788849181773044500,7.46404443359375,0.1984564335949719,-0.12902619288563727,0.7517495106726885
1788849181783013600,7.474013671875,-0.31555574958249927,-0.1876563687697053,0.6285024857103825
1788849181792982500,7.483982421875,-0.2882753823384642,-0.3650765902072191,0.45593058108687395
1788849181802951700,7.49395166015625,0.18928470062389968,-0.4757707153275609,0.026588147196173667
1788849181812920600,7.503920654296875,0.6823170780062675,-0.3617525603510439,-0.23511983847320078
1788849181822889500,7.513889404296875,0.9596119243860244,-0.11654036693051456,-0.34342882202267644
1788849181832859600,7.523859619140625,1.0706687453389168,0.17427812401950357,-0.5714595790177583
1788849181842828800,7.533828857421875,1.2693518272966147,0.42347368798777457,-0.4718991345912218
1788849181852797700,7.543797607421875,1.388835261941701,0.4524709421522915,-0.7709165679574013
1788849181862766800,7.553766845703125,1.3535142115831373,0.48264615405499933,-1.1212766505479812
1788849181872735700,7.56373583984375,1.4140385306507348,0.68060589017421,-1.2992337553411721
1788849181882704600,7.57370458984375,1.5355996483527123,0.8156132032960652,-1.420899648591876
1788849181892673800,7.583673828125,1.68440343163684,1.2433008557170628,-1.325413321736455
1788849181902642700,7.593642578125,1.6890503806598482,1.4554139126121997,-1.1447247461527585
1788849181912611800,7.60361181640625,1.7414187196701765,1.6961890003681181,-0.5606669668465852
1788849181922580700,7.613580810546875,1.826837679889053,1.8193847335346043,-0.15977321332693098
1788849181932549600,7.623549560546875,1.763581451639533,2.0861291059359908,0.42668753546774385
1788849181942518800,7.633518798828125,1.4601608148783445,2.293768086156994,0.5894745436578989
1788849181952487700,7.64348779296875,1.0511357773512602,2.3388139733247457,0.6969272026389837
1788849181962456600,7.65345654296875,0.6714841338247061,2.6494045017153023,0.8419640346050262
1788849181972425700,7.66342578125,0.18622567837946116,2.757909300097823,0.8279606436938047
1788849181982395600,7.673395751953125,-0.018136618258431554,2.7886194956600665,0.5669681128174067
1788849181992364500,7.683364501953125,-0.21229133607149123,2.7557126668363807,0.3439572298109531
1788849182002333700,7.693333740234375,-0.3788672151505947,2.468303253677487,0.0681312869399786
1788849182012302600,7.703302490234375,-0.522230049489811,2.4252546778067945,-0.08332301085293292
1788849182022271700,7.713271728515625,-0.5123837782580405,2.45233353112936,-0.28988895501494405
1788849182032240600,7.72324072265625,-0.5747557710189372,2.2902374278128144,-0.38935529141724107
1788849182042209500,7.73320947265625,-0.5591426068235188,2.1810868788726627,-0.4457984786510467
1788849182052178700,7.7431787109375,-0.4625397335609421,2.0283431257911024,-0.5015425777047873
1788849182062147600,7.753147705078125,-0.5421118309151381,1.8982962115556001,-0.4865525138437748
1788849182072116700,7.76311669921875,-0.7373550746172666,1.8689844846144317,-0.5229787489652633
1788849182082085600,7.773085693359375,-0.7306184598386287,1.6393772720828652,-0.6774117703080177
1788849182092054500,7.783054443359375,-0.8220938705522567,1.3555974475979804,-0.9793103120684623
1788849182102023700,7.793023681640625,-0.8880085774213076,1.2675748807519673,-1.2243038943022488
1788849182111992600,7.80299267578125,-0.9196370568722486,1.1340315757680683,-1.2112965286910533
1788849182121961500,7.81296142578125,-0.871532074394822,1.0707675295382737,-0.8916893117606639
1788849182131931600,7.822931640625,-0.6619423984974623,0.9633270724516362,-0.8244342231333255
1788849182141900500,7.832900634765625,-0.653589580693841,0.9175949565853923,-0.7297095283001661
1788849182151869400,7.842869384765625,-0.7372609665930271,0.9017717298358678,-0.6220598854422569
1788849182161838600,7.852838623046875,-0.7816209173232317,0.7687212498702108,-0.8588345053851604
1788849182171807500,7.862807373046875,-0.9448357955366372,0.6591216419883072,-1.058607136145234
1788849182181776600,7.872776611328125,-0.9693886375129223,0.5273720154881477,-1.1105132644712925
1788849182191745800,7.882745849609375,-1.087781792703271,0.5223261302754283,-1.096276649326086
1788849182201714700,7.892714599609375,-1.376044023299217,0.5633272720970213,-1.1560884362101553
1788849182211683800,7.902683837890625,-1.3723790710508823,0.4379672005034983,-1.1400625995606184
1788849182221652700,7.91265283203125,-1.2532219457507132,0.31977161371186374,-1.1337088466197252
1788849182231621600,7.92262158203125,-1.2242542099416256,0.22053031823709607,-1.0517530324667692
1788849182241590800,7.9325908203125,-1.4098819954931736,0.14824863361939786,-0.6858055046439171
1788849182251559700,7.9425595703125,-1.3307424078047274,0.12237681799903512,-0.4471896407485008
1788849182261528800,7.95252880859375,-1.295199969780445,-0.008093290084600448,-0.2754085942417383
1788849182271497700,7.962497802734375,-1.1853530360739677,-0.2946403873257339,-0.16729484100341796
1788849182281467600,7.972467529296875,-1.232951895660162,-0.45983080339580773,-0.06513093608021736
1788849182291436800,7.982436767578125,-1.5764531983971595,-0.4283693510748446,0.22502163830697536
1788849182301405700,7.99240576171875,-1.9360884743332862,-0.27606486619338394,0.6381862598568201
1788849182311374600,8.00237451171875,-2.0922540185570715,-0.31682723082304,1.0123878212839363
1788849182321343700,8.01234375,-2.2677403493225574,-0.38436405900120735,1.256391223436594
1788849182331312600,8.022312744140624,-2.5514380484819412,-0.4560393021583557,1.2011007133692502
1788849182341281500,8.032281494140625,-2.4969138466119767,-0.49936611044853924,1.133011512005329
1788849182351250700,8.042250732421875,-1.7775883496820926,-0.6453676957935095,0.8657932384818792
1788849182361219600,8.052219482421876,-0.3136895173192024,-0.8195685167931019,1.1632090818703174
1788849182371188700,8.062188720703125,1.2466916671991348,-0.9974319519534707,1.8859587080299853
1788849182381157600,8.07215771484375,2.76125276530683,-1.1406567660614848,2.5084283433169126
1788849182391126500,8.08212646484375,4.325385411313176,-1.010437856259942,2.8957804782181977
1788849182401095700,8.092095703125,5.444653644648194,-0.7465081028878688,3.347096258985996
1788849182411064600,8.102064697265625,5.831279218840598,-1.0470800722196698,2.814101727440953
1788849182421033700,8.11203369140625,5.890407115113735,-1.5532354044169188,2.1994921580046416
1788849182431002600,8.122002685546875,5.379074964800477,-1.5165268452227114,1.6190180824041365
1788849182440971500,8.131971435546875,5.1016702283054585,-1.248508507362753,1.0095786090821026
1788849182450940700,8.141940673828126,5.475569007393718,-0.8803111547864974,0.5282803625047207
1788849182460910600,8.15191064453125,5.320978749662637,-0.13997589531466365,0.27849720790684224
1788849182470879500,8.16187939453125,4.034705598181486,0.5774333927303552,0.42446050706803795
1788849182480848600,8.1718486328125,2.6986703446656466,0.7164584170609712,0.4838654667168855
1788849182490817500,8.181817626953125,1.4227671960294246,0.5831745667308569,0.3813789057105779
1788849182500786400,8.191786376953125,-0.0003568506136536598,0.0974760393679142,0.15085107120275495
1788849182510755300,8.20175537109375,-1.0539417746827007,-0.5244903225719928,-0.06179331609010696
1788849182520724200,8.21172412109375,-1.7189035210013388,-1.108880110311508,-0.627304215836525
1788849182530693400,8.221693359375,-1.6125237519487738,-1.4536837278187273,-1.3259510818749665
1788849182540662300,8.231662353515626,-1.1941472409695386,-1.6440779971197246,-1.773454610878229
1788849182550631200,8.241631103515624,-0.7642623707652092,-1.4806106054499744,-1.1602058084011078
1788849182560600300,8.251600341796875,-0.34894437057375904,-1.4513561616539954,-0.5010650233209133
1788849182570569200,8.2615693359375,-0.3287327726721763,-1.9862132722005248,-0.44274785890877244
1788849182580538400,8.271538330078124,-0.35874388005435465,-2.128788682489097,-0.08820493767559529
1788849182590507300,8.28150732421875,-0.27195027048140763,-1.5726862470790743,0.4079273054182529
1788849182600476200,8.29147607421875,-0.08077946384996175,-1.121058916144073,0.9354688322544097
1788849182610445300,8.3014453125,0.28365093740820885,-0.8574795836448669,1.2696201228439807
1788849182620414200,8.311414306640625,0.5212053095519542,-0.674427201539278,1.2185136204630136
1788849182630383400,8.32138330078125,0.7876572748780251,-0.5628884422883391,0.8573428055226803
1788849182640353300,8.331353271484375,1.144179387229681,-0.5797096670992672,0.454591441437602
1788849182650322200,8.341322265625,1.4671765388593077,-0.4590174411863088,-0.06888765826523303
1788849182660291000,8.351291015625,1.8234657192379236,-0.34256855193153024,-0.6613935324430466
1788849182670260200,8.36126025390625,2.0541747555315495,-0.2909812802962959,-1.1427817953914403
1788849182680229000,8.37122900390625,2.044657570123672,-0.16309987353160976,-1.6513585095167158
1788849182690198300,8.3811982421875,2.0667228330679235,0.19261881348267196,-1.7870388995945452
1788849182700167200,8.391167236328124,1.9627660533785818,0.376108271831274,-1.7830273258656262
1788849182710136000,8.401135986328125,1.7864619764894245,0.4974060624219477,-1.8008470601946114
1788849182720105200,8.411105224609376,1.6578240522690115,0.4664573819287121,-1.8030156364053487
1788849182730074000,8.42107421875,1.337749217826873,0.48511356708183884,-1.6891683079510926
1788849182740043300,8.431043212890625,0.98316128840819,0.7409332253649831,-1.2954524832367895
1788849182750012200,8.44101220703125,0.5697592048406601,0.9931813087716698,-0.7992360689908266
1788849182759981000,8.45098095703125,0.223211374014616,1.2979336325280368,-0.06912088249921798
1788849182769950200,8.4609501953125,-0.052116483141109345,1.7551706200383603,1.0285510205775499
1788849182779919400,8.47091943359375,-0.4076273726236075,2.148455505989492,2.089636529535055
1788849182789888300,8.48088818359375,-0.5129595323193819,2.3630690013982356,2.3705671020686627
1788849182799857400,8.490857421875,-0.46365912951231,2.1568205987527964,1.939119220331311
1788849182809826300,8.500826416015625,-0.6392383992582559,1.9000794417105613,1.2649883713901042
1788849182819795500,8.51079541015625,-0.8665461026757955,1.9899761318653821,1.237109015339613
1788849182829765400,8.520765380859375,-0.7563952906519175,2.182960563790053,1.5760609842091797
1788849182839734300,8.530734375,-0.36884617187380786,2.2993374107219275,1.7009055074959993
1788849182849703400,8.540703369140624,0.013456835544900968,2.0584050865776837,1.3771686434149741
1788849182859672300,8.55067236328125,-0.040734161448478697,1.6634820780307054,0.6835515882372856
1788849182869641200,8.56064111328125,-0.32820787201523777,1.5044726886831223,-0.05327507859170436
1788849182879610400,8.5706103515625,-0.5708417393803596,1.5524913080513476,-0.2913818239212036
1788849182889579300,8.580579345703125,-0.8887561809182166,1.7005698458008467,-0.5272253004938364
1788849182899548400,8.59054833984375,-1.2663631668746471,1.5592980654567479,-0.9440554588139056
1788849182909517300,8.600517333984374,-1.5171557907760143,1.3099452651001513,-1.3726982200026512
1788849182919486200,8.610486328125,-1.8162614869475364,1.1004695709712802,-1.7216408370107412
1788849182929455400,8.620455322265625,-2.050003607326746,1.0972745743222534,-1.7009885096043347
1788849182939424300,8.63042431640625,-2.010899092906713,0.9880651348017155,-1.462809868082404
1788849182949393200,8.64039306640625,-1.7759622097849845,0.6949126479461789,-1.3635983832240104
1788849182959362300,8.6503623046875,-1.7299007158339021,0.288765357812494,-1.6188789661943912
1788849182969331200,8.660331298828124,-1.9018975970484315,-0.009222440245002508,-1.9022686223179102
1788849182979300400,8.67030029296875,-2.2072259671270844,-0.21662278940454124,-1.960621442565322
1788849182989269200,8.680269287109375,-2.521033557868004,-0.47797743159160017,-2.0866759261637924
1788849182999238100,8.690238037109374,-2.7569278878450394,-0.5426604777738452,-2.2237340343356133
1788849183009207300,8.700207275390625,-2.856967640221119,-0.6094222299262881,-2.2711253155857323
1788849183019176200,8.71017626953125,-2.642474994713068,-0.6992638288930058,-2.065824276793003
1788849183029145300,8.720145263671874,-2.5165970367252823,-0.7967803464017807,-1.6159540186583994
1788849183039115300,8.730115234375,-2.810976288896799,-0.8617205822154879,-0.7983592861562967
1788849183049084200,8.740084228515625,-2.947386162292957,-0.7756772064879536,0.1489022752225399
1788849183059053000,8.750052978515624,-3.049353667861223,-0.6807566968217492,1.1596201174676417
1788849183069022200,8.760022216796875,-2.7159529033780094,-0.5945479013994336,1.803667962834239
1788849183078991000,8.7699912109375,-1.9468670579791068,-0.848812585325539,2.399449497681856
1788849183088960300,8.779960205078124,-1.1645523131728173,-1.3346820853412151,2.4469711273133754
1788849183098929200,8.78992919921875,-0.19074593228287995,-2.135222514928877,2.5379408535271883
1788849183108898000,8.79989794921875,0.6683130295079202,-2.395835106576979,2.993815905034542
1788849183118867200,8.8098671875,1.3888637573838234,-1.9474863589212297,3.289842924413085
1788849183128836000,8.819836181640625,2.0128829602003098,-1.576124112573266,3.519700312313437
1788849183138805200,8.82980517578125,2.87179228438735,-1.4904782117307185,3.2572581671506167
1788849183148774400,8.8397744140625,3.229800835904479,-1.5726523448094725,2.6837685436099767
1788849183158743300,8.849743408203125,3.1739012540280815,-1.6988254863515495,2.2018717466175555
1788849183168712400,8.85971240234375,3.17541458120048,-1.8664912064939736,1.681703963419795
1788849183178681300,8.869681396484374,2.6147896999299522,-1.9101064763367175,1.3587252242296934
1788849183188650500,8.879650390625,1.9861258861780164,-1.56008687774688,1.1536965726375579
1788849183198619400,8.889619384765625,1.4393097500294445,-1.2007348026663065,0.9389198494911193
1788849183208588300,8.89958837890625,1.2434680289775133,-0.9573504091948271,1.0136474659562111
1788849183218557400,8.909557373046875,1.1571107649952173,-0.8045186855688691,0.823217248558998
1788849183228526300,8.9195263671875,0.9452356085091829,-0.7284454997137189,0.6465092670440673
1788849183238495200,8.9294951171875,0.9075801238536835,-0.6908566505536436,0.45282618533074853
1788849183248464400,8.93946435546875,0.919697847148776,-0.6152464060351253,0.1706260312527418
1788849183258433300,8.949433349609375,0.8078007759794592,-0.5092071209833026,-0.00419803621172905
1788849183268403200,8.9594033203125,0.6483186545535922,-0.46216333799660203,-0.18652794926166533
1788849183278372400,8.969372314453125,0.7377141171880066,-0.31650749734938144,-0.492350386467576
1788849183288341200,8.97934130859375,1.0333429310292004,-0.18572423166334628,-0.8305652732342481
1788849183298310400,8.989310302734374,1.259623044964671,-0.06161825178414583,-1.0678513498306275
1788849183308279300,8.999279296875,1.3380235047236084,0.050963294517993925,-1.440351368036866
1788849183318248200,9.009248291015625,1.1121481721967459,0.27315730818361045,-1.5842968976348637
1788849183328217300,9.01921728515625,0.6711234838187694,0.45783816827386614,-1.3139303892135619
1788849183338186200,9.029186279296875,0.20123802713751793,0.4127797138854861,-0.9284037161737679
1788849183348155100,9.039155029296875,-0.1937356886833906,-0.14895400540977716,-1.1267056898593901
1788849183358124300,9.049124267578126,-0.024375731843709943,-0.5290151065200567,-1.2032231123507022
1788849183368093200,9.05909326171875,0.3723723001733422,-0.3173511085666716,-0.8993190759867429
1788849183378062300,9.069062255859375,0.9247443168833851,-0.10894421271309256,-0.8401070085614919
1788849183388031200,9.07903125,1.185311608085036,0.005714139863103628,-0.8036994781404733
1788849183398000000,9.089000244140625,1.2529849221244453,0.24027269119173286,-0.5982669219225645
1788849183407969300,9.09896923828125,1.1105571036130188,0.23676526759266853,-0.4306383189201355
1788849183417938200,9.108938232421876,0.9692764093101024,0.37347353941351175,-0.13236556644141673
1788849183427907300,9.1189072265625,0.8966115705937147,0.5236437887452543,0.2940437366068363
1788849183437876200,9.128876220703125,1.0061690928995608,0.9143104550220071,0.7591974885910749
1788849183447845000,9.13884521484375,1.307496264512837,1.2099426298640668,0.9519289686679839
1788849183457814300,9.148814208984374,1.4255726088389753,1.2384062155432998,0.7799521073281764
1788849183467783200,9.158783203125,1.339933283867687,1.1698850525029003,0.6151794782787561
1788849183477752300,9.16875244140625,1.260097822869569,1.1702892493896186,0.5643669904083013
1788849183487721200,9.17872119140625,1.1566763191007077,1.2886375425249337,0.7201514263600111
1788849183497690000,9.188690185546875,0.9984351376466453,1.4043854439035057,0.9631249009430408
1788849183507659800,9.19865966796875,1.0139671994298696,1.4451350951820612,1.201662438905239
1788849183517628700,9.208628662109374,1.147653785341978,1.3739381370611488,1.2510142065733671
1788849183527597600,9.21859765625,1.3110251692913473,1.3804573096968233,1.2004478024184704
1788849183537566700,9.228566650390626,1.203624094367027,1.390006936069578,0.9987211149811744
1788849183547535600,9.23853564453125,0.9755741212148219,1.2325886153057217,0.35669980700612064
1788849183557504800,9.2485048828125,0.6781161922503263,1.4522292912267147,0.1012450365126133
1788849183567473700,9.2584736328125,0.21548457915484903,1.492543619827926,0.0019306758016347885
1788849183577442600,9.268442626953124,0.08118661987874656,1.5275520971059797,0.021663550275564193
1788849183587411700,9.27841162109375,-0.2264899755601771,1.6712695170365273,-0.3214975607216358
1788849183597380600,9.288380615234376,-0.44368543201982974,1.476780818028748,-0.602320581227541
1788849183607349800,9.298349853515624,-0.11992986323833466,1.5035231328733265,-0.6374281349658966
1788849183617318700,9.308318603515625,-0.009194529324769973,1.4709548883542418,-0.9487754730731248
1788849183627287600,9.31828759765625,0.3720972826242447,1.4214558211699126,-1.0856985566884279
1788849183638503700,9.329503662109374,0.2879763811255805,1.4166152492709456,-1.0827905602872372
1788849183648472800,9.339472900390625,0.3074421473622322,1.4713013637043535,-1.1376152064085006
1788849183658441700,9.349441650390625,-0.18864859467744827,1.4234037403672932,-1.2536731966495513
1788849183668411000,9.359410888671874,-0.7603998501181602,1.3037662842042743,-1.2884025647252797
1788849183678379800,9.3693798828125,-0.9585725714009254,1.2512129440158606,-1.446323428183794
1788849183688348700,9.3793486328125,-1.3048118477344512,1.208316197706014,-1.5094325030475855
1788849183698317800,9.38931787109375,-1.468274563229084,1.2180502407349645,-1.3144582124799489
1788849183708286700,9.39928662109375,-1.2672387806653975,1.0814559506826102,-0.9274129515707492
1788849183718255900,9.409255859375,-1.6647767940163611,1.1362364654012023,-0.6643091276288032
1788849183728224800,9.419224853515624,-2.059308026766777,1.1173457408398388,-0.41693595678210255
1788849183738193700,9.429193603515625,-2.2440414938271043,0.9973135862708091,-0.3914449571728706
1788849183748162800,9.439162841796875,-2.5996342163741586,0.8548987733714282,-0.348209626558423
1788849183758131700,9.449131591796874,-2.775852368545532,0.6444076185896992,-0.3660147478401661
1788849183768100900,9.459100830078125,-2.969246111923456,0.45956250784844155,-0.49779345430433747
1788849183778069800,9.46906982421875,-3.1187106972038743,0.3277385009378195,-0.35105683268308635
1788849183788038700,9.47903857421875,-3.146334032666683,0.04690525129884481,-0.4584229824244976
1788849183798007800,9.4890078125,-3.20135741623044,-0.2072495425119996,-0.5324632011473178
1788849183807976700,9.498976806640625,-3.0981518932998178,-0.38071255075633526,-0.48457098463773723
1788849183817945600,9.508945556640626,-2.9331109687030312,-0.5545290486134589,-0.5031511819452047
1788849183827915800,9.518915771484375,-3.0949346848189827,-0.5281204957678913,-0.26862814032137394
1788849183837884700,9.528884765625,-3.112418903583288,-0.5138292278259993,0.11136486398875713
1788849183847853600,9.538853515625,-3.0919384256124496,-0.5765167162768542,0.46581192363202567
1788849183857822700,9.54882275390625,-3.0538065556168554,-0.6623186844639479,0.7111281619489193
1788849183867791600,9.55879150390625,-3.1727474078178406,-0.7542708458438515,0.7941659261196852
1788849183877760800,9.5687607421875,-3.029545390063524,-0.8383280161902308,0.9601321488678455
1788849183887729700,9.578729736328125,-2.792796489083767,-0.7840200874194503,1.4007634540140628
1788849183897698600,9.588698486328125,-2.300514345546812,-0.7637021065339445,1.7994161506086588
1788849183907667700,9.598667724609374,-1.404617791354656,-0.9004290830552577,1.9598183094888924
1788849183917636600,9.60863671875,-0.32394667090680446,-1.2004159459754824,1.7359318126916885
1788849183927605500,9.61860546875,0.9716694419264793,-1.4445163787618278,1.7217139022469519
1788849183937574700,9.62857470703125,2.7250714448571203,-1.266378364443779,2.1543045242786407
1788849183947543600,9.63854345703125,4.400397689938545,-1.2184396784439682,2.5848656863093376
1788849183957512700,9.6485126953125,5.829211764916777,-0.8947153815835713,3.321042364796996
1788849183967481600,9.658481689453126,6.362362948328256,-0.9222370102375745,3.160208244240284
1788849183977450500,9.668450439453125,6.361817589405178,-1.6574688090905547,1.874338412863016
1788849183987419600,9.678419677734375,6.125266256824135,-2.512782154612243,0.549626517394185
1788849183997388500,9.688388427734376,5.373075432124733,-2.163000456431508,0.4628536583483219
1788849184007357700,9.698357666015625,5.216330042186379,-1.2015601475745439,0.5609656575322151
1788849184017326600,9.70832666015625,5.983831248742342,-0.3938125630870461,0.4386673115968704
1788849184027295500,9.71829541015625,6.0592959473103285,0.23256255520582197,0.278891175660491
1788849184037264600,9.7282646484375,4.96764754230678,0.2885121137037873,-0.010485153657197951
1788849184047233500,9.738233642578125,3.934323023717105,0.38399551794975995,0.3992693671882152
1788849184057202700,9.74820263671875,2.695992357628047,0.7513909064933657,0.8142875076502561
1788849184067171600,9.758171630859374,1.0401065799452365,0.8566796654388308,0.5890548569411039
1788849184077140500,9.768140380859375,-0.6117264152154326,0.5509557201713323,0.8405266952782869
1788849184087110000,9.77810986328125,-2.031463449768722,0.03866875335127115,0.8413216450482607
1788849184097078800,9.788078857421874,-2.900155040040612,-0.6357812445417046,0.24684300949275492
1788849184107047700,9.798047607421875,-2.7364418569162487,-1.1449828125670551,-0.43318741888105866
1788849184117016800,9.808016845703126,-2.271498825073242,-1.3934174751654267,-0.5101800576686859
1788849184126985700,9.81798583984375,-1.6770801030114293,-1.181488834926486,-0.5284031121015549
1788849184136955600,9.82795556640625,-0.7619517557352781,-0.9821376444488763,-0.1907990507096052
1788849184146924800,9.8379248046875,-0.3901663155391812,-0.8781035617396235,-0.12852642666995526
1788849184156893700,9.847893798828125,-0.4013087640613317,-0.6583411591351032,-0.5543307495623827
1788849184166862800,9.85786279296875,0.14999503889530896,-0.5220233479365706,-0.7017839950203895
1788849184176831700,9.867831787109376,0.6431792458385229,-0.2271983978241682,-0.8486439507603645
1788849184186800600,9.877800537109374,0.7143027003318071,-0.09920651642233133,-1.089588549864292
1788849184196769800,9.887769775390625,0.8489107850030064,0.2103834566235542,-1.2861474792748688
1788849184206738700,9.89773876953125,0.967835562852025,0.4718519344486296,-1.0837766487151383
1788849184216707600,9.90770751953125,1.1470099344804883,0.5569122904881835,-1.124911792179942
1788849184226676700,9.9176767578125,1.3667606466472149,0.49598289775103327,-1.5302625251084565
1788849184236645600,9.927645751953126,1.5729314540117978,0.5600044112846255,-1.6581290265649555
1788849184246614800,9.93761474609375,1.7645856602460146,0.6583857289291918,-1.8946517175734041
1788849184256583700,9.947583740234375,2.009583480263501,0.6347745517171919,-1.7898375904023647
1788849184266552600,9.957552490234375,2.175456325639784,0.6497809821911156,-1.5197656810134648
1788849184276521700,9.967521728515624,2.160713806799054,0.9457005226071924,-1.2264976049542426
1788849184286490600,9.97749072265625,2.0146892789699136,1.4335288285404444,-0.540713727620244
1788849184296459800,9.987459716796875,1.6671844396799802,2.0207550087496635,0.5292752187609672
1788849184306428700,9.9974287109375,0.778539317920804,2.445807636491954,1.335460083976388
1788849184316397600,10.0073974609375,0.11134783978872001,2.6494389885067937,2.016196030271053
1788849184326366700,10.01736669921875,-0.4505348595231771,2.456015434512496,2.5121505787104366
1788849184336335600,10.027335693359374,-0.8800111489266157,2.3633748524770137,2.310115263715386
1788849184346304800,10.0373046875,-0.6241495511978864,2.410631839822978,1.5972101552218199
1788849184356273700,10.047273681640625,-0.1450759949326515,2.455720543219149,0.8682318638056516
1788849184366242600,10.05724267578125,0.07118539554728194,2.4713810536876317,0.20531097566485404
1788849184376211700,10.067211669921875,0.3475508703887462,2.2326959239482878,-0.288732770717144
1788849184386180600,10.0771806640625,0.4238614086637273,2.197609412997961,-0.26286183187961576
1788849184396149800,10.087149658203124,-0.04632679382376372,2.1782029939994216,-0.5068295781970024
1788849184406118700,10.09711865234375,-0.5342307953417301,2.090108969352394,-0.8223726144284009
1788849184416087600,10.107087646484375,-0.7742250349182636,2.132751302509755,-0.9488064527332782
1788849184426056700,10.117056640625,-0.6616227380890399,2.1695031163237988,-0.6832400380700826
1788849184436026600,10.127026611328125,-0.39857144805192946,2.0777666435211897,-0.6021849721491337
1788849184445994500,10.136994384765625,-0.5750337842427193,1.6739873976930975,-0.859105723541975
1788849184455965000,10.14696484375,-0.5059235692679882,1.5235808553874493,-0.8858300643384456
1788849184465933800,10.156933837890625,-0.5931329200349748,1.595404274843633,-0.6838041016936302
1788849184475902700,10.16690283203125,-0.7691220857560634,1.5123064510487019,-0.6585322977930307
1788849184485871900,10.176871826171874,-1.1268811925567686,1.3689907437868416,-0.9632359601020812
1788849184495840800,10.1868408203125,-1.4994225656867026,1.314088794645667,-1.1330331393152475
1788849184505809700,10.1968095703125,-1.9623335071802137,1.1861892677024006,-1.0655699608951807
1788849184515778800,10.20677880859375,-2.252093867379427,1.1750344711553304,-0.771995010843873
1788849184525747700,10.216747802734375,-2.577147659277916,0.9954909739535301,-0.5252461093753577
1788849184535716900,10.226716796875,-2.845653634524345,0.6897837606251239,-0.3767243579030037
1788849184545685800,10.236685791015624,-3.2443186060786244,0.40869785139933223,-0.45932840683162207
1788849184555654700,10.246654541015625,-3.7331554314672943,0.35450215083137154,-0.526686955833435
1788849184565623800,10.256623779296875,-4.1153298714697355,0.10506371801793575,-0.46559038983583445
1788849184575592700,10.2665927734375,-4.448097014224529,-0.056148588201403615,-0.4490753083646297
1788849184585561900,10.276561767578125,-4.5971690930560225,-0.08038973388001322,-0.6384644922763109
1788849184595530800,10.28653076171875,-4.633516709983349,-0.0024972236432135105,-0.5615957721292972
1788849184605499600,10.296499755859376,-4.66503296123147,-0.0390248733125627,-0.6142372289925814
1788849184615468800,10.30646875,-4.5276890218555925,-0.0165153737321496,-0.5698825389593839
1788849184625437700,10.316437744140625,-4.116362137126923,0.03300181363075971,-0.42536183982193465
1788849184635406800,10.32640673828125,-3.7903123199284074,0.10841828914284705,0.071067924913764
1788849184645375700,10.336375732421875,-3.6063238260164856,0.22103300706222653,0.6839847189575433
1788849184655344600,10.3463447265625,-3.3802807357072826,0.1481947114750743,0.8423644320994615
1788849184665313800,10.356313720703126,-3.2038053939044473,0.25027882916033267,1.2973515948563814
1788849184675282700,10.36628271484375,-3.2734652055859566,0.2300514491677284,1.6593845795840023
1788849184685251800,10.376251953125,-2.685804433351755,0.025017536878585815,1.9209160396426914
1788849184695220700,10.386220703125,-1.559724035783857,-0.28582565109878777,1.9177403322160242
1788849184705189600,10.396189697265624,-0.47749483570642764,-0.6169932497024536,1.3945108233600854
1788849184715158800,10.40615869140625,0.8916776213228702,-0.7557870956256986,1.756708643260598
1788849184725127700,10.416127685546876,2.8058652294933792,-0.496600737388432,3.2021155411213633
1788849184735096600,10.4260966796875,4.8218157605707646,-0.3086825028121471,4.161207825547456
1788849184745065700,10.436065673828125,6.557897210866212,-0.5367378097265958,3.8556560219764706
1788849184755034600,10.44603466796875,7.285122521135211,-1.1502619220137595,2.4430904864877463
1788849184765003800,10.456003662109374,7.614715710029006,-1.5416487192586064,0.9627075523138046
1788849184774972700,10.46597265625,8.097714915305376,-1.3223983578294516,0.0477051695048809
1788849184784941600,10.475941650390626,8.399139994335174,-1.0450874370977281,-0.6932336088180542
1788849184794910700,10.48591064453125,9.13293357707858,-0.5042217337861656,-1.280164313212037
1788849184804879600,10.495879638671875,9.185029090496897,0.3229012900397181,-1.8401912285894155
1788849184814848800,10.505848876953126,6.47565615003109,0.9401987833857536,-1.6061965947538612
1788849184824818700,10.515818603515624,4.466311885350942,1.254524260520935,-0.09219429957270622
1788849184834786600,10.52578662109375,3.344450712913275,1.8315026029601693,1.1867319962769747
1788849184844756500,10.535756591796876,1.5466142327114938,1.9714210689991711,1.5393652844965457
1788849184854725600,10.5457255859375,-1.2234285727724432,1.7954983926430343,1.283223116260767
1788849184864694500,10.555694580078125,-3.2091148984894153,1.0969789523765443,1.3080121050804854
1788849184874663700,10.56566357421875,-3.934344358766079,-0.1824251901179552,0.8094260390937328
1788849184884632600,10.575632568359374,-3.178278153938055,-1.2331591086700557,0.017066285613179206
1788849184894601500,10.5856015625,-2.4422978748053312,-2.1526564648106694,-0.50791561986804
1788849184904570600,10.595570556640626,-1.8611767334729432,-2.2114225420340894,0.05147241308391094
1788849184914539500,10.60553955078125,-1.1134694839283823,-1.8262880831822752,0.4008095823675394
1788849184924508700,10.6155087890625,-0.49886371388435363,-1.696331039187312,0.4642939202845096
1788849184934477600,10.6254775390625,0.43536710100769993,-1.5136679486602544,0.5438052638947963
1788849184944446700,10.63544677734375,0.9932289473056792,-1.37808078982383,0.4639467142820358
1788849184954415900,10.645415771484375,1.5353209775418042,-1.1454825787827372,0.0997369700372219
1788849184964384800,10.655384765625,1.882975308305025,-1.0007236869752407,-0.16731705283522605
1788849184974353700,10.665353759765624,1.7091484351843595,-0.881554578976333,-0.36238603594899177
1788849184984322800,10.67532275390625,1.7495558488965033,-0.38502778360694645,-0.05148994874060154
1788849184994291700,10.685291748046875,1.5321417629837988,-0.19325623460337518,-0.3576666062116623
1788849185004260900,10.6952607421875,1.908078185379505,0.04364522658959031,-0.206385326898098
1788849185014229800,10.705229736328125,2.387419744931161,0.08378492927625775,0.0728062930136919
1788849185024198700,10.71519873046875,2.6175726086467503,-0.0012653437606990336,-0.07609013698995112
1788849185034167800,10.725167724609374,2.579301622441411,0.20354323533996938,0.003114332628250122
1788849185044136700,10.73513671875,2.3497569537520406,0.5661427679091692,-0.006648936495184898
1788849185054105900,10.74510595703125,2.324828848722577,0.8039008459314704,0.19020751455724239
1788849185064074800,10.75507470703125,2.5931810947120186,0.8179903076909482,0.5649485896885394
1788849185074043600,10.765043701171875,2.6883108632147312,1.1851543716967106,1.120475271037221
1788849185084012800,10.7750126953125,2.4413123708993196,1.5294189138911665,1.4773089335560798
1788849185093981700,10.784981689453126,1.878763828089833,1.7406442281663417,1.7123785031467675
1788849185103950800,10.794950927734375,1.3087906882375477,2.018184573739767,1.9905220753103494
1788849185113919700,10.804919677734375,1.069150157469511,2.155778980745375,1.6814608023136852
1788849185123888600,10.814888671875,1.5179356891073286,2.219241399091482,1.2910504488855599
1788849185133857800,10.82485791015625,1.8740877991028129,1.9974130038678646,1.0130325489282608
1788849185143826700,10.83482666015625,1.9528256741225718,1.7094330973446368,0.579617751032114
1788849185153795800,10.8447958984375,1.9485516500651836,1.6937915838375686,0.15860358502566813
1788849185163764700,10.8547646484375,1.902844960901141,1.711946833731234,-0.25093466272056103
1788849185173733600,10.864733642578125,1.3798866702020167,1.907546562720835,-0.3311386647701263
1788849185183702800,10.874702880859376,0.8414724516957998,1.8137223238587379,-0.7067460013419389
1788849185193671700,10.884671630859375,0.4561871861964464,2.066765649296343,-0.9349041841089725
1788849185203640600,10.894640625,0.04886078754710033,1.847664925470948,-1.2835627234786748
1788849185213609700,10.904609619140626,-0.26007249342203137,2.0664206352509558,-0.6213239723831415
1788849185223578600,10.91457861328125,-0.11240240860925986,2.293563941887021,-0.08701309754252433
1788849185233547800,10.9245478515625,-0.12255438478933646,2.188560137362778,0.014388006314635276
1788849185243516700,10.9345166015625,-0.22254618810415266,2.1134810771115125,-0.2088373962253332
1788849185253485600,10.944485595703124,-0.32860885403156276,1.9870428548924624,-0.31225100894868374
1788849185263454700,10.954454833984375,-0.6644236939191818,1.8580206075295804,-0.11891571775972842
1788849185273423600,10.964423583984376,-1.1670095701318233,1.7815744967088103,0.0381938293159008
1788849185283392800,10.974392822265624,-1.9590707059919834,1.8830495425850151,0.22222587010860442
1788849185293361700,10.984361572265625,-3.0827544176816937,1.8497458233982325,0.23480361213088033
1788849185303330600,10.99433056640625,-3.9093291599750515,1.5453545880392192,-0.04772796585857868
1788849185313299700,11.0042998046875,-4.456514129436016,1.171494095134735,-0.42578269558250903
1788849185323268600,11.0142685546875,-4.593601171441376,0.8736259048689157,-0.5799737248629331
1788849185333237800,11.02423779296875,-4.452873727107048,0.584810424304381,-0.6480991665840149
1788849185343206700,11.03420654296875,-4.819430618999898,0.515115979700908,-0.7191548165380954
1788849185353175600,11.044175537109375,-5.590229405796528,0.5539416041143238,-1.045751746225357
1788849185363144700,11.054144775390625,-5.998063187712431,0.320489114331454,-1.4405758244425058
1788849185373113600,11.064113525390624,-6.1658256462275975,0.10606602692827581,-1.5215584096491337
1788849185383082800,11.074082763671875,-6.340864233225584,0.10255933398157357,-1.2308821036487818
1788849185393051600,11.0840517578125,-5.999816753381491,0.27932109151035545,-0.688369802173972
1788849185403020500,11.0940205078125,-5.488839407855272,0.43312984347492456,-0.11779928095042705
1788849185412989700,11.10398974609375,-4.850948331552743,0.6471162930265069,0.40437458137273785
1788849185422958600,11.11395849609375,-4.258660484039783,0.7304147539600729,1.0403536865741014
1788849185432927500,11.123927490234376,-3.9206972339466213,0.7442869197070598,1.3050246137022972
1788849185442898000,11.13389794921875,-3.510383617913723,0.6321957872703671,1.3204676820278167
1788849185452865500,11.143865478515625,-3.1446710678905245,0.382412048150599,1.1711316915631294
1788849185462835700,11.153835693359374,-2.8396482566297054,0.07060498357713223,1.1004279237866401
1788849185472804900,11.163804931640625,-2.287510048675537,-0.4356888803079724,1.254703124219179
1788849185482773800,11.173773681640625,-1.5694250533260403,-0.6750497173517942,1.341634973219037
1788849185492742700,11.18374267578125,-0.745099697394669,-0.8068681713044643,0.9692787473976612
1788849185502711800,11.1937119140625,0.27092911074012516,-1.0183911533519625,1.2341051573485136
1788849185512681700,11.203681640625,2.057828163472563,-0.9270429492145776,2.6909435498058794
1788849185522650600,11.213650634765624,4.4060324809551235,-1.0985621299147605,3.85351258020699
1788849185532619800,11.223619873046875,6.368675784736872,-1.508868147163093,3.6637493022859093
1788849185542588700,11.233588623046876,6.8618053388834,-1.6390946557492017,2.7981197299331426
1788849185552557800,11.243557861328124,6.268572903996706,-2.108969006514549,1.3741338057637213
1788849185562526700,11.253526611328125,6.415690049368143,-2.119963278737664,0.7050666699528694
1788849185572495600,11.26349560546875,6.891428908252716,-1.8157015149772167,0.34750352411568164
1788849185582464800,11.27346484375,6.7918859994828695,-1.5051093791514634,0.2307762563109398
1788849185592433700,11.28343359375,6.637301586970686,-1.4488488550081848,-0.23789748649299144
1788849185602402600,11.293402587890625,5.744751858988404,-1.3070678099676967,-0.9530611875683068
1788849185612371700,11.303371826171874,4.618921198397874,-0.7092202825009822,-1.1489379799336195
1788849185622340600,11.313340576171875,3.5766046873182056,0.14153466906398535,-0.7545148837327956
1788849185632309800,11.323309814453125,2.5925065564513203,0.6168792679339647,-0.25833997054100033
1788849185642278700,11.333278564453124,1.4091753085285423,1.023709425765276,0.1479997734248638
1788849185652247600,11.34324755859375,0.3124175976872444,1.231435061356425,0.28201602968275546
1788849185662216700,11.353216796875,-0.248261205727607,1.1011807879805564,0.7284832013756036
1788849185672185600,11.363185546875,-1.4689584538400173,0.4871814593970775,0.6147977854847908
1788849185682154800,11.37315478515625,-2.5373431798949837,-0.30044132868945594,0.12635609689354896
1788849185692123600,11.38312353515625,-2.8438614904105664,-0.8987401070550084,-0.1054144311517477
1788849185702092500,11.393092529296876,-2.2978213070705533,-1.139100768791139,-0.3791635677486658
1788849185712061700,11.403061767578125,-1.603590211647749,-1.2566747165530918,-0.3903507321953773
1788849185722030600,11.413030517578125,-1.4766098453760146,-1.2199252408266066,-0.49443596056997774
1788849185731999700,11.422999755859376,-1.6106266861557959,-1.214353870435059,-0.44069092637896534
1788849185741968600,11.43296875,-0.9697647773489355,-1.1300617222890257,0.025794366469979284
1788849185751937500,11.4429375,-0.21921529011577368,-0.9116773300394415,-0.029117957934737204
1788849185761906700,11.45290673828125,0.3285954100281,-0.5155662807516753,-0.24001111764609812
1788849185771875600,11.46287548828125,0.8385872516483068,-0.46631519697904583,-0.5547592041075229
1788849185781844700,11.4728447265625,0.9511655830800533,-0.3659378832116723,-0.6269014802545309
1788849185791813600,11.482813720703126,1.0636679266661404,0.12453823381662368,-0.24067747260034084
1788849185801782500,11.492782470703125,0.9957526205644011,0.7767610562019049,-0.20024843157827854
1788849185811751700,11.502751708984375,0.8625228385090827,1.289640582087636,-0.06466273404657841
1788849185821720600,11.512720458984376,0.786952341479063,1.3332112821362911,0.08222060256898403
1788849185831689500,11.522689453125,0.656456076040864,1.6124048017442225,0.5750888754308223
1788849185841658600,11.53265869140625,0.592085310678184,1.9127626899339258,0.7916361153811216
1788849185851627500,11.54262744140625,0.8713231078192591,1.8138835057698188,0.5411982962667942
1788849185861596700,11.5525966796875,1.2789809486463666,1.971905199254304,0.5355950694322585
1788849185871565600,11.562565673828125,1.4727490782946346,2.064852509151399,0.35284020896852014
1788849185881534500,11.572534423828126,1.5296347485989332,2.1236758695200084,0.06005085633695125
1788849185891503600,11.582503662109374,1.7736441421009599,2.3620491568312048,0.09318564869761467
1788849185901472500,11.592472412109375,2.186483038827777,2.4998604214578863,0.18726327779889107
1788849185911441700,11.602441650390626,2.242531673786044,2.3865588903181254,-0.0017670096725225448
1788849185921410600,11.61241064453125,2.2562639926709234,2.290865204322338,-0.18444763585627078
1788849185931379500,11.62237939453125,2.264577501377463,2.278913777504861,-0.42110768950879574
1788849185941348600,11.6323486328125,1.9598428594082593,2.308985090641677,-0.6680009678840637
1788849185951317500,11.6423173828125,1.8771809428125619,2.3438510907091197,-0.8775210856765508
1788849185961286700,11.65228662109375,1.812448066139221,2.0759958344563842,-0.9070406101495027
1788849185971255600,11.662255615234375,1.5140093094438314,2.4314104239575562,-0.4441957196295261
1788849185981224400,11.672224365234374,1.2252356221944094,2.7605191903352737,-0.09489245261549949
1788849185991193600,11.682193603515625,0.6145014328867197,2.665505449427664,-0.2604202839463949
1788849186001162500,11.69216259765625,0.33552491703033444,2.6269386951461433,-0.6081582013398409
1788849186011131600,11.702131591796874,-0.08364391337037086,2.517748544847965,-0.7045499526023864
1788849186021100800,11.712100830078125,-0.6731494366884231,2.6389585110247133,-0.6658703855961561
1788849186031069700,11.722069580078125,-0.942775355875492,2.7630127607166766,-0.809772660574317
1788849186041038800,11.732038818359374,-1.1076163739860057,2.5955145060956477,-0.7686480385035276
1788849186051007700,11.7420078125,-1.1025136440195142,2.631070972645283,-0.5592980165809393
1788849186060976600,11.7519765625,-1.1280816543877124,2.587464762891829,-0.39620179631114005
1788849186070945800,11.76194580078125,-0.967158028916642,2.3413113430984316,-0.27010288904905316
1788849186080914700,11.771914794921875,-0.7543629080414772,1.9537297833554446,-0.37778117347955703
1788849186090883800,11.7818837890625,-0.8990705080531537,1.6656975621230898,-0.48326983891129494
1788849186100852700,11.791852783203124,-1.2467781764388084,1.448403595458716,-0.5024626151591539
1788849186110821600,11.801821533203125,-1.6473521964848041,1.1569361390806734,-0.6519581800997257
1788849186120790800,11.811790771484375,-1.994941791448742,1.1553865715511142,-0.6373509780764579
1788849186130759700,11.821759765625,-2.3265584489941595,1.0902832541301846,-0.5033230313807726
1788849186140728800,11.831728759765625,-2.740907311892509,0.8686055194236337,-0.3284101165890693
1788849186150697700,11.84169775390625,-3.258824101293087,0.8239300730034709,-0.001541384223103523
1788849186160666600,11.85166650390625,-3.840673556900024,0.7398525905214249,0.35462650786340233
1788849186170635800,11.8616357421875,-4.230968174993992,0.5353172754041851,0.8452531392782926
1788849186180604700,11.871604736328125,-4.638764547508955,0.32925694267675276,1.174349484565854
1788849186190573600,11.881573486328126,-4.7204397911548615,-0.04294292353913188,1.0594412488818168
1788849186200542700,11.891542724609375,-4.686078087347745,-0.3972884225040674,0.8117296398609876
1788849186210511600,11.90151171875,-4.517815278095006,-0.7564918828941881,0.3214554751455784
1788849186220480800,11.911480712890626,-4.294806148654223,-0.8178025300338864,0.1221580606818199
1788849186230449700,11.92144970703125,-4.112000434786081,-0.8123680838949978,-0.043371524214744564
1788849186240418600,11.93141845703125,-3.709545423299074,-1.0377972800895572,-0.18598317486047744
1788849186250387700,11.9413876953125,-3.4747979252696037,-0.9679594814926386,0.05936755024790764
1788849186260356600,11.951356689453124,-3.4619980649292468,-0.9441884375438093,0.33801790288984773
1788849186270325800,11.96132568359375,-3.3387104156956076,-0.8628440332874655,0.9349749112576246
1788849186280294700,11.971294677734376,-2.6995126407086847,-1.4519222711041568,0.8045750919312238
1788849186290263600,11.981263671875,-2.1858850729346275,-1.9627444260686635,0.794203335520625
1788849186300232700,11.991232666015625,-1.672431838814169,-2.0804004991561174,0.8979320055425166
1788849186310201600,12.00120166015625,-0.6031283904790878,-2.1424419447883962,0.5570972916662693
1788849186320170800,12.011170654296874,0.7121919917881488,-2.0948776450589297,1.6849141576379536
1788849186330139600,12.0211396484375,2.746777080708742,-1.4996721565335989,4.095323440751433
1788849186340108500,12.031108642578126,5.448011722904443,-1.1779667982801794,5.55736349350512
1788849186350077700,12.04107763671875,7.0685542383968825,-1.6346879452228544,5.038505623862147
1788849186360046600,12.051046630859375,7.100138294184207,-2.199119817560911,3.4098055208772418
1788849186370015700,12.061015625,7.139632100182771,-2.6944366526186463,2.032750859230757
1788849186379984600,12.070984619140624,7.3046496439039705,-2.935942977258563,0.9004431115806102
1788849186389953500,12.08095361328125,7.585263405573367,-1.6796049453139303,0.8794447472155094
1788849186399922700,12.090922607421875,7.314409405896067,-0.6198410403490067,0.01852700581550598
1788849186409891600,12.1008916015625,6.583992606109381,-0.45794192090928554,-0.452439231839776
1788849186419860500,12.110860595703125,4.962264095702767,0.03063391545563936,-0.65678048568964
1788849186429829600,12.12082958984375,3.2877281242161986,0.04292641079574823,-0.4532651612699032
1788849186439798500,12.130798583984374,2.4807816269785166,0.671090750592947,0.01832300767600536
1788849186449767700,12.140767578125,1.5375034361474216,0.9222741273775696,-0.04968494514524936
1788849186459736600,12.150736572265625,0.4229775750339031,0.5308320928141474,-0.42924014256000514
1788849186469705500,12.16070556640625,-0.9955299177244306,0.16410510505139828,-0.5119768779575824
1788849186479674600,12.170674560546875,-1.8260240254186093,-0.4785808043122291,-0.8546990130156278
1788849186489643500,12.1806435546875,-1.7004194775447248,-0.9439557978317141,-0.9087924222528934
1788849186499612700,12.19061279296875,-1.5383160677045582,-1.5331664298564194,-0.8743611603409052
1788849186509581600,12.20058154296875,-1.243528234732151,-1.9942241446986793,-0.8270067039698362
1788849186519550200,12.21055029296875,-1.2959008115261792,-1.8752514360547066,-0.48256198290288443
1788849186529519400,12.220519287109376,-1.368226043024659,-1.2241411049559712,-0.08941840511858462
1788849186539488300,12.23048828125,-1.242569618833065,-1.0121421759597957,-0.07159633270204067
1788849186549457400,12.24045751953125,-0.6998579953938722,-0.9718788468934595,-0.2763438292652368
1788849186559426300,12.25042626953125,-0.45256899569928644,-0.7320593062967061,-0.7081886013656854
1788849186569395200,12.260395263671874,-0.5943696222230792,-0.4041534859679639,-0.6662193451642989
1788849186579364400,12.2703642578125,-0.2855915500819683,-0.23042115926295517,-0.17698621393442152
1788849186589333200,12.280333251953126,0.3092582568734884,-0.003015110037475824,-0.008859013760089874
1788849186599302400,12.290302490234374,0.5408969752326608,0.4530925811819732,-0.053255789369344705
1788849186609270300,12.300270263671875,0.6316866687044501,0.8817921871244907,-0.06368424440324306
1788849186619239400,12.310239501953125,0.8573214704737067,1.486930163860321,0.3009685674339533
1788849186629208300,12.320208251953124,0.9265364609971642,1.7328884994730351,0.3878817117333412
1788849186639177200,12.33017724609375,0.817033006966114,1.9788984191425143,0.49434419063329693
1788849186649146400,12.340146484375,0.5717132615178823,2.1581362113960085,0.6721317840784787
1788849186659115300,12.350115234375,0.7641548187375068,2.2523048797816037,1.0189391426235437
1788849186669084400,12.36008447265625,1.4493806237973272,2.3368103784173724,1.0671189439028501
1788849186679053300,12.37005322265625,2.0561662216097116,2.541650521700084,0.982688264068961
1788849186689022200,12.380022216796876,2.367509468063712,2.9077532400846478,0.9741595051765441
1788849186698991400,12.389991455078125,2.516894558367133,2.8720485972359775,0.6057751055955887
1788849186708960300,12.399960205078125,2.3804921376250685,2.504846393176913,0.0622013123691082
1788849186718929400,12.409929443359376,2.1100316673099995,2.297495143856108,-0.48847792894840236
1788849186728898300,12.419898193359375,2.032785930544138,2.197235611249506,-0.6293553031474352
1788849186738867200,12.4298671875,1.9286136084079741,2.2614660913586615,-0.6712333739340305
1788849186748836400,12.43983642578125,1.6927040808618068,2.5480039823800325,-0.6965186218380928
1788849186758805200,12.44980517578125,1.3950117586195467,2.605723180899024,-0.8134101402938365
1788849186768774100,12.459774169921875,1.1833522907108067,2.6091981635332107,-0.7688836008250713
1788849186778743300,12.469743408203126,1.3293430624008178,2.5185978551536796,-0.7619207760751247
1788849186788712200,12.479712158203125,1.5839286488443611,2.5593501367807385,-0.32091654596328734
1788849186798681300,12.489681396484375,1.3501450274109839,2.428166765861213,-0.47807577739953994
1788849186808650200,12.499650146484376,1.1272761832237244,2.341263704564422,-0.704625355926156
1788849186818619100,12.509619140625,0.7951683811604976,2.3073129196457565,-0.6179144562005996
1788849186828588300,12.51958837890625,0.6345780062317847,2.3183726583205164,-0.7064981640607119
1788849186838557200,12.52955712890625,0.43701662178039546,2.037714619117975,-1.1135416723817586
1788849186848526300,12.5395263671875,0.22910335466265677,1.8039378658168017,-1.118154719135165
1788849186858495200,12.5494951171875,0.23117380426116285,2.027316851483285,-0.6382201621264219
1788849186868464000,12.559464111328126,-0.15929741250872612,2.172161668008566,-0.009908230552077292
1788849186878433300,12.569433349609374,-0.5449614481925964,1.9870047148391603,0.2823497916817665
1788849186888402200,12.579402099609375,-1.097463301827386,1.568184844006598,0.5914473050355911
