time,seconds_elapsed,z,y,x
1788849174347291400,0.03829150390625,-0.6884765625,-0.67266845703125,0.014892578125
1788849174357260500,0.048260498046875,-0.749847412109375,-0.6517791748046875,-0.0267791748046875
1788849174367229400,0.0582294921875,-0.796661376953125,-0.6291351318359375,-0.0664825439453125
1788849174377198300,0.0681982421875,-0.816253662109375,-0.6182861328125,-0.098663330078125
1788849174387167500,0.07816748046875,-0.8331451416015625,-0.6325531005859375,-0.12603759765625
1788849174397136400,0.088136474609375,-0.8471527099609375,-0.62713623046875,-0.1278839111328125
1788849174407105500,0.09810546875,-0.8289642333984375,-0.595916748046875,-0.1151123046875
1788849174417075500,0.108075439453125,-0.771453857421875,-0.5643463134765625,-0.09527587890625
1788849174427044400,0.11804443359375,-0.70355224609375,-0.546356201171875,-0.053436279296875
1788849174437013500,0.128013427734375,-0.66339111328125,-0.5699310302734375,-0.0325927734375
1788849174446982400,0.137982421875,-0.64599609375,-0.59954833984375,-0.0404052734375
1788849174456951300,0.147951416015625,-0.6349029541015625,-0.607666015625,-0.0544281005859375
1788849174466920400,0.15792041015625,-0.6121063232421875,-0.6110076904296875,-0.07952880859375
1788849174476889300,0.167889404296875,-0.57489013671875,-0.6405487060546875,-0.101959228515625
1788849174486859300,0.177859375,-0.551177978515625,-0.6797637939453125,-0.10235595703125
1788849174496828400,0.187828369140625,-0.5340118408203125,-0.626983642578125,-0.0543212890625
1788849174506797600,0.197797607421875,-0.6224365234375,-0.7066192626953125,-0.08306884765625
1788849174516766500,0.207766357421875,-0.70086669921875,-0.7269287109375,-0.0974884033203125
1788849174526735600,0.217735595703125,-0.71368408203125,-0.675140380859375,-0.0436553955078125
1788849174536704500,0.22770458984375,-0.690673828125,-0.6480712890625,-0.0229949951171875
1788849174546673700,0.237673583984375,-0.716064453125,-0.632904052734375,0.0055999755859375
1788849174556643800,0.247643798828125,-0.74578857421875,-0.6353302001953125,0.0262603759765625
1788849174566612700,0.25761279296875,-0.73468017578125,-0.63189697265625,0.0369110107421875
1788849174576581600,0.26758154296875,-0.7218475341796875,-0.6360321044921875,0.0476837158203125
1788849174586550800,0.27755078125,-0.7303314208984375,-0.6444091796875,0.0616302490234375
1788849174596519700,0.287519775390625,-0.769775390625,-0.650360107421875,0.058868408203125
1788849174606488800,0.29748876953125,-0.8386077880859375,-0.6499176025390625,0.0493621826171875
1788849174616457700,0.307457763671875,-0.8867950439453125,-0.6313018798828125,0.044921875
1788849174626427600,0.317427734375,-0.9282379150390625,-0.6172027587890625,0.0543060302734375
1788849174636396500,0.327396484375,-0.98822021484375,-0.6255340576171875,0.0573883056640625
1788849174646365700,0.33736572265625,-1.001800537109375,-0.63409423828125,0.0423431396484375
1788849174656334600,0.34733447265625,-0.945831298828125,-0.6306915283203125,0.023529052734375
1788849174666303700,0.3573037109375,-0.871002197265625,-0.6260986328125,0.021484375
1788849174676272600,0.367272705078125,-0.81915283203125,-0.6274871826171875,0.02178955078125
1788849174686241500,0.377241455078125,-0.7870330810546875,-0.626007080078125,0.0216827392578125
1788849174696211500,0.38721142578125,-0.7803497314453125,-0.6349945068359375,0.0249481201171875
1788849174706180600,0.3971806640625,-0.8093414306640625,-0.6405029296875,0.0398101806640625
1788849174716149500,0.4071494140625,-0.8306884765625,-0.619232177734375,0.0642852783203125
1788849174726118700,0.41711865234375,-0.8514404296875,-0.592681884765625,0.0865020751953125
1788849174736087600,0.427087646484375,-0.852386474609375,-0.5599212646484375,0.0944061279296875
1788849174746056400,0.437056396484375,-0.8140716552734375,-0.550750732421875,0.0970611572265625
1788849174756025600,0.447025634765625,-0.7815093994140625,-0.5653076171875,0.0921630859375
1788849174765995800,0.456995849609375,-0.7856292724609375,-0.608795166015625,0.05853271484375
1788849174775964700,0.466964599609375,-0.8292236328125,-0.68017578125,-0.00018310546875
1788849174785933800,0.476933837890625,-0.8561248779296875,-0.7139892578125,-0.03607177734375
1788849174795902700,0.48690283203125,-0.842681884765625,-0.706207275390625,-0.0344085693359375
1788849174805871600,0.49687158203125,-0.7762908935546875,-0.6793670654296875,0.014617919921875
1788849174815840800,0.5068408203125,-0.6910552978515625,-0.6557159423828125,0.0742034912109375
1788849174825810700,0.516810791015625,-0.6346282958984375,-0.66265869140625,0.1210784912109375
1788849174835779600,0.526779541015625,-0.65167236328125,-0.7039337158203125,0.14447021484375
1788849174845748700,0.536748779296875,-0.7156524658203125,-0.725494384765625,0.109405517578125
1788849174855717600,0.546717529296875,-0.7327880859375,-0.6895599365234375,0.0877685546875
1788849174865686500,0.5566865234375,-0.7141265869140625,-0.6656951904296875,0.095367431640625
1788849174875655700,0.56665576171875,-0.6931304931640625,-0.6622161865234375,0.12506103515625
1788849174885624600,0.57662451171875,-0.6952972412109375,-0.667236328125,0.1746673583984375
1788849174895594500,0.586594482421875,-0.710479736328125,-0.67315673828125,0.2123565673828125
1788849174905563600,0.596563720703125,-0.7026519775390625,-0.66522216796875,0.208038330078125
1788849174915532500,0.606532470703125,-0.693267822265625,-0.6611785888671875,0.1751861572265625
1788849174925501700,0.616501708984375,-0.7032012939453125,-0.67242431640625,0.113250732421875
1788849174935470600,0.626470703125,-0.7146453857421875,-0.6969451904296875,0.060150146484375
1788849174945439500,0.636439453125,-0.724761962890625,-0.7316436767578125,0.04510498046875
1788849174955408600,0.64640869140625,-0.744720458984375,-0.7572174072265625,0.0600738525390625
1788849174965378800,0.65637890625,-0.7501220703125,-0.7490081787109375,0.0832672119140625
1788849174975347700,0.66634765625,-0.7468414306640625,-0.721099853515625,0.1072998046875
1788849174985316900,0.67631689453125,-0.7487335205078125,-0.692901611328125,0.1141204833984375
1788849174995285800,0.68628564453125,-0.740692138671875,-0.674163818359375,0.1137847900390625
1788849175005254700,0.696254638671875,-0.7160491943359375,-0.6685333251953125,0.1194610595703125
1788849175015223800,0.706223876953125,-0.6856536865234375,-0.6636505126953125,0.13165283203125
1788849175025192700,0.716192626953125,-0.6564483642578125,-0.6644439697265625,0.140869140625
1788849175035162600,0.72616259765625,-0.62841796875,-0.6785736083984375,0.1329803466796875
1788849175045131800,0.7361318359375,-0.6112518310546875,-0.7081146240234375,0.1292724609375
1788849175055100700,0.7461005859375,-0.602386474609375,-0.7359161376953125,0.1373291015625
1788849175065069600,0.756069580078125,-0.6522674560546875,-0.7574310302734375,0.156768798828125
1788849175075038700,0.766038818359375,-0.7292022705078125,-0.784454345703125,0.1719512939453125
1788849175085007600,0.776007568359375,-0.7516937255859375,-0.8067169189453125,0.219573974609375
1788849175094977500,0.7859775390625,-0.7633514404296875,-0.8156280517578125,0.29302978515625
1788849175104946700,0.79594677734375,-0.749725341796875,-0.7928619384765625,0.3142242431640625
1788849175114915600,0.80591552734375,-0.702484130859375,-0.6795654296875,0.1608428955078125
1788849175124884500,0.815884521484375,-0.73785400390625,-0.5650177001953125,0.012115478515625
1788849175134853600,0.825853515625,-0.8260498046875,-0.5361785888671875,-0.0525360107421875
1788849175144822500,0.835822509765625,-0.8898162841796875,-0.547760009765625,-0.0703582763671875
1788849175154791700,0.845791748046875,-0.9226226806640625,-0.5567169189453125,-0.0819549560546875
1788849175164761600,0.85576171875,-0.913482666015625,-0.5539093017578125,-0.100250244140625
1788849175174730500,0.86573046875,-0.8676605224609375,-0.5441436767578125,-0.1137542724609375
1788849175184699600,0.87569970703125,-0.8126373291015625,-0.5391693115234375,-0.106689453125
1788849175194668500,0.88566845703125,-0.7629547119140625,-0.540496826171875,-0.0789794921875
1788849175204637400,0.895637451171875,-0.7214813232421875,-0.540985107421875,-0.0460968017578125
1788849175214606800,0.90560693359375,-0.6854248046875,-0.53265380859375,-0.0171966552734375
1788849175224575700,0.91557568359375,-0.6603240966796875,-0.51715087890625,-0.000457763671875
1788849175234545700,0.925545654296875,-0.6606903076171875,-0.5041046142578125,-0.004241943359375
1788849175244514800,0.935514892578125,-0.6763153076171875,-0.5129241943359375,-0.0389404296875
1788849175254483700,0.945483642578125,-0.6999664306640625,-0.53045654296875,-0.08648681640625
1788849175264452600,0.95545263671875,-0.7120208740234375,-0.552581787109375,-0.12841796875
1788849175274421800,0.965421875,-0.7179718017578125,-0.583404541015625,-0.169769287109375
1788849175284390700,0.975390625,-0.7121734619140625,-0.608856201171875,-0.1893310546875
1788849175294360600,0.985360595703125,-0.704620361328125,-0.629425048828125,-0.1905059814453125
1788849175304329700,0.995329833984375,-0.6971588134765625,-0.6529998779296875,-0.18267822265625
1788849175314298600,1.005298583984375,-0.6860809326171875,-0.6634368896484375,-0.16168212890625
1788849175324267500,1.015267578125,-0.6839447021484375,-0.653411865234375,-0.1339874267578125
1788849175334236700,1.025236572265625,-0.6916656494140625,-0.62322998046875,-0.1109161376953125
1788849175344205600,1.03520556640625,-0.7177734375,-0.590362548828125,-0.0938873291015625
1788849175354174700,1.0451748046875,-0.7660980224609375,-0.567138671875,-0.09368896484375
1788849175364144600,1.05514453125,-0.8276214599609375,-0.5485076904296875,-0.0994873046875
1788849175374113500,1.065113525390625,-0.8682098388671875,-0.5402679443359375,-0.10650634765625
1788849175384082400,1.07508251953125,-0.8755035400390625,-0.5336151123046875,-0.102691650390625
1788849175394051600,1.085051513671875,-0.840850830078125,-0.523834228515625,-0.078277587890625
1788849175404020500,1.0950205078125,-0.790618896484375,-0.506622314453125,-0.04571533203125
1788849175413989600,1.10498974609375,-0.7516937255859375,-0.4903717041015625,-0.00372314453125
1788849175423958500,1.11495849609375,-0.710968017578125,-0.4649658203125,0.0505523681640625
1788849175433928700,1.1249287109375,-0.69903564453125,-0.4421539306640625,0.1012115478515625
1788849175443897600,1.134897705078125,-0.7220306396484375,-0.4176483154296875,0.1492462158203125
1788849175453866800,1.14486669921875,-0.7508392333984375,-0.3904876708984375,0.196441650390625
1788849175463835600,1.154835693359375,-0.779083251953125,-0.375823974609375,0.248199462890625
1788849175473804800,1.1648046875,-0.8167724609375,-0.361358642578125,0.2867584228515625
1788849175483773700,1.174773681640625,-0.861083984375,-0.3382568359375,0.3011016845703125
1788849175493742600,1.18474267578125,-0.8843231201171875,-0.312286376953125,0.2974395751953125
1788849175503712300,1.194712158203125,-0.902862548828125,-0.262451171875,0.2962188720703125
1788849175513681200,1.20468115234375,-0.8965911865234375,-0.2239990234375,0.303955078125
1788849175523650000,1.214650146484375,-0.8614959716796875,-0.2323760986328125,0.32696533203125
1788849175533619200,1.224619140625,-0.8227996826171875,-0.2548065185546875,0.3311920166015625
1788849175543588000,1.234588134765625,-0.824371337890625,-0.24200439453125,0.3300628662109375
1788849175553557200,1.24455712890625,-0.8157196044921875,-0.211578369140625,0.3427734375
1788849175563527200,1.254527099609375,-0.7905731201171875,-0.1958465576171875,0.358734130859375
1788849175573496000,1.26449609375,-0.761566162109375,-0.2000732421875,0.356842041015625
1788849175583465200,1.27446533203125,-0.7420501708984375,-0.230682373046875,0.3301544189453125
1788849175593434000,1.28443408203125,-0.743255615234375,-0.2549896240234375,0.30792236328125
1788849175603403000,1.294403076171875,-0.7219085693359375,-0.27886962890625,0.2760162353515625
1788849175613372200,1.3043720703125,-0.6866912841796875,-0.317535400390625,0.230438232421875
1788849175623341000,1.314341064453125,-0.678466796875,-0.3613128662109375,0.170257568359375
1788849175633311000,1.32431103515625,-0.7150421142578125,-0.3725128173828125,0.1277618408203125
1788849175643280100,1.334280029296875,-0.770660400390625,-0.3621673583984375,0.114105224609375
1788849175653249000,1.3442490234375,-0.83636474609375,-0.3797454833984375,0.0828704833984375
1788849175663218000,1.354218017578125,-0.8979644775390625,-0.43804931640625,0.0316009521484375
1788849175673187000,1.36418701171875,-0.9755401611328125,-0.4956817626953125,-0.0321197509765625
1788849175683156000,1.374156005859375,-1.0135498046875,-0.5164337158203125,-0.0996856689453125
1788849175693125000,1.384125,-1.061614990234375,-0.4848480224609375,-0.1602325439453125
1788849175703095000,1.394094970703125,-1.123077392578125,-0.4275360107421875,-0.176605224609375
1788849175713064000,1.40406396484375,-1.2118682861328125,-0.342926025390625,-0.1338958740234375
1788849175723032800,1.41403271484375,-1.2895355224609375,-0.232574462890625,-0.0555572509765625
1788849175733002000,1.424001953125,-1.312225341796875,-0.1602630615234375,0.0068359375
1788849175742971000,1.433970947265625,-1.324462890625,-0.153076171875,0.0326690673828125
1788849175752940300,1.443940185546875,-1.8926239013671875,-0.14569091796875,-0.3262786865234375
1788849175762910200,1.45391015625,-4.441986083984375,-0.9503326416015625,-2.8680877685546875
1788849175772879000,1.463879150390625,-1.0980072021484375,-0.7866058349609375,-0.27593994140625
1788849175782848000,1.473847900390625,-0.49908447265625,-0.795074462890625,0.3279571533203125
1788849175792817200,1.483817138671875,-0.5792388916015625,-0.435028076171875,0.1067962646484375
1788849175802786000,1.4937861328125,-0.4698028564453125,-0.2487030029296875,0.0336761474609375
1788849175812755200,1.503755126953125,-0.69561767578125,-0.0041656494140625,-0.0110626220703125
1788849175822724000,1.51372412109375,-0.60040283203125,-0.15460205078125,0.0800323486328125
1788849175832694000,1.523694091796875,-0.8000030517578125,-0.222564697265625,0.04150390625
1788849175842663200,1.5336630859375,-1.066009521484375,-0.29229736328125,0.1502685546875
1788849175852632000,1.543632080078125,-1.0780029296875,-0.2531585693359375,0.1998291015625
1788849175862601000,1.55360107421875,-1.365142822265625,-0.2714080810546875,0.25103759765625
1788849175872570000,1.563570068359375,-1.479705810546875,-0.3375701904296875,0.1226806640625
1788849175882539000,1.5735390625,-1.170318603515625,-0.166046142578125,0.24749755859375
1788849175892509000,1.583509033203125,-1.1864013671875,0.087799072265625,0.3272552490234375
1788849175902478000,1.59347802734375,-1.1438446044921875,0.110809326171875,0.25714111328125
1788849175912447000,1.603447021484375,-1.1746978759765625,-0.021331787109375,0.2097015380859375
1788849175922415900,1.613415771484375,-1.153717041015625,-0.1313629150390625,0.1619415283203125
1788849175932385000,1.623385009765625,-1.095062255859375,-0.16900634765625,0.0942840576171875
1788849175942354000,1.63335400390625,-1.0305633544921875,-0.169525146484375,-0.0029449462890625
1788849175952323000,1.643322998046875,-1.0070037841796875,-0.1824951171875,-0.07086181640625
1788849175962293200,1.653293212890625,-1.0180816650390625,-0.2301177978515625,-0.098297119140625
1788849175972262100,1.66326220703125,-1.121307373046875,-0.26513671875,-0.10675048828125
1788849175982231000,1.67323095703125,-1.2604827880859375,-0.1893310546875,0.0009002685546875
1788849175992200200,1.6832001953125,-1.3954925537109375,-0.0959320068359375,0.11468505859375
1788849176002169000,1.693169189453125,-1.4993438720703125,-0.0865020751953125,0.1402587890625
1788849176012138200,1.70313818359375,-1.522857666015625,-0.09075927734375,0.1505126953125
1788849176022107100,1.713107177734375,-1.4804840087890625,-0.0994415283203125,0.1342315673828125
1788849176032077000,1.7230771484375,-1.4025726318359375,-0.124481201171875,0.121917724609375
1788849176042046000,1.7330458984375,-1.2876129150390625,-0.185516357421875,0.09039306640625
1788849176052015000,1.74301513671875,-1.1803436279296875,-0.207489013671875,0.039794921875
1788849176061984000,1.75298388671875,-1.1126861572265625,-0.1791839599609375,-0.00335693359375
1788849176071953200,1.762953125,-1.01129150390625,-0.1213226318359375,-0.0352630615234375
1788849176081922000,1.772922119140625,-0.9694976806640625,-0.07940673828125,-0.052032470703125
1788849176091892000,1.78289208984375,-0.9562835693359375,-0.075347900390625,-0.0770721435546875
1788849176101861000,1.792861083984375,-0.9486083984375,-0.0635223388671875,-0.049560546875
1788849176111830000,1.802830078125,-1.0236968994140625,-0.0638580322265625,0.056304931640625
1788849176121799000,1.812798828125,-1.1018218994140625,-0.0824737548828125,0.1862640380859375
1788849176131768000,1.82276806640625,-1.1485595703125,-0.086212158203125,0.2300262451171875
1788849176141737000,1.832737060546875,-1.1293487548828125,-0.03253173828125,0.175506591796875
1788849176151705900,1.842705810546875,-1.09808349609375,0.0196380615234375,0.0842437744140625
1788849176161676300,1.85267626953125,-1.06005859375,0.0302581787109375,-0.017730712890625
1788849176171645200,1.862645263671875,-1.000091552734375,0.0177459716796875,-0.1463775634765625
1788849176181614000,1.872614013671875,-1.0079498291015625,-0.015594482421875,-0.2652740478515625
1788849176191583200,1.882583251953125,-0.956878662109375,-0.03460693359375,-0.2693939208984375
1788849176201552100,1.89255224609375,-0.9761810302734375,-0.0618743896484375,-0.2587127685546875
1788849176211521000,1.90252099609375,-0.9341278076171875,-0.0516815185546875,-0.22528076171875
1788849176221490200,1.912490234375,-0.9293060302734375,-0.042510986328125,-0.13568115234375
1788849176231460000,1.922460205078125,-0.9311370849609375,-0.0448760986328125,-0.0767669677734375
1788849176241429000,1.932428955078125,-0.8746337890625,-0.0606689453125,-0.0286865234375
1788849176251398100,1.942398193359375,-0.7649078369140625,-0.08172607421875,-0.01861572265625
1788849176261367000,1.952366943359375,-0.6912994384765625,-0.0828094482421875,-0.0594635009765625
1788849176271336200,1.962336181640625,-0.666229248046875,-0.1030731201171875,-0.1182403564453125
1788849176281305000,1.97230517578125,-0.6439361572265625,-0.14794921875,-0.1555328369140625
1788849176291275000,1.98227490234375,-0.6254425048828125,-0.1594390869140625,-0.204345703125
1788849176301244000,1.992243896484375,-0.6630401611328125,-0.118499755859375,-0.19561767578125
1788849176311213000,2.002213134765625,-0.630279541015625,-0.1081085205078125,-0.1424102783203125
1788849176321182000,2.012181884765625,-0.5680999755859375,-0.12969970703125,-0.0946197509765625
1788849176331151000,2.022151123046875,-0.559600830078125,-0.1549224853515625,-0.0207977294921875
1788849176341120000,2.0321201171875,-0.55963134765625,-0.1765899658203125,0.05841064453125
1788849176351089000,2.0420888671875,-0.5626220703125,-0.18267822265625,0.119873046875
1788849176361059000,2.05205908203125,-0.5683746337890625,-0.180755615234375,0.148284912109375
1788849176371028000,2.062028076171875,-0.54656982421875,-0.182373046875,0.1477508544921875
1788849176380996900,2.071996826171875,-0.54925537109375,-0.2071380615234375,0.15673828125
1788849176390966300,2.08196630859375,-0.557159423828125,-0.2494354248046875,0.146392822265625
1788849176400935200,2.09193505859375,-0.5955657958984375,-0.2889404296875,0.1136627197265625
1788849176410904000,2.101904052734375,-0.6110687255859375,-0.305694580078125,0.1528778076171875
1788849176420874200,2.111874267578125,-0.675140380859375,-0.32012939453125,0.207489013671875
1788849176430843100,2.121843017578125,-0.897552490234375,-0.313507080078125,0.3043212890625
1788849176440812000,2.13181201171875,-0.923431396484375,-0.3217010498046875,0.3734130859375
1788849176450781200,2.14178125,-0.851898193359375,-0.3424224853515625,0.3936004638671875
1788849176460750000,2.15175,-0.864593505859375,-0.3995819091796875,0.3900146484375
1788849176470719000,2.161718994140625,-0.91973876953125,-0.448394775390625,0.3400421142578125
1788849176480688000,2.171688232421875,-0.938507080078125,-0.462677001953125,0.3190765380859375
1788849176490658000,2.181657958984375,-0.9439697265625,-0.4655914306640625,0.35748291015625
1788849176500627200,2.191627197265625,-0.9972686767578125,-0.4962005615234375,0.3870697021484375
1788849176510596400,2.201596435546875,-1.0117950439453125,-0.510589599609375,0.4141845703125
1788849176520565200,2.211565185546875,-0.986419677734375,-0.521209716796875,0.4220428466796875
1788849176530534100,2.2215341796875,-0.958251953125,-0.539886474609375,0.42828369140625
1788849176540503300,2.23150341796875,-0.9411773681640625,-0.541107177734375,0.4546051025390625
1788849176550472200,2.24147216796875,-0.9307403564453125,-0.5421905517578125,0.446746826171875
1788849176560442000,2.251442138671875,-0.92431640625,-0.560546875,0.40557861328125
1788849176570411300,2.261411376953125,-0.916107177734375,-0.5749664306640625,0.374420166015625
1788849176580380200,2.271380126953125,-0.9081573486328125,-0.5564422607421875,0.355255126953125
1788849176590349300,2.281349365234375,-0.9008941650390625,-0.5438995361328125,0.3235626220703125
1788849176600318200,2.291318115234375,-0.901611328125,-0.541412353515625,0.2877044677734375
1788849176610287400,2.301287353515625,-0.895965576171875,-0.5260467529296875,0.2587127685546875
1788849176620257300,2.31125732421875,-0.8897552490234375,-0.50146484375,0.2523040771484375
1788849176630226400,2.321226318359375,-0.8852386474609375,-0.4759521484375,0.2853240966796875
1788849176640195300,2.3311953125,-0.839752197265625,-0.4665679931640625,0.27679443359375
1788849176650164500,2.34116455078125,-0.815185546875,-0.4485321044921875,0.239776611328125
1788849176660133400,2.35113330078125,-0.8227386474609375,-0.4271087646484375,0.2019195556640625
1788849176670102300,2.361102294921875,-0.8409576416015625,-0.42694091796875,0.15869140625
1788849176680071400,2.371071533203125,-0.8598785400390625,-0.4305572509765625,0.1313629150390625
1788849176690041300,2.381041259765625,-0.873077392578125,-0.435577392578125,0.11529541015625
1788849176700010200,2.39101025390625,-0.89019775390625,-0.4387054443359375,0.0980072021484375
1788849176709979400,2.4009794921875,-0.894317626953125,-0.4307708740234375,0.0887298583984375
1788849176719948300,2.4109482421875,-0.899139404296875,-0.407012939453125,0.0850982666015625
1788849176729917200,2.420917236328125,-0.9129180908203125,-0.3904876708984375,0.0948028564453125
1788849176739886300,2.43088623046875,-0.92657470703125,-0.3745269775390625,0.1152801513671875
1788849176749855200,2.440855224609375,-0.95416259765625,-0.33984375,0.1443939208984375
1788849176759825200,2.4508251953125,-0.971527099609375,-0.3267974853515625,0.1696319580078125
1788849176769794300,2.460794189453125,-0.960052490234375,-0.31463623046875,0.1829986572265625
1788849176779763200,2.47076318359375,-0.95562744140625,-0.3064117431640625,0.1545257568359375
1788849176789732000,2.480732177734375,-0.952606201171875,-0.320587158203125,0.1019744873046875
1788849176799701200,2.490701171875,-0.9385833740234375,-0.3244476318359375,0.085662841796875
1788849176809670100,2.500670166015625,-0.9459381103515625,-0.3171844482421875,0.094970703125
1788849176819640300,2.510640380859375,-0.978118896484375,-0.3055877685546875,0.110382080078125
1788849176829609500,2.520609375,-1.0121612548828125,-0.299163818359375,0.1321563720703125
1788849176839578400,2.530578369140625,-1.0395660400390625,-0.291229248046875,0.1443023681640625
1788849176849547300,2.54054736328125,-1.0656890869140625,-0.2844390869140625,0.13458251953125
1788849176859516400,2.550516357421875,-1.0821075439453125,-0.28631591796875,0.1053466796875
1788849176869485300,2.5604853515625,-1.0887298583984375,-0.2939910888671875,0.076995849609375
1788849176879454500,2.570454345703125,-1.0912628173828125,-0.302947998046875,0.06793212890625
1788849176889424400,2.58042431640625,-1.07366943359375,-0.31109619140625,0.0868072509765625
1788849176899393300,2.590393310546875,-1.0393218994140625,-0.3191680908203125,0.1343994140625
1788849176909362400,2.600362548828125,-1.0033416748046875,-0.3248443603515625,0.1891021728515625
1788849176919331300,2.610331298828125,-0.9632110595703125,-0.3421783447265625,0.2415771484375
1788849176929300200,2.62030029296875,-0.9100189208984375,-0.366119384765625,0.277984619140625
1788849176939269400,2.630269287109375,-0.88330078125,-0.377410888671875,0.284027099609375
1788849176949238300,2.64023828125,-0.8762664794921875,-0.3742523193359375,0.2802886962890625
1788849176959208200,2.650208251953125,-0.87591552734375,-0.3876800537109375,0.266326904296875
1788849176969177300,2.66017724609375,-0.881988525390625,-0.400146484375,0.2388458251953125
1788849176979146200,2.670146240234375,-0.9012451171875,-0.387420654296875,0.2054595947265625
1788849176989115100,2.680115234375,-0.92449951171875,-0.3746795654296875,0.1781463623046875
1788849176999084300,2.690084228515625,-0.957000732421875,-0.3541107177734375,0.15771484375
1788849177009053200,2.70005322265625,-1.001434326171875,-0.3271026611328125,0.155029296875
1788849177019022300,2.710022216796875,-1.054901123046875,-0.3023834228515625,0.17755126953125
1788849177028992500,2.719992431640625,-1.0822601318359375,-0.2765655517578125,0.22540283203125
1788849177038961400,2.72996142578125,-1.0732269287109375,-0.2631378173828125,0.294097900390625
1788849177048930300,2.739930419921875,-1.0435943603515625,-0.2624969482421875,0.3255157470703125
1788849177058899500,2.7498994140625,-1.014373779296875,-0.2613983154296875,0.321258544921875
1788849177068868400,2.759868408203125,-0.97393798828125,-0.2507476806640625,0.308685302734375
1788849177078837500,2.76983740234375,-0.9424285888671875,-0.2384185791015625,0.3020172119140625
1788849177088807400,2.779807373046875,-0.928070068359375,-0.22210693359375,0.3140106201171875
1788849177098776300,2.7897763671875,-0.91925048828125,-0.197967529296875,0.3334503173828125
1788849177108745200,2.7997451171875,-0.913116455078125,-0.1676483154296875,0.3385467529296875
1788849177118714400,2.80971435546875,-0.8998870849609375,-0.1456756591796875,0.3293609619140625
1788849177128683300,2.819683349609375,-0.890716552734375,-0.1300201416015625,0.315643310546875
1788849177138652400,2.82965234375,-0.88427734375,-0.1174774169921875,0.335174560546875
1788849177148621300,2.839621337890625,-0.8591461181640625,-0.1215362548828125,0.3606109619140625
1788849177158591200,2.84959130859375,-0.811920166015625,-0.13580322265625,0.3721771240234375
1788849177168560400,2.859560302734375,-0.748260498046875,-0.1297607421875,0.408233642578125
1788849177178529300,2.869529296875,-0.6780242919921875,-0.105682373046875,0.4344024658203125
1788849177188498200,2.879498291015625,-0.6201019287109375,-0.0850830078125,0.4341583251953125
1788849177198467300,2.88946728515625,-0.5816802978515625,-0.0677947998046875,0.445892333984375
1788849177208436200,2.899436279296875,-0.5632476806640625,-0.03326416015625,0.4760284423828125
1788849177218405000,2.909405029296875,-0.5645294189453125,-0.018310546875,0.49713134765625
1788849177228375300,2.919375244140625,-0.6011962890625,-0.0290985107421875,0.530029296875
1788849177238344200,2.92934423828125,-0.6510162353515625,-0.016357421875,0.567047119140625
1788849177248313300,2.939313232421875,-0.64593505859375,-0.010528564453125,0.5703277587890625
1788849177258282500,2.949282470703125,-0.5947418212890625,-0.009735107421875,0.5622406005859375
1788849177268251400,2.95925146484375,-0.5501556396484375,0.0002899169921875,0.5438232421875
1788849177278220300,2.96922021484375,-0.4649505615234375,0.0229339599609375,0.5416107177734375
1788849177288189400,2.979189453125,-0.4511871337890625,-0.0477447509765625,0.57049560546875
1788849177298159400,2.989159423828125,-0.444427490234375,-0.1530914306640625,0.6380767822265625
1788849177308128300,2.999128173828125,-0.43817138671875,-0.1840362548828125,0.68792724609375
1788849177318097400,3.009097412109375,-0.5148773193359375,-0.1845703125,0.6136474609375
1788849177328066300,3.01906640625,-0.6074676513671875,-0.1545562744140625,0.5413055419921875
1788849177338035500,3.029035400390625,-0.724151611328125,-0.1379547119140625,0.5440673828125
1788849177348004400,3.03900439453125,-0.83282470703125,-0.1614990234375,0.5628662109375
1788849177357973200,3.04897314453125,-0.8832550048828125,-0.1692352294921875,0.580322265625
1788849177367943200,3.058943115234375,-0.8426055908203125,-0.1794281005859375,0.6258544921875
1788849177377912300,3.068912353515625,-0.7852630615234375,-0.1995697021484375,0.655181884765625
1788849177387881200,3.078881103515625,-0.7486419677734375,-0.248321533203125,0.6143341064453125
1788849177397850400,3.088850341796875,-0.7135772705078125,-0.3096466064453125,0.585601806640625
1788849177407819300,3.0988193359375,-0.671661376953125,-0.3131866455078125,0.6262054443359375
1788849177417788200,3.1087880859375,-0.7280731201171875,-0.24755859375,0.7077178955078125
1788849177427758300,3.11875830078125,-0.8925323486328125,-0.1736602783203125,0.76153564453125
1788849177437727200,3.128727294921875,-1.027862548828125,-0.1117401123046875,0.6788330078125
1788849177447696100,3.138696044921875,-1.0825347900390625,-0.02001953125,0.6248779296875
1788849177457665300,3.148665283203125,-1.1075897216796875,0.0281982421875,0.6478118896484375
1788849177467634200,3.15863427734375,-1.0434722900390625,-0.0324554443359375,0.6080322265625
1788849177477603000,3.16860302734375,-0.896728515625,-0.113922119140625,0.534698486328125
1788849177487572200,3.178572265625,-0.68896484375,-0.1543731689453125,0.5485076904296875
1788849177497542400,3.18854248046875,-0.6197357177734375,-0.1983489990234375,0.6331329345703125
1788849177507512000,3.198511962890625,-0.646697998046875,-0.23480224609375,0.690704345703125
1788849177517481200,3.208481201171875,-0.7327423095703125,-0.2473602294921875,0.7393951416015625
1788849177527450000,3.2184501953125,-0.8211822509765625,-0.2484893798828125,0.8379364013671875
1788849177537419000,3.2284189453125,-0.90264892578125,-0.224609375,0.8992462158203125
1788849177547388200,3.23838818359375,-0.9789886474609375,-0.101806640625,0.91790771484375
1788849177557357000,3.248357177734375,-1.1812896728515625,0.0108642578125,0.972747802734375
1788849177567327200,3.2583271484375,-1.3188629150390625,0.071319580078125,1.0234832763671875
1788849177577296400,3.26829638671875,-1.317718505859375,0.0673065185546875,1.0265655517578125
1788849177587265300,3.278265380859375,-1.113800048828125,0.009979248046875,1.0100555419921875
1788849177597234200,3.288234130859375,-0.90313720703125,0.0125274658203125,1.0067596435546875
1788849177607203300,3.298203369140625,-0.8646087646484375,0.028533935546875,1.008941650390625
1788849177617172200,3.308172119140625,-0.8800201416015625,0.102752685546875,1.0195159912109375
1788849177627141000,3.31814111328125,-0.885589599609375,0.1844635009765625,1.002166748046875
1788849177637111300,3.328111328125,-0.8813018798828125,0.221832275390625,1.0007781982421875
1788849177647080200,3.338080078125,-0.7337646484375,0.15887451171875,1.0161590576171875
1788849177657049000,3.348049072265625,-0.713226318359375,0.1381683349609375,1.0355072021484375
1788849177667018200,3.358018310546875,-0.723388671875,0.202911376953125,1.0730743408203125
1788849177676987100,3.367987060546875,-0.7436370849609375,0.2352294921875,1.082122802734375
1788849177686956300,3.377956298828125,-0.76806640625,0.251953125,1.03656005859375
1788849177696925200,3.38792529296875,-0.788970947265625,0.2916107177734375,0.939727783203125
1788849177706895000,3.39789501953125,-0.850067138671875,0.3377532958984375,0.8221435546875
1788849177716864000,3.407864013671875,-0.9433746337890625,0.2500457763671875,0.748687744140625
1788849177726833200,3.417833251953125,-0.921234130859375,0.146331787109375,0.732269287109375
1788849177736802000,3.427802001953125,-0.805511474609375,0.2283935546875,0.7300567626953125
1788849177746771200,3.437771240234375,-0.7944488525390625,0.2841949462890625,0.610321044921875
1788849177756740000,3.447739990234375,-0.7302093505859375,0.2567596435546875,0.5610809326171875
1788849177766709000,3.457708984375,-0.6965789794921875,0.1777191162109375,0.5712738037109375
1788849177776679200,3.46767919921875,-0.6985321044921875,0.196014404296875,0.574127197265625
1788849177786648300,3.4776484375,-0.636199951171875,0.1831817626953125,0.6579132080078125
1788849177796617200,3.4876171875,-0.50469970703125,0.05743408203125,0.6725311279296875
1788849177806586400,3.49758642578125,-0.3364715576171875,-0.0065765380859375,0.6477813720703125
1788849177816555300,3.50755517578125,-0.2705078125,-0.028778076171875,0.6021575927734375
1788849177826524200,3.517524169921875,-0.2535247802734375,-0.000396728515625,0.57293701171875
1788849177836493300,3.527493408203125,-0.12646484375,0.1819000244140625,0.52703857421875
1788849177846463200,3.537463134765625,-0.1618499755859375,0.3496551513671875,0.5811004638671875
1788849177856432000,3.54743212890625,-0.386688232421875,0.307861328125,0.570556640625
1788849177866401300,3.5574013671875,-0.5050048828125,0.2657623291015625,0.622833251953125
1788849177876370200,3.5673701171875,-0.612701416015625,0.2531890869140625,0.738677978515625
1788849177886339000,3.577339111328125,-0.6308135986328125,0.33868408203125,0.7335968017578125
1788849177896308200,3.58730810546875,-0.5760040283203125,0.4420318603515625,0.6134796142578125
1788849177906277000,3.597277099609375,-0.48272705078125,0.4640350341796875,0.4483642578125
1788849177916247000,3.6072470703125,-0.317840576171875,0.450927734375,0.359100341796875
1788849177926216200,3.61721630859375,-0.1756439208984375,0.5180816650390625,0.272735595703125
1788849177936185000,3.62718505859375,-0.0936431884765625,0.4423370361328125,0.3471221923828125
1788849177946154200,3.637154296875,-0.301513671875,0.37200927734375,0.453948974609375
1788849177956123100,3.647123046875,-0.4674835205078125,0.473236083984375,0.484100341796875
1788849177966092000,3.657092041015625,-0.5298614501953125,0.55218505859375,0.4626007080078125
1788849177976061200,3.667061279296875,-0.388275146484375,0.568084716796875,0.3795928955078125
1788849177986030000,3.677030029296875,-0.19805908203125,0.5257110595703125,0.368072509765625
1788849177996000300,3.687000244140625,-0.178802490234375,0.5102996826171875,0.428497314453125
1788849178005969400,3.696969482421875,-0.273223876953125,0.5648345947265625,0.4805908203125
1788849178015938300,3.706938232421875,-0.357086181640625,0.56463623046875,0.4943084716796875
1788849178025907200,3.7169072265625,-0.373199462890625,0.5083160400390625,0.551361083984375
1788849178035876400,3.72687646484375,-0.419281005859375,0.5398406982421875,0.584320068359375
1788849178045845200,3.73684521484375,-0.5309295654296875,0.6365203857421875,0.5726776123046875
1788849178055814100,3.746814208984375,-0.673736572265625,0.7722930908203125,0.628326416015625
1788849178065784300,3.756784423828125,-0.7165374755859375,0.7722320556640625,0.6637725830078125
1788849178075753200,3.766753173828125,-0.7016448974609375,0.7046051025390625,0.6879119873046875
1788849178085722000,3.77672216796875,-0.5835113525390625,0.617431640625,0.7516326904296875
1788849178095691300,3.786691162109375,-0.450653076171875,0.46612548828125,0.846527099609375
1788849178105660200,3.79666015625,-0.3908843994140625,0.4044952392578125,0.8968048095703125
1788849178115629300,3.80662939453125,-0.37530517578125,0.3663177490234375,0.9235992431640625
1788849178125598200,3.81659814453125,-0.463470458984375,0.387420654296875,0.9136962890625
1788849178135568100,3.826568115234375,-0.645721435546875,0.4984283447265625,0.9199371337890625
1788849178145537000,3.836537109375,-0.75384521484375,0.5274658203125,0.9142303466796875
1788849178155506200,3.846506103515625,-0.727386474609375,0.4802703857421875,0.899658203125
1788849178165475000,3.85647509765625,-0.65728759765625,0.4186859130859375,1.000885009765625
1788849178175444200,3.8664443359375,-0.6540374755859375,0.3964691162109375,1.13067626953125
1788849178185413000,3.8764130859375,-0.6937255859375,0.36712646484375,1.2229156494140625
1788849178195382000,3.886382080078125,-0.7081146240234375,0.319915771484375,1.22308349609375
1788849178205351200,3.89635107421875,-0.7225799560546875,0.3170623779296875,1.23419189453125
1788849178215321300,3.9063212890625,-0.59521484375,0.2776641845703125,1.2294158935546875
1788849178225290200,3.916290283203125,-0.4909210205078125,0.2220611572265625,1.13739013671875
1788849178235259400,3.92625927734375,-0.4241180419921875,0.161712646484375,1.02703857421875
1788849178245228300,3.936228271484375,-0.3393096923828125,0.1103057861328125,0.987701416015625
1788849178255197200,3.946197265625,-0.27874755859375,0.101318359375,0.971466064453125
1788849178265166300,3.956166259765625,-0.226654052734375,0.11578369140625,0.907257080078125
1788849178275135200,3.96613525390625,-0.1728363037109375,0.143524169921875,0.8151702880859375
1788849178285105200,3.976105224609375,-0.165802001953125,0.1698150634765625,0.737060546875
1788849178295074300,3.98607421875,-0.1654510498046875,0.1748046875,0.641448974609375
1788849178305043200,3.996043212890625,-0.15802001953125,0.1986236572265625,0.55029296875
1788849178315012000,4.00601220703125,-0.26690673828125,0.3068389892578125,0.4714813232421875
1788849178324981200,4.015981201171875,-0.48248291015625,0.4404754638671875,0.3022308349609375
1788849178334950100,4.0259501953125,-0.678070068359375,0.6116790771484375,0.205413818359375
1788849178344919300,4.035919189453125,-0.8702239990234375,0.7890777587890625,0.144989013671875
1788849178354889200,4.04588916015625,-0.8311767578125,0.8699493408203125,0.061981201171875
1788849178364858000,4.055858154296875,-0.7086944580078125,0.8822021484375,0.100494384765625
1788849178374827300,4.0658271484375,-0.57098388671875,0.7971954345703125,0.1765594482421875
1788849178384796200,4.075796142578125,-0.3744354248046875,0.7104034423828125,0.241241455078125
1788849178394765000,4.08576513671875,-0.221771240234375,0.6551361083984375,0.28076171875
1788849178404734200,4.095734130859375,-0.0713653564453125,0.662445068359375,0.28765869140625
1788849178414703000,4.105703125,0.0233001708984375,0.7279510498046875,0.319580078125
1788849178424672000,4.115672119140625,-0.0248870849609375,0.81793212890625,0.245574951171875
1788849178434642200,4.12564208984375,-0.1315155029296875,0.9648284912109375,0.2096405029296875
1788849178444611000,4.135611083984375,-0.2934722900390625,1.16986083984375,0.23284912109375
1788849178454580000,4.145580078125,-0.485382080078125,1.2859649658203125,0.2146453857421875
1788849178464549400,4.15554931640625,-0.607879638671875,1.3547515869140625,0.1684417724609375
1788849178474518300,4.165518310546875,-0.536163330078125,1.3394927978515625,0.099212646484375
1788849178484487200,4.175487060546875,-0.3759307861328125,1.217193603515625,0.0037384033203125
1788849178494456300,4.185456298828125,-0.153656005859375,1.04693603515625,0.0258636474609375
1788849178504424400,4.195424560546875,-0.035919189453125,0.8705596923828125,0.24822998046875
1788849178514394600,4.20539453125,0.1322479248046875,0.7527618408203125,0.502166748046875
1788849178524363500,4.215363525390625,0.4325714111328125,0.796051025390625,0.6148834228515625
1788849178534332400,4.22533251953125,0.483978271484375,0.7752227783203125,0.562347412109375
1788849178544301600,4.235301513671875,0.4701080322265625,0.921783447265625,0.637664794921875
1788849178554270500,4.2452705078125,0.255859375,1.080657958984375,0.625030517578125
1788849178564239600,4.255239501953125,-0.016143798828125,1.235382080078125,0.629791259765625
1788849178574208500,4.26520849609375,-0.336761474609375,1.3736724853515625,0.6223907470703125
1788849178584178400,4.275178466796875,-0.5596466064453125,1.42401123046875,0.586395263671875
1788849178594147300,4.285147216796875,-0.514923095703125,1.404876708984375,0.6708984375
1788849178604116500,4.295116455078125,-0.4514007568359375,1.3180999755859375,0.7540435791015625
1788849178614085400,4.30508544921875,-0.6879730224609375,1.139251708984375,0.8566436767578125
1788849178624054500,4.315054443359375,-0.5323638916015625,1.002410888671875,0.9106292724609375
1788849178634023400,4.3250234375,-0.19744873046875,0.9615325927734375,0.8850555419921875
1788849178643992300,4.334992431640625,-0.0208282470703125,1.0001678466796875,0.90460205078125
1788849178653961500,4.34496142578125,0.312957763671875,0.9242706298828125,0.8516387939453125
1788849178663931400,4.354931396484375,0.444366455078125,0.9654998779296875,0.875152587890625
1788849178673900300,4.364900390625,0.4455108642578125,1.0214691162109375,0.8403167724609375
1788849178683869400,4.374869384765625,0.429351806640625,1.1239776611328125,0.83074951171875
1788849178693838300,4.38483837890625,0.3197784423828125,1.2916717529296875,0.896148681640625
1788849178703807200,4.39480712890625,0.148162841796875,1.39215087890625,0.860626220703125
1788849178713776400,4.4047763671875,0.02142333984375,1.468841552734375,0.7517852783203125
1788849178723745300,4.414745361328125,-0.3253326416015625,1.484222412109375,0.1949005126953125
1788849178733714400,4.42471435546875,-0.497100830078125,1.6277313232421875,-0.452667236328125
1788849178743684600,4.4346845703125,-0.3146209716796875,1.6194000244140625,-0.57257080078125
1788849178753653500,4.444653564453125,-0.150665283203125,1.4491424560546875,-0.317474365234375
1788849178763622400,4.454622314453125,0.1122589111328125,1.23333740234375,0.1632080078125
1788849178773591600,4.464591552734375,0.2348175048828125,1.031829833984375,0.382110595703125
1788849178783560400,4.474560546875,0.2592926025390625,0.9779052734375,0.4672698974609375
1788849178793529600,4.484529541015625,0.348785400390625,0.9626007080078125,0.4368896484375
1788849178803498500,4.49449853515625,0.34503173828125,0.9368133544921875,0.360748291015625
1788849178813467400,4.50446728515625,0.3822174072265625,1.0120391845703125,0.3364715576171875
1788849178823437600,4.5144375,0.444091796875,1.0487213134765625,0.2050323486328125
1788849178833406500,4.524406494140625,0.4706573486328125,1.07977294921875,0.1351776123046875
1788849178843375400,4.534375244140625,0.449432373046875,1.1730499267578125,0.0776824951171875
1788849178853344500,4.544344482421875,0.32305908203125,1.1633148193359375,0.058837890625
1788849178863313400,4.5543134765625,0.1605987548828125,1.1221923828125,0.1473541259765625
1788849178873282600,4.564282470703125,-0.0906982421875,1.0603485107421875,0.2393341064453125
1788849178883251500,4.57425146484375,-0.1828765869140625,0.9463653564453125,0.2943572998046875
1788849178893220400,4.584220458984375,-0.1374969482421875,0.892333984375,0.373199462890625
1788849178903190300,4.594190185546875,-0.0309295654296875,0.8851318359375,0.32183837890625
1788849178913159400,4.604159423828125,0.1783905029296875,0.7862548828125,0.43798828125
1788849178923128300,4.61412841796875,0.0343170166015625,0.979217529296875,0.33721923828125
1788849178933097500,4.624097412109375,-0.0308380126953125,1.16705322265625,0.01751708984375
1788849178943066400,4.63406640625,0.1881561279296875,1.106292724609375,-0.09832763671875
1788849178953035300,4.64403515625,0.1410675048828125,1.04266357421875,-0.0193023681640625
1788849178963004400,4.65400439453125,0.1494903564453125,0.9492645263671875,0.2269287109375
1788849178972973300,4.663973388671875,0.1142730712890625,0.8189239501953125,0.35052490234375
1788849178982943500,4.673943603515625,0.1113433837890625,0.76220703125,0.373321533203125
1788849178992912600,4.68391259765625,0.089874267578125,0.7536163330078125,0.4539642333984375
1788849179002881500,4.693881591796875,0.0305023193359375,0.73486328125,0.3994140625
1788849179012850400,4.703850341796875,-0.048248291015625,0.8162384033203125,0.1879119873046875
1788849179022819600,4.713819580078125,-0.14154052734375,0.91656494140625,0.0693359375
1788849179032788500,4.72378857421875,-0.14056396484375,0.8173980712890625,0.1257476806640625
1788849179042757600,4.733757568359375,-0.0301361083984375,0.76446533203125,0.0421600341796875
1788849179052726500,4.7437265625,-0.03436279296875,0.7465057373046875,0.1654052734375
1788849179062695400,4.7536953125,0.0057220458984375,0.834136962890625,0.1436614990234375
1788849179072665300,4.763665283203125,0.0581512451171875,0.8488006591796875,0.1819305419921875
1788849179082634500,4.773634521484375,0.061370849609375,0.7960205078125,0.1586456298828125
1788849179092603400,4.783603271484375,0.032135009765625,0.8153533935546875,0.1139678955078125
1788849179102572500,4.793572509765625,0.0443572998046875,0.8268280029296875,0.1546478271484375
1788849179112541400,4.80354150390625,0.144744873046875,0.7952423095703125,0.288330078125
1788849179122510300,4.81351025390625,0.0586090087890625,0.69842529296875,0.287506103515625
1788849179132479500,4.8234794921875,0.191986083984375,0.7707977294921875,0.278961181640625
1788849179142448400,4.833448486328125,0.22705078125,0.7722320556640625,0.2593536376953125
1788849179152418300,4.843418212890625,0.1338043212890625,0.753875732421875,0.3124237060546875
1788849179162387500,4.853387451171875,0.212249755859375,0.8209686279296875,0.4096527099609375
1788849179172356400,4.8633564453125,0.3431396484375,0.8750457763671875,0.43499755859375
1788849179182325200,4.8733251953125,0.512603759765625,0.8265533447265625,0.4720611572265625
1788849179192294400,4.88329443359375,0.68682861328125,0.8027801513671875,0.4788360595703125
1788849179202263300,4.89326318359375,0.779693603515625,0.7313079833984375,0.4373016357421875
1788849179212232400,4.903232421875,0.84722900390625,0.611541748046875,0.4292449951171875
1788849179222201300,4.913201416015625,0.7038726806640625,0.5950927734375,0.525360107421875
1788849179232171500,4.923171630859375,0.445831298828125,0.575347900390625,0.52911376953125
1788849179242140400,4.933140380859375,0.2105865478515625,0.7604217529296875,0.544219970703125
1788849179252109600,4.943109619140625,-0.020263671875,0.8837127685546875,0.6993408203125
1788849179262078500,4.953078369140625,-0.006378173828125,0.9840087890625,1.0124664306640625
1788849179272047600,4.963047607421875,0.0301513671875,1.10455322265625,1.1568603515625
1788849179282016500,4.9730166015625,0.054412841796875,0.9626922607421875,1.10980224609375
1788849179291985400,4.9829853515625,0.194610595703125,0.813385009765625,1.143768310546875
1788849179301954600,4.99295458984375,0.3715972900390625,0.904693603515625,1.10577392578125
1788849179311924500,5.002924560546875,0.31805419921875,1.1548004150390625,0.9721221923828125
1788849179321893400,5.012893310546875,0.4016265869140625,0.9966888427734375,0.910552978515625
1788849179331862500,5.022862548828125,0.8964996337890625,0.859954833984375,0.982147216796875
1788849179341831400,5.03283154296875,1.1107940673828125,0.921844482421875,0.820068359375
1788849179351800300,5.04280029296875,1.2169647216796875,0.769195556640625,0.626495361328125
1788849179361769500,5.05276953125,1.3612823486328125,0.5880279541015625,0.5724639892578125
1788849179371738400,5.06273828125,1.1760101318359375,0.6361236572265625,0.597564697265625
1788849179381707500,5.07270751953125,1.0088653564453125,0.7006378173828125,0.9743804931640625
1788849179391676400,5.082676513671875,0.8568572998046875,0.6304168701171875,1.329925537109375
1788849179401646300,5.092646240234375,0.654693603515625,0.56878662109375,1.069915771484375
1788849179411615500,5.102615478515625,0.6160430908203125,0.63067626953125,0.8896636962890625
1788849179421584400,5.11258447265625,0.7226715087890625,0.5664215087890625,0.7399139404296875
1788849179431553300,5.12255322265625,0.839324951171875,0.4262237548828125,0.573333740234375
1788849179441522400,5.1325224609375,0.9936370849609375,0.3000640869140625,0.455322265625
1788849179451491300,5.1424912109375,0.9784088134765625,0.247528076171875,0.24993896484375
1788849179461460200,5.152460205078125,0.849151611328125,0.294403076171875,0.073486328125
1788849179471429400,5.162429443359375,0.687713623046875,0.477325439453125,0.2994537353515625
1788849179481398300,5.172398193359375,0.3003082275390625,0.8935089111328125,0.8058319091796875
1788849179491368400,5.182368408203125,-0.376556396484375,1.081207275390625,0.9182281494140625
1788849179501337600,5.192337646484375,-0.6466827392578125,0.9374237060546875,0.73504638671875
1788849179511305700,5.2023056640625,-0.4481048583984375,0.91864013671875,0.648834228515625
1788849179521275000,5.21227490234375,-0.54803466796875,0.9331207275390625,0.7110443115234375
1788849179531243800,5.222243896484375,-0.576690673828125,0.705352783203125,0.6523284912109375
1788849179541212700,5.232212646484375,-0.216949462890625,0.521026611328125,0.9832611083984375
1788849179551181800,5.242181884765625,0.0751495361328125,0.474578857421875,1.034332275390625
1788849179561150700,5.252150634765625,0.1679840087890625,0.469970703125,1.0434417724609375
1788849179571119900,5.262119873046875,0.0403900146484375,0.439300537109375,1.2103424072265625
1788849179581090000,5.272090087890625,-0.0254974365234375,0.445648193359375,1.2030792236328125
1788849179591059000,5.282058837890625,0.14251708984375,0.632659912109375,1.0448760986328125
1788849179601027800,5.29202783203125,0.353759765625,1.0566864013671875,0.7633514404296875
1788849179610997000,5.3019970703125,0.4198760986328125,1.1856689453125,0.8868865966796875
1788849179620966000,5.3119658203125,0.075042724609375,1.169921875,0.988189697265625
1788849179632181800,5.323181640625,-0.2191619873046875,1.1025848388671875,1.1512603759765625
1788849179642151000,5.33315087890625,-0.02587890625,1.03741455078125,1.1900482177734375
1788849179652119800,5.343119873046875,0.2745361328125,0.839019775390625,1.0997314453125
1788849179662089000,5.3530888671875,0.33502197265625,0.5609283447265625,1.053497314453125
1788849179672057900,5.363057861328125,0.3345947265625,0.305023193359375,0.996337890625
1788849179682026800,5.37302685546875,0.2021331787109375,0.1513824462890625,0.9771575927734375
1788849179691997000,5.382996826171875,0.0656585693359375,0.213653564453125,0.8491973876953125
1788849179701965800,5.3929658203125,0.2462005615234375,0.40826416015625,0.606170654296875
1788849179711934700,5.402934814453125,0.4416961669921875,0.453826904296875,0.402313232421875
1788849179721903900,5.41290380859375,0.2596588134765625,0.4150848388671875,0.170501708984375
1788849179731872800,5.422872802734375,0.2359619140625,0.51666259765625,0.1436767578125
1788849179741842000,5.432842041015625,0.467987060546875,0.576080322265625,0.486968994140625
1788849179751810800,5.442810791015625,0.1494293212890625,0.3385772705078125,0.7770843505859375
1788849179761779700,5.45277978515625,-0.1601104736328125,0.177703857421875,0.8367919921875
1788849179771748900,5.462748779296875,0.0554962158203125,0.1503143310546875,0.9889678955078125
1788849179781717800,5.4727177734375,-0.0748748779296875,0.1786041259765625,0.8421630859375
1788849179791688000,5.48268798828125,0.1895294189453125,0.2039794921875,0.8380126953125
1788849179801657000,5.492656982421875,0.384063720703125,0.134857177734375,0.7949371337890625
1788849179811626000,5.5026259765625,0.3144378662109375,0.1900482177734375,0.6800689697265625
1788849179821595000,5.512594970703125,0.178863525390625,0.3481597900390625,0.7827911376953125
1788849179831564000,5.52256396484375,0.089874267578125,0.442474365234375,0.8831787109375
1788849179841533000,5.532532958984375,-0.086669921875,0.63250732421875,1.051727294921875
1788849179851501800,5.542501708984375,-0.0882110595703125,0.859222412109375,1.0657958984375
1788849179861471000,5.552470947265625,-0.01202392578125,0.67498779296875,0.9415435791015625
1788849179871441000,5.56244091796875,-0.0684356689453125,0.434478759765625,1.12225341796875
1788849179881409800,5.572409912109375,-0.070953369140625,0.3679351806640625,1.213470458984375
1788849179891379000,5.58237890625,0.28448486328125,0.1554412841796875,1.038360595703125
1788849179901347800,5.592347900390625,0.1548919677734375,-0.0093841552734375,1.2005462646484375
1788849179911317000,5.60231689453125,-0.205780029296875,0.0277557373046875,1.084625244140625
1788849179921286000,5.612285888671875,-0.1615142822265625,0.0839691162109375,1.064483642578125
1788849179931254800,5.6222548828125,0.0412139892578125,0.1105499267578125,1.1313018798828125
1788849179941224000,5.632223876953125,0.2650299072265625,0.2703704833984375,1.0430755615234375
1788849179951192800,5.64219287109375,0.335479736328125,0.339141845703125,0.851715087890625
1788849179961162800,5.652162841796875,0.3672943115234375,0.2929840087890625,0.829376220703125
1788849179971132000,5.6621318359375,0.5084686279296875,0.2269744873046875,0.8123321533203125
1788849179981100800,5.672100830078125,0.4534759521484375,0.2087249755859375,0.6489715576171875
1788849179991069700,5.682069580078125,0.353118896484375,0.1351165771484375,0.441253662109375
1788849180001038800,5.692038818359375,0.425323486328125,-0.02728271484375,0.2979888916015625
1788849180011007700,5.7020078125,0.607208251953125,0.175537109375,0.432586669921875
1788849180020977000,5.711976806640625,0.6029510498046875,0.265899658203125,0.4968719482421875
1788849180030945800,5.72194580078125,0.471649169921875,0.2588043212890625,0.5346527099609375
1788849180040915000,5.7319150390625,0.488555908203125,0.3908843994140625,0.7032012939453125
1788849180050884000,5.741884033203125,0.3871612548828125,0.4888916015625,0.9849395751953125
1788849180060854000,5.75185400390625,0.256011962890625,0.5787353515625,1.21441650390625
1788849180070823000,5.761822998046875,0.163360595703125,0.6165771484375,1.3396148681640625
1788849180080792000,5.7717919921875,0.0348358154296875,0.6097869873046875,1.4801177978515625
1788849180090761000,5.781760986328125,-0.421661376953125,0.57354736328125,1.6224365234375
1788849180100729900,5.791729736328125,-0.2850494384765625,0.327423095703125,1.4619140625
1788849180110699000,5.801698974609375,-0.3787078857421875,0.0906219482421875,1.2400665283203125
1788849180120668000,5.81166796875,-0.705169677734375,-0.0653076171875,1.176422119140625
1788849180130637000,5.821636962890625,-0.5876617431640625,-0.1755218505859375,1.1537017822265625
1788849180140606000,5.83160595703125,-0.4377899169921875,-0.289337158203125,1.0850372314453125
1788849180150575900,5.841575927734375,-0.3762664794921875,-0.3599700927734375,1.095306396484375
1788849180160544800,5.851544677734375,-0.2652587890625,-0.348663330078125,1.1267547607421875
1788849180170514000,5.861513916015625,-0.174285888671875,-0.3289794921875,1.09454345703125
1788849180180482800,5.87148291015625,-0.2208709716796875,-0.319183349609375,1.0074462890625
1788849180190452000,5.881451904296875,-0.307708740234375,-0.2705230712890625,0.9314117431640625
1788849180200420900,5.8914208984375,-0.396240234375,-0.2374267578125,0.874481201171875
1788849180210389800,5.9013896484375,-0.3821258544921875,-0.2162933349609375,0.8531341552734375
1788849180220359000,5.91135888671875,-0.29034423828125,-0.1677703857421875,0.8669891357421875
1788849180230327800,5.921327880859375,-0.1910552978515625,-0.105682373046875,0.9119720458984375
1788849180240297700,5.931297607421875,-0.1212615966796875,-0.0334320068359375,0.95294189453125
1788849180250267000,5.941266845703125,-0.0807647705078125,0.03466796875,1.0074005126953125
1788849180260235800,5.95123583984375,-0.05462646484375,0.0842742919921875,1.0832672119140625
1788849180270204700,5.96120458984375,-0.02587890625,0.0910797119140625,1.105316162109375
1788849180280173800,5.971173828125,0.0097808837890625,0.075164794921875,1.0521697998046875
1788849180290143000,5.98114306640625,0.02362060546875,0.0574798583984375,1.00714111328125
1788849180300112100,5.991112060546875,0.0410919189453125,0.0341949462890625,0.942047119140625
1788849180310081000,6.0010810546875,0.02874755859375,-0.00738525390625,0.84686279296875
1788849180320050000,6.0110498046875,0.0208282470703125,-0.02484130859375,0.8060760498046875
1788849180330019000,6.02101904296875,-0.0076141357421875,-0.003692626953125,0.8149566650390625
1788849180339989000,6.030989013671875,-0.0346832275390625,-0.024688720703125,0.7930755615234375
1788849180349958000,6.0409580078125,-0.06341552734375,0.0665435791015625,0.93695068359375
1788849180359927000,6.050927001953125,-0.1048126220703125,0.084136962890625,0.9106597900390625
1788849180369896000,6.06089599609375,-0.1389007568359375,0.03704833984375,0.932373046875
1788849180379864800,6.07086474609375,-0.1768798828125,0.027587890625,1.0177764892578125
1788849180389834000,6.080833984375,-0.211578369140625,0.028594970703125,1.0892333984375
1788849180399803000,6.090802978515625,-0.248016357421875,0.053680419921875,1.1586151123046875
1788849180409772000,6.10077197265625,-0.2717132568359375,0.1181793212890625,1.2425384521484375
1788849180419741000,6.110740966796875,-0.26666259765625,0.156219482421875,1.3073272705078125
1788849180429709800,6.120709716796875,-0.2537384033203125,0.1331939697265625,1.2700347900390625
1788849180439679700,6.1306796875,-0.199493408203125,0.1209716796875,1.182861328125
1788849180449649000,6.14064892578125,-0.148468017578125,0.1133270263671875,1.1069793701171875
1788849180459617800,6.15061767578125,-0.1405029296875,0.1081085205078125,1.0715179443359375
1788849180469587000,6.1605869140625,-0.1134033203125,0.1135406494140625,1.057159423828125
1788849180479555800,6.170555908203125,-0.0827484130859375,0.120269775390625,1.0242156982421875
1788849180489524700,6.180524658203125,-0.0901031494140625,0.1277313232421875,0.99273681640625
1788849180499494000,6.190493896484375,-0.1139373779296875,0.125579833984375,0.9577789306640625
1788849180509463300,6.20046337890625,-0.12664794921875,0.1253509521484375,0.9185943603515625
1788849180519432200,6.21043212890625,-0.1430511474609375,0.1346282958984375,0.8785247802734375
1788849180529401300,6.2204013671875,-0.161590576171875,0.14385986328125,0.8460693359375
1788849180539371300,6.230371337890625,-0.18255615234375,0.1633453369140625,0.84033203125
1788849180549340200,6.240340087890625,-0.1916046142578125,0.1759796142578125,0.8416290283203125
1788849180559309300,6.250309326171875,-0.1721343994140625,0.19305419921875,0.8781890869140625
1788849180569278200,6.2602783203125,-0.1331634521484375,0.214508056640625,0.896697998046875
1788849180579247400,6.270247314453125,-0.1336212158203125,0.2238922119140625,0.879638671875
1788849180589216300,6.28021630859375,-0.120391845703125,0.201629638671875,0.871246337890625
1788849180599185200,6.29018505859375,-0.1226806640625,0.2062225341796875,0.86590576171875
1788849180609154300,6.300154296875,-0.133819580078125,0.220977783203125,0.9259185791015625
1788849180619123200,6.310123291015625,-0.1269989013671875,0.2529296875,0.9920806884765625
1788849180629092000,6.320092041015625,-0.0905914306640625,0.265228271484375,1.0234375
1788849180639062500,6.3300625,-0.0750885009765625,0.269805908203125,1.046600341796875
1788849180649031400,6.340031494140625,-0.072021484375,0.27545166015625,1.0536041259765625
1788849180659000300,6.350000244140625,-0.0889129638671875,0.2426300048828125,0.96990966796875
1788849180668969500,6.359969482421875,-0.133026123046875,0.03460693359375,0.7049560546875
1788849180678938400,6.3699384765625,-0.147918701171875,0.08123779296875,0.863861083984375
1788849180688907300,6.3799072265625,-0.1281280517578125,0.1422271728515625,0.895782470703125
1788849180698876400,6.38987646484375,-0.113494873046875,-0.032440185546875,0.7748565673828125
1788849180708845300,6.39984521484375,-0.167236328125,0.1009521484375,0.89984130859375
1788849180718814500,6.409814453125,-0.1778564453125,0.485260009765625,1.03826904296875
1788849180728783400,6.419783447265625,-0.267852783203125,0.57452392578125,0.95001220703125
1788849180738752300,6.429752197265625,-0.33734130859375,0.3701019287109375,0.831787109375
1788849180748722400,6.439722412109375,-0.29736328125,0.202728271484375,0.8557891845703125
1788849180758691300,6.44969140625,-0.2111968994140625,0.1457366943359375,0.851959228515625
1788849180768660200,6.45966015625,-0.1536407470703125,0.1060943603515625,0.9301910400390625
1788849180778629400,6.46962939453125,-0.1025543212890625,0.1595611572265625,1.0088653564453125
1788849180788598300,6.479598388671875,-0.0413360595703125,0.1721649169921875,1.054412841796875
1788849180798567200,6.489567138671875,0.0079193115234375,0.1650390625,1.1009368896484375
1788849180808536300,6.499536376953125,0.0468292236328125,0.1209716796875,1.1107177734375
1788849180818505200,6.509505126953125,0.0681915283203125,0.0637664794921875,1.106109619140625
1788849180828474400,6.519474365234375,0.067962646484375,0.037017822265625,1.1178131103515625
1788849180838443300,6.529443359375,0.07574462890625,0.0198211669921875,1.1177520751953125
1788849180848413200,6.5394130859375,0.0888671875,0.0073394775390625,1.1238250732421875
1788849180858382300,6.54938232421875,0.093048095703125,0.0181732177734375,1.153900146484375
1788849180868351200,6.559351318359375,0.1212005615234375,0.030364990234375,1.1866912841796875
1788849180878320000,6.569320068359375,0.1187744140625,0.0525665283203125,1.192779541015625
1788849180888289300,6.579289306640625,0.0919647216796875,0.0540618896484375,1.1923065185546875
1788849180898258200,6.589258056640625,0.07684326171875,0.038848876953125,1.1604156494140625
1788849180908227300,6.599227294921875,0.0344390869140625,0.025726318359375,1.1267852783203125
1788849180918196200,6.6091962890625,-0.0098724365234375,0.012054443359375,1.0960235595703125
1788849180928165000,6.6191650390625,-0.0428009033203125,0.0010528564453125,1.0538177490234375
1788849180938134300,6.62913427734375,-0.0666351318359375,0.00323486328125,0.99407958984375
1788849180948103400,6.639103515625,-0.0954742431640625,0.00750732421875,0.9235992431640625
1788849180958073300,6.6490732421875,-0.11627197265625,0.040130615234375,0.86895751953125
1788849180968042500,6.65904248046875,-0.1446075439453125,0.06671142578125,0.834075927734375
1788849180978011400,6.669011474609375,-0.1671142578125,0.118316650390625,0.825775146484375
1788849180987980300,6.678980224609375,-0.1467742919921875,0.1695098876953125,0.8623504638671875
1788849180997949400,6.688949462890625,-0.1170806884765625,0.1716461181640625,0.913970947265625
1788849181007918300,6.69891845703125,-0.1109161376953125,0.1693267822265625,0.9370269775390625
1788849181017887200,6.70888720703125,-0.128997802734375,0.16412353515625,0.934967041015625
1788849181027856400,6.7188564453125,-0.1390228271484375,0.1542510986328125,0.9317626953125
1788849181037825300,6.7288251953125,-0.134368896484375,0.1533966064453125,0.9120635986328125
1788849181047794400,6.73879443359375,-0.116851806640625,0.1884613037109375,0.8953399658203125
1788849181057763300,6.748763427734375,-0.136505126953125,0.1975555419921875,0.887939453125
1788849181067732200,6.758732177734375,-0.147979736328125,0.1840362548828125,0.861297607421875
1788849181077702400,6.768702392578125,-0.14410400390625,0.1737518310546875,0.8502197265625
1788849181087671300,6.77867138671875,-0.139862060546875,0.1710357666015625,0.838592529296875
1788849181097640200,6.78864013671875,-0.1389617919921875,0.1772308349609375,0.8404083251953125
1788849181107609300,6.798609375,-0.1341705322265625,0.1862030029296875,0.8734588623046875
1788849181117578200,6.808578125,-0.131683349609375,0.207366943359375,0.920135498046875
1788849181127547400,6.81854736328125,-0.1368408203125,0.2134857177734375,0.97247314453125
1788849181137516300,6.828516357421875,-0.1491851806640625,0.20440673828125,1.01483154296875
1788849181147485200,6.838485107421875,-0.165252685546875,0.206268310546875,1.0479736328125
1788849181157454300,6.848454345703125,-0.156097412109375,0.21197509765625,1.063568115234375
1788849181167423200,6.85842333984375,-0.1226654052734375,0.21527099609375,1.062469482421875
1788849181177392000,6.86839208984375,-0.11541748046875,0.2235870361328125,1.0819091796875
1788849181187362300,6.8783623046875,-0.121795654296875,0.22528076171875,1.1126861572265625
1788849181197331500,6.88833154296875,-0.0934295654296875,0.2138214111328125,1.1040191650390625
1788849181207300400,6.89830029296875,-0.055084228515625,0.189788818359375,1.0865020751953125
1788849181217269500,6.90826953125,-0.0300750732421875,0.18902587890625,1.103302001953125
1788849181227238400,6.91823828125,-0.0221710205078125,0.200225830078125,1.1207275390625
1788849181237207300,6.928207275390625,-0.04119873046875,0.19525146484375,1.0975799560546875
1788849181247176400,6.938176513671875,-0.0650177001953125,0.1866302490234375,1.045013427734375
1788849181257145300,6.948145263671875,-0.114166259765625,0.1929473876953125,1.036895751953125
1788849181267114500,6.958114501953125,-0.1356048583984375,0.220306396484375,1.0113677978515625
1788849181277083400,6.96808349609375,-0.15655517578125,0.23333740234375,0.98590087890625
1788849181287052300,6.97805224609375,-0.2054290771484375,0.2445220947265625,0.96759033203125
1788849181297021400,6.988021484375,-0.240264892578125,0.241455078125,0.954071044921875
1788849181306991400,6.997991455078125,-0.222991943359375,0.2336883544921875,0.9248046875
1788849181316960300,7.007960205078125,-0.1421966552734375,0.2324066162109375,0.9158477783203125
1788849181326929400,7.017929443359375,-0.1204376220703125,0.250640869140625,0.9122467041015625
1788849181336898300,7.027898193359375,-0.132293701171875,0.254547119140625,0.9034271240234375
1788849181346867200,7.0378671875,-0.1328887939453125,0.2540435791015625,0.863006591796875
1788849181356836400,7.04783642578125,-0.146514892578125,0.260467529296875,0.861663818359375
1788849181366805200,7.05780517578125,-0.1543121337890625,0.269134521484375,0.8549957275390625
1788849181376774400,7.0677744140625,-0.182220458984375,0.27996826171875,0.8624267578125
1788849181386743300,7.077743408203125,-0.2210235595703125,0.295501708984375,0.8577728271484375
1788849181396712200,7.087712158203125,-0.2288970947265625,0.28277587890625,0.8436431884765625
1788849181406681300,7.097681396484375,-0.2023773193359375,0.2873382568359375,0.8349609375
1788849181416650200,7.107650146484375,-0.1773529052734375,0.3035125732421875,0.8720703125
1788849181426619400,7.117619384765625,-0.1212921142578125,0.3112335205078125,0.917388916015625
1788849181436589300,7.12758935546875,-0.0833740234375,0.3104248046875,0.903289794921875
1788849181446558200,7.13755810546875,-0.1021270751953125,0.2976226806640625,0.8718719482421875
1788849181456527400,7.14752734375,-0.105987548828125,0.298309326171875,0.8954925537109375
1788849181466496300,7.157496337890625,-0.07720947265625,0.318206787109375,0.92333984375
1788849181476465200,7.167465087890625,-0.0770263671875,0.3311309814453125,0.9480133056640625
1788849181486434300,7.177434326171875,-0.075927734375,0.3427734375,0.9813995361328125
1788849181496403200,7.1874033203125,-0.0570831298828125,0.3271331787109375,0.992218017578125
1788849181506372000,7.1973720703125,-0.0400848388671875,0.2969970703125,0.973480224609375
1788849181516341800,7.207341796875,-0.0247955322265625,0.281585693359375,0.986572265625
1788849181526310700,7.217310546875,0.0439910888671875,0.28509521484375,1.03472900390625
1788849181536279600,7.227279541015625,0.1035919189453125,0.2707977294921875,1.0448150634765625
1788849181546248700,7.237248779296875,0.1344757080078125,0.22418212890625,1.0035247802734375
1788849181556218600,7.247218505859375,0.1444854736328125,0.20599365234375,1.0175628662109375
1788849181566187500,7.2571875,0.15887451171875,0.2025299072265625,1.0449981689453125
1788849181576156700,7.26715673828125,0.136505126953125,0.1884307861328125,1.06353759765625
1788849181586125600,7.27712548828125,0.0897979736328125,0.173980712890625,1.0773162841796875
1788849181596094700,7.2870947265625,0.051422119140625,0.1660308837890625,1.074554443359375
1788849181606063600,7.297063720703125,0.0121307373046875,0.153564453125,1.068084716796875
1788849181616032500,7.307032470703125,-0.0187225341796875,0.1503448486328125,1.0770721435546875
1788849181626001700,7.317001708984375,-0.0570220947265625,0.134796142578125,1.07080078125
1788849181635970600,7.326970458984375,-0.0981903076171875,0.104705810546875,1.0690155029296875
1788849181645939700,7.336939697265625,-0.1401824951171875,0.08026123046875,1.0677490234375
1788849181655908600,7.34690869140625,-0.176513671875,0.059814453125,1.0479888916015625
1788849181665877500,7.35687744140625,-0.2205047607421875,0.042999267578125,1.01544189453125
1788849181675846700,7.3668466796875,-0.26898193359375,0.0456085205078125,1.0069732666015625
1788849181685815600,7.376815673828125,-0.30377197265625,0.0428314208984375,1.0009002685546875
1788849181695785700,7.38678564453125,-0.3292236328125,0.0303497314453125,0.9884033203125
1788849181705755000,7.3967548828125,-0.3103179931640625,0.0403289794921875,0.98760986328125
1788849181715723800,7.406723876953125,-0.228729248046875,0.0675048828125,0.9437103271484375
1788849181725692700,7.416692626953125,-0.1340789794921875,0.12396240234375,0.9355316162109375
1788849181735661800,7.426661865234375,-0.0320892333984375,0.1800079345703125,0.9652557373046875
1788849181745630700,7.436630615234375,0.0402679443359375,0.22430419921875,0.9838409423828125
1788849181755599600,7.446599609375,0.0173492431640625,0.2480316162109375,0.9986724853515625
1788849181765568800,7.45656884765625,-0.0881500244140625,0.2600555419921875,1.013214111328125
1788849181775537700,7.46653759765625,-0.198516845703125,0.2671661376953125,1.0088653564453125
1788849181785506800,7.4765068359375,-0.2532196044921875,0.2567901611328125,1.0009002685546875
1788849181795475700,7.486475830078125,-0.2482757568359375,0.2309722900390625,0.989654541015625
1788849181805444600,7.496444580078125,-0.19476318359375,0.2084808349609375,0.95294189453125
1788849181815413800,7.506413818359375,-0.1339263916015625,0.207855224609375,0.92535400390625
1788849181825382700,7.516382568359375,-0.094482421875,0.22283935546875,0.9207916259765625
1788849181835352600,7.5263525390625,-0.07611083984375,0.2402496337890625,0.89892578125
1788849181845321700,7.53632177734375,-0.04852294921875,0.256622314453125,0.912750244140625
1788849181855290600,7.54629052734375,-0.025421142578125,0.2505340576171875,0.892333984375
1788849181865259500,7.556259521484375,-0.020111083984375,0.2393341064453125,0.8564453125
1788849181875228700,7.566228759765625,-0.0055999755859375,0.2479248046875,0.84222412109375
1788849181885197600,7.576197509765625,0.015777587890625,0.2486724853515625,0.83087158203125
1788849181895166700,7.586166748046875,0.0416107177734375,0.2779693603515625,0.84271240234375
1788849181905135600,7.596135498046875,0.0538787841796875,0.293731689453125,0.86083984375
1788849181915104500,7.6061044921875,0.0677642822265625,0.306243896484375,0.920318603515625
1788849181925073700,7.61607373046875,0.088958740234375,0.3111724853515625,0.965087890625
1788849181935042600,7.62604248046875,0.0922393798828125,0.32745361328125,1.0269927978515625
1788849181945011700,7.63601171875,0.0718536376953125,0.3449859619140625,1.0499267578125
1788849181954980600,7.645980712890625,0.034149169921875,0.342041015625,1.061431884765625
1788849181964949500,7.655949462890625,0.0020751953125,0.3655853271484375,1.076812744140625
1788849181974918700,7.665918701171875,-0.044097900390625,0.37738037109375,1.07916259765625
1788849181984888600,7.675888671875,-0.0652923583984375,0.3759765625,1.0542449951171875
1788849181994857500,7.685857421875,-0.0820465087890625,0.3724212646484375,1.031402587890625
1788849182004826600,7.69582666015625,-0.098388671875,0.3440093994140625,1.005279541015625
1788849182014795500,7.70579541015625,-0.1125335693359375,0.331146240234375,0.9858856201171875
1788849182024764400,7.715764404296875,-0.112762451171875,0.33831787109375,0.969268798828125
1788849182034733600,7.725733642578125,-0.11639404296875,0.320404052734375,0.95458984375
1788849182044702500,7.735702392578125,-0.116973876953125,0.3103179931640625,0.950408935546875
1788849182054671600,7.745671630859375,-0.1053009033203125,0.29571533203125,0.943084716796875
1788849182064640800,7.755640869140625,-0.1089019775390625,0.28350830078125,0.94476318359375
1788849182074609700,7.765609619140625,-0.1280975341796875,0.28338623046875,0.94232177734375
1788849182084578800,7.775578857421875,-0.1278228759765625,0.2660064697265625,0.928497314453125
1788849182094547700,7.785547607421875,-0.1318817138671875,0.2379302978515625,0.89776611328125
1788849182104516900,7.795516845703125,-0.1374359130859375,0.2306365966796875,0.87017822265625
1788849182114485800,7.80548583984375,-0.136138916015625,0.221710205078125,0.8679656982421875
1788849182124454700,7.81545458984375,-0.13031005859375,0.2173614501953125,0.8979949951171875
1788849182134424600,7.825424560546875,-0.1048126220703125,0.21221923828125,0.9096527099609375
1788849182144393700,7.835393798828125,-0.0955657958984375,0.2100982666015625,0.9163818359375
1788849182154362600,7.845362548828125,-0.1009674072265625,0.2153778076171875,0.9300079345703125
1788849182164331800,7.855331787109375,-0.09954833984375,0.2072296142578125,0.9078826904296875
1788849182174300700,7.86530078125,-0.1118621826171875,0.2014923095703125,0.8840789794921875
1788849182184269600,7.87526953125,-0.111419677734375,0.193695068359375,0.87677001953125
1788849182194238700,7.88523876953125,-0.1136322021484375,0.1953582763671875,0.8778839111328125
1788849182204207600,7.89520751953125,-0.139251708984375,0.207275390625,0.8723297119140625
1788849182214176800,7.9051767578125,-0.136260986328125,0.2012481689453125,0.871063232421875
1788849182224145700,7.915145751953125,-0.11834716796875,0.1949310302734375,0.8720245361328125
1788849182234114600,7.925114501953125,-0.1075897216796875,0.18914794921875,0.875701904296875
1788849182244083700,7.935083740234375,-0.122161865234375,0.188079833984375,0.911041259765625
1788849182254052600,7.945052490234375,-0.11376953125,0.189697265625,0.936309814453125
1788849182264021800,7.955021728515625,-0.1066131591796875,0.184814453125,0.9533538818359375
1788849182273990700,7.96499072265625,-0.0944366455078125,0.162078857421875,0.963165283203125
1788849182283960600,7.974960693359375,-0.09478759765625,0.148712158203125,0.9714202880859375
1788849182293929500,7.984929443359375,-0.1281585693359375,0.1561126708984375,0.99725341796875
1788849182303898600,7.994898681640625,-0.169281005859375,0.178009033203125,1.0384979248046875
1788849182313867500,8.004867431640625,-0.1905059814453125,0.18304443359375,1.0753936767578125
1788849182323836700,8.014836669921875,-0.2108001708984375,0.1822662353515625,1.1019134521484375
1788849182333805600,8.0248056640625,-0.246002197265625,0.180908203125,1.0965423583984375
1788849182343774500,8.0347744140625,-0.2534942626953125,0.183074951171875,1.0899200439453125
1788849182353743600,8.04474365234375,-0.1974639892578125,0.1743011474609375,1.0610809326171875
1788849182363712500,8.05471240234375,-0.061187744140625,0.1632080078125,1.0815277099609375
1788849182373681700,8.064681640625,0.091888427734375,0.1480712890625,1.150848388671875
1788849182383650600,8.074650634765625,0.23748779296875,0.135772705078125,1.2183380126953125
1788849182393619500,8.084619384765626,0.3886871337890625,0.14599609375,1.2570037841796875
1788849182403588600,8.094588623046874,0.503173828125,0.1741180419921875,1.30377197265625
1788849182413557500,8.1045576171875,0.5361480712890625,0.151458740234375,1.26708984375
1788849182423526700,8.114526611328126,0.53045654296875,0.0934600830078125,1.1937255859375
1788849182433495800,8.124495849609374,0.463043212890625,0.08807373046875,1.1405181884765625
1788849182443464700,8.134464599609375,0.4006195068359375,0.1145477294921875,1.07147216796875
1788849182453433900,8.144433837890626,0.4135894775390625,0.1483001708984375,1.0186004638671875
1788849182463403800,8.15440380859375,0.3843841552734375,0.2230682373046875,0.9825897216796875
1788849182473372700,8.16437255859375,0.2419891357421875,0.3049163818359375,0.9900665283203125
1788849182483341600,8.174341552734376,0.07806396484375,0.32965087890625,0.9910125732421875
1788849182493310700,8.184310791015625,-0.06939697265625,0.3257598876953125,0.979034423828125
1788849182503279600,8.194279541015625,-0.2390899658203125,0.28460693359375,0.9468841552734375
1788849182513248300,8.204248291015626,-0.36846923828125,0.22747802734375,0.92120361328125
1788849182523217200,8.214217041015624,-0.4600372314453125,0.16790771484375,0.8602294921875
1788849182533186300,8.224186279296875,-0.4700164794921875,0.1356048583984375,0.7859649658203125
1788849182543155200,8.2341552734375,-0.4346160888671875,0.1165313720703125,0.7279510498046875
1788849182553124000,8.2441240234375,-0.3976898193359375,0.1313323974609375,0.77459716796875
1788849182563093200,8.25409326171875,-0.3548736572265625,0.1427001953125,0.8500518798828125
1788849182573062100,8.264062255859375,-0.350830078125,0.0922088623046875,0.8568267822265625
1788849182583031300,8.27403125,-0.356719970703125,0.0641021728515625,0.88848876953125
1788849182593000200,8.284000244140625,-0.350494384765625,0.11114501953125,0.9392852783203125
1788849182602969000,8.293968994140625,-0.33319091796875,0.1565399169921875,0.995330810546875
1788849182612938200,8.303938232421874,-0.2949676513671875,0.178253173828125,1.0358734130859375
1788849182622907100,8.3139072265625,-0.26446533203125,0.1904296875,1.0396728515625
1788849182632876000,8.3238759765625,-0.231903076171875,0.1955413818359375,1.0102996826171875
1788849182642846500,8.333846435546874,-0.1868896484375,0.1872711181640625,0.97357177734375
1788849182652815400,8.3438154296875,-0.1436614990234375,0.1910858154296875,0.927001953125
1788849182662784300,8.3537841796875,-0.0955657958984375,0.197540283203125,0.871673583984375
1788849182672753400,8.36375341796875,-0.0564422607421875,0.1984710693359375,0.8266143798828125
1788849182682722300,8.373722412109375,-0.044281005859375,0.202880859375,0.777923583984375
1788849182692691200,8.383691162109375,-0.029571533203125,0.2332763671875,0.764923095703125
1788849182702660400,8.393660400390624,-0.023651123046875,0.2484283447265625,0.7685089111328125
1788849182712629200,8.403629150390625,-0.0270843505859375,0.2556610107421875,0.7722625732421875
1788849182722598400,8.413598388671875,-0.0264892578125,0.246734619140625,0.775848388671875
1788849182732567300,8.4235673828125,-0.041748046875,0.2408599853515625,0.78997802734375
1788849182742536200,8.4335361328125,-0.062896728515625,0.2569580078125,0.8292694091796875
1788849182752505300,8.44350537109375,-0.0882568359375,0.27978515625,0.8829498291015625
1788849182762474200,8.45347412109375,-0.1084442138671875,0.304412841796875,0.95623779296875
1788849182772443400,8.463443359375,-0.1199951171875,0.3464202880859375,1.06884765625
1788849182782412300,8.473412353515625,-0.13739013671875,0.385833740234375,1.18182373046875
1788849182792381200,8.483381103515624,-0.13482666015625,0.4071197509765625,1.2259979248046875
1788849182802350300,8.493350341796875,-0.1097564697265625,0.3887786865234375,1.19049072265625
1788849182812319200,8.5033193359375,-0.106292724609375,0.357757568359375,1.1206512451171875
1788849182822288400,8.513288330078124,-0.11614990234375,0.36187744140625,1.1097869873046875
1788849182832258300,8.52325830078125,-0.095306396484375,0.3815155029296875,1.142974853515625
1788849182842227200,8.533227294921875,-0.0444488525390625,0.3952178955078125,1.1617584228515625
1788849182852196000,8.543196044921874,0.0102996826171875,0.3752288818359375,1.134765625
1788849182862165200,8.553165283203125,0.0221710205078125,0.3342437744140625,1.0664520263671875
1788849182872134100,8.563134033203125,0.0020904541015625,0.3173980712890625,0.9872283935546875
1788849182882103300,8.573103271484374,-0.015594482421875,0.32196044921875,0.957275390625
1788849182892072200,8.583072265625,-0.040069580078125,0.3416900634765625,0.934326171875
1788849182902041000,8.593041015625,-0.0733642578125,0.3353118896484375,0.894287109375
1788849182912010200,8.60301025390625,-0.0968780517578125,0.313201904296875,0.8467254638671875
1788849182921979100,8.612979248046875,-0.12353515625,0.2945556640625,0.8103790283203125
1788849182931948300,8.6229482421875,-0.146148681640625,0.298248291015625,0.80426025390625
1788849182941917200,8.632917236328124,-0.14483642578125,0.2956085205078125,0.82763671875
1788849182951886000,8.642885986328125,-0.11822509765625,0.2716217041015625,0.8397979736328125
1788849182961855200,8.652855224609375,-0.1072998046875,0.2373504638671875,0.8159637451171875
1788849182971824000,8.66282421875,-0.12359619140625,0.208251953125,0.7835845947265625
1788849182981793300,8.672793212890625,-0.1540374755859375,0.194183349609375,0.7765960693359375
1788849182991762200,8.68276220703125,-0.1897735595703125,0.1712646484375,0.7624664306640625
1788849183001731000,8.69273095703125,-0.215301513671875,0.1685638427734375,0.7476654052734375
1788849183011700200,8.7027001953125,-0.23004150390625,0.1673736572265625,0.7393341064453125
1788849183021669400,8.71266943359375,-0.2125244140625,0.1642303466796875,0.7552337646484375
1788849183031638300,8.72263818359375,-0.197265625,0.16033935546875,0.796417236328125
1788849183041608400,8.7326083984375,-0.225830078125,0.157623291015625,0.875091552734375
1788849183051577300,8.742577392578125,-0.247039794921875,0.171356201171875,0.9680328369140625
1788849183061546200,8.752546142578124,-0.2604217529296875,0.1866302490234375,1.07183837890625
1788849183071515400,8.762515380859375,-0.2378082275390625,0.202362060546875,1.1402130126953125
1788849183081484300,8.772484375,-0.1648406982421875,0.1860504150390625,1.2016754150390625
1788849183091453400,8.782453369140624,-0.0883026123046875,0.14404296875,1.21185302734375
1788849183101422300,8.79242236328125,0.002685546875,0.066802978515625,1.217376708984375
1788849183111391200,8.80239111328125,0.085723876953125,0.0341949462890625,1.2584075927734375
1788849183121360400,8.8123603515625,0.15350341796875,0.077545166015625,1.291778564453125
1788849183131329300,8.822329345703125,0.2039642333984375,0.12188720703125,1.315521240234375
1788849183141298200,8.832298095703125,0.2793426513671875,0.134857177734375,1.2979583740234375
1788849183151267300,8.842267333984376,0.3112640380859375,0.1280364990234375,1.238250732421875
1788849183161236200,8.852236328125,0.291229248046875,0.1141815185546875,1.1882171630859375
1788849183171205400,8.862205322265625,0.27960205078125,0.096527099609375,1.135284423828125
1788849183181174300,8.87217431640625,0.2123870849609375,0.0868988037109375,1.097930908203125
1788849183191143200,8.88214306640625,0.130279541015625,0.1185760498046875,1.0767059326171875
1788849183201112300,8.8921123046875,0.056854248046875,0.15557861328125,1.0517425537109375
1788849183211081200,8.902081298828126,0.0148162841796875,0.1816864013671875,1.0550994873046875
1788849183221050400,8.91205029296875,-0.0104522705078125,0.1978912353515625,1.03826904296875
1788849183231019300,8.922019287109375,-0.0515289306640625,0.2058868408203125,1.0161590576171875
1788849183240988200,8.93198828125,-0.076385498046875,0.2090301513671875,0.993804931640625
1788849183250957300,8.941957275390624,-0.09375,0.2147979736328125,0.962677001953125
1788849183260926200,8.95192626953125,-0.1218719482421875,0.226165771484375,0.9397430419921875
1788849183270896000,8.961896240234376,-0.157623291015625,0.2301788330078125,0.9176025390625
1788849183280865300,8.971865234375,-0.1693572998046875,0.243682861328125,0.8842926025390625
1788849183290834200,8.981834228515625,-0.1562957763671875,0.2570648193359375,0.8437347412109375
1788849183300803000,8.991802978515626,-0.146240234375,0.267852783203125,0.8158416748046875
1788849183310772200,9.001772216796875,-0.1470184326171875,0.27789306640625,0.777191162109375
1788849183320741000,9.0117412109375,-0.176483154296875,0.2971038818359375,0.753265380859375
1788849183330710300,9.021710205078126,-0.224517822265625,0.3153533935546875,0.77532958984375
1788849183340679200,9.03167919921875,-0.2765045166015625,0.3117828369140625,0.8179779052734375
1788849183350648000,9.04164794921875,-0.3208465576171875,0.256317138671875,0.805267333984375
1788849183360617200,9.0516171875,-0.30975341796875,0.20184326171875,0.793365478515625
1788849183370586000,9.061586181640624,-0.268341064453125,0.213592529296875,0.8258514404296875
1788849183380555300,9.07155517578125,-0.2077789306640625,0.2298736572265625,0.83905029296875
1788849183390524400,9.0815244140625,-0.1713104248046875,0.2317962646484375,0.844329833984375
1788849183400493300,9.091493408203124,-0.151763916015625,0.2502288818359375,0.8697509765625
1788849183410462500,9.10146240234375,-0.1542816162109375,0.242156982421875,0.890472412109375
1788849183420431400,9.111431396484376,-0.15728759765625,0.2468414306640625,0.92462158203125
1788849183430400300,9.121400146484374,-0.154083251953125,0.2526702880859375,0.97088623046875
1788849183440369400,9.131369384765625,-0.131134033203125,0.2843170166015625,1.02593994140625
1788849183450338300,9.14133837890625,-0.08575439453125,0.31097412109375,1.0553131103515625
1788849183460307500,9.151307373046874,-0.05401611328125,0.3105926513671875,1.0449066162109375
1788849183470276400,9.1612763671875,-0.0446624755859375,0.29754638671875,1.0318756103515625
1788849183480245200,9.171245361328126,-0.0377655029296875,0.29193115234375,1.0274810791015625
1788849183490214400,9.18121435546875,-0.0306396484375,0.297607421875,1.044097900390625
1788849183500183300,9.191183349609375,-0.033538818359375,0.3069915771484375,1.072021484375
1788849183510152700,9.201152587890626,-0.0193634033203125,0.30755615234375,1.099456787109375
1788849183520121600,9.21112158203125,0.0049285888671875,0.298736572265625,1.110382080078125
1788849183530090500,9.221090576171875,0.03668212890625,0.2940216064453125,1.1060028076171875
1788849183540060000,9.231059814453126,0.0416259765625,0.295440673828125,1.0929107666015625
1788849183550028800,9.24102880859375,0.0306854248046875,0.27484130859375,1.029937744140625
1788849183559997700,9.250997802734375,0.014678955078125,0.290008544921875,0.99932861328125
1788849183569966800,9.260966796875,-0.021453857421875,0.29718017578125,0.988372802734375
1788849183579935700,9.270935791015624,-0.0272216796875,0.2954254150390625,0.9924163818359375
1788849183589905000,9.28090478515625,-0.03997802734375,0.3107147216796875,0.9635162353515625
1788849183599873800,9.290873779296875,-0.0590972900390625,0.2921905517578125,0.929901123046875
1788849183609842700,9.3008427734375,-0.0149688720703125,0.2913055419921875,0.9271697998046875
1788849183619811800,9.310811767578125,0.00732421875,0.291015625,0.8975830078125
1788849183629780700,9.32078076171875,0.0543975830078125,0.2843780517578125,0.88006591796875
1788849183639750000,9.33075,0.06903076171875,0.2900390625,0.8742523193359375
1788849183649718800,9.34071875,0.0291900634765625,0.2882537841796875,0.8634185791015625
1788849183659687700,9.350687744140625,-0.0279083251953125,0.276153564453125,0.85791015625
1788849183669656800,9.36065673828125,-0.044921875,0.2735595703125,0.844146728515625
1788849183679625700,9.370625732421875,-0.073577880859375,0.268890380859375,0.8332977294921875
1788849183689594600,9.3805947265625,-0.09246826171875,0.273681640625,0.8487091064453125
1788849183699563800,9.390563720703126,-0.065643310546875,0.261688232421875,0.8867340087890625
1788849183709532700,9.40053271484375,-0.094268798828125,0.26727294921875,0.916015625
1788849183719501800,9.410501708984375,-0.1365814208984375,0.270721435546875,0.939361572265625
1788849183729470700,9.420470703125,-0.1502685546875,0.263153076171875,0.9457244873046875
1788849183739439600,9.430439697265625,-0.183441162109375,0.2527008056640625,0.9470672607421875
1788849183749408800,9.44040869140625,-0.1984710693359375,0.236175537109375,0.9470672607421875
1788849183759377700,9.450377685546876,-0.2143402099609375,0.220703125,0.92999267578125
1788849183769346800,9.460346923828125,-0.22589111328125,0.2126922607421875,0.942901611328125
1788849183779315700,9.470315673828125,-0.226318359375,0.1930389404296875,0.9345245361328125
1788849183789284600,9.48028466796875,-0.228607177734375,0.1716766357421875,0.9218902587890625
1788849183799253800,9.490253662109374,-0.218658447265625,0.1618499755859375,0.9264068603515625
1788849183809222700,9.50022265625,-0.1967926025390625,0.150177001953125,0.9205780029296875
1788849183819191800,9.51019189453125,-0.2103271484375,0.1596221923828125,0.9397430419921875
1788849183829161700,9.52016162109375,-0.2158966064453125,0.170684814453125,0.9755096435546875
1788849183839130600,9.530130615234375,-0.2143402099609375,0.175994873046875,1.0111083984375
1788849183849099500,9.540099609375,-0.213409423828125,0.1758575439453125,1.0352325439453125
1788849183859068700,9.550068603515625,-0.228973388671875,0.1757659912109375,1.0438995361328125
1788849183869037600,9.56003759765625,-0.2258148193359375,0.17510986328125,1.0551910400390625
1788849183879006700,9.5700068359375,-0.2097015380859375,0.18939208984375,1.0970916748046875
1788849183888975600,9.5799755859375,-0.175018310546875,0.199188232421875,1.1383819580078125
1788849183898944500,9.589944580078125,-0.09942626953125,0.1935272216796875,1.1567230224609375
1788849183908913700,9.59991357421875,-0.00067138671875,0.169952392578125,1.1370697021484375
1788849183918882600,9.609882568359374,0.1134796142578125,0.1442108154296875,1.1261749267578125
1788849183928851700,9.619851806640625,0.2765045166015625,0.160369873046875,1.17291259765625
1788849183938820600,9.629820556640626,0.432342529296875,0.1628570556640625,1.2097625732421875
1788849183948789500,9.63978955078125,0.5678863525390625,0.1892242431640625,1.293731689453125
1788849183958758700,9.649758544921875,0.6093597412109375,0.1872711181640625,1.288604736328125
1788849183968727600,9.6597275390625,0.593597412109375,0.11517333984375,1.17364501953125
1788849183978696700,9.66969677734375,0.5464630126953125,0.01751708984375,1.0267486572265625
1788849183988665600,9.67966552734375,0.45458984375,0.03253173828125,1.0014495849609375
1788849183998634500,9.689634521484376,0.4012298583984375,0.1295318603515625,1.015594482421875
1788849184008603600,9.699603759765624,0.450958251953125,0.21124267578125,0.999298095703125
1788849184018572500,9.709572509765625,0.454315185546875,0.280609130859375,0.982269287109375
1788849184028541700,9.719541748046876,0.330474853515625,0.2940521240234375,0.9460296630859375
1788849184038510800,9.7295107421875,0.2043914794921875,0.301666259765625,0.972625732421875
1788849184048479700,9.739479736328125,0.065887451171875,0.3397216796875,1.0200347900390625
1788849184058449000,9.749448974609376,-0.1171112060546875,0.3566741943359375,0.9928741455078125
1788849184068417800,9.759417724609374,-0.3026275634765625,0.3286285400390625,1.0088958740234375
1788849184078386700,9.76938671875,-0.4671783447265625,0.2767486572265625,1.0138702392578125
1788849184088355800,9.77935595703125,-0.578125,0.2039337158203125,0.9557647705078125
1788849184098324700,9.78932470703125,-0.58172607421875,0.147857666015625,0.8809967041015625
1788849184108294000,9.7992939453125,-0.54132080078125,0.1123046875,0.864166259765625
1788849184118262800,9.8092626953125,-0.4900970458984375,0.1271209716796875,0.8644256591796875
1788849184128231700,9.819231689453124,-0.4017333984375,0.1435394287109375,0.8923492431640625
1788849184138201600,9.82920166015625,-0.3564300537109375,0.147186279296875,0.909088134765625
1788849184148170800,9.839170654296876,-0.359954833984375,0.1615447998046875,0.8668365478515625
1788849184158139600,9.8491396484375,-0.3075408935546875,0.1659698486328125,0.8534088134765625
1788849184168108800,9.85910888671875,-0.249725341796875,0.1849822998046875,0.841827392578125
1788849184178077700,9.86907763671875,-0.2320098876953125,0.1891021728515625,0.824798583984375
1788849184188046600,9.879046630859374,-0.2095794677734375,0.206146240234375,0.8054962158203125
1788849184198015700,9.889015625,-0.18353271484375,0.2257232666015625,0.8298187255859375
1788849184207984600,9.898984619140625,-0.14996337890625,0.225738525390625,0.83905029296875
1788849184217953800,9.908953857421874,-0.109344482421875,0.2107086181640625,0.80303955078125
1788849184227922700,9.918922607421875,-0.069732666015625,0.205596923828125,0.79534912109375
1788849184237891600,9.9288916015625,-0.03021240234375,0.209930419921875,0.776458740234375
1788849184247860700,9.93886083984375,0.0138092041015625,0.2001495361328125,0.7877197265625
1788849184257829600,9.94882958984375,0.05413818359375,0.19287109375,0.820281982421875
1788849184267798800,9.958798828125,0.0739288330078125,0.2123260498046875,0.8507080078125
1788849184277767700,9.968767578125,0.0806732177734375,0.254547119140625,0.91876220703125
1788849184287736600,9.978736572265625,0.0691070556640625,0.3076019287109375,1.0290374755859375
1788849184297705700,9.988705810546875,0.0008697509765625,0.346710205078125,1.1175079345703125
1788849184307674600,9.998674560546876,-0.05401611328125,0.3670196533203125,1.190093994140625
1788849184317643500,10.0086435546875,-0.0930328369140625,0.34674072265625,1.247283935546875
1788849184327612700,10.01861279296875,-0.1236419677734375,0.329986572265625,1.2364959716796875
1788849184337581600,10.02858154296875,-0.0896148681640625,0.334014892578125,1.1706085205078125
1788849184347550700,10.03855078125,-0.01776123046875,0.3361053466796875,1.091949462890625
1788849184357519600,10.04851953125,0.020660400390625,0.33990478515625,1.0257415771484375
1788849184367488500,10.058488525390626,0.063323974609375,0.3161468505859375,0.9693603515625
1788849184377457700,10.068457763671875,0.0889892578125,0.3094024658203125,0.9680023193359375
1788849184387426600,10.078426513671875,0.058441162109375,0.308074951171875,0.9494171142578125
1788849184397395700,10.088395751953126,0.0139617919921875,0.301544189453125,0.91253662109375
1788849184407364600,10.098364501953125,-0.0017547607421875,0.304412841796875,0.896820068359375
1788849184417333500,10.10833349609375,0.0098724365234375,0.311553955078125,0.916839599609375
1788849184427302700,10.118302734375,0.0491180419921875,0.3082275390625,0.9347991943359375
1788849184437272800,10.12827294921875,0.038055419921875,0.269989013671875,0.9044647216796875
1788849184447240700,10.13824072265625,0.048858642578125,0.2522125244140625,0.9002532958984375
1788849184457211000,10.1482109375,0.0464324951171875,0.2624359130859375,0.9157562255859375
1788849184467179800,10.1581796875,0.033447265625,0.2581787109375,0.92523193359375
1788849184477148700,10.168148681640625,0.00152587890625,0.24737548828125,0.8930206298828125
1788849184487117800,10.178117919921876,-0.033416748046875,0.2453460693359375,0.8739013671875
1788849184497086700,10.188086669921875,-0.0756378173828125,0.2359161376953125,0.873931884765625
1788849184507055900,10.198055908203125,-0.101776123046875,0.2391357421875,0.9032135009765625
1788849184517024800,10.208024658203126,-0.1287384033203125,0.2283172607421875,0.9265899658203125
1788849184526993700,10.21799365234375,-0.149169921875,0.2039794921875,0.94378662109375
1788849184536962800,10.227962890625,-0.17974853515625,0.177978515625,0.93511962890625
1788849184546931700,10.237931640625,-0.2233123779296875,0.177947998046875,0.9248504638671875
1788849184556900900,10.24790087890625,-0.255279541015625,0.1623382568359375,0.92724609375
1788849184566869800,10.257869873046875,-0.2822265625,0.152801513671875,0.9277801513671875
1788849184576838700,10.267838623046876,-0.2927398681640625,0.1589508056640625,0.9065093994140625
1788849184586807800,10.277807861328125,-0.29156494140625,0.17657470703125,0.9089202880859375
1788849184596776700,10.287776611328125,-0.2910003662109375,0.1869049072265625,0.9027252197265625
1788849184606745600,10.29774560546875,-0.279083251953125,0.1988525390625,0.9018402099609375
1788849184616714800,10.30771484375,-0.2388458251953125,0.2191925048828125,0.9128875732421875
1788849184626683600,10.31768359375,-0.205963134765625,0.2391510009765625,0.9533843994140625
1788849184636652800,10.32765283203125,-0.192596435546875,0.26708984375,1.0186614990234375
1788849184646621700,10.33762158203125,-0.1778411865234375,0.2741546630859375,1.03448486328125
1788849184656590600,10.347590576171875,-0.168243408203125,0.2951202392578125,1.0748748779296875
1788849184666559700,10.357559814453126,-0.1922760009765625,0.3095703125,1.1146240234375
1788849184676528600,10.367528564453124,-0.1598052978515625,0.3009185791015625,1.1399993896484375
1788849184686497800,10.377497802734375,-0.064422607421875,0.281646728515625,1.145416259765625
1788849184696466700,10.387466796875,0.028564453125,0.25311279296875,1.094482421875
1788849184706435600,10.397435546875,0.141204833984375,0.24041748046875,1.1105194091796875
1788849184716404700,10.40740478515625,0.31256103515625,0.2623443603515625,1.2554168701171875
1788849184726373600,10.41737353515625,0.4949798583984375,0.2828216552734375,1.366790771484375
1788849184736342800,10.4273427734375,0.6569671630859375,0.2588653564453125,1.35699462890625
1788849184746311700,10.437311767578125,0.7189788818359375,0.191009521484375,1.2234344482421875
1788849184756280600,10.447280517578125,0.726715087890625,0.1360015869140625,1.0692596435546875
1788849184766249700,10.457249755859374,0.7494964599609375,0.146697998046875,0.9712677001953125
1788849184776218600,10.467218505859375,0.7524871826171875,0.169036865234375,0.892486572265625
1788849184786187800,10.477187744140625,0.7883453369140625,0.2181549072265625,0.8283233642578125
1788849184796156700,10.48715673828125,0.793975830078125,0.3015899658203125,0.7648162841796875
1788849184806125600,10.49712548828125,0.5118865966796875,0.3741455078125,0.7649078369140625
1788849184816094700,10.5070947265625,0.2610931396484375,0.4101409912109375,0.9037628173828125
1788849184826064600,10.517064697265624,0.1230926513671875,0.4736328125,1.03607177734375
1788849184836032500,10.527032470703125,-0.06890869140625,0.499542236328125,1.078277587890625
1788849184846002700,10.537002685546875,-0.3676300048828125,0.4877166748046875,1.0434417724609375
1788849184855971600,10.5469716796875,-0.603729248046875,0.427520751953125,1.0425262451171875
1788849184865940500,10.5569404296875,-0.7085418701171875,0.298828125,0.9922027587890625
1788849184875910000,10.566909912109375,-0.65740966796875,0.1878662109375,0.9116363525390625
1788849184885878800,10.576878662109374,-0.587249755859375,0.091461181640625,0.8426513671875
1788849184895847700,10.58684765625,-0.54266357421875,0.0693817138671875,0.8861083984375
1788849184905816800,10.59681689453125,-0.47772216796875,0.1080169677734375,0.924957275390625
1788849184915785700,10.60678564453125,-0.43035888671875,0.117523193359375,0.9289093017578125
1788849184925755000,10.6167548828125,-0.3443450927734375,0.1293487548828125,0.9356689453125
1788849184935723800,10.626723876953125,-0.2899017333984375,0.134063720703125,0.9294891357421875
1788849184945692700,10.636692626953124,-0.242218017578125,0.1491241455078125,0.89581298828125
1788849184955661800,10.646661865234375,-0.201812744140625,0.1559906005859375,0.86895751953125
1788849184965630700,10.656630615234375,-0.221405029296875,0.1536865234375,0.8463592529296875
1788849184975599900,10.666599853515624,-0.2141876220703125,0.191864013671875,0.87872314453125
1788849184985568800,10.67656884765625,-0.2322540283203125,0.204254150390625,0.8634185791015625
1788849184995537700,10.68653759765625,-0.1910552978515625,0.214935302734375,0.87188720703125
1788849185005506800,10.6965068359375,-0.129180908203125,0.2125091552734375,0.916656494140625
1788849185015475700,10.706475830078125,-0.088897705078125,0.192901611328125,0.9061126708984375
1788849185025444900,10.71644482421875,-0.07391357421875,0.1990203857421875,0.9235076904296875
1788849185035413800,10.726413818359376,-0.080352783203125,0.2257232666015625,0.9287567138671875
1788849185045382700,10.736382568359375,-0.068359375,0.2447052001953125,0.9546356201171875
1788849185055351800,10.746351806640625,-0.023193359375,0.2373199462890625,0.9977569580078125
1788849185065320700,10.75632080078125,0.0116729736328125,0.262176513671875,1.0610809326171875
1788849185075289600,10.76628955078125,0.0097808837890625,0.2919769287109375,1.10650634765625
1788849185085258800,10.7762587890625,-0.0250701904296875,0.3072052001953125,1.137298583984375
1788849185095227600,10.7862275390625,-0.063018798828125,0.32940673828125,1.172637939453125
1788849185105196800,10.79619677734375,-0.071929931640625,0.340484619140625,1.154876708984375
1788849185115165700,10.806165771484375,-0.010101318359375,0.3437957763671875,1.114166259765625
1788849185125134600,10.816134521484376,0.051849365234375,0.3214263916015625,1.0928802490234375
1788849185135103700,10.826103759765624,0.0816802978515625,0.285675048828125,1.05078125
1788849185145072600,10.83607275390625,0.10040283203125,0.2793426513671875,1.013092041015625
1788849185155041800,10.846041748046876,0.1148223876953125,0.276580810546875,0.967315673828125
1788849185165010700,10.8560107421875,0.0862884521484375,0.2961273193359375,0.962127685546875
1788849185174979600,10.8659794921875,0.04229736328125,0.2852325439453125,0.9241943359375
1788849185184948700,10.87594873046875,0.018524169921875,0.308258056640625,0.9048309326171875
1788849185194917600,10.885917724609374,-0.0065460205078125,0.290618896484375,0.86285400390625
1788849185204886800,10.89588671875,-0.026336669921875,0.3040008544921875,0.922119140625
1788849185214855700,10.905855712890625,0.00018310546875,0.3323516845703125,0.9810943603515625
1788849185224824600,10.915824462890624,0.01800537109375,0.32391357421875,0.99603271484375
1788849185234793700,10.925793701171875,0.0195770263671875,0.3152008056640625,0.97698974609375
1788849185244762600,10.9357626953125,0.0233154296875,0.303955078125,0.9606781005859375
1788849185254731800,10.945731689453124,0.0059356689453125,0.2895355224609375,0.9778900146484375
1788849185264700700,10.95570068359375,-0.032470703125,0.2815704345703125,0.993408203125
1788849185274669600,10.965669677734375,-0.0933837890625,0.289825439453125,1.0121002197265625
1788849185284638700,10.975638671875,-0.192474365234375,0.2911224365234375,1.0137481689453125
1788849185294607600,10.985607666015625,-0.2646484375,0.264617919921875,0.9878387451171875
1788849185304576500,10.995576416015625,-0.3054962158203125,0.2286376953125,0.9446258544921875
1788849185314545700,11.005545654296874,-0.306976318359375,0.2010955810546875,0.921539306640625
1788849185324514600,11.0155146484375,-0.272186279296875,0.1750030517578125,0.9111480712890625
1788849185334483700,11.025483642578125,-0.2830657958984375,0.1708984375,0.9017486572265625
1788849185344452600,11.03545263671875,-0.3450775146484375,0.183624267578125,0.8670501708984375
1788849185354421500,11.04542138671875,-0.377685546875,0.1731719970703125,0.819976806640625
1788849185364390700,11.055390625,-0.3773651123046875,0.162384033203125,0.8005218505859375
1788849185374359600,11.065359619140626,-0.3847503662109375,0.1738128662109375,0.8205108642578125
1788849185384328700,11.07532861328125,-0.343048095703125,0.208282470703125,0.8671722412109375
1788849185394297600,11.085297607421875,-0.282745361328125,0.2425994873046875,0.9185638427734375
1788849185404266500,11.0952666015625,-0.2137451171875,0.28564453125,0.9657135009765625
1788849185414235600,11.105235595703125,-0.14801025390625,0.3168182373046875,1.0236968994140625
1788849185424204500,11.11520458984375,-0.11376953125,0.3418426513671875,1.0520477294921875
1788849185434173700,11.125173583984376,-0.080596923828125,0.3524017333984375,1.050140380859375
1788849185444143900,11.135143798828125,-0.0509185791015625,0.3500823974609375,1.033447265625
1788849185454111500,11.145111572265625,-0.034515380859375,0.337799072265625,1.0198822021484375
1788849185464081700,11.15508154296875,0.0031890869140625,0.3058624267578125,1.0327606201171875
1788849185474050800,11.16505078125,0.0572509765625,0.2914886474609375,1.041015625
1788849185484019700,11.175019775390625,0.1229400634765625,0.2946014404296875,1.0082855224609375
1788849185493988900,11.18498876953125,0.20098876953125,0.280975341796875,1.0169830322265625
1788849185503957800,11.194957763671875,0.353851318359375,0.292236328125,1.1573028564453125
1788849185513927700,11.204927734375,0.5687103271484375,0.2844696044921875,1.29608154296875
1788849185523896600,11.214896484375,0.7609405517578125,0.2314605712890625,1.29302978515625
1788849185533865700,11.22486572265625,0.8096923828125,0.214752197265625,1.222137451171875
1788849185543834600,11.234834716796875,0.7335205078125,0.156463623046875,1.0810394287109375
1788849185553803800,11.2448037109375,0.7142333984375,0.1392059326171875,1.0087890625
1788849185563772700,11.254772705078125,0.74688720703125,0.156341552734375,0.9740447998046875
1788849185573741600,11.264741455078125,0.7182464599609375,0.1806488037109375,0.9672698974609375
1788849185583710700,11.274710693359374,0.68414306640625,0.1795806884765625,0.9296875
1788849185593679600,11.2846796875,0.576202392578125,0.1836700439453125,0.8574066162109375
1788849185603648800,11.294648681640625,0.4371337890625,0.232147216796875,0.8288116455078125
1788849185613617700,11.30461767578125,0.3046112060546875,0.3167724609375,0.86474609375
1788849185623586600,11.314586669921875,0.181121826171875,0.36456298828125,0.9124755859375
1788849185633555700,11.3245556640625,0.0404052734375,0.4036712646484375,0.9578399658203125
1788849185643524600,11.334524658203126,-0.10296630859375,0.4227294921875,0.96746826171875
1788849185653493800,11.34449365234375,-0.1817474365234375,0.4114990234375,1.01239013671875
1788849185663462700,11.354462646484375,-0.3199462890625,0.34820556640625,1.0046234130859375
1788849185673431600,11.364431640625,-0.4574432373046875,0.2648162841796875,0.95477294921875
1788849185683400700,11.374400634765625,-0.521026611328125,0.1937255859375,0.92242431640625
1788849185693369600,11.38436962890625,-0.49151611328125,0.1639556884765625,0.8932342529296875
1788849185703338500,11.39433837890625,-0.443115234375,0.1459808349609375,0.8819427490234375
1788849185713307600,11.4043076171875,-0.43939208984375,0.1441802978515625,0.870574951171875
1788849185723276500,11.414276611328125,-0.482025146484375,0.1384124755859375,0.8615570068359375
1788849185733245700,11.42424560546875,-0.4461212158203125,0.13922119140625,0.9056243896484375
1788849185743214600,11.434214599609374,-0.3837890625,0.1494598388671875,0.9020843505859375
1788849185753183500,11.44418359375,-0.3445892333984375,0.1815032958984375,0.874969482421875
1788849185763152600,11.454152587890626,-0.30218505859375,0.18109130859375,0.8438873291015625
1788849185773121500,11.46412158203125,-0.29364013671875,0.1751251220703125,0.826324462890625
1788849185783090700,11.474090576171875,-0.2879486083984375,0.2099151611328125,0.8686676025390625
1788849185793059600,11.4840595703125,-0.289642333984375,0.2626953125,0.878143310546875
1788849185803028500,11.494028564453124,-0.2994842529296875,0.3068695068359375,0.896026611328125
1788849185812997600,11.50399755859375,-0.2960205078125,0.3016815185546875,0.91583251953125
1788849185822966500,11.513966552734376,-0.293060302734375,0.3132476806640625,0.97064208984375
1788849185832935700,11.523935791015624,-0.2823638916015625,0.337158203125,1.0109100341796875
1788849185842904600,11.533904541015625,-0.23406982421875,0.3174591064453125,0.99615478515625
1788849185852873500,11.54387353515625,-0.1662139892578125,0.32037353515625,1.0027313232421875
1788849185862842600,11.553842529296874,-0.116485595703125,0.3246307373046875,0.997314453125
1788849185872811500,11.5638115234375,-0.0836029052734375,0.319732666015625,0.974365234375
1788849185882780700,11.57378076171875,-0.0339508056640625,0.33544921875,0.980438232421875
1788849185892749600,11.58374951171875,0.0340728759765625,0.345916748046875,0.9969329833984375
1788849185902718500,11.593718505859375,0.068939208984375,0.3312225341796875,0.98663330078125
1788849185912687600,11.6036875,0.0898590087890625,0.3156585693359375,0.9702301025390625
1788849185922656500,11.613656494140624,0.113250732421875,0.3114776611328125,0.9508514404296875
1788849185932625400,11.62362548828125,0.103271484375,0.31097412109375,0.92547607421875
1788849185942594600,11.633594482421875,0.1049346923828125,0.3177490234375,0.9073028564453125
1788849185952563700,11.643563720703124,0.1178741455078125,0.289459228515625,0.8999481201171875
1788849185962532900,11.653532958984375,0.1007537841796875,0.318939208984375,0.9422149658203125
1788849185972501800,11.663501708984375,0.0868682861328125,0.3610687255859375,0.9862823486328125
1788849185982470700,11.673470703125,0.03924560546875,0.3544769287109375,0.97210693359375
1788849185992439800,11.683439697265625,0.0197601318359375,0.3538665771484375,0.9387664794921875
1788849186002408700,11.69340869140625,-0.004364013671875,0.346771240234375,0.9235076904296875
1788849186012377900,11.7033779296875,-0.052459716796875,0.360107421875,0.9279632568359375
1788849186022346800,11.7133466796875,-0.0686798095703125,0.3794708251953125,0.914398193359375
1788849186032315600,11.723315673828125,-0.0732421875,0.3673858642578125,0.912994384765625
1788849186042284800,11.733284912109376,-0.0583953857421875,0.3731231689453125,0.9338226318359375
1788849186052253700,11.743253662109375,-0.0489349365234375,0.3755950927734375,0.948883056640625
1788849186062222600,11.75322265625,-0.0210113525390625,0.3570098876953125,0.9621429443359375
1788849186072191700,11.763191650390626,0.014495849609375,0.3217926025390625,0.952667236328125
1788849186082160600,11.77316064453125,0.015716552734375,0.2938995361328125,0.9384307861328125
1788849186092129800,11.7831298828125,-0.00921630859375,0.277587890625,0.935821533203125
1788849186102098700,11.7930986328125,-0.04052734375,0.2512969970703125,0.9195709228515625
1788849186112067600,11.803067626953125,-0.0703887939453125,0.2528076171875,0.9162750244140625
1788849186122036700,11.81303662109375,-0.0963287353515625,0.254241943359375,0.928009033203125
1788849186132005600,11.823005615234376,-0.130645751953125,0.2381439208984375,0.942230224609375
1788849186141974800,11.832974853515625,-0.176300048828125,0.2365875244140625,0.97296142578125
1788849186151943700,11.842943603515625,-0.230743408203125,0.236785888671875,1.006072998046875
1788849186161912600,11.85291259765625,-0.2672576904296875,0.2240753173828125,1.0531005859375
1788849186171881700,11.8628818359375,-0.3033599853515625,0.2115631103515625,1.0872802734375
1788849186181850600,11.8728505859375,-0.3119354248046875,0.18414306640625,1.079559326171875
1788849186191819800,11.88281982421875,-0.304931640625,0.158203125,1.05133056640625
1788849186201788700,11.89278857421875,-0.2877349853515625,0.1339263916015625,1.00177001953125
1788849186211757600,11.902757568359375,-0.2606201171875,0.13507080078125,0.9713897705078125
1788849186221726700,11.912726806640626,-0.2457122802734375,0.153839111328125,0.95501708984375
1788849186231695600,11.922695556640624,-0.2077789306640625,0.1451568603515625,0.932220458984375
1788849186241664800,11.932664794921875,-0.18853759765625,0.164825439453125,0.953643798828125
1788849186251633700,11.942633544921875,-0.1905670166015625,0.181060791015625,0.9758453369140625
1788849186261602600,11.9526025390625,-0.1968841552734375,0.2070159912109375,1.034515380859375
1788849186271571700,11.96257177734375,-0.1485443115234375,0.1667938232421875,1.02777099609375
1788849186281540600,11.97254052734375,-0.1067047119140625,0.1238555908203125,1.0188751220703125
1788849186291509500,11.982509521484374,-0.074798583984375,0.1177825927734375,1.0294036865234375
1788849186301478700,11.992478759765625,0.0105743408203125,0.1272125244140625,0.9954986572265625
1788849186311447600,12.002447509765625,0.1243743896484375,0.1300048828125,1.078887939453125
1788849186321416700,12.012416748046874,0.298980712890625,0.1911468505859375,1.3245391845703125
1788849186331385600,12.022385498046875,0.5544281005859375,0.2297821044921875,1.49371337890625
1788849186341354500,12.0323544921875,0.723907470703125,0.1859893798828125,1.4705047607421875
1788849186351323600,12.04232373046875,0.7158660888671875,0.118560791015625,1.3073577880859375
1788849186361292500,12.05229248046875,0.7005767822265625,0.0634765625,1.170684814453125
1788849186371261700,12.06226171875,0.6947784423828125,0.02032470703125,1.0409088134765625
1788849186381230600,12.072230712890626,0.70611572265625,0.12530517578125,1.039459228515625
1788849186391199500,12.082199462890625,0.6686248779296875,0.24639892578125,0.96075439453125
1788849186401168600,12.092168701171875,0.5836639404296875,0.2580413818359375,0.902191162109375
1788849186411137500,12.102137451171876,0.4166259765625,0.306671142578125,0.8794708251953125
1788849186421106700,12.112106689453125,0.2222747802734375,0.307708740234375,0.89202880859375
1788849186431075600,12.12207568359375,0.1193389892578125,0.35662841796875,0.9400787353515625
1788849186441044500,12.13204443359375,0.013580322265625,0.393035888671875,0.9443206787109375
1788849186451013600,12.142013671875,-0.1155853271484375,0.34698486328125,0.899322509765625
1788849186460982500,12.151982421875,-0.2724151611328125,0.3069915771484375,0.88922119140625
1788849186470951700,12.16195166015625,-0.3888702392578125,0.2369384765625,0.85595703125
1788849186480920600,12.171920654296875,-0.3988037109375,0.1828460693359375,0.8418121337890625
1788849186490889500,12.181889404296875,-0.399658203125,0.120086669921875,0.8434906005859375
1788849186500858600,12.191858642578126,-0.3908843994140625,0.0643768310546875,0.8423919677734375
1788849186510827500,12.20182763671875,-0.4079742431640625,0.0617828369140625,0.8693389892578125
1788849186520796400,12.21179638671875,-0.4388427734375,0.121978759765625,0.9081268310546875
1788849186530765300,12.221765380859376,-0.4449920654296875,0.142822265625,0.912200927734375
1788849186540734200,12.231734130859374,-0.40692138671875,0.134674072265625,0.889617919921875
1788849186550703400,12.241703369140625,-0.3839263916015625,0.1484222412109375,0.8465423583984375
1788849186560672300,12.25167236328125,-0.4041900634765625,0.170745849609375,0.841033935546875
1788849186570641200,12.26164111328125,-0.3830718994140625,0.1793670654296875,0.893768310546875
1788849186580610300,12.2716103515625,-0.3183746337890625,0.187530517578125,0.91729736328125
1788849186590579200,12.2815791015625,-0.28369140625,0.22186279296875,0.9206390380859375
1788849186600548400,12.29154833984375,-0.263336181640625,0.251617431640625,0.919647216796875
1788849186610516200,12.30151611328125,-0.226318359375,0.3022308349609375,0.965087890625
1788849186620485400,12.3114853515625,-0.1993255615234375,0.3209381103515625,0.982452392578125
1788849186630454300,12.321454345703126,-0.18792724609375,0.333892822265625,1.0008087158203125
1788849186640423400,12.33142333984375,-0.191925048828125,0.3453826904296875,1.0245208740234375
1788849186650392300,12.341392333984375,-0.157623291015625,0.34649658203125,1.0657501220703125
1788849186660361200,12.351361328125,-0.068511962890625,0.3492279052734375,1.0829315185546875
1788849186670330400,12.361330322265625,0.0196380615234375,0.359375,1.0770721435546875
1788849186680299300,12.37129931640625,0.07574462890625,0.3913421630859375,1.083831787109375
1788849186690268200,12.38126806640625,0.11322021484375,0.3896636962890625,1.0524444580078125
1788849186700237300,12.3912373046875,0.122283935546875,0.3502197265625,1.002685546875
1788849186710206200,12.401206298828125,0.110198974609375,0.321746826171875,0.9448699951171875
1788849186720175400,12.41117529296875,0.1172027587890625,0.3092193603515625,0.9293212890625
1788849186730144300,12.421144287109374,0.1233978271484375,0.3099365234375,0.92547607421875
1788849186740113200,12.431113037109375,0.113494873046875,0.3389892578125,0.924835205078125
1788849186750082300,12.441082275390626,0.0973052978515625,0.3473358154296875,0.9132843017578125
1788849186760051200,12.45105126953125,0.0842437744140625,0.3462677001953125,0.9180145263671875
1788849186770020400,12.461020263671875,0.1053466796875,0.3390960693359375,0.915008544921875
1788849186779989200,12.4709892578125,0.1456756591796875,0.342193603515625,0.960235595703125
1788849186789958100,12.480958251953124,0.136505126953125,0.33148193359375,0.9529266357421875
1788849186799927300,12.49092724609375,0.123382568359375,0.321746826171875,0.9261932373046875
1788849186809896200,12.500896240234376,0.10150146484375,0.3183135986328125,0.9312591552734375
1788849186819865300,12.510865234375,0.0920867919921875,0.3216705322265625,0.9281463623046875
1788849186829834200,12.520834228515625,0.085906982421875,0.2966461181640625,0.885986328125
1788849186839803100,12.53080322265625,0.0721588134765625,0.27032470703125,0.879119873046875
1788849186849772300,12.540772216796874,0.0842437744140625,0.2876739501953125,0.9207611083984375
1788849186859741200,12.5507412109375,0.05755615234375,0.3071746826171875,0.9866790771484375
1788849186869710000,12.5607099609375,0.025634765625,0.2911529541015625,1.0196990966796875
1788849186879679200,12.57067919921875,-0.01580810546875,0.2515411376953125,1.04766845703125
1788849186889648000,12.580648193359375,-0.10888671875,0.2250518798828125,1.0799102783203125
1788849186899617300,12.5906171875,-0.2221832275390625,0.2078399658203125,1.0660858154296875
1788849186909586400,12.60058642578125,-0.28466796875,0.1682281494140625,1.0336761474609375
1788849186919555300,12.610555419921875,-0.35589599609375,0.14520263671875,1.0234527587890625
1788849186929524500,12.6205244140625,-0.4563140869140625,0.1243438720703125,1.01458740234375
1788849186939493400,12.630493408203124,-0.5295562744140625,0.122314453125,1.004638671875
1788849186949462500,12.640462646484375,-0.55853271484375,0.146820068359375,0.994140625
1788849186959431400,12.650431396484375,-0.5238494873046875,0.164154052734375,0.969879150390625
1788849186969400300,12.660400390625,-0.453094482421875,0.1976470947265625,0.9337005615234375
1788849186979369500,12.670369384765625,-0.3691253662109375,0.218994140625,0.864105224609375
1788849186989338400,12.68033837890625,-0.27490234375,0.2281951904296875,0.7617034912109375
1788849186999307500,12.6903076171875,-0.1840057373046875,0.2287445068359375,0.6706390380859375
1788849187009276400,12.7002763671875,-0.100616455078125,0.2296905517578125,0.6107177734375
1788849187019245300,12.710245361328125,-0.0429229736328125,0.241973876953125,0.5859832763671875
1788849187029214500,12.72021435546875,-0.0084686279296875,0.2950592041015625,0.6243896484375
1788849187039183400,12.730183349609375,0.0382537841796875,0.3448638916015625,0.6908721923828125
1788849187049152300,12.74015234375,0.0655975341796875,0.359100341796875,0.7386016845703125
1788849187059121400,12.750121337890626,0.115020751953125,0.34844970703125,0.85137939453125
1788849187069090300,12.76009033203125,0.14215087890625,0.3106231689453125,1.00830078125
1788849187079059500,12.7700595703125,0.1480865478515625,0.2556304931640625,1.142913818359375
1788849187089028400,12.7800283203125,0.0871124267578125,0.2358245849609375,1.2600250244140625
1788849187098997200,12.789997314453124,0.002655029296875,0.215057373046875,1.360748291015625
1788849187108966400,12.79996630859375,-0.02569580078125,0.16925048828125,1.3265838623046875
1788849187118935300,12.809935302734376,0.0774078369140625,0.207000732421875,1.26556396484375
1788849187128904400,12.819904541015624,0.25213623046875,0.300201416015625,1.4073638916015625
1788849187138873300,12.829873291015625,0.567535400390625,0.405364990234375,1.6202239990234375
1788849187148842200,12.83984228515625,0.8002166748046875,0.3927154541015625,1.5369415283203125
1788849187158811400,12.849811279296874,0.819061279296875,0.3173370361328125,1.379150390625
1788849187168780300,12.8597802734375,0.67877197265625,0.23876953125,1.1446380615234375
1788849187178749400,12.86974951171875,0.596954345703125,0.24078369140625,0.993255615234375
1788849187188718300,12.87971826171875,0.630218505859375,0.3007659912109375,0.96368408203125
1788849187198686500,12.8896865234375,0.5980682373046875,0.34765625,0.91595458984375
1788849187208655400,12.8996552734375,0.5330657958984375,0.3705902099609375,0.8697509765625
1788849187218624300,12.909624267578126,0.487030029296875,0.3878021240234375,0.819610595703125
1788849187228593400,12.919593505859375,0.439208984375,0.436492919921875,0.802581787109375
1788849187238562300,12.929562255859375,0.324676513671875,0.498687744140625,0.8273468017578125
1788849187248531500,12.939531494140626,0.197113037109375,0.5101776123046875,0.8553314208984375
1788849187258500400,12.949500244140625,0.1180419921875,0.498382568359375,0.8572540283203125
1788849187268469200,12.95946923828125,0.076141357421875,0.4300537109375,0.8215484619140625
1788849187278438400,12.9694384765625,0.008636474609375,0.3590545654296875,0.7639617919921875
1788849187288407300,12.9794072265625,-0.107696533203125,0.3359222412109375,0.756805419921875
