time,seconds_elapsed,z,y,x
1788849174365983500,0.0569833984375,0.1827940195798874,-0.20658546686172485,-0.04903906211256981
1788849174375952400,0.066952392578125,0.12654991447925568,-0.01640087552368641,-0.03502950444817543
1788849174385922300,0.07692236328125,0.04585592821240425,0.10494907200336456,-0.014417611062526703
1788849174395891500,0.086891357421875,-0.04411150887608528,0.20499897003173828,0.0575825460255146
1788849174405860400,0.0968603515625,-0.09891949594020844,0.30067044496536255,0.1603507697582245
1788849174415829500,0.10682958984375,-0.09595353156328201,0.3217930495738983,0.24385125935077667
1788849174425798400,0.11679833984375,-0.03697908669710159,0.22255566716194153,0.287130743265152
1788849174435767300,0.126767333984375,0.004778213333338499,0.08842609822750092,0.2904549241065979
1788849174445736400,0.136736328125,0.011555599980056286,0.03515136241912842,0.2756020724773407
1788849174455706400,0.146706298828125,0.0031650448217988014,0.09102608263492584,0.2471129149198532
1788849174465675300,0.15667529296875,-0.01940576545894146,0.16604137420654297,0.19785653054714203
1788849174475644400,0.16664453125,-0.05165291577577591,0.17514538764953613,0.07990938425064087
1788849174485613300,0.17661328125,-0.09550540149211884,0.09841600060462952,-0.098469078540802
1788849174495582500,0.18658251953125,-0.02333080768585205,-0.08826013654470444,-0.26815319061279297
1788849174505551600,0.196551513671875,-0.19345204532146454,-0.00801309384405613,-0.4624191224575043
1788849174515520500,0.2065205078125,-0.2275644689798355,0.02111656218767166,-0.47727105021476746
1788849174525490700,0.21649072265625,-0.2638334631919861,0.03603283315896988,-0.438631147146225
1788849174535459800,0.2264599609375,-0.28082576394081116,-0.05890273675322533,-0.4306400716304779
1788849174545428700,0.2364287109375,-0.23766060173511505,-0.11968172341585159,-0.39203816652297974
1788849174555397600,0.246397705078125,-0.1893727034330368,-0.10583487898111343,-0.3515911400318146
1788849174565366800,0.25636669921875,-0.16279982030391693,-0.12149467319250107,-0.3448050916194916
1788849174575335700,0.266335693359375,-0.14107295870780945,-0.19527143239974976,-0.39182373881340027
1788849174585304800,0.276304931640625,-0.10471682250499725,-0.29383087158203125,-0.47617316246032715
1788849174595274800,0.286274658203125,-0.07100918889045715,-0.34324368834495544,-0.5645938515663147
1788849174605243600,0.29624365234375,-0.04640907421708107,-0.31425610184669495,-0.615202009677887
1788849174615212800,0.306212890625,-0.02022860199213028,-0.26942816376686096,-0.6005788445472717
1788849174625181700,0.316181640625,0.01948624476790428,-0.25940749049186707,-0.4923063814640045
1788849174635150600,0.326150634765625,0.05750686675310135,-0.19303540885448456,-0.2750941812992096
1788849174645119700,0.33611962890625,0.05898004397749901,-0.10681251436471939,-0.008712297305464745
1788849174655088600,0.346088623046875,0.027844496071338654,-0.07603489607572556,0.2147548794746399
1788849174665058600,0.35605859375,-0.007340909913182259,-0.1235869899392128,0.3581777811050415
1788849174675027700,0.36602783203125,-0.03426679968833923,-0.19300974905490875,0.44152113795280457
1788849174684996600,0.37599658203125,-0.07181815803050995,-0.2669837474822998,0.4517870545387268
1788849174694965500,0.385965576171875,-0.12041738629341125,-0.3128929138183594,0.4107099175453186
1788849174704934700,0.3959345703125,-0.1605149507522583,-0.2650061547756195,0.36781787872314453
1788849174714903600,0.405903564453125,-0.1606539785861969,-0.15932314097881317,0.3486553728580475
1788849174724872700,0.415872802734375,-0.07199578732252121,-0.018445948138833046,0.38704752922058105
1788849174734842600,0.425842529296875,0.04528236761689186,0.12547926604747772,0.4479638934135437
1788849174744811500,0.4358115234375,0.16032658517360687,0.12490509450435638,0.4774528443813324
1788849174754780400,0.445780517578125,0.2666304111480713,0.04052203521132469,0.49348562955856323
1788849174764749600,0.45574951171875,0.2985364496707916,-0.027374684810638428,0.49499770998954773
1788849174774718700,0.46571875,0.218415766954422,0.035826388746500015,0.5049488544464111
1788849174784687900,0.47568798828125,0.07898091524839401,0.178048238158226,0.5328593254089355
1788849174794656800,0.48565673828125,-0.05247238278388977,0.36691197752952576,0.5542568564414978
1788849174804626700,0.495626708984375,-0.10946211218833923,0.48522311449050903,0.5138732194900513
1788849174814595600,0.505595703125,-0.1282520443201065,0.47447139024734497,0.3850167393684387
1788849174824564700,0.515564697265625,-0.12673954665660858,0.3897891640663147,0.18035708367824554
1788849174834533600,0.52553369140625,-0.11803420633077621,0.307506799697876,-0.019361354410648346
1788849174844502800,0.535502685546875,-0.14313273131847382,0.391757607460022,-0.1426265835762024
1788849174854471700,0.5454716796875,-0.1507139503955841,0.5187981724739075,-0.2061653435230255
1788849174864441600,0.555441650390625,-0.14880380034446716,0.555564820766449,-0.24314549565315247
1788849174874410800,0.56541064453125,-0.14775823056697845,0.492942214012146,-0.2547139823436737
1788849174884379600,0.575379638671875,-0.13915173709392548,0.34569135308265686,-0.19720473885536194
1788849174894348500,0.5853486328125,-0.1205439642071724,0.11884278804063797,-0.09202106297016144
1788849174904317700,0.595317626953125,-0.12992171943187714,-0.14200666546821594,0.025140220299363136
1788849174914286600,0.60528662109375,-0.17615312337875366,-0.4296874701976776,0.1415397971868515
1788849174924255500,0.61525537109375,-0.26341381669044495,-0.6562817692756653,0.2146236002445221
1788849174934225700,0.6252255859375,-0.3870885968208313,-0.7859324216842651,0.24190235137939453
1788849174944194600,0.635194580078125,-0.5221965312957764,-0.8599845170974731,0.22000819444656372
1788849174954163500,0.64516357421875,-0.6128888726234436,-0.846923828125,0.1677180975675583
1788849174964132600,0.655132568359375,-0.6381620764732361,-0.7866780161857605,0.09266862273216248
1788849174974101500,0.6651015625,-0.603802502155304,-0.7453303337097168,0.001691584475338459
1788849174984070700,0.675070556640625,-0.5473428964614868,-0.6923125386238098,-0.09826452285051346
1788849174994039600,0.68503955078125,-0.5052481293678284,-0.6489288806915283,-0.19606086611747742
1788849175004009700,0.695009765625,-0.4840068519115448,-0.6544046401977539,-0.2544427812099457
1788849175013978600,0.704978515625,-0.4546718895435333,-0.750649631023407,-0.2544238865375519
1788849175023947800,0.71494775390625,-0.4331940710544586,-0.8887211084365845,-0.2086324542760849
1788849175033916700,0.724916748046875,-0.44846197962760925,-1.025550365447998,-0.14319859445095062
1788849175043885800,0.7348857421875,-0.5093391537666321,-1.143475890159607,-0.09227770566940308
1788849175053854700,0.744854736328125,-0.5814916491508484,-1.2225240468978882,-0.07637543976306915
1788849175063823600,0.75482373046875,-0.5832037329673767,-1.1174689531326294,-0.0722607895731926
1788849175073793500,0.76479345703125,-0.48328834772109985,-0.7365719676017761,-0.08874548971652985
1788849175083762700,0.7747626953125,-0.26186424493789673,-0.36404284834861755,-0.16237525641918182
1788849175093731600,0.784731689453125,0.07758785039186478,-0.14332646131515503,-0.29010844230651855
1788849175103700700,0.79470068359375,0.4653971195220947,-0.14062842726707458,-0.46262115240097046
1788849175113669600,0.804669677734375,0.6661555171012878,-0.4010528028011322,-0.6770873665809631
1788849175123638500,0.814638427734375,0.7135670781135559,-0.5242348909378052,-0.8197097182273865
1788849175133608700,0.824608642578125,0.7204915881156921,-0.40126603841781616,-0.8220351934432983
1788849175143577600,0.83457763671875,0.7355253100395203,-0.1830923706293106,-0.7172232866287231
1788849175153546500,0.84454638671875,0.7309780120849609,0.061848949640989304,-0.5302837491035461
1788849175163515600,0.854515625,0.6731084585189819,0.28491586446762085,-0.2853306233882904
1788849175173484500,0.864484619140625,0.5666331648826599,0.43503478169441223,-0.03683185204863548
1788849175183453400,0.874453369140625,0.4455488622188568,0.49354156851768494,0.15504316985607147
1788849175193422600,0.884422607421875,0.36074313521385193,0.4525352716445923,0.28823772072792053
1788849175203392800,0.894392822265625,0.31010544300079346,0.33202284574508667,0.3644086420536041
1788849175213361700,0.904361572265625,0.29653796553611755,0.1518264263868332,0.3949127495288849
1788849175223330800,0.914330810546875,0.3280823230743408,-0.047790516167879105,0.3942152261734009
1788849175233299700,0.9242998046875,0.38309869170188904,-0.2045268714427948,0.36961719393730164
1788849175243268600,0.9342685546875,0.4313073456287384,-0.2606672942638397,0.31280696392059326
1788849175253237800,0.94423779296875,0.4579099416732788,-0.2025802731513977,0.2241535186767578
1788849175263206700,0.95420654296875,0.4564359486103058,-0.09686846286058426,0.11416332423686981
1788849175273176600,0.964176513671875,0.4168725609779358,0.03930428624153137,-0.006405167281627655
1788849175283145700,0.974145751953125,0.351171612739563,0.1541309654712677,-0.1398940086364746
1788849175293114600,0.984114501953125,0.27397480607032776,0.2402685135602951,-0.2791728079319
1788849175303083800,0.994083740234375,0.1879292130470276,0.27955448627471924,-0.4060917794704437
1788849175313052700,1.004052734375,0.09863582253456116,0.22902552783489227,-0.5232645273208618
1788849175323021600,1.014021484375,0.03682861104607582,0.09012192487716675,-0.6300767660140991
1788849175332991500,1.023991455078125,0.02346327342092991,-0.11240268498659134,-0.7183770537376404
1788849175342960600,1.033960693359375,0.03520301729440689,-0.3128751516342163,-0.7827334403991699
1788849175352929500,1.043929443359375,0.06363359838724136,-0.43161699175834656,-0.7982516884803772
1788849175362898700,1.053898681640625,0.09534233808517456,-0.4043174684047699,-0.752528965473175
1788849175372867600,1.06386767578125,0.11116577684879303,-0.24952924251556396,-0.6601468324661255
1788849175382836500,1.07383642578125,0.09949273616075516,-0.030670201405882835,-0.5387831330299377
1788849175392805600,1.0838056640625,0.07425183057785034,0.15642911195755005,-0.43129581212997437
1788849175402775600,1.093775634765625,0.06574402004480362,0.2634216248989105,-0.34757742285728455
1788849175412744700,1.10374462890625,0.07443444430828094,0.31701961159706116,-0.30592080950737
1788849175422713900,1.1137138671875,0.11803822964429855,0.28236252069473267,-0.30103611946105957
1788849175432682800,1.123682861328125,0.19168049097061157,0.21636217832565308,-0.330066978931427
1788849175442651600,1.133651611328125,0.29387927055358887,0.13852617144584656,-0.35480737686157227
1788849175452620800,1.143620849609375,0.4098554253578186,0.04099668562412262,-0.3575800061225891
1788849175462589700,1.153589599609375,0.5232114195823669,-0.100091852247715,-0.3308837115764618
1788849175472559600,1.1635595703125,0.6505390405654907,-0.210459902882576,-0.24675871431827545
1788849175482528800,1.17352880859375,0.7703588604927063,-0.2232069969177246,-0.12808452546596527
1788849175492497700,1.18349755859375,0.8731813430786133,-0.14300137758255005,0.0012817089445888996
1788849175502466000,1.193466064453125,0.9952375292778015,0.030040491372346878,0.1213802769780159
1788849175512435000,1.20343505859375,1.1528269052505493,0.23296163976192474,0.22630563378334045
1788849175522403800,1.21340380859375,1.3151192665100098,0.3954660892486572,0.3059591054916382
1788849175532374000,1.2233740234375,1.4538215398788452,0.5429165363311768,0.3719341456890106
1788849175542343200,1.23334326171875,1.5960787534713745,0.7534392476081848,0.44961774349212646
1788849175552312000,1.24331201171875,1.7659894227981567,0.9344433546066284,0.542458713054657
1788849175562281200,1.25328125,1.9512197971343994,1.0644376277923584,0.6002901792526245
1788849175572250000,1.26325,2.1116623878479004,1.1742733716964722,0.5581269860267639
1788849175582219000,1.273218994140625,2.2149736881256104,1.3496699333190918,0.36343181133270264
1788849175592188200,1.283188232421875,2.296674966812134,1.6069706678390503,0.026739001274108887
1788849175602158000,1.293157958984375,2.3675055503845215,1.8624484539031982,-0.4676085114479065
1788849175612127000,1.303126953125,2.405024528503418,1.9999778270721436,-1.0503385066986084
1788849175622096100,1.31309619140625,2.390911340713501,2.1283323764801025,-1.6181552410125732
1788849175632065000,1.32306494140625,2.3822991847991943,2.27769136428833,-2.076920509338379
1788849175642034200,1.3330341796875,2.4326765537261963,2.4113879203796387,-2.3942534923553467
1788849175652003000,1.343003173828125,2.503047466278076,2.4905083179473877,-2.596097946166992
1788849175661972000,1.352971923828125,2.5277209281921387,2.46397066116333,-2.6933765411376953
1788849175671942000,1.36294189453125,2.4725751876831055,2.3905625343322754,-2.7628769874572754
1788849175681911000,1.3729111328125,2.332672357559204,2.278043031692505,-2.8897645473480225
1788849175691880000,1.3828798828125,2.153987169265747,2.200011968612671,-3.0972166061401367
1788849175701849000,1.39284912109375,1.968647837638855,2.1372921466827393,-3.307123899459839
1788849175711818000,1.40281787109375,1.8148854970932007,2.1808905601501465,-3.440624475479126
1788849175721787000,1.412786865234375,1.7880030870437622,2.2457668781280518,-3.449836015701294
1788849175731757000,1.422757080078125,1.8379777669906616,2.200125217437744,-3.2920796871185303
1788849175741726200,1.432726318359375,1.9097403287887573,2.1441922187805176,-3.038926362991333
1788849175751695000,1.442695068359375,1.5829083919525146,3.5908470153808594,-2.2123372554779053
1788849175761664300,1.452664306640625,-0.6011189818382263,6.193772792816162,-0.46971455216407776
1788849175771633200,1.462633056640625,-0.5985346436500549,5.029209613800049,-0.6250458359718323
1788849175781602000,1.47260205078125,-0.6285825967788696,3.4037106037139893,-0.4887032210826874
1788849175791571200,1.4825712890625,-0.9488130807876587,2.391601085662842,-0.5930418968200684
1788849175801541000,1.492541015625,-1.2432609796524048,1.6199100017547607,-0.8232779502868652
1788849175811510000,1.502510009765625,-1.2700470685958862,0.5411922335624695,-1.0546225309371948
1788849175821479200,1.512479248046875,-0.9774141907691956,-0.5026965737342834,-1.3493256568908691
1788849175831448000,1.522447998046875,-0.5533904433250427,-0.8968159556388855,-1.522528886795044
1788849175841417000,1.5324169921875,-0.47658783197402954,-0.6969661116600037,-1.5413424968719482
1788849175851386000,1.54238623046875,-0.48625990748405457,-0.7456569671630859,-1.5086618661880493
1788849175861355000,1.55235498046875,-0.4827495515346527,-1.0055930614471436,-1.1681338548660278
1788849175871325000,1.562324951171875,-0.48031410574913025,-0.7169029712677002,-0.8946102261543274
1788849175881294000,1.572294189453125,-0.2517392039299011,-0.9711745977401733,-0.7964335083961487
1788849175891263000,1.582262939453125,0.03723081573843956,-1.281921625137329,-0.7870525121688843
1788849175901232000,1.592232177734375,0.23510369658470154,-1.4914714097976685,-0.7625517249107361
1788849175911201000,1.602200927734375,0.3345184326171875,-1.6520390510559082,-0.6686569452285767
1788849175921170000,1.612169921875,0.42665818333625793,-1.8140108585357666,-0.5560596585273743
1788849175931139800,1.622139892578125,0.459789514541626,-1.7803471088409424,-0.5184406638145447
1788849175941109200,1.632109130859375,0.37711942195892334,-1.5985627174377441,-0.5786913633346558
1788849175951078100,1.642078125,0.2163851261138916,-1.3571943044662476,-0.7508698105812073
1788849175961047300,1.65204736328125,0.08476141095161438,-1.3165901899337769,-0.9158425331115723
1788849175971016200,1.66201611328125,0.01923166587948799,-1.2665443420410156,-0.9821743965148926
1788849175980985000,1.671985107421875,0.10294952243566513,-1.1518324613571167,-0.8936062455177307
1788849175990954200,1.681954345703125,0.32295405864715576,-0.9850870966911316,-0.5662480592727661
1788849176000924200,1.691924072265625,0.570249617099762,-0.7750450968742371,-0.02379485033452511
1788849176010893000,1.70189306640625,0.7609175443649292,-0.5720999836921692,0.6289187669754028
1788849176020862200,1.7118623046875,0.8804206848144531,-0.341417521238327,1.2303187847137451
1788849176030831000,1.7218310546875,0.9619312882423401,-0.09392276406288147,1.7042378187179565
1788849176040800000,1.731800048828125,1.0361541509628296,0.1593237966299057,2.049720525741577
1788849176050769200,1.74176904296875,1.1246638298034668,0.32503873109817505,2.212933301925659
1788849176060738000,1.751738037109375,1.2570990324020386,0.4874339997768402,2.187889814376831
1788849176070708000,1.7617080078125,1.3731191158294678,0.5968875288963318,1.9996079206466675
1788849176080677000,1.771677001953125,1.398362398147583,0.6452534198760986,1.7363076210021973
1788849176090646000,1.78164599609375,1.306825876235962,0.5946730375289917,1.4722832441329956
1788849176100615000,1.791614990234375,1.1630269289016724,0.488598495721817,1.2542457580566406
1788849176110584000,1.801583984375,1.0276166200637817,0.371288925409317,1.1056249141693115
1788849176120553000,1.811552978515625,0.9519547820091248,0.16415315866470337,1.0283674001693726
1788849176130523000,1.82152294921875,0.9770939350128174,-0.11442387849092484,0.9989697933197021
1788849176140492000,1.831491943359375,1.0093932151794434,-0.49185898900032043,0.9375174045562744
1788849176150461000,1.8414609375,0.9286980628967285,-0.8919909596443176,0.834811270236969
1788849176160430000,1.85143017578125,0.6639236211776733,-1.2799214124679565,0.6921594142913818
1788849176170399000,1.86139892578125,0.30013900995254517,-1.4640520811080933,0.5667325258255005
1788849176180368000,1.871367919921875,0.0366244837641716,-1.3469414710998535,0.6284022331237793
1788849176190337000,1.8813369140625,-0.2330506592988968,-1.109591007232666,0.7023289203643799
1788849176200307200,1.89130712890625,-0.4633561968803406,-0.6713746786117554,0.8195337653160095
1788849176210276000,1.901276123046875,-0.5992144346237183,-0.3568985164165497,0.9707469940185547
1788849176220245200,1.911245361328125,-0.6220111846923828,-0.04576164111495018,1.154051661491394
1788849176230214100,1.921214111328125,-0.5727453827857971,0.23840324580669403,1.3524249792099
1788849176240183000,1.93118310546875,-0.49578386545181274,0.37010815739631653,1.4932914972305298
1788849176250152200,1.941152099609375,-0.4441198706626892,0.3648063540458679,1.4968252182006836
1788849176260122000,1.9511220703125,-0.46711626648902893,0.3572594225406647,1.42151939868927
1788849176270091000,1.961091064453125,-0.5536495447158813,0.4421013295650482,1.3396708965301514
1788849176280060200,1.97106005859375,-0.683953583240509,0.5740262269973755,1.252103567123413
1788849176290029000,1.981029052734375,-0.9135241508483887,0.19978655874729156,1.2124017477035522
1788849176299998000,1.990998046875,-1.1699098348617554,0.15870711207389832,1.178234338760376
1788849176309967000,2.000967041015625,-1.4209660291671753,0.42240798473358154,1.1363611221313477
1788849176319936000,2.01093603515625,-1.6114706993103027,0.5812955498695374,1.1193722486495972
1788849176329906000,2.020906005859375,-1.707687258720398,0.5835051536560059,1.1196750402450562
1788849176339875000,2.030875,-1.7113515138626099,0.4448067545890808,1.0751463174819946
1788849176349844000,2.040843994140625,-1.6156052350997925,0.3930487632751465,0.9899704456329346
1788849176359812900,2.050812744140625,-1.4276198148727417,0.5042452216148376,0.8782435655593872
1788849176369782000,2.060781982421875,-1.161965250968933,0.7809646725654602,0.7716510891914368
1788849176379751000,2.0707509765625,-0.8859577178955078,1.121200442314148,0.6877499222755432
1788849176389720000,2.080719970703125,-0.6427479982376099,1.3343896865844727,0.6134426593780518
1788849176399690200,2.090690185546875,-0.46646782755851746,1.4130663871765137,0.56522136926651
1788849176409659100,2.1006591796875,-0.2915183901786804,1.212437629699707,0.6021002531051636
1788849176419628000,2.1106279296875,-0.17584550380706787,1.0588103532791138,0.6679255962371826
1788849176429597200,2.12059716796875,-0.13378487527370453,1.1491197347640991,0.6678670048713684
1788849176439566000,2.130566162109375,-0.15581491589546204,0.9611903429031372,0.539777934551239
1788849176449535200,2.14053515625,-0.2136196345090866,0.672736406326294,0.3271633982658386
1788849176459505200,2.150505126953125,-0.3045954704284668,0.434621661901474,0.09595578163862228
1788849176469474000,2.16047412109375,-0.4329478442668915,0.33863094449043274,-0.12211477011442184
1788849176479443200,2.170443115234375,-0.504375159740448,0.2682734429836273,-0.32899871468544006
1788849176489412000,2.180412109375,-0.4918399453163147,0.165880486369133,-0.5203841328620911
1788849176499381200,2.19038134765625,-0.42614537477493286,0.12357557564973831,-0.6226713061332703
1788849176509350400,2.200350341796875,-0.32665660977363586,0.07915324717760086,-0.6168365478515625
1788849176519319300,2.2103193359375,-0.21571622788906097,0.0013025002554059029,-0.5752708315849304
1788849176529289200,2.220289306640625,-0.10926195979118347,-0.05796588212251663,-0.5670464634895325
1788849176539258400,2.23025830078125,-0.006568881217390299,-0.10569549351930618,-0.582605242729187
1788849176549227300,2.240227294921875,0.07514089345932007,-0.2122666835784912,-0.5776104927062988
1788849176559196200,2.250196044921875,0.10373431444168091,-0.320266991853714,-0.5479240417480469
1788849176569165300,2.260165283203125,0.09715045243501663,-0.3870726525783539,-0.5165112614631653
1788849176579134200,2.27013427734375,0.08505609631538391,-0.41150474548339844,-0.4814644455909729
1788849176589104400,2.2801044921875,0.07670149207115173,-0.4047059714794159,-0.4478098154067993
1788849176599073500,2.290073486328125,0.08248401433229446,-0.33067062497138977,-0.41225048899650574
1788849176609042400,2.30004248046875,0.11989237368106842,-0.17695961892604828,-0.38012370467185974
1788849176619011300,2.31001123046875,0.20058664679527283,0.009670582599937916,-0.34232234954833984
1788849176628980500,2.31998046875,0.33808937668800354,0.015840061008930206,-0.3144923150539398
1788849176638949400,2.329949462890625,0.4490109086036682,-0.14201222360134125,-0.34762948751449585
1788849176648918300,2.339918212890625,0.4879138171672821,-0.2854902744293213,-0.4255985915660858
1788849176658888400,2.349888427734375,0.46085983514785767,-0.3341740369796753,-0.500141441822052
1788849176668857300,2.359857421875,0.3995205760002136,-0.33426326513290405,-0.5403916835784912
1788849176678826200,2.369826171875,0.34206289052963257,-0.3309215307235718,-0.5445550084114075
1788849176688795400,2.37979541015625,0.30901283025741577,-0.2951405942440033,-0.5278756618499756
1788849176698764300,2.389764404296875,0.31422922015190125,-0.17026086151599884,-0.5049915313720703
1788849176708733400,2.3997333984375,0.35241439938545227,0.037342410534620285,-0.4863840639591217
1788849176718702300,2.409702392578125,0.42223143577575684,0.2851390838623047,-0.47889289259910583
1788849176728672300,2.41967236328125,0.5133352875709534,0.5173062682151794,-0.48302024602890015
1788849176738641200,2.42964111328125,0.6148830652236938,0.6900538206100464,-0.48909273743629456
1788849176748610300,2.4396103515625,0.7367895245552063,0.8279533386230469,-0.47758573293685913
1788849176758579200,2.4495791015625,0.8668985962867737,0.9113216996192932,-0.46333086490631104
1788849176768548400,2.45954833984375,0.9450770020484924,0.7875565886497498,-0.45222097635269165
1788849176778517200,2.469517333984375,0.8907368183135986,0.5365698337554932,-0.46518322825431824
1788849176788487200,2.479487060546875,0.7217922210693359,0.27912577986717224,-0.507000207901001
1788849176798456300,2.489456298828125,0.5268024802207947,0.04213868826627731,-0.5568118691444397
1788849176808425500,2.499425537109375,0.38031694293022156,-0.1672092080116272,-0.6181239485740662
1788849176818394400,2.509394287109375,0.2884979546070099,-0.2814434766769409,-0.6573297381401062
1788849176828363500,2.519363525390625,0.24280209839344025,-0.30082038044929504,-0.6391291618347168
1788849176838332400,2.52933251953125,0.23647059500217438,-0.26418429613113403,-0.5817883014678955
1788849176848301300,2.53930126953125,0.24257536232471466,-0.17301151156425476,-0.4760248363018036
1788849176858271500,2.549271484375,0.23463422060012817,-0.02287427894771099,-0.3167944550514221
1788849176868240400,2.559240478515625,0.20456233620643616,0.1934303343296051,-0.1247754916548729
1788849176878209300,2.569209228515625,0.1595272421836853,0.4732363820075989,0.06844028830528259
1788849176888178400,2.579178466796875,0.11865650117397308,0.757608950138092,0.24163870513439178
1788849176898147300,2.589147216796875,0.11265227198600769,0.9624344706535339,0.3666492998600006
1788849176908116200,2.5991162109375,0.1520092636346817,1.0459541082382202,0.42631930112838745
1788849176918085400,2.60908544921875,0.21188955008983612,0.9498321413993835,0.4061744213104248
1788849176928055300,2.61905517578125,0.24067272245883942,0.6930517554283142,0.3108404576778412
1788849176938024200,2.629024169921875,0.21365953981876373,0.38759857416152954,0.18283744156360626
1788849176947993300,2.638993408203125,0.16284030675888062,0.09667352586984634,0.04883436858654022
1788849176957962200,2.648962158203125,0.10735733807086945,-0.14714081585407257,-0.07044024020433426
1788849176967931400,2.658931396484375,0.07454825937747955,-0.2969636023044586,-0.17404918372631073
1788849176977900300,2.668900390625,0.07626375555992126,-0.3420630395412445,-0.25621920824050903
1788849176987869200,2.678869140625,0.08970127254724503,-0.27502569556236267,-0.3174916207790375
1788849176997839000,2.688839111328125,0.09946941584348679,-0.10746791958808899,-0.34564638137817383
1788849177007808300,2.698808349609375,0.10349690914154053,0.12141399830579758,-0.3131265342235565
1788849177017777200,2.708777099609375,0.10954076796770096,0.3584999442100525,-0.21450141072273254
1788849177027746300,2.718746337890625,0.12801165878772736,0.5067740678787231,-0.06984648108482361
1788849177037715200,2.728715087890625,0.13639219105243683,0.4689282178878784,0.08403029292821884
1788849177047684000,2.73868408203125,0.10827799141407013,0.30195656418800354,0.21032537519931793
1788849177057654300,2.748654296875,0.04042203351855278,0.09016167372465134,0.2788136303424835
1788849177067623400,2.75862353515625,-0.0441218763589859,-0.08754733949899673,0.28338390588760376
1788849177077592300,2.76859228515625,-0.11586064845323563,-0.19155263900756836,0.2445046454668045
1788849177087561500,2.7785615234375,-0.15975700318813324,-0.19879883527755737,0.2124393880367279
1788849177097530400,2.7885302734375,-0.18584835529327393,-0.1428043395280838,0.23014847934246063
1788849177107499300,2.798499267578125,-0.21775302290916443,-0.062318820506334305,0.31915584206581116
1788849177117468400,2.808468505859375,-0.27274927496910095,0.05273647606372833,0.4575901925563812
1788849177127438300,2.818438232421875,-0.35902026295661926,0.23520855605602264,0.6337359547615051
1788849177137407200,2.8284072265625,-0.4616032540798187,0.4649561643600464,0.8384201526641846
1788849177147376400,2.83837646484375,-0.5654705762863159,0.6331542134284973,1.0612009763717651
1788849177157345300,2.84834521484375,-0.6490547060966492,0.7516523003578186,1.2659339904785156
1788849177167314200,2.858314208984375,-0.7051552534103394,0.8855317831039429,1.3961609601974487
1788849177177283300,2.868283447265625,-0.7593634128570557,1.049267053604126,1.4372189044952393
1788849177187252200,2.878252197265625,-0.8509892225265503,1.222914695739746,1.3838739395141602
1788849177197222100,2.88822216796875,-0.9745233654975891,1.403008222579956,1.2563506364822388
1788849177207191300,2.89819140625,-1.0975403785705566,1.5154091119766235,1.1065118312835693
1788849177217160200,2.90816015625,-1.259642481803894,1.534546971321106,0.9643075466156006
1788849177227129300,2.91812939453125,-1.4743361473083496,1.5557273626327515,0.8945564031600952
1788849177237098200,2.92809814453125,-1.7093830108642578,1.5295510292053223,0.9238576889038086
1788849177247067100,2.938067138671875,-1.9348243474960327,1.393372654914856,0.9724798202514648
1788849177257036300,2.948036376953125,-2.129060983657837,1.1883187294006348,0.9759260416030884
1788849177267006500,2.95800634765625,-2.37870192527771,1.0701367855072021,0.8462335467338562
1788849177276975400,2.967975341796875,-2.647714853286743,0.9025958776473999,0.6271592974662781
1788849177286944500,2.977944580078125,-2.8481438159942627,0.8022210597991943,0.31438466906547546
1788849177296913400,2.987913330078125,-2.9129295349121094,0.6920697689056396,-0.1027550995349884
1788849177306882300,2.99788232421875,-2.861746311187744,0.4954688549041748,-0.5503368973731995
1788849177316851500,3.0078515625,-2.8365869522094727,0.3613088130950928,-0.9988811016082764
1788849177326820400,3.0178203125,-2.868842363357544,0.22420263290405273,-1.3154995441436768
1788849177336790300,3.027790283203125,-2.9203202724456787,0.1503550410270691,-1.4556294679641724
1788849177346759400,3.037759521484375,-2.9192850589752197,0.1918659210205078,-1.4620087146759033
1788849177356728300,3.047728271484375,-2.8247175216674805,0.31772106885910034,-1.3839505910873413
1788849177366697200,3.057697265625,-2.587233066558838,0.4560041129589081,-1.278861165046692
1788849177376666400,3.067666259765625,-2.258058547973633,0.6909258365631104,-1.2088347673416138
1788849177386635300,3.07763525390625,-2.0202486515045166,1.0406215190887451,-1.2130292654037476
1788849177396604400,3.0876044921875,-1.9514436721801758,1.3671566247940063,-1.311614990234375
1788849177406574300,3.09757421875,-1.9040601253509521,1.401006817817688,-1.541296362876892
1788849177416543200,3.107543212890625,-1.7370259761810303,1.274099349975586,-1.7786916494369507
1788849177426512100,3.11751220703125,-1.5260040760040283,0.9914170503616333,-1.824762225151062
1788849177436481300,3.127481201171875,-1.4690619707107544,0.6749400496482849,-1.6272528171539307
1788849177446450200,3.1374501953125,-1.4850305318832397,0.5095335245132446,-1.3360034227371216
1788849177456419300,3.14741943359375,-1.4659494161605835,0.46149981021881104,-1.0064376592636108
1788849177466388200,3.15738818359375,-1.4584077596664429,0.42475616931915283,-0.7710093855857849
1788849177476358400,3.1673583984375,-1.5006709098815918,0.35748642683029175,-0.8105633854866028
1788849177486327300,3.177327392578125,-1.5256414413452148,0.2180989682674408,-1.2154552936553955
1788849177496296400,3.18729638671875,-1.5138897895812988,0.1613074541091919,-1.8215320110321045
1788849177506266000,3.19726611328125,-1.42989981174469,0.031023750081658363,-2.272733211517334
1788849177516235000,3.207235107421875,-1.2862739562988281,-0.017935844138264656,-2.5224950313568115
1788849177526204200,3.2172041015625,-1.0977637767791748,0.017794722691178322,-2.615588665008545
1788849177536174300,3.22717431640625,-0.8837208151817322,0.06881897151470184,-2.5183112621307373
1788849177546143200,3.237143310546875,-0.6505203247070312,0.13199155032634735,-2.2003495693206787
1788849177556112400,3.2471123046875,-0.3155129551887512,0.38493648171424866,-1.5385686159133911
1788849177566081300,3.257081298828125,0.012025490403175354,0.7264072895050049,-0.6979982256889343
1788849177576050200,3.26705029296875,0.19705547392368317,1.1262766122817993,0.004044358618557453
1788849177586019300,3.277019287109375,0.26743564009666443,1.2008333206176758,0.2955891191959381
1788849177595988200,3.28698828125,0.3396882712841034,0.975513756275177,0.30109885334968567
1788849177605958100,3.296958251953125,0.41942253708839417,0.7082935571670532,0.2847784757614136
1788849177615927300,3.30692724609375,0.5398115515708923,0.5621212720870972,0.34159746766090393
1788849177625896200,3.316896240234375,0.7182526588439941,0.9040914177894592,0.47252461314201355
1788849177635865000,3.326864990234375,0.8919219970703125,1.3798335790634155,0.7129461169242859
1788849177645834200,3.336834228515625,0.9670692086219788,1.3462692499160767,0.6741912961006165
1788849177655803100,3.34680322265625,1.06447172164917,1.1647412776947021,0.4739241898059845
1788849177665772300,3.356772216796875,1.2681617736816406,0.9602203369140625,0.34547245502471924
1788849177675742200,3.3667421875,1.5238267183303833,0.7711832523345947,0.2851625084877014
1788849177685711000,3.376711181640625,1.6860651969909668,0.5495896339416504,0.22945986688137054
1788849177695680300,3.38668017578125,1.6593537330627441,0.2631671726703644,0.1909930408000946
1788849177705649200,3.396649169921875,1.5086212158203125,0.03211664408445358,0.23469685018062592
1788849177715618000,3.4066181640625,1.327175498008728,-0.07663261145353317,0.4448179602622986
1788849177725587200,3.416587158203125,1.2275291681289673,0.0032153530046343803,0.6726934909820557
1788849177735556000,3.42655615234375,1.1421318054199219,0.053532931953668594,0.6760466694831848
1788849177745526000,3.436526123046875,1.0380804538726807,0.40175747871398926,0.661232590675354
1788849177755495200,3.4464951171875,0.928801953792572,0.48646917939186096,0.6179934740066528
1788849177765464000,3.456464111328125,0.7840961813926697,0.4873056709766388,0.5929158329963684
1788849177775433200,3.46643310546875,0.706713855266571,0.6710124611854553,0.5977247953414917
1788849177785402400,3.47640234375,0.7067857384681702,0.793953537940979,0.6011331081390381
1788849177795371300,3.486371337890625,0.6073219776153564,0.756417989730835,0.470685750246048
1788849177805340400,3.49634033203125,0.4105985164642334,0.6089832186698914,0.163319393992424
1788849177815310300,3.506310302734375,0.1607043743133545,0.4392366111278534,-0.1848507821559906
1788849177825279200,3.516279296875,-0.08404598385095596,0.4096480906009674,-0.5226770043373108
1788849177835248000,3.526248046875,-0.39268746972084045,0.5175468325614929,-1.0984280109405518
1788849177845217300,3.53621728515625,-0.6646081805229187,0.8269872665405273,-1.6163398027420044
1788849177855186200,3.546186279296875,-0.9315735101699829,0.9261717200279236,-1.7456697225570679
1788849177865155300,3.5561552734375,-1.0303114652633667,0.8909738063812256,-1.4661283493041992
1788849177875124200,3.566124267578125,-1.0244139432907104,1.0497760772705078,-0.8880685567855835
1788849177885093000,3.576093017578125,-0.9912269711494446,1.269335389137268,-0.2498931586742401
1788849177895063000,3.58606298828125,-1.0321756601333618,1.4097226858139038,0.22187769412994385
1788849177905032200,3.5960322265625,-1.233894944190979,1.4903994798660278,0.4623158574104309
1788849177915001000,3.6060009765625,-1.5458619594573975,1.4978505373001099,0.5176156163215637
1788849177924970200,3.61597021484375,-2.0764503479003906,1.6392220258712769,0.39861011505126953
1788849177934939100,3.625939208984375,-2.4130020141601562,1.6678922176361084,0.13107992708683014
1788849177944908000,3.635907958984375,-2.5265040397644043,1.6731687784194946,0.19325275719165802
1788849177954877200,3.645877197265625,-2.525299310684204,1.514674425125122,0.5537199378013611
1788849177964847000,3.65584716796875,-2.6588246822357178,1.6740505695343018,0.8723935484886169
1788849177974816000,3.66581591796875,-2.900430202484131,1.4979782104492188,0.9357465505599976
1788849177984785200,3.67578515625,-3.179619073867798,1.0235844850540161,0.777377724647522
1788849177994754000,3.685754150390625,-3.4069392681121826,0.6299877762794495,0.5612656474113464
1788849178004723200,3.69572314453125,-3.5690712928771973,0.3433176577091217,0.4160701036453247
1788849178014692000,3.705692138671875,-3.604296922683716,0.1254827380180359,0.3116883337497711
1788849178024661200,3.7156611328125,-3.646705150604248,-0.14065226912498474,0.23172558844089508
1788849178034631200,3.725631103515625,-3.7070460319519043,-0.4459376037120819,0.13284359872341156
1788849178044600300,3.735600341796875,-3.779094934463501,-0.7644000053405762,0.11285683512687683
1788849178054569200,3.7455693359375,-3.8122286796569824,-0.9704799056053162,0.20662789046764374
1788849178064538400,3.755538330078125,-3.783019542694092,-1.0315241813659668,0.28407183289527893
1788849178074507300,3.76550732421875,-3.7232491970062256,-1.118796944618225,0.3543052077293396
1788849178084476200,3.77547607421875,-3.5760064125061035,-1.1548702716827393,0.27252113819122314
1788849178094445300,3.7854453125,-3.383007764816284,-1.1525441408157349,0.06235358491539955
1788849178104415200,3.795415283203125,-3.14439058303833,-1.0411614179611206,-0.16050958633422852
1788849178114384100,3.805384033203125,-2.864293336868286,-0.7864529490470886,-0.3733987510204315
1788849178124353300,3.815353271484375,-2.6052968502044678,-0.45772773027420044,-0.46200984716415405
1788849178134322200,3.825322265625,-2.4166557788848877,-0.11085649579763412,-0.3182058036327362
1788849178144291000,3.835291015625,-2.3426833152770996,0.017625048756599426,-0.05382715165615082
1788849178154260200,3.84526025390625,-2.3335940837860107,-0.19216440618038177,0.1159403994679451
1788849178164229000,3.85522900390625,-2.256159543991089,-0.6786355376243591,0.1283552646636963
1788849178174199000,3.865198974609375,-2.031857967376709,-1.3210699558258057,0.1041804850101471
1788849178184168200,3.875168212890625,-1.7218745946884155,-1.8232409954071045,0.1273569017648697
1788849178194137000,3.88513720703125,-1.4057574272155762,-2.1883888244628906,0.24611534178256989
1788849178204106000,3.89510595703125,-0.972714900970459,-2.3849093914031982,0.36733683943748474
1788849178214075100,3.9050751953125,-0.4958437979221344,-2.286504030227661,0.27133509516716003
1788849178224044000,3.9150439453125,-0.08530259132385254,-2.188148260116577,0.1868891716003418
1788849178234013200,3.92501318359375,0.2231896072626114,-2.0736730098724365,0.11518219858407974
1788849178243982000,3.934982177734375,0.5068146586418152,-1.8541284799575806,-0.046791523694992065
1788849178253952300,3.9449521484375,0.8056520819664001,-1.5928640365600586,-0.2478901445865631
1788849178263921200,3.954921142578125,1.0210708379745483,-1.308007001876831,-0.48778238892555237
1788849178273890300,3.964890380859375,1.1387110948562622,-1.0942223072052002,-0.7859982848167419
1788849178283859200,3.974859130859375,1.2357831001281738,-1.0295597314834595,-1.0612657070159912
1788849178293828400,3.984828369140625,1.3090320825576782,-1.079383373260498,-1.3277288675308228
1788849178303797200,3.99479736328125,1.3475738763809204,-1.1608426570892334,-1.5986593961715698
1788849178313766100,4.00476611328125,1.3190852403640747,-1.193676471710205,-1.7060134410858154
1788849178323736000,4.014736083984375,1.1581202745437622,-1.052847981452942,-1.6091071367263794
1788849178333705200,4.024705322265625,0.9105592370033264,-0.7022339105606079,-1.2857520580291748
1788849178343674000,4.034674072265625,0.5380051136016846,-0.29862040281295776,-0.7447589039802551
1788849178353643300,4.044643310546875,0.0396268293261528,0.0631934404373169,-0.285981684923172
1788849178363612200,4.054612060546875,-0.44241783022880554,0.3771713376045227,0.010596446692943573
1788849178373581000,4.0645810546875,-0.839930534362793,0.706682562828064,0.17135915160179138
1788849178383550200,4.07455029296875,-1.1091744899749756,0.9583385586738586,0.15512773394584656
1788849178393519000,4.08451904296875,-1.3199808597564697,1.0878820419311523,-0.05229388177394867
1788849178403489000,4.094489013671875,-1.4466197490692139,1.135644555091858,-0.459128737449646
1788849178413458200,4.104458251953125,-1.5332794189453125,1.2431937456130981,-0.9058244824409485
1788849178423427000,4.114427001953125,-1.6326957941055298,1.550460696220398,-1.232148289680481
1788849178433396200,4.124396240234375,-1.6688225269317627,2.103379249572754,-1.420547366142273
1788849178443365000,4.134365234375,-1.6784197092056274,2.8446807861328125,-1.3895330429077148
1788849178453334000,4.144333984375,-1.7216215133666992,3.547639846801758,-1.0448845624923706
1788849178463303200,4.15430322265625,-1.8628052473068237,4.07288932800293,-0.5541508793830872
1788849178473272000,4.16427197265625,-2.1209208965301514,4.413313865661621,-0.1675124168395996
1788849178483242200,4.1742421875,-2.5079169273376465,4.519815921783447,0.0794006809592247
1788849178493211400,4.18421142578125,-2.94645094871521,4.350906848907471,0.05490880832076073
1788849178503179500,4.194179443359375,-3.115920066833496,3.767305612564087,-0.043372489511966705
1788849178513148700,4.204148681640625,-3.023566246032715,2.918914794921875,-0.4140346944332123
1788849178523117600,4.21411767578125,-2.977128505706787,1.7473293542861938,-1.2209892272949219
1788849178533086500,4.22408642578125,-3.0504438877105713,0.6683570146560669,-2.1096739768981934
1788849178543055600,4.2340556640625,-2.9143786430358887,-0.23026326298713684,-3.0129952430725098
1788849178553025500,4.244025634765625,-2.590324878692627,-0.605412483215332,-3.731811285018921
1788849178562994400,4.253994384765625,-2.1970746517181396,-0.5970293879508972,-4.0625786781311035
1788849178572963600,4.263963623046875,-1.9080586433410645,-0.3101465702056885,-3.83467698097229
1788849178582932500,4.273932373046875,-1.696794867515564,-0.12995284795761108,-3.229452133178711
1788849178592901400,4.2839013671875,-1.3971686363220215,-0.13881556689739227,-2.6663646697998047
1788849178602870500,4.29387060546875,-1.1214334964752197,-0.2267150729894638,-2.155167818069458
1788849178612839400,4.30383935546875,-0.6988608241081238,-0.7501336336135864,-1.2509377002716064
1788849178622808600,4.31380859375,-0.24444806575775146,-1.441804051399231,-0.6781434416770935
1788849178632778500,4.323778564453125,0.11140049993991852,-2.5622217655181885,-0.5088054537773132
1788849178642747400,4.333747314453125,0.15356659889221191,-3.8928894996643066,-0.6278314590454102
1788849178652716300,4.34371630859375,-0.04711649939417839,-5.5316548347473145,-0.9922078251838684
1788849178662685400,4.353685546875,-0.3789732754230499,-6.771085739135742,-1.4441503286361694
1788849178672654300,4.363654296875,-0.6688543558120728,-7.343730449676514,-1.9468241930007935
1788849178682623500,4.37362353515625,-0.5993788838386536,-7.31574010848999,-2.382995843887329
1788849178692592400,4.38359228515625,-0.1043626219034195,-7.040547847747803,-2.6219611167907715
1788849178702561300,4.393561279296875,0.5504825711250305,-6.399159908294678,-2.6678991317749023
1788849178712531500,4.403531494140625,1.3884812593460083,-5.581340789794922,-2.453181028366089
1788849178722500400,4.413500244140625,1.6136953830718994,-3.755758047103882,-1.6833703517913818
1788849178732469200,4.42346923828125,1.2277010679244995,-2.2963385581970215,-0.7861334681510925
1788849178742438700,4.433438720703125,0.627071738243103,-1.1819450855255127,-0.1315108984708786
1788849178752407600,4.443407470703125,0.22491513192653656,-0.5303587913513184,0.13762176036834717
1788849178762376400,4.45337646484375,0.2781543731689453,-0.7096949815750122,0.0756840780377388
1788849178772345600,4.463345703125,0.43128469586372375,-1.088661551475525,-0.005453958176076412
1788849178782315500,4.4733154296875,0.6360945105552673,-1.5890594720840454,-0.04977348446846008
1788849178792284400,4.483284423828125,0.7787957787513733,-2.396069049835205,-0.1431914120912552
1788849178802253600,4.493253662109375,0.7964258790016174,-2.69881010055542,-0.27021539211273193
1788849178812222500,4.503222412109375,0.8207123279571533,-2.890631914138794,-0.48975932598114014
1788849178822191400,4.51319140625,0.77217036485672,-3.004678249359131,-0.7658066153526306
1788849178832160500,4.523160400390625,0.7584936022758484,-3.0922281742095947,-1.1405647993087769
1788849178842129400,4.53312939453125,0.7979169487953186,-2.9931488037109375,-1.6252115964889526
1788849178852098600,4.5430986328125,0.8065022230148315,-2.590599536895752,-1.9993274211883545
1788849178862068500,4.553068359375,0.9038434028625488,-2.204796075820923,-2.0462942123413086
1788849178872037400,4.563037353515625,1.0617806911468506,-1.849838137626648,-1.8604384660720825
1788849178882006500,4.573006591796875,1.312666654586792,-1.715811848640442,-1.575879454612732
1788849178891975400,4.582975341796875,1.5929564237594604,-1.9466997385025024,-1.1534736156463623
1788849178901944300,4.5929443359375,1.715541958808899,-2.3709523677825928,-0.9366564154624939
1788849178911913500,4.60291357421875,1.8273930549621582,-3.3133928775787354,-1.1891244649887085
1788849178921882400,4.61288232421875,1.980286955833435,-3.190073013305664,-1.0826011896133423
1788849178931851300,4.622851318359375,1.8591681718826294,-1.9990525245666504,-0.6769908666610718
1788849178941821400,4.632821533203125,1.7170716524124146,-1.2724583148956299,-0.7419597506523132
1788849178951790300,4.642790283203125,1.5864187479019165,-0.8527400493621826,-0.8652988076210022
1788849178961759200,4.65275927734375,1.588412880897522,-0.8152920007705688,-1.0033799409866333
1788849178971728400,4.662728271484375,1.717956304550171,-0.9986362457275391,-1.0186963081359863
1788849178981697300,4.672697265625,1.9830060005187988,-1.161370873451233,-0.9327026009559631
1788849178991666400,4.68266650390625,2.4942243099212646,-1.0103973150253296,-0.8083482384681702
1788849179001635600,4.692635498046875,3.088437557220459,-0.8553633093833923,-0.6125052571296692
1788849179011604500,4.7026044921875,3.348066568374634,-0.4834219813346863,-0.36162060499191284
1788849179021573600,4.71257373046875,3.3236560821533203,0.5224789977073669,0.047012150287628174
1788849179031543600,4.72254345703125,3.30804443359375,1.5538593530654907,0.49897515773773193
1788849179041512400,4.732512451171875,3.436939239501953,2.2216033935546875,0.7198202013969421
1788849179051481600,4.742481689453125,3.7304978370666504,2.80293345451355,0.8926692605018616
1788849179061450500,4.752450439453125,4.111421585083008,3.402898073196411,0.9251025915145874
1788849179071419400,4.76241943359375,4.258686065673828,3.9081943035125732,1.0243638753890991
1788849179081388500,4.772388427734375,4.064157485961914,4.310596466064453,1.270957112312317
1788849179091357400,4.782357421875,3.8381776809692383,4.403911590576172,1.7271724939346313
1788849179101326600,4.79232666015625,3.6953327655792236,4.339673042297363,2.2006402015686035
1788849179111296500,4.802296630859375,3.7451388835906982,4.390318870544434,2.6047439575195312
1788849179121265400,4.812265380859375,3.9562325477600098,4.730790138244629,2.9573683738708496
1788849179131234300,4.822234375,4.342593669891357,5.126666069030762,3.19571852684021
1788849179141203500,4.832203369140625,4.661731719970703,5.626608371734619,3.5238749980926514
1788849179151172400,4.84217236328125,4.8889312744140625,5.7018513679504395,3.8422741889953613
1788849179161141500,4.8521416015625,4.825380802154541,5.257518291473389,4.078188896179199
1788849179171110400,4.8621103515625,4.496234893798828,5.134264945983887,4.024580001831055
1788849179181079300,4.872079345703125,3.74761700630188,4.719640731811523,3.835388660430908
1788849179191049200,4.88204931640625,2.6134679317474365,4.175924777984619,3.6197469234466553
1788849179201018400,4.892018310546875,1.3127259016036987,3.3865768909454346,3.273176908493042
1788849179210987300,4.9019873046875,0.09162426739931107,2.4829676151275635,2.7249555587768555
1788849179220956400,4.911956298828125,-0.8007197976112366,1.6671065092086792,2.208282470703125
1788849179230925300,4.92192529296875,-1.59215247631073,1.2936291694641113,2.014545202255249
1788849179240894200,4.931894287109375,-2.020155429840088,1.5073150396347046,2.3314526081085205
1788849179250863600,4.941863525390625,-1.9597547054290771,2.0370397567749023,3.130767583847046
1788849179260832500,4.95183251953125,-1.4550044536590576,2.3534600734710693,4.069880962371826
1788849179270801700,4.9618017578125,-0.7069973945617676,2.434464454650879,5.056353569030762
1788849179280771600,4.971771484375,-0.22838744521141052,2.2981936931610107,6.116207599639893
1788849179290740500,4.981740478515625,-0.5450011491775513,1.7145485877990723,6.468460559844971
1788849179300709400,4.99170947265625,-1.1734997034072876,0.9346424341201782,6.331333160400391
1788849179310678500,5.001678466796875,-0.6857069134712219,1.898217797279358,6.054027557373047
1788849179320647400,5.0116474609375,-0.2369145154953003,2.846606969833374,5.963340759277344
1788849179330616600,5.021616455078125,0.31133145093917847,2.991853952407837,5.3722333908081055
1788849179340585500,5.03158544921875,0.9468826055526733,3.035489320755005,4.362957954406738
1788849179350554400,5.041554443359375,1.070507287979126,2.615893840789795,3.765519618988037
1788849179360524300,5.051524169921875,0.6538306474685669,1.6894410848617554,3.2258968353271484
1788849179370493400,5.061493408203125,0.1397770643234253,0.9814838767051697,2.8466806411743164
1788849179380462300,5.07146240234375,-0.17939667403697968,-0.12044399231672287,2.6554348468780518
1788849179390431500,5.081431396484375,-0.4164719581604004,-0.7087869048118591,2.5982089042663574
1788849179400400400,5.091400390625,-0.6340173482894897,-0.749363362789154,2.491105079650879
1788849179410369300,5.101369384765625,-0.9027037024497986,-1.232174277305603,2.3480756282806396
1788849179420338400,5.11133837890625,-1.1980514526367188,-1.8754366636276245,2.0064616203308105
1788849179430307300,5.121307373046875,-1.3846650123596191,-2.1382553577423096,1.4711873531341553
1788849179440276500,5.1312763671875,-1.5897023677825928,-2.394862174987793,0.5615290403366089
1788849179450246400,5.141246337890625,-1.9098466634750366,-2.6193041801452637,-0.5405093431472778
1788849179460215300,5.15121533203125,-2.2045555114746094,-2.6568984985351562,-1.573999285697937
1788849179470184400,5.161184326171875,-2.3014111518859863,-2.459425210952759,-2.3142857551574707
1788849179480153300,5.1711533203125,-1.9086477756500244,-1.632747769355774,-2.3581695556640625
1788849179490122200,5.181122314453125,-1.467349648475647,-0.10296019911766052,-1.5780928134918213
1788849179500091600,5.191091552734375,-0.6385393142700195,0.9430721998214722,-0.8345544934272766
1788849179510059800,5.201059814453125,0.36873090267181396,1.6820343732833862,-0.38228413462638855
1788849179520029000,5.21102880859375,1.0566803216934204,2.7031311988830566,0.12823320925235748
1788849179529997800,5.220997802734375,1.559146761894226,3.0138187408447266,0.8020554780960083
1788849179539968000,5.230968017578125,2.01725172996521,2.14035964012146,1.3726781606674194
1788849179549937000,5.24093701171875,2.0162432193756104,1.15565025806427,1.7188737392425537
1788849179559906000,5.250906005859375,2.0576882362365723,-0.00254885689355433,1.8924041986465454
1788849179569875000,5.260875,2.365309715270996,-0.3409522771835327,1.7466998100280762
1788849179579844000,5.270843994140625,2.9173998832702637,-0.3829375207424164,1.1487666368484497
1788849179589813000,5.28081298828125,3.5585291385650635,-0.12105073779821396,-0.23776131868362427
1788849179599782000,5.290781982421875,4.027222156524658,0.06567760556936264,-1.760575771331787
1788849179609751000,5.3007509765625,4.729308128356934,-0.1546148955821991,-2.2171149253845215
1788849179619720000,5.310719970703125,5.7546539306640625,-0.06427035480737686,-1.8324178457260132
1788849179629689900,5.32068994140625,6.772913455963135,0.7489808201789856,-1.2105441093444824
1788849179639659000,5.330658935546875,7.336190223693848,1.647369623184204,-0.7836439609527588
1788849179649628000,5.3406279296875,7.124399185180664,1.8058782815933228,-0.4244329035282135
1788849179659596800,5.3505966796875,6.221916675567627,1.4637858867645264,-0.10978521406650543
1788849179669566000,5.36056591796875,4.930616855621338,1.1153188943862915,-0.06265037506818771
1788849179679534800,5.370534912109375,3.6817944049835205,0.8370527029037476,-0.08679592609405518
1788849179689504000,5.38050390625,2.660740613937378,0.9095856547355652,-0.23883210122585297
1788849179699473000,5.390472900390625,1.9565694332122803,0.9734301567077637,-0.5815226435661316
1788849179709441800,5.40044189453125,1.467981219291687,0.8562361598014832,-0.8750167489051819
1788849179719412000,5.410411865234375,0.9072021245956421,1.1813108921051025,-0.8394020199775696
1788849179729380900,5.420380859375,0.5027561783790588,1.4381444454193115,-0.5470404028892517
1788849179739349800,5.430349853515625,0.4851111173629761,0.6965771317481995,-0.1112300381064415
1788849179749319000,5.44031884765625,0.596337616443634,0.3885457217693329,0.3828636705875397
1788849179759287800,5.450287841796875,0.37402117252349854,0.7702041268348694,0.5825315117835999
1788849179769256700,5.460256591796875,0.014050793834030628,0.692634642124176,0.6971380114555359
1788849179779225900,5.470225830078125,-0.18536376953125,1.3088997602462769,0.9243602156639099
1788849179789194800,5.48019482421875,-0.06251891702413559,1.4831255674362183,0.7401115298271179
1788849179799164000,5.490163818359375,0.08268461376428604,1.35133957862854,0.06662339717149734
1788849179809132800,5.5001328125,0.12119273841381073,1.1115928888320923,-0.6760900020599365
1788849179819101700,5.510101806640625,0.2075878232717514,1.1160554885864258,-1.1955949068069458
1788849179829070800,5.52007080078125,0.1302322894334793,1.1310662031173706,-1.4463160037994385
1788849179839039700,5.530039794921875,1.084364414215088,0.9412028193473816,-1.3014438152313232
1788849179849009000,5.5400087890625,2.5602023601531982,0.39744192361831665,-0.8790314197540283
1788849179858977800,5.549977783203125,3.365151882171631,0.2852210998535156,-0.18675737082958221
1788849179868948000,5.559947998046875,3.897581100463867,0.8774904608726501,0.6035425066947937
1788849179878916900,5.569916748046875,4.276240825653076,0.9395375847816467,1.2659401893615723
1788849179888886000,5.579885986328125,3.9211220741271973,-0.21592386066913605,1.5707848072052002
1788849179898855000,5.58985498046875,3.3016862869262695,-1.2050637006759644,1.8197523355484009
1788849179908824000,5.599823974609375,2.61529803276062,-0.8465386033058167,1.9110093116760254
1788849179918793000,5.60979296875,1.8942736387252808,-0.15164873003959656,1.8582398891448975
1788849179928761900,5.619761962890625,1.2029709815979004,-0.09473896771669388,1.8292930126190186
1788849179938731000,5.62973095703125,0.9691379070281982,-0.9459124207496643,1.8898799419403076
1788849179948700000,5.639699951171875,0.8582435250282288,-1.8022040128707886,1.879847526550293
1788849179958669800,5.649669921875,0.764826774597168,-2.3576107025146484,1.714268445968628
1788849179968639000,5.659638916015625,0.5392531752586365,-2.8888492584228516,1.3574471473693848
1788849179978607900,5.66960791015625,0.09367064386606216,-3.0802550315856934,0.8774762153625488
1788849179988576800,5.67957666015625,-0.5968791842460632,-2.8662612438201904,0.22700177133083344
1788849179998546000,5.6895458984375,-1.344103217124939,-2.2789194583892822,-0.8239482045173645
1788849180008514800,5.699514892578125,-1.7140569686889648,-2.091742515563965,-2.043853998184204
1788849180018484000,5.70948388671875,-1.874606966972351,-2.3280258178710938,-3.032320261001587
1788849180028452900,5.719452880859375,-1.926729679107666,-2.6907427310943604,-3.755100965499878
1788849180038421800,5.729421875,-1.8620649576187134,-3.0337729454040527,-4.411420822143555
1788849180048391000,5.739390869140625,-1.6601698398590088,-2.967381238937378,-5.002557754516602
1788849180058360800,5.74936083984375,-1.2847405672073364,-2.8863813877105713,-5.37120246887207
1788849180068329700,5.759329833984375,-0.8997109532356262,-2.8691930770874023,-5.659308433532715
1788849180078299000,5.769298828125,-0.41107624769210815,-2.781369924545288,-5.891739845275879
1788849180088267800,5.779267822265625,0.18567433953285217,-2.1268534660339355,-5.719973087310791
1788849180098236700,5.789236572265625,0.4377955496311188,-2.1194260120391846,-5.764699459075928
1788849180108205800,5.799205810546875,0.36036843061447144,-1.7978545427322388,-5.644680500030518
1788849180118174700,5.8091748046875,0.19576483964920044,-1.0112025737762451,-5.15949010848999
1788849180128144000,5.819143798828125,-0.013301130384206772,-0.5851122736930847,-4.5758442878723145
1788849180138112800,5.82911279296875,-0.31055891513824463,-0.5653390884399414,-3.937981128692627
1788849180148083000,5.8390830078125,-0.6268364191055298,-0.7295727729797363,-3.1950342655181885
1788849180158051800,5.8490517578125,-0.8143174052238464,-1.0543330907821655,-2.4506869316101074
1788849180168021000,5.85902099609375,-0.9469155073165894,-1.472767949104309,-1.7700632810592651
1788849180177990000,5.868989990234375,-1.062610149383545,-1.790693759918213,-1.1154314279556274
1788849180187959000,5.878958984375,-1.1102803945541382,-1.932447910308838,-0.4576784074306488
1788849180197928000,5.888927978515625,-1.0842705965042114,-1.772773027420044,0.19738411903381348
1788849180207896800,5.898896728515625,-1.0117255449295044,-1.492384910583496,0.741283655166626
1788849180217866000,5.908865966796875,-0.8818689584732056,-1.3169482946395874,1.1587355136871338
1788849180227835000,5.9188349609375,-0.6658139228820801,-1.2850123643875122,1.4235801696777344
1788849180237804800,5.9288046875,-0.4160054326057434,-1.2357548475265503,1.5236825942993164
1788849180247774000,5.93877392578125,-0.15892191231250763,-1.0629500150680542,1.4433592557907104
1788849180257742800,5.948742919921875,0.12401019781827927,-0.7240448594093323,1.1850084066390991
1788849180267712000,5.9587119140625,0.35381460189819336,-0.29633742570877075,0.7939475774765015
1788849180277681000,5.968680908203125,0.4641680121421814,0.03142314404249191,0.32843077182769775
1788849180287649800,5.97864990234375,0.5056635141372681,0.19036957621574402,-0.12268740683794022
1788849180297619000,5.988618896484375,0.5095070004463196,0.1503065824508667,-0.49311527609825134
1788849180307587800,5.998587890625,0.42893505096435547,0.09457175433635712,-0.7337568998336792
1788849180317556700,6.008556640625,0.3474348783493042,-0.01613158918917179,-0.8528832793235779
1788849180327526000,6.01852587890625,0.3196055591106415,-0.14726197719573975,-0.8587470054626465
1788849180337495800,6.028495849609375,0.2687751352787018,-0.3509905934333801,-0.8153095245361328
1788849180347464700,6.038464599609375,0.37940287590026855,-0.5106717348098755,-0.6674695014953613
1788849180357433900,6.048433837890625,0.4644834101200104,-0.4545070230960846,-0.5551799535751343
1788849180367402800,6.05840283203125,0.5313228964805603,-0.3646674156188965,-0.42163997888565063
1788849180377372000,6.068371826171875,0.5284578800201416,-0.24437400698661804,-0.31526562571525574
1788849180387340800,6.0783408203125,0.4886791706085205,-0.104338139295578,-0.27661553025245667
1788849180397309700,6.088309814453125,0.45590418577194214,0.059395931661129,-0.22453078627586365
1788849180407278800,6.09827880859375,0.464439332485199,0.25112247467041016,-0.16210438311100006
1788849180417248000,6.108248046875,0.533329963684082,0.4442293643951416,-0.11914413422346115
1788849180427217000,6.118216796875,0.5685274600982666,0.6080047488212585,-0.0511019304394722
1788849180437187000,6.12818701171875,0.5658456683158875,0.6403270363807678,0.007987488992512226
1788849180447156000,6.138156005859375,0.5369966626167297,0.6582152247428894,0.0242140032351017
1788849180457124900,6.148124755859375,0.5117115378379822,0.7279002666473389,0.03041677176952362
1788849180467094000,6.158093994140625,0.5095840096473694,0.7851041555404663,0.006582938134670258
1788849180477063000,6.16806298828125,0.5000453591346741,0.7729431390762329,-0.04628453776240349
1788849180487032000,6.178031982421875,0.4836505949497223,0.7448268532752991,-0.08944054692983627
1788849180497001000,6.1880009765625,0.44397321343421936,0.7482783198356628,-0.11127207428216934
1788849180506970400,6.197970458984375,0.3991032540798187,0.7379534244537354,-0.11032538115978241
1788849180516939500,6.207939453125,0.3552979826927185,0.7573332786560059,-0.09113970398902893
1788849180526908400,6.217908447265625,0.3021950125694275,0.8324453234672546,-0.08467952907085419
1788849180536878300,6.22787841796875,0.28515851497650146,0.957796037197113,-0.07724238932132721
1788849180546847200,6.23784716796875,0.25790902972221375,1.0661900043487549,-0.05295918136835098
1788849180556816400,6.24781640625,0.2622526288032532,1.0982747077941895,-0.03757969290018082
1788849180566785300,6.257785400390625,0.25814175605773926,1.0688661336898804,-0.054575927555561066
1788849180576754400,6.26775439453125,0.24192628264427185,1.1327643394470215,-0.11125705391168594
1788849180586723300,6.277723388671875,0.2371360808610916,1.1830811500549316,-0.1790071427822113
1788849180596692200,6.287692138671875,0.18666411936283112,1.1984927654266357,-0.22885432839393616
1788849180606661400,6.297661376953125,0.16057541966438293,1.1630825996398926,-0.25230100750923157
1788849180616630300,6.30763037109375,0.15031053125858307,1.1163995265960693,-0.2401285022497177
1788849180626599400,6.317599365234375,0.12255817651748657,1.0129146575927734,-0.24934306740760803
1788849180636569300,6.3275693359375,0.06790585070848465,0.9073418378829956,-0.24731454253196716
1788849180646538200,6.337538330078125,0.005350027699023485,0.7762020826339722,-0.22354969382286072
1788849180656507100,6.347507080078125,-0.11975302547216415,0.5958192348480225,-0.13313937187194824
1788849180666476300,6.357476318359375,-0.547398030757904,0.4990471601486206,0.1115369200706482
1788849180676445200,6.367445068359375,-0.7559560537338257,0.19616533815860748,0.4220564365386963
1788849180686414300,6.377414306640625,-0.9132007956504822,-0.22789731621742249,0.7799749374389648
1788849180696383200,6.38738330078125,-1.3139487504959106,-0.5674647092819214,1.1587613821029663
1788849180706352000,6.39735205078125,-1.3168429136276245,-0.4830757975578308,1.2063919305801392
1788849180716321300,6.4073212890625,-0.8528014421463013,-0.4407275319099426,1.1388938426971436
1788849180726290200,6.417290283203125,-0.380975604057312,-0.14460068941116333,1.0820558071136475
1788849180736259300,6.42725927734375,-0.1309409886598587,0.378023624420166,0.987787127494812
1788849180746229500,6.4372294921875,-0.10372091084718704,0.7936545610427856,0.8588696122169495
1788849180756198400,6.447198486328125,-0.28123390674591064,0.9196561574935913,0.7835913300514221
1788849180766167300,6.457167236328125,-0.3919554352760315,0.9039572477340698,0.6537102460861206
1788849180776136400,6.467136474609375,-0.4528121054172516,0.745916485786438,0.5882838368415833
1788849180786105300,6.477105224609375,-0.4681592583656311,0.5180118680000305,0.554389238357544
1788849180796074500,6.487074462890625,-0.4540887176990509,0.2886016070842743,0.4893524646759033
1788849180806043400,6.49704345703125,-0.4602872133255005,0.0333503894507885,0.41685253381729126
1788849180816012300,6.50701220703125,-0.5013675093650818,-0.23633354902267456,0.35980334877967834
1788849180825981400,6.5169814453125,-0.5414902567863464,-0.4841306805610657,0.28404566645622253
1788849180835950300,6.526950439453125,-0.5793779492378235,-0.7340452075004578,0.20670345425605774
1788849180845920300,6.536920166015625,-0.6061667799949646,-0.9651733636856079,0.11922303587198257
1788849180855889400,6.546889404296875,-0.601514995098114,-1.1377203464508057,-0.00685420585796237
1788849180865858300,6.5568583984375,-0.5684128403663635,-1.352845311164856,-0.17334036529064178
1788849180875827200,6.5668271484375,-0.49392613768577576,-1.4702752828598022,-0.3720601201057434
1788849180885796400,6.57679638671875,-0.4048807621002197,-1.5356043577194214,-0.5586796998977661
1788849180895765200,6.58676513671875,-0.3443995714187622,-1.5942833423614502,-0.7251461744308472
1788849180905734400,6.596734375,-0.28574255108833313,-1.6159470081329346,-0.8248803019523621
1788849180915703300,6.606703369140625,-0.23637500405311584,-1.585585117340088,-0.8592561483383179
1788849180925672200,6.616672119140625,-0.19453661143779755,-1.5192270278930664,-0.840169370174408
1788849180935641300,6.626641357421875,-0.18904010951519012,-1.5087181329727173,-0.7640410661697388
1788849180945610200,6.6366103515625,-0.16754558682441711,-1.5160012245178223,-0.6354045867919922
1788849180955580200,6.646580078125,-0.1393403261899948,-1.4800351858139038,-0.5308502316474915
1788849180965549300,6.65654931640625,-0.09459734708070755,-1.3148747682571411,-0.4462703466415405
1788849180975518200,6.666518310546875,0.03257391229271889,-1.0363105535507202,-0.3471546769142151
1788849180985487000,6.676487060546875,0.1245354637503624,-0.8110469579696655,-0.277554452419281
1788849180995456300,6.686456298828125,0.2172614187002182,-0.6818727254867554,-0.23360349237918854
1788849181005425200,6.696425048828125,0.27508610486984253,-0.5913125276565552,-0.21968086063861847
1788849181015394300,6.706394287109375,0.2853794991970062,-0.39195284247398376,-0.22843654453754425
1788849181025363200,6.71636328125,0.25093916058540344,-0.12444856017827988,-0.25838977098464966
1788849181035332000,6.72633203125,0.19583117961883545,0.0192422978579998,-0.2462305724620819
1788849181045301200,6.73630126953125,0.1596377193927765,-0.0005967945326119661,-0.17480647563934326
1788849181055270100,6.746270263671875,0.12509359419345856,0.020774006843566895,-0.06853117793798447
1788849181065239600,6.756239501953125,0.09859052300453186,0.11835361272096634,0.0374058336019516
1788849181075209500,6.76620947265625,0.06444267183542252,0.19960319995880127,0.12581372261047363
1788849181085178400,6.776178466796875,0.00326302507892251,0.23112523555755615,0.21546456217765808
1788849181095147300,6.786147216796875,-0.07723980396986008,0.2590479552745819,0.28335708379745483
1788849181105116400,6.796116455078125,-0.12489662319421768,0.301719605922699,0.3301090896129608
1788849181115085300,6.806085205078125,-0.1469222903251648,0.34910494089126587,0.36330753564834595
1788849181125054500,6.816054443359375,-0.16290827095508575,0.40012091398239136,0.3735734522342682
1788849181135023400,6.8260234375,-0.186369389295578,0.4660687744617462,0.3546157479286194
1788849181144992300,6.8359921875,-0.20817385613918304,0.5649576783180237,0.32974156737327576
1788849181154961400,6.84596142578125,-0.2261589914560318,0.6997482180595398,0.2794903814792633
1788849181164930300,6.855930419921875,-0.2155117690563202,0.720791220664978,0.24861696362495422
1788849181174899500,6.8658994140625,-0.19250312447547913,0.7304617166519165,0.22602003812789917
1788849181184869400,6.875869384765625,-0.14037354290485382,0.7785825729370117,0.20669296383857727
1788849181194838300,6.88583837890625,-0.0995803028345108,0.7705645561218262,0.16950324177742004
1788849181204807200,6.89580712890625,-0.09720850735902786,0.7190182209014893,0.11330530792474747
1788849181214776300,6.9057763671875,-0.10165093094110489,0.6734536290168762,0.0250561386346817
1788849181224745200,6.9157451171875,-0.11120191216468811,0.6007798910140991,-0.05550319701433182
1788849181234714400,6.92571435546875,-0.14452551305294037,0.515459418296814,-0.09701468795537949
1788849181244683300,6.935683349609375,-0.201787069439888,0.45689937472343445,-0.0927678644657135
1788849181254652200,6.945652099609375,-0.2320626825094223,0.4850388467311859,-0.03416367247700691
1788849181264621300,6.955621337890625,-0.24674835801124573,0.5048101544380188,0.017458371818065643
1788849181274590200,6.965590087890625,-0.2606591284275055,0.505986750125885,0.08664197474718094
1788849181284559400,6.975559326171875,-0.26543372869491577,0.567810595035553,0.18435099720954895
1788849181294528300,6.9855283203125,-0.2844846546649933,0.6671851277351379,0.31518328189849854
1788849181304498200,6.995498291015625,-0.33350276947021484,0.7829459309577942,0.40092599391937256
1788849181314467300,7.00546728515625,-0.3698517084121704,0.7938558459281921,0.39989349246025085
1788849181324436500,7.0154365234375,-0.38073107600212097,0.8127636313438416,0.3740248382091522
1788849181334405400,7.0254052734375,-0.39926373958587646,0.8461742997169495,0.3634773790836334
1788849181344374500,7.03537451171875,-0.4327864646911621,0.8638846278190613,0.3615844249725342
1788849181354343400,7.045343505859375,-0.45070236921310425,0.8599540591239929,0.38812416791915894
1788849181364312300,7.055312255859375,-0.45080170035362244,0.8078914880752563,0.45335912704467773
1788849181374281500,7.065281494140625,-0.41241782903671265,0.7915367484092712,0.5677480101585388
1788849181384250400,7.07525048828125,-0.37837785482406616,0.7842758893966675,0.7143769860267639
1788849181394219500,7.085219482421875,-0.36299410462379456,0.73312908411026,0.8660687804222107
1788849181404188400,7.0951884765625,-0.3332211673259735,0.6579760909080505,0.99857097864151
1788849181414157300,7.1051572265625,-0.2771403193473816,0.6758350133895874,1.0661289691925049
1788849181424126500,7.11512646484375,-0.210353821516037,0.6659897565841675,1.030197024345398
1788849181434096400,7.125096435546875,-0.1609385907649994,0.5911741256713867,0.9207446575164795
1788849181444065300,7.135065185546875,-0.15078265964984894,0.5310618281364441,0.8200166821479797
1788849181454034400,7.145034423828125,-0.14601799845695496,0.4869297742843628,0.7168464064598083
1788849181464003300,7.15500341796875,-0.11579836159944534,0.3782580494880676,0.6083438396453857
1788849181473972200,7.16497216796875,-0.07080744951963425,0.26024219393730164,0.5224193334579468
1788849181483941400,7.17494140625,-0.012655760161578655,0.17040330171585083,0.419989675283432
1788849181493910300,7.18491015625,0.028772905468940735,0.06417246162891388,0.2838803231716156
1788849181503879400,7.19487939453125,0.01491587609052658,-0.10109098255634308,0.13983316719532013
1788849181513848600,7.2048486328125,-0.009163894690573215,-0.32535603642463684,0.012862968258559704
1788849181523817500,7.2148173828125,0.002483431249856949,-0.5987433791160583,-0.13576437532901764
1788849181533786600,7.22478662109375,0.004398243967443705,-0.9108070135116577,-0.30834653973579407
1788849181543755500,7.234755615234375,-0.03211108222603798,-1.2701822519302368,-0.4930952191352844
1788849181553725700,7.2447255859375,-0.05915281921625137,-1.5255316495895386,-0.7102924585342407
1788849181563694600,7.254694580078125,-0.06890743970870972,-1.7730724811553955,-0.9481383562088013
1788849181573663700,7.264663818359375,-0.07361404597759247,-2.0225791931152344,-1.1480515003204346
1788849181583632600,7.274632568359375,-0.07821635901927948,-2.170422077178955,-1.3219866752624512
1788849181593601800,7.284601806640625,-0.09762521088123322,-2.23970103263855,-1.467324137687683
1788849181603570700,7.29457080078125,-0.11879267543554306,-2.2558963298797607,-1.5798754692077637
1788849181613539600,7.30453955078125,-0.12639732658863068,-2.2658627033233643,-1.6332780122756958
1788849181623508700,7.3145087890625,-0.13976094126701355,-2.258530378341675,-1.600898027420044
1788849181633477600,7.3244775390625,-0.16831642389297485,-2.1655023097991943,-1.5044220685958862
1788849181643446800,7.33444677734375,-0.1906467229127884,-2.011444091796875,-1.3593380451202393
1788849181653415700,7.344415771484375,-0.22038863599300385,-1.846226453781128,-1.1593250036239624
1788849181663384600,7.354384521484375,-0.2491067498922348,-1.654870629310608,-0.9226810932159424
1788849181673353700,7.364353759765625,-0.24341502785682678,-1.441085696220398,-0.6486812233924866
1788849181683322600,7.374322509765625,-0.23344267904758453,-1.1741808652877808,-0.3517303466796875
1788849181693292500,7.38429248046875,-0.20813892781734467,-0.8600980639457703,-0.04058684781193733
1788849181703261700,7.39426171875,-0.1553494930267334,-0.5613591074943542,0.22872453927993774
1788849181713230600,7.404230712890625,-0.07610979676246643,-0.32288506627082825,0.40796270966529846
1788849181723199500,7.414199462890625,0.056796640157699585,-0.10630626976490021,0.48000532388687134
1788849181733168600,7.424168701171875,0.20908363163471222,0.10897834599018097,0.4118180274963379
1788849181743137500,7.434137451171875,0.37428849935531616,0.3361886143684387,0.22019846737384796
1788849181753106700,7.444106689453125,0.5009745359420776,0.528574526309967,0.06564190238714218
1788849181763075600,7.45407568359375,0.6156880259513855,0.6151183843612671,0.06190226227045059
1788849181773044500,7.46404443359375,0.6980534195899963,0.746400773525238,0.20043323934078217
1788849181783013600,7.474013671875,0.742769718170166,0.9323318600654602,0.4118121564388275
1788849181792982500,7.483982421875,0.7797601819038391,1.1020740270614624,0.6457104086875916
1788849181802951700,7.49395166015625,0.7926732897758484,1.165260672569275,0.8551940321922302
1788849181812920600,7.503920654296875,0.7990344762802124,1.1276946067810059,1.0129048824310303
1788849181822889500,7.513889404296875,0.8594589829444885,1.0495984554290771,1.116667628288269
1788849181832859600,7.523859619140625,0.9468010663986206,1.0456361770629883,1.1495842933654785
1788849181842828800,7.533828857421875,1.0418140888214111,1.0939873456954956,1.072249412536621
1788849181852797700,7.543797607421875,1.1020665168762207,1.1097702980041504,0.9225907325744629
1788849181862766800,7.553766845703125,1.1311440467834473,1.0934280157089233,0.741584300994873
1788849181872735700,7.56373583984375,1.1342341899871826,1.0725581645965576,0.5102799534797668
1788849181882704600,7.57370458984375,1.1172573566436768,1.0604726076126099,0.24207352101802826
1788849181892673800,7.583673828125,1.1144455671310425,1.0496678352355957,-0.06606780737638474
1788849181902642700,7.593642578125,1.0895230770111084,1.047184944152832,-0.3711279332637787
1788849181912611800,7.60361181640625,1.057337999343872,0.950221598148346,-0.6668160557746887
1788849181922580700,7.613580810546875,0.9777846932411194,0.7935020327568054,-0.9632778763771057
1788849181932549600,7.623549560546875,0.8975489735603333,0.5902003049850464,-1.2351837158203125
1788849181942518800,7.633518798828125,0.7833360433578491,0.43525683879852295,-1.4583585262298584
1788849181952487700,7.64348779296875,0.665215015411377,0.3493185043334961,-1.625213861465454
1788849181962456600,7.65345654296875,0.5819709897041321,0.27926531434059143,-1.7455856800079346
1788849181972425700,7.66342578125,0.5048852562904358,0.19358423352241516,-1.794221043586731
1788849181982395600,7.673395751953125,0.4256417155265808,0.06826168298721313,-1.7498303651809692
1788849181992364500,7.683364501953125,0.3585367202758789,0.0035977379884570837,-1.6653019189834595
1788849182002333700,7.693333740234375,0.2715402841567993,-0.009898236021399498,-1.577976942062378
1788849182012302600,7.703302490234375,0.1842687875032425,-0.02295997366309166,-1.4713269472122192
1788849182022271700,7.713271728515625,0.10369904339313507,-0.06113579496741295,-1.3362778425216675
1788849182032240600,7.72324072265625,0.031077299267053604,-0.03641367331147194,-1.2041922807693481
1788849182042209500,7.73320947265625,-0.02865646407008171,-0.008887972682714462,-1.068230390548706
1788849182052178700,7.7431787109375,-0.1055200919508934,0.019031275063753128,-0.9457851052284241
1788849182062147600,7.753147705078125,-0.18384875357151031,0.049241840839385986,-0.8403254151344299
1788849182072116700,7.76311669921875,-0.23301789164543152,0.11683446913957596,-0.7397775053977966
1788849182082085600,7.773085693359375,-0.26294177770614624,0.17352324724197388,-0.6422150731086731
1788849182092054500,7.783054443359375,-0.2902820408344269,0.24990271031856537,-0.5360095500946045
1788849182102023700,7.793023681640625,-0.3167683482170105,0.3118058443069458,-0.41249239444732666
1788849182111992600,7.80299267578125,-0.3618287742137909,0.3575517535209656,-0.2747670114040375
1788849182121961500,7.81296142578125,-0.4110695719718933,0.40359312295913696,-0.13655199110507965
1788849182131931600,7.822931640625,-0.4698844254016876,0.44355306029319763,-0.025137316435575485
1788849182141900500,7.832900634765625,-0.5211070775985718,0.4555530548095703,0.08150449395179749
1788849182151869400,7.842869384765625,-0.5437583327293396,0.4785537123680115,0.17812903225421906
1788849182161838600,7.852838623046875,-0.554419755935669,0.49893975257873535,0.2677280604839325
1788849182171807500,7.862807373046875,-0.5543755888938904,0.5694179534912109,0.3512844741344452
1788849182181776600,7.872776611328125,-0.5538685917854309,0.6126983761787415,0.4338943064212799
1788849182191745800,7.882745849609375,-0.5571314692497253,0.6315176486968994,0.5190012454986572
1788849182201714700,7.892714599609375,-0.5541945695877075,0.6926935315132141,0.620137095451355
1788849182211683800,7.902683837890625,-0.5601472854614258,0.6910077333450317,0.7339741587638855
1788849182221652700,7.91265283203125,-0.5555849671363831,0.6546943783760071,0.8440577387809753
1788849182231621600,7.92262158203125,-0.5469573736190796,0.616511881351471,0.9290099143981934
1788849182241590800,7.9325908203125,-0.5427910089492798,0.5759264826774597,1.0204776525497437
1788849182251559700,7.9425595703125,-0.5353624224662781,0.5065974593162537,1.1031773090362549
1788849182261528800,7.95252880859375,-0.5377854108810425,0.448099821805954,1.1821995973587036
1788849182271497700,7.962497802734375,-0.572033703327179,0.3539370894432068,1.2599265575408936
1788849182281467600,7.972467529296875,-0.6162627935409546,0.22685037553310394,1.3502267599105835
1788849182291436800,7.982436767578125,-0.6420429944992065,0.12347631901502609,1.4694314002990723
1788849182301405700,7.99240576171875,-0.6496814489364624,0.034392520785331726,1.6255972385406494
1788849182311374600,8.00237451171875,-0.6455410718917847,-0.0598122701048851,1.7939037084579468
1788849182321343700,8.01234375,-0.6223734617233276,-0.11852551996707916,1.9517645835876465
1788849182331312600,8.022312744140624,-0.5967203378677368,-0.12385343760251999,2.1166305541992188
1788849182341281500,8.032281494140625,-0.5661302804946899,-0.13920331001281738,2.263394355773926
1788849182351250700,8.042250732421875,-0.5489441156387329,-0.17337912321090698,2.3181655406951904
1788849182361219600,8.052219482421876,-0.5059524178504944,-0.19026276469230652,2.176635503768921
1788849182371188700,8.062188720703125,-0.43025681376457214,-0.29049909114837646,1.8638942241668701
1788849182381157600,8.07215771484375,-0.28099334239959717,-0.48023346066474915,1.4169546365737915
1788849182391126500,8.08212646484375,-0.07715075463056564,-0.7577257752418518,0.8412311673164368
1788849182401095700,8.092095703125,0.15938127040863037,-1.1703723669052124,0.18859422206878662
1788849182411064600,8.102064697265625,0.3028457760810852,-1.6732760667800903,-0.47305962443351746
1788849182421033700,8.11203369140625,0.34752893447875977,-2.34171724319458,-1.0626678466796875
1788849182431002600,8.122002685546875,0.2897535264492035,-2.8009026050567627,-1.5743889808654785
1788849182440971500,8.131971435546875,0.24724626541137695,-3.016185760498047,-2.065927743911743
1788849182450940700,8.141940673828126,0.19898675382137299,-3.243316173553467,-2.6223952770233154
1788849182460910600,8.15191064453125,0.19775643944740295,-3.40852689743042,-3.180614709854126
1788849182470879500,8.16187939453125,0.24933069944381714,-3.3488075733184814,-3.577894449234009
1788849182480848600,8.1718486328125,0.3035660982131958,-3.3021326065063477,-3.7402780055999756
1788849182490817500,8.181817626953125,0.35681572556495667,-3.3119051456451416,-3.640636920928955
1788849182500786400,8.191786376953125,0.38822028040885925,-3.1412487030029297,-3.3470230102539062
1788849182510755300,8.20175537109375,0.39573121070861816,-2.7463057041168213,-2.9309065341949463
1788849182520724200,8.21172412109375,0.3703227937221527,-2.162405252456665,-2.445492744445801
1788849182530693400,8.221693359375,0.27138611674308777,-1.6009997129440308,-1.9415868520736694
1788849182540662300,8.231662353515626,0.15087246894836426,-1.1128089427947998,-1.455381989479065
1788849182550631200,8.241631103515624,0.1130468025803566,-0.6709660291671753,-0.9958751201629639
1788849182560600300,8.251600341796875,0.1740848869085312,-0.39723777770996094,-0.5549889206886292
1788849182570569200,8.2615693359375,0.2324294149875641,-0.2777009904384613,-0.09825201332569122
1788849182580538400,8.271538330078124,0.257022500038147,-0.11892466247081757,0.33523330092430115
1788849182590507300,8.28150732421875,0.2970668375492096,0.15648959577083588,0.719323992729187
1788849182600476200,8.29147607421875,0.33769458532333374,0.46669700741767883,1.0196378231048584
1788849182610445300,8.3014453125,0.36872628331184387,0.7506785988807678,1.200891137123108
1788849182620414200,8.311414306640625,0.3647802174091339,1.0163943767547607,1.3181864023208618
1788849182630383400,8.32138330078125,0.32782697677612305,1.2539507150650024,1.386393666267395
1788849182640353300,8.331353271484375,0.26884955167770386,1.4608969688415527,1.401548147201538
1788849182650322200,8.341322265625,0.23287825286388397,1.5959680080413818,1.4014818668365479
1788849182660291000,8.351291015625,0.19765064120292664,1.6579691171646118,1.385687232017517
1788849182670260200,8.36126025390625,0.20233885943889618,1.6547578573226929,1.3478882312774658
1788849182680229000,8.37122900390625,0.24212363362312317,1.682918667793274,1.3017237186431885
1788849182690198300,8.3811982421875,0.3009384870529175,1.7098203897476196,1.239972472190857
1788849182700167200,8.391167236328124,0.3814408481121063,1.721386194229126,1.1786160469055176
1788849182710136000,8.401135986328125,0.4527917206287384,1.7510868310928345,1.1004642248153687
1788849182720105200,8.411105224609376,0.4777025878429413,1.7508959770202637,0.99015873670578
1788849182730074000,8.42107421875,0.46825581789016724,1.7349904775619507,0.8658149242401123
1788849182740043300,8.431043212890625,0.44066792726516724,1.7387988567352295,0.7200481295585632
1788849182750012200,8.44101220703125,0.3797222971916199,1.7606418132781982,0.5819485783576965
1788849182759981000,8.45098095703125,0.3185611963272095,1.7943202257156372,0.4543514847755432
1788849182769950200,8.4609501953125,0.27234870195388794,1.8384455442428589,0.3261394500732422
1788849182779919400,8.47091943359375,0.29117318987846375,1.9557253122329712,0.2259845733642578
1788849182789888300,8.48088818359375,0.27894848585128784,1.9897613525390625,0.15492850542068481
1788849182799857400,8.490857421875,0.22894874215126038,1.8606224060058594,0.1132427230477333
1788849182809826300,8.500826416015625,0.16122455894947052,1.6989258527755737,0.07674650102853775
1788849182819795500,8.51079541015625,0.08906639367341995,1.5614488124847412,0.058257486671209335
1788849182829765400,8.520765380859375,0.04429172724485397,1.4442665576934814,0.02884766459465027
1788849182839734300,8.530734375,0.02193913795053959,1.3437491655349731,-0.03850565850734711
1788849182849703400,8.540703369140624,-0.03399283438920975,1.1527405977249146,-0.15402665734291077
1788849182859672300,8.55067236328125,-0.13497403264045715,0.9139711856842041,-0.28462836146354675
1788849182869641200,8.56064111328125,-0.25436487793922424,0.730467677116394,-0.4072922170162201
1788849182879610400,8.5706103515625,-0.349732369184494,0.6075056195259094,-0.49613162875175476
1788849182889579300,8.580579345703125,-0.39918088912963867,0.4979897439479828,-0.5496441125869751
1788849182899548400,8.59054833984375,-0.4260026514530182,0.38781583309173584,-0.5737936496734619
1788849182909517300,8.600517333984374,-0.49162372946739197,0.2235957235097885,-0.5604578852653503
1788849182919486200,8.610486328125,-0.5423280596733093,0.13133691251277924,-0.5197398066520691
1788849182929455400,8.620455322265625,-0.5742199420928955,0.1545458287000656,-0.4542199373245239
1788849182939424300,8.63042431640625,-0.570702850818634,0.20727041363716125,-0.37440550327301025
1788849182949393200,8.64039306640625,-0.5376903414726257,0.18240928649902344,-0.295710951089859
1788849182959362300,8.6503623046875,-0.5294966697692871,0.047633156180381775,-0.20673982799053192
1788849182969331200,8.660331298828124,-0.5373093485832214,-0.09560070186853409,-0.0894656553864479
1788849182979300400,8.67030029296875,-0.5441768169403076,-0.1768413633108139,0.05757669731974602
1788849182989269200,8.680269287109375,-0.5536041855812073,-0.129667729139328,0.21025918424129486
1788849182999238100,8.690238037109374,-0.550675630569458,-0.0689334124326706,0.3780424892902374
1788849183009207300,8.700207275390625,-0.5432981252670288,-0.019090747460722923,0.5672497153282166
1788849183019176200,8.71017626953125,-0.5313880443572998,0.035532351583242416,0.743395209312439
1788849183029145300,8.720145263671874,-0.5313435792922974,0.004298798274248838,0.9334996342658997
1788849183039115300,8.730115234375,-0.5447865128517151,0.013283969834446907,1.1332809925079346
1788849183049084200,8.740084228515625,-0.5603716373443604,-0.01416549738496542,1.3352437019348145
1788849183059053000,8.750052978515624,-0.5044547915458679,0.0978221595287323,1.5240620374679565
1788849183069022200,8.760022216796875,-0.44933319091796875,0.17892739176750183,1.6630066633224487
1788849183078991000,8.7699912109375,-0.3585926294326782,0.13102298974990845,1.7321603298187256
1788849183088960300,8.779960205078124,-0.291612833738327,0.02230682596564293,1.6982781887054443
1788849183098929200,8.78992919921875,-0.3811541199684143,-0.23224030435085297,1.5871589183807373
1788849183108898000,8.79989794921875,-0.36701700091362,-0.4582657217979431,1.397447109222412
1788849183118867200,8.8098671875,-0.30037587881088257,-0.7179737091064453,1.142195224761963
1788849183128836000,8.819836181640625,-0.15662962198257446,-0.9721623063087463,0.8368909358978271
1788849183138805200,8.82980517578125,-0.015164168551564217,-1.2641395330429077,0.4341793358325958
1788849183148774400,8.8397744140625,0.08513260632753372,-1.5139861106872559,-0.04006602615118027
1788849183158743300,8.849743408203125,0.1402774155139923,-1.6878228187561035,-0.5081806778907776
1788849183168712400,8.85971240234375,0.15868838131427765,-1.9185434579849243,-0.9541475176811218
1788849183178681300,8.869681396484374,0.15896719694137573,-2.0770652294158936,-1.319148063659668
1788849183188650500,8.879650390625,0.19562692940235138,-2.189703941345215,-1.5782333612442017
1788849183198619400,8.889619384765625,0.25027382373809814,-2.256223440170288,-1.731871247291565
1788849183208588300,8.89958837890625,0.29551932215690613,-2.372516393661499,-1.7941367626190186
1788849183218557400,8.909557373046875,0.32657694816589355,-2.489776372909546,-1.789816975593567
1788849183228526300,8.9195263671875,0.34340786933898926,-2.5361554622650146,-1.7393271923065186
1788849183238495200,8.9294951171875,0.33729687333106995,-2.5267114639282227,-1.6634944677352905
1788849183248464400,8.93946435546875,0.33259105682373047,-2.478956460952759,-1.5722556114196777
1788849183258433300,8.949433349609375,0.34839731454849243,-2.394751787185669,-1.4333416223526
1788849183268403200,8.9594033203125,0.3584859073162079,-2.2921016216278076,-1.2376370429992676
1788849183278372400,8.969372314453125,0.3771093785762787,-2.12929105758667,-1.0557111501693726
1788849183288341200,8.97934130859375,0.3681025803089142,-1.902793049812317,-0.9032506942749023
1788849183298310400,8.989310302734374,0.37318283319473267,-1.6405657529830933,-0.7876101732254028
1788849183308279300,8.999279296875,0.39358317852020264,-1.3240660429000854,-0.6872901916503906
1788849183318248200,9.009248291015625,0.4196382164955139,-0.9522095322608948,-0.5710011720657349
1788849183328217300,9.01921728515625,0.4716079533100128,-0.5930875539779663,-0.40736621618270874
1788849183338186200,9.029186279296875,0.568230390548706,-0.2869987487792969,-0.18691062927246094
1788849183348155100,9.039155029296875,0.6086188554763794,0.036224838346242905,0.0385158434510231
1788849183358124300,9.049124267578126,0.6119489073753357,0.2915659248828888,0.2535223960876465
1788849183368093200,9.05909326171875,0.6300402879714966,0.5333127975463867,0.42089807987213135
1788849183378062300,9.069062255859375,0.6422402262687683,0.758398175239563,0.4948365092277527
1788849183388031200,9.07903125,0.695017397403717,1.0174559354782104,0.5048382878303528
1788849183398000000,9.089000244140625,0.7359527945518494,1.185991644859314,0.48238635063171387
1788849183407969300,9.09896923828125,0.7401145100593567,1.3024476766586304,0.47158217430114746
1788849183417938200,9.108938232421876,0.6993290781974792,1.430780053138733,0.4433450400829315
1788849183427907300,9.1189072265625,0.6331984996795654,1.5640536546707153,0.41815418004989624
1788849183437876200,9.128876220703125,0.5883526802062988,1.6778476238250732,0.39338579773902893
1788849183447845000,9.13884521484375,0.5693047046661377,1.7420340776443481,0.3410131335258484
1788849183457814300,9.148814208984374,0.5371841788291931,1.7415804862976074,0.2960910201072693
1788849183467783200,9.158783203125,0.4926190674304962,1.7311842441558838,0.25670287013053894
1788849183477752300,9.16875244140625,0.4448864758014679,1.661521077156067,0.23762603104114532
1788849183487721200,9.17872119140625,0.39700788259506226,1.552632212638855,0.22492967545986176
1788849183497690000,9.188690185546875,0.3651920557022095,1.4858490228652954,0.20280331373214722
1788849183507659800,9.19865966796875,0.3484239876270294,1.450931191444397,0.13574545085430145
1788849183517628700,9.208628662109374,0.331970751285553,1.3734889030456543,0.03541010618209839
1788849183527597600,9.21859765625,0.3063170611858368,1.2525172233581543,-0.08533095568418503
1788849183537566700,9.228566650390626,0.2916911542415619,1.184396505355835,-0.23041465878486633
1788849183547535600,9.23853564453125,0.2638089060783386,1.153011441230774,-0.3607092797756195
1788849183557504800,9.2485048828125,0.2677399814128876,1.1655813455581665,-0.49718403816223145
1788849183567473700,9.2584736328125,0.23315215110778809,1.1566611528396606,-0.5973644256591797
1788849183577442600,9.268442626953124,0.20366118848323822,1.1131694316864014,-0.6988158822059631
1788849183587411700,9.27841162109375,0.1558678299188614,1.118873119354248,-0.775413990020752
1788849183597380600,9.288380615234376,0.06469622254371643,1.0926461219787598,-0.792424201965332
1788849183607349800,9.298349853515624,-0.007258127443492413,1.0027809143066406,-0.7985124588012695
1788849183617318700,9.308318603515625,-0.054337967187166214,0.9417963624000549,-0.8082355856895447
1788849183627287600,9.31828759765625,-0.06326328217983246,0.7721220850944519,-0.8462250828742981
1788849183638503700,9.329503662109374,-0.07191669195890427,0.4985981285572052,-0.8989806771278381
1788849183648472800,9.339472900390625,-0.09389297664165497,0.37319037318229675,-0.9378799796104431
1788849183658441700,9.349441650390625,-0.12781991064548492,0.3595922291278839,-0.9441547989845276
1788849183668411000,9.359410888671874,-0.17975421249866486,0.3279283344745636,-0.9423640966415405
1788849183678379800,9.3693798828125,-0.21069471538066864,0.3343518078327179,-0.9140092730522156
1788849183688348700,9.3793486328125,-0.24551688134670258,0.38319844007492065,-0.8650723695755005
1788849183698317800,9.38931787109375,-0.2709072530269623,0.31342312693595886,-0.8060656785964966
1788849183708286700,9.39928662109375,-0.2980659008026123,0.33176806569099426,-0.7062780857086182
1788849183718255900,9.409255859375,-0.32694610953330994,0.31806570291519165,-0.5531111359596252
1788849183728224800,9.419224853515624,-0.3648625910282135,0.2754268944263458,-0.3707045912742615
1788849183738193700,9.429193603515625,-0.39148277044296265,0.3254716992378235,-0.17776083946228027
1788849183748162800,9.439162841796875,-0.4125153720378876,0.41263243556022644,0.008442055433988571
1788849183758131700,9.449131591796874,-0.44937795400619507,0.4602421522140503,0.2292598932981491
1788849183768100900,9.459100830078125,-0.48719775676727295,0.48750734329223633,0.4879026412963867
1788849183778069800,9.46906982421875,-0.535875141620636,0.5138510465621948,0.7499943375587463
1788849183788038700,9.47903857421875,-0.5817558169364929,0.5480892062187195,1.0172524452209473
1788849183798007800,9.4890078125,-0.6192724704742432,0.5789361000061035,1.2769705057144165
1788849183807976700,9.498976806640625,-0.6538562774658203,0.5466668009757996,1.523584008216858
1788849183817945600,9.508945556640626,-0.6823282837867737,0.5115215182304382,1.7887605428695679
1788849183827915800,9.518915771484375,-0.6983602046966553,0.4621712863445282,2.065660238265991
1788849183837884700,9.528884765625,-0.7005343437194824,0.42133378982543945,2.3393876552581787
1788849183847853600,9.538853515625,-0.686817467212677,0.35458219051361084,2.601175308227539
1788849183857822700,9.54882275390625,-0.6772503852844238,0.3237476050853729,2.8671340942382812
1788849183867791600,9.55879150390625,-0.6701107621192932,0.2341383844614029,3.1194231510162354
1788849183877760800,9.5687607421875,-0.6236507892608643,0.1059916689991951,3.357063055038452
1788849183887729700,9.578729736328125,-0.5528243184089661,-0.022730089724063873,3.505521297454834
1788849183897698600,9.588698486328125,-0.4532327353954315,-0.10704995691776276,3.5080089569091797
1788849183907667700,9.598667724609374,-0.3690454065799713,-0.1643582582473755,3.342686176300049
1788849183917636600,9.60863671875,-0.26392269134521484,-0.3080439865589142,3.033108711242676
1788849183927605500,9.61860546875,-0.09916996955871582,-0.5239464044570923,2.547787666320801
1788849183937574700,9.62857470703125,0.16116046905517578,-0.9298936128616333,1.9460840225219727
1788849183947543600,9.63854345703125,0.45447996258735657,-1.4974846839904785,1.2367489337921143
1788849183957512700,9.6485126953125,0.6837165951728821,-2.0388150215148926,0.48770612478256226
1788849183967481600,9.658481689453126,0.710762619972229,-2.450622320175171,-0.30786263942718506
1788849183977450500,9.668450439453125,0.5663894414901733,-2.742262601852417,-1.1149336099624634
1788849183987419600,9.678419677734375,0.4856320321559906,-2.8701062202453613,-1.8228150606155396
1788849183997388500,9.688388427734376,0.4883522689342499,-2.99661922454834,-2.508971691131592
1788849184007357700,9.698357666015625,0.550166666507721,-3.271073341369629,-3.1953532695770264
1788849184017326600,9.70832666015625,0.634560763835907,-3.4784445762634277,-3.844499111175537
1788849184027295500,9.71829541015625,0.688214123249054,-3.4228217601776123,-4.369206428527832
1788849184037264600,9.7282646484375,0.754066526889801,-3.2873477935791016,-4.709654808044434
1788849184047233500,9.738233642578125,0.879895806312561,-3.238192081451416,-4.781231880187988
1788849184057202700,9.74820263671875,0.980185866355896,-3.1702733039855957,-4.491696357727051
1788849184067171600,9.758171630859374,1.0846083164215088,-2.9610989093780518,-3.9287874698638916
1788849184077140500,9.768140380859375,1.1402932405471802,-2.611395835876465,-3.2327775955200195
1788849184087110000,9.77810986328125,1.071054220199585,-2.1067183017730713,-2.457918643951416
1788849184097078800,9.788078857421874,0.8804855346679688,-1.610249638557434,-1.6964514255523682
1788849184107047700,9.798047607421875,0.6624029874801636,-1.1485350131988525,-0.9587068557739258
1788849184117016800,9.808016845703126,0.49989938735961914,-0.7197451591491699,-0.3082018792629242
1788849184126985700,9.81798583984375,0.43330198526382446,-0.4215790033340454,0.2410852015018463
1788849184136955600,9.82795556640625,0.4245651960372925,-0.17135338485240936,0.7284111976623535
1788849184146924800,9.8379248046875,0.4495256543159485,0.1660294383764267,1.1269232034683228
1788849184156893700,9.847893798828125,0.4905499815940857,0.4547996520996094,1.4179414510726929
1788849184166862800,9.85786279296875,0.5066261291503906,0.6703265905380249,1.5878561735153198
1788849184176831700,9.867831787109376,0.5702129602432251,0.9537956118583679,1.647405982017517
1788849184186800600,9.877800537109374,0.6258853077888489,1.3284448385238647,1.5981687307357788
1788849184196769800,9.887769775390625,0.688408613204956,1.670697569847107,1.5059417486190796
1788849184206738700,9.89773876953125,0.7161781787872314,1.8963195085525513,1.3905848264694214
1788849184216707600,9.90770751953125,0.7082847356796265,2.045966625213623,1.2462245225906372
1788849184226676700,9.9176767578125,0.6969748139381409,2.1323933601379395,1.100756049156189
1788849184236645600,9.927645751953126,0.6715185642242432,2.199615240097046,0.9315456748008728
1788849184246614800,9.93761474609375,0.6457908153533936,2.2089216709136963,0.7330003380775452
1788849184256583700,9.947583740234375,0.6206979155540466,2.175238847732544,0.5270134210586548
1788849184266552600,9.957552490234375,0.6121837496757507,2.101201057434082,0.31949377059936523
1788849184276521700,9.967521728515624,0.6328948140144348,2.026718854904175,0.09322910010814667
1788849184286490600,9.97749072265625,0.6684736013412476,1.9362714290618896,-0.15087836980819702
1788849184296459800,9.987459716796875,0.6953307390213013,1.8449671268463135,-0.2986176311969757
1788849184306428700,9.9974287109375,0.6378238201141357,1.758101463317871,-0.38068878650665283
1788849184316397600,10.0073974609375,0.5134384036064148,1.6963838338851929,-0.4107913374900818
1788849184326366700,10.01736669921875,0.336837500333786,1.759969711303711,-0.421008825302124
1788849184336335600,10.027335693359374,0.2189696878194809,1.8393815755844116,-0.4458700120449066
1788849184346304800,10.0373046875,0.13478823006153107,1.8228611946105957,-0.49107399582862854
1788849184356273700,10.047273681640625,0.094413623213768,1.7224833965301514,-0.5312997698783875
1788849184366242600,10.05724267578125,0.05836081877350807,1.5209332704544067,-0.5479066967964172
1788849184376211700,10.067211669921875,0.023265574127435684,1.2707096338272095,-0.6085392832756042
1788849184386180600,10.0771806640625,-0.044027179479599,1.1281224489212036,-0.6283135414123535
1788849184396149800,10.087149658203124,-0.13021859526634216,1.0166250467300415,-0.5963784456253052
1788849184406118700,10.09711865234375,-0.1954740434885025,0.8800922632217407,-0.5191177725791931
1788849184416087600,10.107087646484375,-0.20850162208080292,0.8160452246665955,-0.4785228371620178
1788849184426056700,10.117056640625,-0.22191862761974335,0.7321370244026184,-0.49956661462783813
1788849184436026600,10.127026611328125,-0.24438868463039398,0.5972813367843628,-0.5217524766921997
1788849184445994500,10.136994384765625,-0.28418058156967163,0.5205420851707458,-0.5405061841011047
1788849184455965000,10.14696484375,-0.3180072605609894,0.4122403562068939,-0.5443010330200195
1788849184465933800,10.156933837890625,-0.3535205125808716,0.2973390817642212,-0.5488638281822205
1788849184475902700,10.16690283203125,-0.4128163158893585,0.26653480529785156,-0.5274530649185181
1788849184485871900,10.176871826171874,-0.45181992650032043,0.24619118869304657,-0.4726641774177551
1788849184495840800,10.1868408203125,-0.4750356078147888,0.33445054292678833,-0.39461854100227356
1788849184505809700,10.1968095703125,-0.4819915294647217,0.4639110565185547,-0.29804298281669617
1788849184515778800,10.20677880859375,-0.4759348928928375,0.5844199657440186,-0.17182214558124542
1788849184525747700,10.216747802734375,-0.5000378489494324,0.6615142226219177,-0.006492307409644127
1788849184535716900,10.226716796875,-0.5369359254837036,0.7413520812988281,0.21031755208969116
1788849184545685800,10.236685791015624,-0.5705980062484741,0.8345584869384766,0.5033278465270996
1788849184555654700,10.246654541015625,-0.5981242060661316,0.929742157459259,0.8688281774520874
1788849184565623800,10.256623779296875,-0.621192216873169,1.0230460166931152,1.2719297409057617
1788849184575592700,10.2665927734375,-0.6573666930198669,1.047086238861084,1.7128589153289795
1788849184585561900,10.276561767578125,-0.6657367944717407,1.0094523429870605,2.1620588302612305
1788849184595530800,10.28653076171875,-0.691300630569458,0.9792618155479431,2.589768648147583
1788849184605499600,10.296499755859376,-0.7229227423667908,0.9151235818862915,2.9798805713653564
1788849184615468800,10.30646875,-0.7614531517028809,0.7716785073280334,3.3309476375579834
1788849184625437700,10.316437744140625,-0.7748610973358154,0.6175190210342407,3.621175527572632
1788849184635406800,10.32640673828125,-0.7454184293746948,0.4759729206562042,3.88950514793396
1788849184645375700,10.336375732421875,-0.7183226346969604,0.3116486966609955,4.134058952331543
1788849184655344600,10.3463447265625,-0.673393726348877,0.070806585252285,4.354150772094727
1788849184665313800,10.356313720703126,-0.6272909641265869,-0.14733853936195374,4.563387393951416
1788849184675282700,10.36628271484375,-0.5708869099617004,-0.30175554752349854,4.648931503295898
1788849184685251800,10.376251953125,-0.4958832859992981,-0.4288218915462494,4.547034740447998
1788849184695220700,10.386220703125,-0.4166734516620636,-0.47190311551094055,4.25261926651001
1788849184705189600,10.396189697265624,-0.2794007956981659,-0.6334546804428101,3.822631597518921
1788849184715158800,10.40615869140625,-0.004948185756802559,-1.031388759613037,3.2472898960113525
1788849184725127700,10.416127685546876,0.3552275598049164,-1.4935425519943237,2.482820510864258
1788849184735096600,10.4260966796875,0.6773971319198608,-1.9766502380371094,1.5519516468048096
1788849184745065700,10.436065673828125,0.8370999693870544,-2.4154067039489746,0.5209589004516602
1788849184755034600,10.44603466796875,0.8598254323005676,-2.79929256439209,-0.5638478398323059
1788849184765003800,10.456003662109374,0.8473919630050659,-3.202751874923706,-1.6433430910110474
1788849184774972700,10.46597265625,0.8054107427597046,-3.696028709411621,-2.6768124103546143
1788849184784941600,10.475941650390626,0.7533861398696899,-4.239595413208008,-3.7246010303497314
1788849184794910700,10.48591064453125,0.6756496429443359,-4.6406450271606445,-4.694499492645264
1788849184804879600,10.495879638671875,0.6128624081611633,-4.556160926818848,-5.419967174530029
1788849184814848800,10.505848876953126,0.6604480743408203,-4.422296047210693,-5.928910732269287
1788849184824818700,10.515818603515624,0.8204412460327148,-4.448143482208252,-6.194511413574219
1788849184834786600,10.52578662109375,1.0346699953079224,-4.485353946685791,-6.110401630401611
1788849184844756500,10.535756591796876,1.2136354446411133,-4.232507705688477,-5.59000825881958
1788849184854725600,10.5457255859375,1.3380773067474365,-3.6185359954833984,-4.833052635192871
1788849184864694500,10.555694580078125,1.2999978065490723,-2.9095988273620605,-3.9609944820404053
1788849184874663700,10.56566357421875,1.1088639497756958,-2.404906749725342,-3.1457910537719727
1788849184884632600,10.575632568359374,0.8391730785369873,-2.078251600265503,-2.3160316944122314
1788849184894601500,10.5856015625,0.6372147798538208,-1.8604391813278198,-1.4871368408203125
1788849184904570600,10.595570556640626,0.5144731402397156,-1.6489698886871338,-0.704359233379364
1788849184914539500,10.60553955078125,0.44128286838531494,-1.3596971035003662,-0.01717916876077652
1788849184924508700,10.6155087890625,0.42736199498176575,-1.0317809581756592,0.5469518899917603
1788849184934477600,10.6254775390625,0.4608726501464844,-0.6339614391326904,0.9486567974090576
1788849184944446700,10.63544677734375,0.49617815017700195,-0.29515010118484497,1.1725878715515137
1788849184954415900,10.645415771484375,0.5225467681884766,-0.07582080364227295,1.3087142705917358
1788849184964384800,10.655384765625,0.5308067798614502,0.13803155720233917,1.4181190729141235
1788849184974353700,10.665353759765624,0.5904669761657715,0.3739272356033325,1.4532009363174438
1788849184984322800,10.67532275390625,0.6864923238754272,0.8440387845039368,1.418730616569519
1788849184994291700,10.685291748046875,0.7387712597846985,1.2617194652557373,1.2937546968460083
1788849185004260900,10.6952607421875,0.7857888340950012,1.504710078239441,1.1355540752410889
1788849185014229800,10.705229736328125,0.7902411222457886,1.585876226425171,0.9615892767906189
1788849185024198700,10.71519873046875,0.78969407081604,1.7044527530670166,0.7691099643707275
1788849185034167800,10.725167724609374,0.813757598400116,1.880102276802063,0.6076869964599609
1788849185044136700,10.73513671875,0.851646900177002,2.057996988296509,0.43765267729759216
1788849185054105900,10.74510595703125,0.8691790699958801,2.180645227432251,0.24063898622989655
1788849185064074800,10.75507470703125,0.8793057203292847,2.1209542751312256,0.07090453803539276
1788849185074043600,10.765043701171875,0.8586001992225647,2.031053066253662,-0.07751723378896713
1788849185084012800,10.7750126953125,0.7857919931411743,2.04345965385437,-0.21399492025375366
1788849185093981700,10.784981689453126,0.7088169455528259,2.1472909450531006,-0.33522090315818787
1788849185103950800,10.794950927734375,0.6483844518661499,2.2734670639038086,-0.4211829602718353
1788849185113919700,10.804919677734375,0.5964639782905579,2.209925413131714,-0.5267341732978821
1788849185123888600,10.814888671875,0.5419993996620178,2.1116743087768555,-0.6716117262840271
1788849185133857800,10.82485791015625,0.4730646014213562,1.9721752405166626,-0.7992627620697021
1788849185143826700,10.83482666015625,0.4347020089626312,1.8442583084106445,-0.9210842847824097
1788849185153795800,10.8447958984375,0.378079354763031,1.703307867050171,-1.0579262971878052
1788849185163764700,10.8547646484375,0.3164077401161194,1.590625286102295,-1.1493017673492432
1788849185173733600,10.864733642578125,0.2205008566379547,1.5056004524230957,-1.205254077911377
1788849185183702800,10.874702880859376,0.16355447471141815,1.448504090309143,-1.2392584085464478
1788849185193671700,10.884671630859375,0.07742438465356827,1.4375535249710083,-1.2202104330062866
1788849185203640600,10.894640625,0.04711627960205078,1.4932724237442017,-1.2050621509552002
1788849185213609700,10.904609619140626,0.03146970644593239,1.4498614072799683,-1.2283110618591309
1788849185223578600,10.91457861328125,-0.0022142194211483,1.3369423151016235,-1.2196675539016724
1788849185233547800,10.9245478515625,-0.037094973027706146,1.266070008277893,-1.222470760345459
1788849185243516700,10.9345166015625,-0.07039166986942291,1.204788327217102,-1.2219101190567017
1788849185253485600,10.944485595703124,-0.0937727689743042,1.1664949655532837,-1.1792240142822266
1788849185263454700,10.954454833984375,-0.106733039021492,1.1498925685882568,-1.1223677396774292
1788849185273423600,10.964423583984376,-0.11426038295030594,1.2130348682403564,-1.014751672744751
1788849185283392800,10.974392822265624,-0.14063207805156708,1.3773486614227295,-0.8070847988128662
1788849185293361700,10.984361572265625,-0.17391963303089142,1.5918385982513428,-0.5464017987251282
1788849185303330600,10.99433056640625,-0.22195054590702057,1.8123445510864258,-0.22460860013961792
1788849185313299700,11.0042998046875,-0.2723504900932312,1.9642541408538818,0.15831618010997772
1788849185323268600,11.0142685546875,-0.32610002160072327,1.9945825338363647,0.5925883054733276
1788849185333237800,11.02423779296875,-0.3570503890514374,1.9612047672271729,1.1028759479522705
1788849185343206700,11.03420654296875,-0.37831997871398926,1.9785888195037842,1.7051801681518555
1788849185353175600,11.044175537109375,-0.4277225136756897,2.0021674633026123,2.3334028720855713
1788849185363144700,11.054144775390625,-0.49885261058807373,2.059971809387207,2.9219796657562256
1788849185373113600,11.064113525390624,-0.5694084167480469,2.124342679977417,3.488002061843872
1788849185383082800,11.074082763671875,-0.6215248703956604,2.1209378242492676,4.024172782897949
1788849185393051600,11.0840517578125,-0.6757062673568726,2.034266471862793,4.518765926361084
1788849185403020500,11.0940205078125,-0.6832185387611389,1.851209282875061,4.93402099609375
1788849185412989700,11.10398974609375,-0.6508932709693909,1.6185362339019775,5.2778706550598145
1788849185422958600,11.11395849609375,-0.6041920781135559,1.42186439037323,5.5475640296936035
1788849185432927500,11.123927490234376,-0.5344316959381104,1.1752731800079346,5.727232933044434
1788849185442898000,11.13389794921875,-0.47867947816848755,0.8769473433494568,5.840104579925537
1788849185452865500,11.143865478515625,-0.4521801471710205,0.6154366135597229,5.867168426513672
1788849185462835700,11.153835693359374,-0.42675042152404785,0.4485722780227661,5.781649112701416
1788849185472804900,11.163804931640625,-0.3518005907535553,0.3208288252353668,5.581531524658203
1788849185482773800,11.173773681640625,-0.28999555110931396,0.1566380262374878,5.257752418518066
1788849185492742700,11.18374267578125,-0.18250912427902222,-0.08117281645536423,4.819957256317139
1788849185502711800,11.1937119140625,0.05365946888923645,-0.3740640878677368,4.165987968444824
1788849185512681700,11.203681640625,0.3635513186454773,-0.802210807800293,3.2892656326293945
1788849185522650600,11.213650634765624,0.6637241840362549,-1.37819242477417,2.1908488273620605
1788849185532619800,11.223619873046875,0.9075301885604858,-1.9520436525344849,1.064304232597351
1788849185542588700,11.233588623046876,0.9660113453865051,-2.2717902660369873,-0.05668437480926514
1788849185552557800,11.243557861328124,0.9723571538925171,-2.607872724533081,-1.1835566759109497
1788849185562526700,11.253526611328125,0.9741971492767334,-3.0779244899749756,-2.241973876953125
1788849185572495600,11.26349560546875,0.9838739037513733,-3.483414649963379,-3.215261697769165
1788849185582464800,11.27346484375,0.9310455322265625,-3.909675359725952,-4.038963317871094
1788849185592433700,11.28343359375,0.8239023089408875,-4.236532688140869,-4.740492343902588
1788849185602402600,11.293402587890625,0.751147985458374,-4.445405960083008,-5.29960298538208
1788849185612371700,11.303371826171874,0.7957022190093994,-4.50277042388916,-5.703550815582275
1788849185622340600,11.313340576171875,0.9145442247390747,-4.445560455322266,-5.967345714569092
1788849185632309800,11.323309814453125,1.06015944480896,-4.415831089019775,-6.028388977050781
1788849185642278700,11.333278564453124,1.2078272104263306,-4.421665191650391,-5.875638008117676
1788849185652247600,11.34324755859375,1.3531417846679688,-4.230658054351807,-5.627654075622559
1788849185662216700,11.353216796875,1.4292511940002441,-3.921633243560791,-5.154972553253174
1788849185672185600,11.363185546875,1.376018762588501,-3.626373767852783,-4.45540714263916
1788849185682154800,11.37315478515625,1.2815004587173462,-3.302738904953003,-3.6504623889923096
1788849185692123600,11.38312353515625,1.1285102367401123,-3.034395933151245,-2.852149248123169
1788849185702092500,11.393092529296876,0.9580715894699097,-2.8951354026794434,-2.0227746963500977
1788849185712061700,11.403061767578125,0.8094080686569214,-2.790910005569458,-1.1385369300842285
1788849185722030600,11.413030517578125,0.6793715357780457,-2.521731376647949,-0.29055213928222656
1788849185731999700,11.422999755859376,0.5648451447486877,-2.1697611808776855,0.43951690196990967
1788849185741968600,11.43296875,0.4663712978363037,-1.8356609344482422,1.0620355606079102
1788849185751937500,11.4429375,0.420936644077301,-1.505344033241272,1.5605812072753906
1788849185761906700,11.45290673828125,0.3713001310825348,-1.099463701248169,1.8693771362304688
1788849185771875600,11.46287548828125,0.33237478137016296,-0.5930905342102051,2.0142014026641846
1788849185781844700,11.4728447265625,0.37481918931007385,-0.09124714881181717,2.0411736965179443
1788849185791813600,11.482813720703126,0.4906005859375,0.3636550009250641,1.9956519603729248
1788849185801782500,11.492782470703125,0.6255325675010681,0.8285470008850098,1.8663033246994019
1788849185811751700,11.502751708984375,0.696392297744751,1.306306004524231,1.688608169555664
1788849185821720600,11.512720458984376,0.7555376291275024,1.7557741403579712,1.485145926475525
1788849185831689500,11.522689453125,0.7993329763412476,2.21089506149292,1.267909049987793
1788849185841658600,11.53265869140625,0.7931935787200928,2.6227335929870605,1.0588226318359375
1788849185851627500,11.54262744140625,0.7698007822036743,2.8133304119110107,0.8994245529174805
1788849185861596700,11.5525966796875,0.7326507568359375,2.908172607421875,0.7722492814064026
1788849185871565600,11.562565673828125,0.6906470060348511,2.971121311187744,0.6703700423240662
1788849185881534500,11.572534423828126,0.6716852784156799,2.953162908554077,0.5899420976638794
1788849185891503600,11.582503662109374,0.627346396446228,2.808061361312866,0.49859604239463806
1788849185901472500,11.592472412109375,0.5326542258262634,2.5738718509674072,0.45074784755706787
1788849185911441700,11.602441650390626,0.4151389002799988,2.3049652576446533,0.4042474925518036
1788849185921410600,11.61241064453125,0.295539528131485,2.069854974746704,0.349181592464447
1788849185931379500,11.62237939453125,0.20065884292125702,1.9060648679733276,0.2910604178905487
1788849185941348600,11.6323486328125,0.09762459993362427,1.7482943534851074,0.19151438772678375
1788849185951317500,11.6423173828125,-0.03367765247821808,1.5282260179519653,0.0711340457201004
1788849185961286700,11.65228662109375,-0.11260948330163956,1.3940136432647705,-0.09661979973316193
1788849185971255600,11.662255615234375,-0.16117939352989197,1.3214051723480225,-0.2857101559638977
1788849185981224400,11.672224365234374,-0.2069828361272812,1.2849717140197754,-0.4411165118217468
1788849185991193600,11.682193603515625,-0.2674701511859894,1.300398349761963,-0.6202856302261353
1788849186001162500,11.69216259765625,-0.33823221921920776,1.2902265787124634,-0.7506574988365173
1788849186011131600,11.702131591796874,-0.384342759847641,1.291075587272644,-0.8230515122413635
1788849186021100800,11.712100830078125,-0.421110600233078,1.318953275680542,-0.8661611676216125
1788849186031069700,11.722069580078125,-0.4555321931838989,1.3779176473617554,-0.9007217884063721
1788849186041038800,11.732038818359374,-0.479768306016922,1.3676828145980835,-0.9088923931121826
1788849186051007700,11.7420078125,-0.4797517955303192,1.3248636722564697,-0.8879542946815491
1788849186060976600,11.7519765625,-0.45279794931411743,1.2790776491165161,-0.8844679594039917
1788849186070945800,11.76194580078125,-0.44921430945396423,1.1671141386032104,-0.9000898599624634
1788849186080914700,11.771914794921875,-0.4658944606781006,1.0114110708236694,-0.8911656141281128
1788849186090883800,11.7818837890625,-0.5044600367546082,0.9134770035743713,-0.8524899482727051
1788849186100852700,11.791852783203124,-0.5629606246948242,0.8387020826339722,-0.73661208152771
1788849186110821600,11.801821533203125,-0.5853703022003174,0.7702525854110718,-0.5907865166664124
1788849186120790800,11.811790771484375,-0.5891863703727722,0.684907078742981,-0.4207548499107361
1788849186130759700,11.821759765625,-0.6003548502922058,0.6161510348320007,-0.21231906116008759
1788849186140728800,11.831728759765625,-0.5907789468765259,0.621950089931488,0.031082147732377052
1788849186150697700,11.84169775390625,-0.5863975882530212,0.6459407210350037,0.3341166377067566
1788849186160666600,11.85166650390625,-0.5853831768035889,0.6727441549301147,0.6862723231315613
1788849186170635800,11.8616357421875,-0.6064826250076294,0.7458990812301636,1.08133864402771
1788849186180604700,11.871604736328125,-0.671889066696167,0.7883583903312683,1.4794803857803345
1788849186190573600,11.881573486328126,-0.7451749444007874,0.7978863716125488,1.889931321144104
1788849186200542700,11.891542724609375,-0.8286147117614746,0.8220018148422241,2.2874879837036133
1788849186210511600,11.90151171875,-0.8536981344223022,0.8117803335189819,2.675957679748535
1788849186220480800,11.911480712890626,-0.8721650242805481,0.7642069458961487,3.0580153465270996
1788849186230449700,11.92144970703125,-0.8932341933250427,0.6330825090408325,3.41617488861084
1788849186240418600,11.93141845703125,-0.8766850233078003,0.45163923501968384,3.7407631874084473
1788849186250387700,11.9413876953125,-0.8475660085678101,0.33436593413352966,4.037832260131836
1788849186260356600,11.951356689453124,-0.785332441329956,0.20727244019508362,4.299609661102295
1788849186270325800,11.96132568359375,-0.7791242003440857,0.071761354804039,4.434945583343506
1788849186280294700,11.971294677734376,-0.7874833345413208,-0.07357533276081085,4.457598686218262
1788849186290263600,11.981263671875,-0.7646385431289673,-0.2308187335729599,4.391273498535156
1788849186300232700,11.991232666015625,-0.7521554827690125,-0.3609767258167267,4.167238235473633
1788849186310201600,12.00120166015625,-0.6143245697021484,-0.4836863577365875,3.799973964691162
1788849186320170800,12.011170654296874,-0.2707090973854065,-0.7014245390892029,3.212535858154297
1788849186330139600,12.0211396484375,0.1952076256275177,-1.1307295560836792,2.406294584274292
1788849186340108500,12.031108642578126,0.5534883141517639,-1.654302716255188,1.4519175291061401
1788849186350077700,12.04107763671875,0.7226135730743408,-2.0044333934783936,0.4382549822330475
1788849186360046600,12.051046630859375,0.750552773475647,-2.2483115196228027,-0.5914764404296875
1788849186370015700,12.061015625,0.7005794048309326,-2.600472927093506,-1.6089972257614136
1788849186379984600,12.070984619140624,0.7664452195167542,-2.9495110511779785,-2.6514790058135986
1788849186389953500,12.08095361328125,0.8219903111457825,-3.169189214706421,-3.6049561500549316
1788849186399922700,12.090922607421875,0.8539983034133911,-3.2978053092956543,-4.421097755432129
1788849186409891600,12.1008916015625,0.8961552977561951,-3.2536327838897705,-5.02392053604126
1788849186419860500,12.110860595703125,0.9645980000495911,-3.180882215499878,-5.381381034851074
1788849186429829600,12.12082958984375,1.146396279335022,-3.219477891921997,-5.54723596572876
1788849186439798500,12.130798583984374,1.3343545198440552,-3.2988462448120117,-5.530311584472656
1788849186449767700,12.140767578125,1.4614158868789673,-3.3332884311676025,-5.33176851272583
1788849186459736600,12.150736572265625,1.5152983665466309,-3.204522132873535,-4.894318103790283
1788849186469705500,12.16070556640625,1.4736177921295166,-3.0373785495758057,-4.2895612716674805
1788849186479674600,12.170674560546875,1.3607712984085083,-2.845126152038574,-3.6001646518707275
1788849186489643500,12.1806435546875,1.1971707344055176,-2.6817963123321533,-2.865262746810913
1788849186499612700,12.19061279296875,0.9979947805404663,-2.6479954719543457,-2.0912082195281982
1788849186509581600,12.20058154296875,0.8422428369522095,-2.506776809692383,-1.325504183769226
1788849186519550200,12.21055029296875,0.7882866263389587,-2.2216086387634277,-0.5959135890007019
1788849186529519400,12.220519287109376,0.7707993984222412,-1.8710001707077026,0.09889229387044907
1788849186539488300,12.23048828125,0.722554624080658,-1.4995899200439453,0.6469226479530334
1788849186549457400,12.24045751953125,0.6508728861808777,-1.0496933460235596,1.0775197744369507
1788849186559426300,12.25042626953125,0.6170877814292908,-0.48039400577545166,1.4280014038085938
1788849186569395200,12.260395263671874,0.6037091612815857,0.035734519362449646,1.6621642112731934
1788849186579364400,12.2703642578125,0.6197860836982727,0.4937790632247925,1.733299732208252
1788849186589333200,12.280333251953126,0.6622022986412048,0.9363061785697937,1.7058874368667603
1788849186599302400,12.290302490234374,0.7145214080810547,1.3517531156539917,1.6316238641738892
1788849186609270300,12.300270263671875,0.7749447822570801,1.706405520439148,1.488006591796875
1788849186619239400,12.310239501953125,0.804321825504303,1.975826621055603,1.3125120401382446
1788849186629208300,12.320208251953124,0.7820219993591309,2.2101540565490723,1.1325963735580444
1788849186639177200,12.33017724609375,0.7085163593292236,2.3868227005004883,1.0092846155166626
1788849186649146400,12.340146484375,0.6374493837356567,2.44588303565979,0.9432356953620911
1788849186659115300,12.350115234375,0.5677832365036011,2.4822301864624023,0.8329086899757385
1788849186669084400,12.36008447265625,0.5319530367851257,2.4639060497283936,0.6842828392982483
1788849186679053300,12.37005322265625,0.5329455733299255,2.3224053382873535,0.536142110824585
1788849186689022200,12.380022216796876,0.5046178102493286,2.0948452949523926,0.4129059612751007
1788849186698991400,12.389991455078125,0.4399503767490387,1.9413435459136963,0.27458563446998596
1788849186708960300,12.399960205078125,0.3574385941028595,1.830397129058838,0.14329637587070465
1788849186718929400,12.409929443359376,0.26120978593826294,1.6852554082870483,0.02911999821662903
1788849186728898300,12.419898193359375,0.17970694601535797,1.5622977018356323,-0.1018851101398468
1788849186738867200,12.4298671875,0.13353917002677917,1.425136923789978,-0.22062480449676514
1788849186748836400,12.43983642578125,0.08074165135622025,1.2455767393112183,-0.3143717646598816
1788849186758805200,12.44980517578125,0.05176805704832077,1.1854397058486938,-0.4642643332481384
1788849186768774100,12.459774169921875,0.008399809710681438,1.1391323804855347,-0.6721306443214417
1788849186778743300,12.469743408203126,0.0034860114101320505,1.0032811164855957,-0.9102481603622437
1788849186788712200,12.479712158203125,-0.024807892739772797,0.9493900537490845,-1.1627049446105957
1788849186798681300,12.489681396484375,-0.051758818328380585,0.9090615510940552,-1.3990917205810547
1788849186808650200,12.499650146484376,-0.0629657730460167,0.9187216758728027,-1.5835137367248535
1788849186818619100,12.509619140625,-0.06718634814023972,0.9135202765464783,-1.7438418865203857
1788849186828588300,12.51958837890625,-0.10834185779094696,0.9360607266426086,-1.861553430557251
