time,seconds_elapsed,z,y,x
1789550671129007400,0.05500732421875,0.012338088047504425,-0.223920106805861,-0.15422697737663985
1789550671138976300,0.064976318359375,1.1252303566098212,-0.8108312297165393,0.9211223269939423
1789550671148944400,0.0749443359375,1.0090420179873705,-0.05697802476286888,0.600637304315716
1789550671158913300,0.084913330078125,0.1517214242964983,0.46785132050514217,0.3757354929961264
1789550671168881400,0.09488134765625,0.9364321243286132,-0.23718729239702224,0.6189836198020726
1789550671178850300,0.104850341796875,0.889108063095808,-0.8148477718815207,0.9724170454233885
1789550671188818400,0.114818359375,-0.07651625344753266,-0.44477761117070913,-0.18039426881223916
1789550671198787300,0.124787353515625,-0.9664017306566238,0.17192805376201867,-1.060361797792837
1789550671208755500,0.13475537109375,-0.9834370366096497,0.16411241157501935,0.44933680884502825
1789550671218724600,0.144724609375,-0.9918313554674386,-0.25753712972551585,1.663652466161549
1789550671228692200,0.154692138671875,-0.8527695062577724,-0.035061961030960084,0.20646387202702463
1789550671238661400,0.164661376953125,0.1534071854263544,-0.7336962598487734,-0.2704366510480642
1789550671248629200,0.174629150390625,1.213212591445446,-1.149089663363993,0.1450975491773337
1789550671258598400,0.184598388671875,1.1223504172593355,-0.9637637833684682,0.933269568644464
1789550671268566300,0.194566162109375,0.9182838886976241,-0.2843479797616601,0.09576792027577757
1789550671278535400,0.204535400390625,1.000980292084813,-1.0392769972532987,0.9921077612560242
1789550671288503300,0.21450341796875,0.32889819236695766,-0.8864359212771058,2.1639353991940617
1789550671298472400,0.224472412109375,0.1440536661475897,-0.6762278212204575,2.274173012718558
1789550671308440300,0.2344404296875,-0.03523790211975574,-0.04838642976731062,1.1055910056382416
1789550671318409500,0.244409423828125,-0.5002560450255871,-0.0399126159325242,1.153542697250098
1789550671328377600,0.254377685546875,-0.731871090248227,-0.10671762270480394,1.8475028667770326
1789550671338346500,0.264346435546875,-0.23755261857807636,-0.2532350486174226,0.9758023039475083
1789550671348314400,0.274314453125,-0.02863105120062828,0.41570583046525716,-2.2802551091112195
1789550671358283300,0.284283203125,0.2188409038454294,0.4565592343792319,-3.8387370358794923
1789550671368251400,0.29425146484375,-1.6230658964902163,0.06777911250144243,2.311243975484371
1789550671378220300,0.30422021484375,-2.1005343556463716,-0.9561220364436507,0.4396716663338244
1789550671388188400,0.3141884765625,0.3834977975606918,-0.9011395694121718,-1.9856521311864255
1789550671398157300,0.3241572265625,1.59622114418447,-0.657407093155384,-0.9289963483046739
1789550671408125400,0.33412548828125,1.8484826715946197,-0.9695704238206148,2.0135005075767634
1789550671418094300,0.34409423828125,-0.032905075258016586,-0.5688257233828306,1.2977370870426297
1789550671428063500,0.3540634765625,-1.6905892806649208,0.20179916815161703,0.5139664443396031
1789550671438031400,0.36403125,-2.2502239818543193,1.2904016295880079,1.4494383453339337
1789550671447999500,0.37399951171875,-0.5338882655143737,1.0298743781358004,0.8532274791583419
1789550671457968400,0.383968505859375,1.7142822909414768,-0.10762275485098362,-1.0705033256441354
1789550671467937500,0.3939375,2.8454683410853145,-0.3879121068716049,-0.6893013108704239
1789550671477905400,0.403905517578125,-0.3791881176680326,1.6467445859804748,-1.8998967786200343
1789550671487874600,0.41387451171875,-0.37822950176894665,1.6464967486992477,-1.9154450608856974
1789550671497842400,0.423842529296875,-1.4737766677767037,1.61456373334378,-1.2573153525441885
1789550671507811300,0.433811279296875,-1.1830980236887931,0.6778969234764576,0.13770437018610537
1789550671517779500,0.443779541015625,-0.2835053914576769,-0.23746990873068569,0.5177378161044791
1789550671527748400,0.453748291015625,-0.03571604102551937,-0.05364741903543472,1.3290949328586459
1789550671537716500,0.463716552734375,0.79865154710114,-0.4119236815780401,2.190814492160827
1789550671547685400,0.473685302734375,0.9107868109405041,-0.6346794207796455,1.2623727820642292
1789550671557653500,0.483653564453125,1.476825533953309,-1.4957190349936484,0.5566048319742083
1789550671567622400,0.493622314453125,0.8780909945189952,-1.7801529394730924,0.21513028582446275
1789550671577590500,0.503590576171875,0.058439914008975025,-1.2883856135904788,-0.43296029559429733
1789550671587559400,0.513559326171875,-0.13691197769939897,-1.1253481377705932,-1.5549445464223621
1789550671597527600,0.523527587890625,0.6218640706092119,-1.596927831149101,-1.7006415958628058
1789550671607496400,0.533496337890625,0.26793781996965405,-1.6322729930356144,-0.809993829044327
1789550671617464300,0.54346435546875,0.1471282512873411,-1.806235767495632,-0.7234725336067378
1789550671627433200,0.55343310546875,1.1633464445143937,-2.755337111522257,-1.4102555049806833
1789550671637401300,0.5634013671875,0.32975276336967946,-2.469177113902569,-1.2058227734550833
1789550671647370200,0.573370361328125,0.6128221014976502,-2.489332305441797,-0.3964741104464978
1789550671657338400,0.58333837890625,0.6966980700582266,-2.4433169887199995,-0.21235629106648266
1789550671667307300,0.593307373046875,1.2707470810472965,-2.5841937783971427,-0.4150595684509724
1789550671677275400,0.603275390625,1.532313027897477,-2.7323025651544333,-0.14623093712143598
1789550671687244300,0.613244384765625,0.5600479581654072,-2.2353341634973884,0.3794458187561482
1789550671697212400,0.62321240234375,-0.535469397225976,-1.7162372244015336,0.054534321405179796
1789550671707181600,0.633181640625,0.09150456374287605,-2.2256316846504807,0.1358510613364633
1789550671717149400,0.6431494140625,0.9516571659892797,-2.4770436094939705,0.43447139427699144
1789550671727118600,0.65311865234375,0.9834674317479133,-1.2477402994692326,0.6059300038963555
1789550671737086200,0.663086181640625,0.2945885110080242,-0.5603706142485141,0.22104944674037397
1789550671747054300,0.673054443359375,-0.5642126766294241,0.25766280193179847,1.0674534365542232
1789550671757023200,0.683023193359375,-0.32284488367736336,-0.13988953220546244,1.3674565199568867
1789550671766992400,0.692992431640625,0.2097527575045824,-0.17919775250405073,0.8910008911050855
1789550671776960300,0.702960205078125,0.3786012576907873,-0.045670741067826745,0.29376365929013115
1789550671786928400,0.712928466796875,-0.08606441851556301,0.35059593717306853,0.5177817283114418
1789550671796897500,0.7228974609375,-1.0243740271538495,1.6107131953954696,0.5146504080157727
1789550671806865400,0.732865478515625,-0.21909517086744307,1.0026903108730911,0.776100181140378
1789550671816834600,0.74283447265625,-0.5150982248485088,0.24353724594563245,0.25786499170670285
1789550671826802400,0.752802490234375,-0.588859042108059,-0.16023323205411433,-0.5392538842007517
1789550671836771600,0.762771484375,-0.7856196315705776,0.4930749013498425,0.6079976039506495
1789550671846739200,0.7727392578125,-1.2827350404828786,1.3716384818166494,1.6646207266718147
1789550671856708400,0.782708251953125,-0.40810441555082794,1.3175251988351344,1.3791158319599925
1789550671866676200,0.79267626953125,0.0476572387099266,0.6494388907551765,0.6814439484335482
1789550671876645400,0.802645263671875,-0.13017244031131267,0.16421148803532123,0.8424393239665776
1789550671886613200,0.81261328125,-2.1644337041050195,1.159272619204223,1.7512018625378607
1789550671896582400,0.82258251953125,-3.6050627200394865,1.9761425445631144,1.4054492737427353
1789550671906550500,0.832550537109375,0.33400925177037716,0.13141016541272402,-0.42236627473514526
1789550671916519400,0.84251953125,1.2808236539036035,-0.13558335944414138,-0.3421606652503833
1789550671926487600,0.852487548828125,1.7434183690547942,-0.25149521921277046,-0.6672766721975057
1789550671936456400,0.86245654296875,3.7106782267212868,-2.006007813733816,-2.2847543202266096
1789550671946424600,0.872424560546875,3.853368787822127,-1.8320938468515873,-2.568080263464153
1789550671956393700,0.882393798828125,-0.12593465661108494,0.7760039542242885,-1.4558222011521458
1789550671966361900,0.89236181640625,-0.41775136481821534,0.006743336780369281,-3.167595431882143
1789550671976330800,0.902330810546875,-0.5281991139620542,-0.6712707833349705,-2.6862644520789383
1789550671986299000,0.912298828125,-4.360863551929593,1.6223954498827458,-0.6861692233897745
1789550671996267800,0.922267822265625,-0.8073767053484916,-0.13474310922771693,-1.952040076702833
1789550672006235600,0.932235595703125,2.3470851041942833,-0.7691922283828259,-0.2203193789001554
1789550672016204500,0.94220458984375,2.5607477286189795,-0.791551359707117,0.05173456201828085
1789550672026172700,0.952172607421875,-0.04762976618111133,0.2494566991224885,-0.7408692932832985
1789550672036141600,0.9621416015625,-1.8537942220062016,0.7307976157978177,0.009661927640810608
1789550672046109700,0.972109619140625,-5.250120668107271,2.0595973651021717,-0.041461946000065655
1789550672056078600,0.98207861328125,-1.7362322569429873,-0.11869096909314393,-0.463059556183964
1789550672066046700,0.992046630859375,5.7514417120158665,-3.3352415705412626,-1.174845378324017
1789550672076015600,1.002015625,8.231640570670367,-2.597071672409773,-0.7077027906101196
1789550672085983700,1.011983642578125,5.934047519397735,-1.0661334399968385,-0.833058112963289
1789550672095952600,1.02195263671875,-4.2035628661960365,3.250199773071706,-1.0110640253342686
1789550672105920800,1.031920654296875,-7.931066555511951,2.007488992202282,-0.24895468615079297
1789550672115889700,1.0418896484375,-4.243977878692746,-2.3266543105840682,0.33752716023083773
1789550672125857500,1.051857421875,-0.603377981325984,-2.4813453983411193,-0.2593596689775586
1789550672135826700,1.06182666015625,1.712724540105462,-0.7807377047479153,-0.8173292134337127
1789550672145794600,1.071794677734375,3.180124658587575,-0.2575207631126046,-0.9828354174546897
1789550672155763700,1.081763671875,3.319063173678517,-2.4598127809688446,-0.9767060478541999
1789550672165731600,1.091731689453125,1.9157114567369222,-4.078826771719753,-0.450809292550385
1789550672175700700,1.10170068359375,-0.7345639825940131,-1.4481591191783547,0.6053965911393985
1789550672185668600,1.111668701171875,-1.0185416677385568,1.4467235334172843,-0.6517632420495152
1789550672195637800,1.1216376953125,0.8569973530858754,0.8810723484173416,-1.6656744735084472
1789550672205605600,1.131605712890625,2.2733184417158365,-2.20657276391536,-1.635731316795945
1789550672215574800,1.14157470703125,0.3170709764510393,-1.290522625619173,-0.6849852743022143
1789550672225542700,1.151542724609375,-0.9813105459749698,1.462937001593411,-0.22553313149306922
1789550672235511800,1.16151171875,-0.12276830153465271,2.1580419572412968,-0.27654106887038793
1789550672245479700,1.171479736328125,0.20185119059979914,1.0689628182038664,-0.4465028640607372
1789550672255448600,1.181448486328125,-0.07145370936095714,0.18208002994209527,-1.1600817436300217
1789550672265416700,1.191416748046875,0.09398293655514717,-1.1398951340392232,-0.9874600085154175
1789550672275385600,1.201385498046875,-0.005721300256252289,-0.9226233792066574,-1.4526114224120974
1789550672285353700,1.211353759765625,0.2210422132819891,0.23895547111332416,-2.3954959377504883
1789550672295322600,1.221322509765625,0.3407774307310581,0.07231324879974127,-2.069157512868941
1789550672305290800,1.231290771484375,1.4846540356218814,-3.091956253530085,-1.1459306148111819
1789550672315259600,1.241259765625,1.1943085690110922,-3.9940772351950407,0.29265357915638013
1789550672325227800,1.251227783203125,0.7668067945510149,-2.3500334326058625,0.5654027631968259
1789550672335196000,1.26119580078125,1.4792583140581845,-2.094866246882081,1.4237747656367719
1789550672345164800,1.271164794921875,-0.28805472532510756,0.5158244932964444,1.3312820676393806
1789550672355132700,1.281132568359375,-2.1306337258338925,3.4040789599239822,0.006457377712149172
1789550672365101600,1.2911015625,-0.2525853525370359,0.6054661857768893,-0.8898803626425563
1789550672375069700,1.301069580078125,1.3943191001802682,-1.1969947393551468,-0.8399654081337153
1789550672385038600,1.31103857421875,1.381134039914608,-1.0361454212293029,0.6859503199420869
1789550672395006700,1.3210068359375,0.6142798990905285,-1.298579383085668,0.9329551689330488
1789550672404975600,1.3309755859375,-0.015156652599573134,-1.5285922538086771,-0.05694794015185907
1789550672414943700,1.34094384765625,-1.5896744990199803,0.8113160906240343,0.4017109881866723
1789550672424912600,1.35091259765625,-2.0290169333994386,1.8832006414934992,0.5091724880613386
1789550672434880800,1.360880859375,-0.8574071029305458,0.23551994370669124,0.43271826699934895
1789550672444849700,1.370849609375,0.27067396693527696,-0.9132736593201756,1.200516337610036
1789550672454817800,1.38081787109375,0.4709574698269367,-0.2249605557695031,1.5093383950233459
1789550672464786700,1.39078662109375,0.91489716886878,-1.0550158336549997,1.0444662364594637
1789550672474754600,1.400754638671875,0.25177052902281283,-1.2446002478778362,1.14315530487895
1789550672484723500,1.410723388671875,-0.8286223224729299,0.020177111110091208,1.7857406764775514
1789550672494691600,1.420691650390625,-0.9787094235658645,0.09188216488361359,1.334201316086948
1789550672504660500,1.430660400390625,-0.5607318487763404,-0.26132190896123647,0.3462082601407543
1789550672514628600,1.440628662109375,-0.5158323843419551,0.14725421575456857,1.0539787456922232
1789550672524597800,1.45059765625,-0.5029074363172054,0.10221738867610693,1.146641831820458
1789550672534565600,1.460565673828125,-0.20843933681845664,-0.4972562786877155,0.6870939370192587
1789550672544534800,1.47053466796875,0.8645189807623624,-0.3313488003894686,-0.24900117390733212
1789550672554502700,1.480502685546875,1.184489770308137,-0.46838966516554353,0.05318846888733096
1789550672564471800,1.490471923828125,0.7761614828735589,-0.2969692686647177,0.31340028858166186
1789550672574439700,1.500439697265625,-0.5559563049376011,0.5175365579113363,-0.38467400173321364
1789550672584408800,1.510408935546875,-0.4072486755043268,-0.22628888176381587,-0.7816097383420914
1789550672594376700,1.520376708984375,-0.10697919625043868,-1.0227776978731156,-0.9856937294952571
1789550672604345900,1.530345947265625,-0.03398585623204708,-0.3363853332519531,-1.4415375090815126
1789550672614313700,1.540313720703125,-0.06855740339756011,0.48672611684501166,-1.4399050855740905
1789550672624282600,1.55028271484375,-0.054306759727001185,0.6664464319184422,-0.19360099292043595
1789550672634250800,1.560250732421875,-0.5553758747011422,1.862378218217194,-0.885319338337332
1789550672644218600,1.570218505859375,0.677558485302329,0.5310536266103386,0.6415549325723201
1789550672654187800,1.580187744140625,0.5174158541411161,0.1735465948745608,-0.3925344329100102
1789550672664155600,1.59015576171875,-0.11081424436867236,1.110622277803719,-1.79598690681234
1789550672674124800,1.600124755859375,-1.211080840113759,1.7144874581247567,-1.7904848022647202
1789550672684092700,1.6100927734375,-1.4901929650485515,1.2856412833184003,-1.6327702750332653
1789550672694061800,1.620061767578125,-1.3497393692195414,0.641261721779406,-2.0982829234577713
1789550672704029700,1.63002978515625,0.5838485204696655,0.131346744787693,-1.9253521223939953
1789550672713998800,1.639998779296875,1.6276193220108746,-0.2783998850122094,-1.2854073284320533
1789550672723966700,1.649966796875,1.9227853406459092,-0.9521484566375613,-1.0407615367226302
1789550672733935600,1.659935546875,0.7461077053934335,-0.6680535748541355,-0.5215806456703692
1789550672743903700,1.66990380859375,0.810509158155322,-1.2291039880603551,0.13885903838025404
1789550672753872600,1.67987255859375,0.2963806551218033,-1.6785682957425712,-0.5603090202543884
1789550672763840800,1.6898408203125,0.05152034387886524,-1.228757074318826,-1.9369608732536434
1789550672773809700,1.6998095703125,0.6060305416613817,-1.526039646716416,-1.3647839397467671
1789550672783777800,1.70977783203125,0.3429775711238384,-1.4323533550202845,-1.3967837367281317
1789550672793746700,1.71974658203125,0.2974532527893782,-1.653342669071257,-2.1184197025574742
1789550672803714800,1.72971484375,0.39960254466533657,-1.4279294010981916,-1.4871996284514666
1789550672813683700,1.73968359375,1.2984586793154478,-2.1665373983860015,-0.7900050801131874
1789550672823651800,1.74965185546875,0.578981791216135,-1.6382675572752952,-0.9424800261907279
1789550672833620700,1.759620849609375,0.4007061219930649,-2.3825071307092904,0.016427731981314718
1789550672843588600,1.769588623046875,-0.2585708566874266,-1.562528133419156,-0.29867044655941427
1789550672853557500,1.7795576171875,-0.25821079120337964,-1.566461673475802,-0.31593437363654375
1789550672863525600,1.789525634765625,0.21160978354811666,-1.019727662652731,-0.11074863178655504
1789550672873493800,1.79949365234375,1.1317717410773038,-1.4396172085434198,-0.11890632887687533
1789550672883462700,1.809462646484375,0.8106827611565589,-1.555609147810936,-0.5324310889760032
1789550672893430800,1.8194306640625,0.545262476965785,-1.2079396194785832,-0.9345167922265827
1789550672903399700,1.829399658203125,0.5186117859274149,-0.8157754081204533,-0.8941500758510083
1789550672913367800,1.839367919921875,1.2961685225516557,-1.9455439926818012,-0.006594685557298362
1789550672923336700,1.849336669921875,1.579727105501294,-2.6120278340011835,0.00957761035822332
1789550672933304800,1.859304931640625,1.3405600374639033,-1.9915701230585574,0.0977117478199303
1789550672943273700,1.869273681640625,0.393245869114995,-1.2969894835457205,0.7904526046849787
1789550672953241600,1.87924169921875,-0.2865887444257736,-1.1106190629333257,0.333086291706562
1789550672963210500,1.88921044921875,-0.20596096400618552,-1.5899091845586895,0.5752269687272608
1789550672973178600,1.8991787109375,-1.0082003064662217,-0.6769713330641388,0.8640120541535318
1789550672983147500,1.9091474609375,-0.6613596301734447,-0.7544803969413042,-0.556052312657982
1789550672993115600,1.91911572265625,0.7118377715229988,-1.8529390664815901,-0.5134093949787318
1789550673003084500,1.92908447265625,0.3544529048621654,-0.7871154230862856,-0.15093005472309887
1789550673013052400,1.939052490234375,0.43317105226814745,0.010052607458829878,-0.9732171828251331
1789550673023021600,1.949021484375,0.3375830186039209,0.38353579148352146,-1.281256346232444
1789550673032989400,1.958989501953125,1.2617255702018737,0.06009966391474008,-0.5576471075687557
1789550673042958600,1.96895849609375,0.3589426174968481,0.3606237024515867,-0.33955037315413356
1789550673052926500,1.978926513671875,-0.6900286752969026,1.196513093318045,0.7575840620450675
1789550673062895600,1.9888955078125,-2.1187539029479026,1.9611948585391044,-0.030036972475796935
1789550673072863500,1.998863525390625,-1.322908060917258,0.4246411243319511,-0.09293839593827724
1789550673082832600,2.00883251953125,0.34262276633679867,-0.9948863591238856,0.11809146883003413
1789550673092800500,2.018800537109375,0.39165655409693717,-0.8764721611455082,-0.5531749305907636
1789550673102768600,2.0287685546875,0.038408933371305465,-0.2992953735247254,-1.0588335653122514
1789550673112737500,2.038737548828125,-2.8088585660904646,2.0832050351828335,-1.873810589596629
1789550673122705400,2.048705322265625,-2.9845360355138775,2.9775033603981136,-2.4380408018827437
1789550673132674600,2.058674560546875,-0.03669745327830314,0.3210971632272005,-2.3341399901643394
1789550673142642400,2.068642333984375,1.4807576127052307,0.33756109903305764,-2.7257243558079
1789550673152611600,2.078611572265625,2.1357284186244008,0.9402718486219644,-2.807738622149825
1789550673162579500,2.088579345703125,0.35288054097890853,1.8850003843918441,-2.6278181083291767
1789550673172548600,2.098548583984375,-1.0060445897370576,1.4131404127672313,-2.2165715953603384
1789550673182516500,2.1085166015625,-2.5652695899575946,0.8570181036129594,-1.2070407709427178
1789550673192485600,2.118485595703125,-1.7023223885565995,-0.31997020502388474,-0.7906384095806628
1789550673202453500,2.12845361328125,0.03887012114226818,-0.556747163054347,-1.081305509361252
1789550673212422700,2.138422607421875,0.03678337799608707,-0.5567644064500927,-1.0998941091708838
1789550673222390500,2.148390625,1.515576412630081,-0.8055354613959789,-2.3705282313629983
1789550673232359700,2.158359619140625,0.4742418983250856,-0.819655172163248,-1.8014407883040606
1789550673242327600,2.16832763671875,-0.32098318145871163,-0.5320856000065803,-1.1887922167424112
1789550673252296400,2.17829638671875,-0.15031038845479489,-0.5104360782563686,-1.847491614730656
1789550673262264600,2.1882646484375,-0.15012100336253642,-0.516498447035253,-1.8606804743885992
1789550673272232400,2.198232421875,1.5020277797490358,-0.21478139932155607,-2.6552909294053912
1789550673282201600,2.20820166015625,1.2093699445426462,0.07987520848661661,-2.004314161558449
1789550673292169500,2.21816943359375,0.3761708156734705,0.34802024146616456,-2.5811338063046336
1789550673302138600,2.228138671875,-0.9233066852957009,0.9984618795230984,-3.0763416280299425
1789550673312106500,2.2381064453125,-1.6601234152525663,0.13342442784458397,-2.7089593912288543
1789550673322075600,2.24807568359375,-1.2476923686742782,-0.8217097666054963,-1.3324609021604061
1789550673332043500,2.25804345703125,-0.7572463545233011,-1.290668171569705,-0.7365596864558756
1789550673342012700,2.2680126953125,-1.181078500559926,-0.8868833727836608,-0.6029580754134803
1789550673351980500,2.27798046875,-0.7707803743571042,-1.1752587083652615,0.1146726002972573
1789550673361949400,2.287949462890625,1.1905214516878126,-2.4026281277179717,0.8846974801119416
1789550673371917600,2.29791748046875,1.302749654507637,-2.508117669932544,0.5685826353419572
1789550673381886500,2.307886474609375,1.3045429676651954,-2.508699853734672,0.5814404364146292
1789550673391854600,2.3178544921875,0.4976870713204145,-0.6927183527722954,-0.016918109314143656
1789550673401823500,2.327823486328125,-0.00499532406926155,-0.2710568287730217,-0.7586012762635946
1789550673411791600,2.33779150390625,-0.003070493486523628,-0.2715092487156391,-0.7438369109172374
1789550673421760500,2.347760498046875,1.8150883515149354,-1.806485650603473,-0.05943250524289906
1789550673431728600,2.357728759765625,0.8722890302419662,-0.6217208627462387,0.286406227465719
1789550673441697500,2.367697509765625,-1.1600912421107292,1.0627630867809057,-0.5783497769229113
1789550673451665700,2.377665771484375,-1.424419054889679,0.43729894585311413,-0.6756610541831701
1789550673461633500,2.387633544921875,-1.989549430885911,0.3669599197357893,-0.9267524418354034
1789550673471602700,2.397602783203125,-1.8932237305969,0.22543168041259048,-0.20608290988542138
1789550673481570600,2.407570556640625,-0.840405114725232,-0.6193214003890752,0.0978109704107046
1789550673491539500,2.41753955078125,0.9749830965191125,-0.9348945394977927,0.9221453864313661
1789550673501507600,2.427507568359375,1.385714353442192,-0.5361337063536048,0.18032924075201154
1789550673511476500,2.4374765625,2.4167203659564254,-1.4713272287979722,0.225248871191591
1789550673521444600,2.447444580078125,1.3297007897973059,-0.025605858160555363,0.15526852231882513
1789550673531413500,2.45741357421875,0.10972118843495846,0.6402274102956056,0.12664163583666085
1789550673541381600,2.467381591796875,-0.645941111767292,0.2670619139179587,-0.6514397822488099
1789550673551350500,2.4773505859375,0.12737199593782425,-0.5941559794723987,-0.3935018897026777
1789550673561318700,2.487318603515625,0.12946341525912283,-0.5917223225846886,-0.3576758124314248
1789550673571287600,2.49728759765625,0.4529273076176643,-0.6862126241400838,-0.3696973088104278
1789550673581255700,2.507255615234375,-0.5665495951443911,0.24044892454147337,-0.5803123822327703
1789550673591224600,2.517224609375,-0.46413434580862517,-0.17079291225224733,0.06835373405162244
1789550673601192400,2.5271923828125,-1.4976467881858349,0.2862234182447195,0.2249234751621261
1789550673611160600,2.53716064453125,-1.0272247404098511,-0.05818418568223715,0.8548867906726896
1789550673621129500,2.54712939453125,-1.0261100571662187,-0.054552843442559236,0.895690875552222
1789550673631097600,2.55709765625,1.1321820754438638,-0.736140145869553,0.7322449650619178
1789550673641066500,2.56706640625,0.7825935617476701,-0.6819426917359233,1.7491215491324663
1789550673651034600,2.57703466796875,-0.2145452524781227,-0.26582448107749224,2.660664731398225
1789550673661003500,2.58700341796875,-0.5677864434629678,-0.6264060979530215,1.300745767339319
1789550673670971600,2.5969716796875,-1.4835089572399853,0.018598609746992588,0.9933059580646455
1789550673680940500,2.6069404296875,-0.3409159624189138,-0.6187000536203384,2.370316049917042
1789550673690908700,2.61690869140625,-0.691312869888544,-0.6134200673907995,1.2077616325631737
1789550673700877600,2.626877685546875,1.5952484997600316,-1.8423624351486563,-0.08177886841716245
1789550673710845400,2.636845458984375,2.2222616236954926,-1.9819637980625031,0.38288061551041896
1789550673720814600,2.646814697265625,1.4276467847645282,-0.8696873233109712,0.1067482461719308
1789550673730782500,2.656782470703125,0.534549944293499,0.9452192418962716,1.0065695634592324
1789550673740751600,2.666751708984375,-0.20889760197997093,1.7847236083894966,-0.3141041260020807
1789550673750719500,2.676719482421875,0.3754085991293192,0.45339083347618575,-0.14561689687632023
1789550673760688600,2.686688720703125,-0.025063129585981368,0.2866743768826127,1.1465616061910986
1789550673770656500,2.696656494140625,-0.34532033485770225,1.0792965806916355,0.16184464930612594
1789550673780624600,2.706624755859375,-0.9253490047782659,1.3869251905366777,-1.4767372711479663
1789550673790593500,2.716593505859375,-1.7177806544512508,0.9585007482737302,0.5540561704047023
1789550673800561700,2.726561767578125,-0.9727139825433492,-0.3855950621008873,0.5927766904758289
1789550673810530600,2.736530517578125,0.9742027597963809,-1.172309503170848,-0.38615437648408113
1789550673820498400,2.74649853515625,1.4779823027729988,-1.0839894146829843,-0.582072158446908
1789550673830467600,2.756467529296875,1.4774790294259785,-1.0824167585387825,-0.5802692737434059
1789550673840435500,2.766435546875,-0.6659779376238584,0.2735088981002569,-0.23725363563150165
1789550673850404600,2.776404541015625,-0.12963234208524227,-0.4626470298603177,0.13353537740577012
1789550673860372500,2.78637255859375,0.33103637343943115,0.05491290892660618,-1.1117423678748308
1789550673870341600,2.796341552734375,0.6869435687631368,-0.032689386680722236,-0.8814932772431522
1789550673880309500,2.8063095703125,0.6873357829511165,-0.033654724581539626,-0.888753842830658
1789550673890278700,2.816278564453125,-0.22972294786572456,-0.3442404306665063,-1.9813518036440014
1789550673900246500,2.82624658203125,-0.8158364906579255,0.2262958960264921,-2.0961976416163144
1789550673910215700,2.836215576171875,0.1897100864291191,-0.17192337758690118,-1.0483660203769802
1789550673920183600,2.84618359375,0.11613573165237903,0.018194997382164,-0.770403576933965
1789550673930151400,2.8561513671875,-0.7217524318158626,1.0458706964299083,-0.9180760181006044
1789550673940120600,2.86612060546875,-0.28431670784056184,0.39278117421269415,-0.6100524541212246
1789550673950088400,2.87608837890625,0.458778371733427,-0.7040931487455964,-1.0148852641228585
1789550673960059000,2.886058837890625,0.5912789627313614,-0.390487510317564,-0.5604129190202802
1789550673970026800,2.89602685546875,1.7694903834223745,-0.5888467671483755,-0.38332393883112814
1789550673979995600,2.90599560546875,2.2968758429139853,-0.8584054663181304,-1.1006353559922426
1789550673989963800,2.9159638671875,1.4860884523391722,-0.24270137964338062,-0.8792666872348636
1789550673999932700,2.9259326171875,0.7090057629674673,-0.13309417297691106,-0.7883719990186393
1789550674009900800,2.93590087890625,-0.060209846290946,0.27732553377896546,-0.96137791114524
1789550674019869700,2.94586962890625,-0.6395417661190033,0.5344213494777679,-0.3932693961210549
1789550674029837800,2.955837890625,-1.4052467369079589,0.7290171621218323,-0.44642599943224337
1789550674039806700,2.965806640625,-1.6942898887485265,0.9211112210780381,-0.32102541316524147
1789550674049774800,2.97577490234375,-1.5938240199148654,0.36598698305040595,0.44888723844662304
1789550674059744000,2.985743896484375,-2.4291414561122653,0.41240678891986604,-1.3166329261705279
1789550674069712000,2.9957119140625,-5.297579169374704,1.114242221866548,0.04624342638924717
1789550674079679700,3.0056796875,-5.300173862043023,1.1213611139610409,0.027977866255212574
1789550674089648600,3.015648681640625,-5.9840276480972765,0.37463966058343645,-1.4889954258270561
1789550674099616800,3.02561669921875,3.072854370436072,-3.8995924865975975,-0.4887600338254124
1789550674109585700,3.035585693359375,11.003849029755592,-6.427649367231131,0.8066757905375211
1789550674119553800,3.0455537109375,11.979170564448832,-5.516694213986397,1.4939192920953035
1789550674129522700,3.055522705078125,11.979640520048141,-5.519363140934705,1.483423617044091
1789550674139490800,3.06549072265625,-0.2679617853671312,2.911873242624104,-1.8326082261145114
1789550674149459700,3.075459716796875,3.3964620551794766,-0.15395020626187322,1.1854312889419496
1789550674159427800,3.085427734375,0.09718787007629871,0.5500140554070473,1.1116299935415386
1789550674169397000,3.09539697265625,-4.349432641854882,3.294665230002999,0.16789203971158712
1789550674179364900,3.10536474609375,-6.267448283880949,5.096670812582969,1.2789417856797576
1789550674189334000,3.115333984375,-6.266859085816145,5.0945186029851435,1.277322075523436
1789550674199301600,3.125301513671875,1.6299527333945034,-1.0097937131375074,-1.5157701816365121
1789550674209270800,3.135270751953125,1.9822727178812025,-0.8921569292724132,-1.379587979516387
1789550674219238700,3.14523876953125,0.13259294545650482,1.3628238917201756,-0.7832385816529392
1789550674229206800,3.155206787109375,-1.2106348499119282,1.6827900050908327,-1.9337781515643
1789550674239175700,3.16517578125,-1.045361870124936,-0.9256894887790084,-3.2726872069507835
1789550674249143800,3.175143798828125,-1.0470055456787348,-0.9213324626132845,-3.280468362346291
1789550674259113000,3.185113037109375,0.06383329748511314,-1.6965207165405154,-1.266449822244793
1789550674269080800,3.195080810546875,1.5311638578623532,-0.9350435925796627,-1.4705866395637393
1789550674279050000,3.205050048828125,1.409554663234949,-0.35945758128166194,-0.3158583492582664
1789550674289017900,3.215017822265625,1.0454320127516985,-2.106388342371583,-0.039929055610671636
1789550674298987000,3.224987060546875,0.2340998477756977,-1.7649489406004546,0.7286443832866847
1789550674308954600,3.23495458984375,1.2136866386979817,-1.6201140609472988,0.40721130263600497
1789550674318923800,3.244923828125,-0.2891939584881067,1.457285843963921,-0.5989413871180266
1789550674328891600,3.2548916015625,-0.28339024064540863,1.436767079809308,-0.6065497066972777
1789550674338859800,3.26485986328125,-3.658295128533244,2.2649162318125367,-2.5339491535425185
1789550674348828700,3.27482861328125,-3.412975967606902,3.1320635152518745,-1.5100370448119937
1789550674358796800,3.284796875,-0.18084464292824268,-0.35740181779563424,1.252390755623579
1789550674368766000,3.294765869140625,-1.0955395672231911,2.9162118563503023,1.6251821579918264
1789550674378733800,3.30473388671875,-0.9827081378132104,1.8573671120569109,0.7921965988080948
1789550674388703000,3.314702880859375,1.8014824354887007,-3.030201515884697,-1.144424448031932
1789550674398670800,3.3246708984375,1.7719675871908664,-3.069689768925309,-3.242958131380379
1789550674408640000,3.334639892578125,2.2942355575382707,-3.865260593406856,-0.9138742555618286
1789550674418607600,3.344607666015625,1.9493372474849222,-4.67800379422456,1.6559515363954007
1789550674428576800,3.35457666015625,0.741425685057044,-1.4101520446062088,1.1672831263761967
1789550674438544600,3.364544677734375,0.9258388341218232,-0.39231472574472426,-0.09872582023330033
1789550674448513800,3.374513671875,0.43213761756718155,0.5708212811142206,0.017462408791296184
1789550674458481700,3.384481689453125,0.4863946929335594,0.44436230836808677,0.724282534815371
1789550674468450800,3.394450927734375,0.7142793194562196,0.040597383326292036,0.472920550060831
1789550674478419000,3.4044189453125,-0.27606968849897384,0.5002385093688965,-0.03789177762940526
1789550674488386800,3.41438671875,-1.9997475842952728,2.0927149140670895,-0.88229933292903
1789550674498356000,3.42435595703125,-1.9999188492089508,2.0947736001625654,-0.873268031341955
1789550674508323800,3.43432373046875,0.41933308105170725,-0.5488982031196356,-1.532258959622681
1789550674518293000,3.44429296875,1.0082347932577134,-0.4645315284326672,-1.3744221211858092
1789550674528260600,3.454260498046875,0.1101630869835615,1.1252806254923342,-2.2775036184459925
1789550674538229800,3.464229736328125,-0.801409905898571,1.7420006112113593,-0.6774583859287202
1789550674548197600,3.47419775390625,-0.5636398451775312,1.0772414017274976,-0.430622902155295
1789550674558166800,3.484166748046875,0.4824409868717193,-0.38670536143034695,-0.9697072019428015
1789550674568135000,3.494135009765625,0.8625725228697061,-0.2689130947425961,-0.12915551835373043
1789550674578103800,3.504103759765625,1.3054068910181522,-0.6519248623520135,0.3512470214929431
1789550674588072000,3.514072021484375,0.3019160774171352,-0.564264991338551,0.382545830598101
1789550674598039800,3.524039794921875,0.3029623715996742,-0.5664215848505497,0.39220615080371496
1789550674608009000,3.534009033203125,-1.488854994443059,-0.2527317752704024,-0.4581524949200451
1789550674617976800,3.543976806640625,-1.4472721072107553,-0.2023193926334381,-0.7842782268989831
1789550674627946000,3.553946044921875,-1.4469225631207228,-0.20227000053375957,-0.774743359703943
1789550674637913600,3.56391357421875,0.5976543429821729,-1.0562637878894805,-2.1479308975934983
1789550674647882800,3.5738828125,0.38311785833239553,-0.12415741780549287,-1.8622722736246882
1789550674657850600,3.5838505859375,0.05681202054619789,-0.004221709348261356,-1.760345246197283
1789550674667819800,3.59381982421875,0.05756313117444515,-0.005969722059369087,-1.7539619749009607
1789550674677788000,3.603787841796875,0.6050017831355333,0.23012071501165626,-0.7397302793160081
1789550674687756800,3.6137568359375,0.8724071036636829,0.19846037911772726,-0.8665631999410688
1789550674697725000,3.623724853515625,0.8739397200584411,0.19393501064777374,-0.8612803641673177
1789550674707693800,3.63369384765625,-0.010881459498405455,0.7782876812472939,0.5985333177737892
1789550674717662000,3.643661865234375,-0.6494914977252483,0.43528351437747476,0.9694918056264519
1789550674727629800,3.6536298828125,-1.0196662878543137,0.9094567313805222,0.5306266333699226
1789550674737599000,3.663598876953125,-0.9218442115277051,0.554770310023427,1.2568898206084966
1789550674747566600,3.673566650390625,-0.29916181027293204,0.07593290060162544,0.5188879725202917
1789550674757535700,3.68353564453125,-0.18660861328244208,0.4112009202614426,1.075730120381713
1789550674767503600,3.693503662109375,-0.0037198973059654234,-0.2446191959634423,1.4192058502860367
1789550674777472800,3.70347265625,-0.4909375970602035,-0.6844190187215805,0.9722419811174273
1789550674787441000,3.71344091796875,-1.2545564092248678,-0.34603637417256833,1.3417002935402094
1789550674797409800,3.723409912109375,-1.2553905219614505,-0.3420157403543591,1.3575667018443345
1789550674807378000,3.7333779296875,1.5378092872262,-1.4923165330737829,1.0900210229974239
1789550674817346800,3.743346923828125,1.6003735876888037,-0.9893065131649375,1.6047883353911339
1789550674827315000,3.75331494140625,1.5214263077020644,-1.3437968274280427,0.36758510242942716
1789550674837282800,3.76328271484375,-0.3986556192040443,0.5934270806759595,0.7184832008868456
1789550674847252000,3.773251953125,-0.5207938061416149,-0.08989449819773435,-0.12007985703512095
1789550674857219600,3.783219482421875,-0.5218593895465136,-0.08564531632065772,-0.10337828568164259
1789550674867189000,3.79318896484375,-0.24670798493623733,-1.1421809068888424,-0.8055776931025087
1789550674877156600,3.803156494140625,-0.08459902213811873,-0.46371261326521634,-1.19860188229084
1789550674887125800,3.813125732421875,0.7317530168265104,-0.8629521698370576,-0.0031680812426377086
1789550674897094000,3.823093994140625,0.7312748779207467,-0.8611340144991875,0.0073557650237111374
1789550674907062800,3.833062744140625,1.1315946309447287,0.4292538788244128,0.01666185583102051
1789550674917031000,3.843031005859375,0.9563678278982639,0.5268292869135737,0.549264004224725
1789550674926999800,3.852999755859375,0.32593057473301884,0.39565322251766916,0.5947413050796836
1789550674936968000,3.862968017578125,-0.3863011645436287,0.9017270139113068,0.07180444989423267
1789550674946936800,3.872936767578125,-0.9332178384572267,0.9482222231045365,0.12957465708125382
1789550674956904000,3.882904052734375,-0.9820926362633705,0.4204802052602172,0.214822955174651
1789550674966872000,3.8928720703125,-1.4311428101867436,0.9007496933117508,-1.2655360684007406
1789550674976841000,3.902841064453125,-1.0882096627265214,0.6242880828857421,-1.3520773106478154
1789550674986808800,3.912808837890625,-1.0877420452147721,0.6226923381268977,-1.3576117100298404
1789550674996778000,3.922778076171875,-0.9911299291998147,0.8646151346132158,-0.6735580905545503
1789550675006745900,3.932745849609375,0.7558575305134058,-0.4196832096636295,-0.6546945462610572
1789550675016714800,3.94271484375,0.8227320953905582,-0.18075667238384485,-0.39438093755953013
1789550675026683000,3.952682861328125,0.6997229708373546,-0.2617839735150337,-1.3505027548074722
1789550675036651800,3.96265185546875,0.6649369041383266,-0.18459259728491306,-0.4891326665300876
1789550675046620000,3.972619873046875,1.0632686982154846,-0.6274903860583901,-0.8526802936043589
1789550675056588800,3.9825888671875,-0.5802157169252634,0.21392858188450334,-1.3374065418690442
1789550675066557000,3.992556884765625,-0.7857973262250423,-0.39289340241551396,-0.43007432836182413
1789550675076525800,4.00252587890625,-1.3584820631235837,-0.5768734207600354,-0.5812948539314792
1789550675086494000,4.012493896484375,-0.49046705693900583,-0.7345929164275526,-1.7043806362606584
1789550675096462000,4.022462158203125,0.4867746321618557,-0.671556906799972,-1.138605167293921
1789550675106431000,4.032430908203125,1.8997925875931978,-0.7142907176330685,-1.3436597570449114
1789550675116398800,4.04239892578125,1.072139986935258,-0.09929974766373634,0.042998124325089156
1789550675126367700,4.05236767578125,0.24537878215909004,0.44210663839578623,-0.3509293338458985
1789550675136336000,4.0623359375,0.6640227119028568,0.5234045731619,-0.31932357768341896
1789550675146304800,4.0723046875,0.7307768652707338,0.49544864474385975,-0.46591297285370525
1789550675156273000,4.08227294921875,0.14893442392647266,0.6897460589632392,-0.5760732833582908
1789550675166241800,4.09224169921875,-0.02299333757460117,0.35283144114017484,0.3537923220615834
1789550675176210000,4.1022099609375,-0.5498942284196615,0.7631523636966944,1.8355663452677429
1789550675186178800,4.1121787109375,-0.7398135736852884,0.9408484794661403,0.7964972186114638
1789550675196147000,4.12214697265625,-0.8905752130389213,0.7341191614359617,1.6064385868161917
1789550675206115000,4.132114990234375,-1.1579553991258145,1.0803580724433064,0.002750029360502958
1789550675216084000,4.142083984375,-0.2888935142368078,0.370742653144896,0.8106333690568804
1789550675226051800,4.1520517578125,-1.1593149970412253,1.5334373557522891,0.752959251788631
1789550675236020700,4.162020751953125,-0.262037071493268,1.0826537821650504,0.9789874367896467
1789550675245988900,4.17198876953125,0.26874036852419375,-0.09350158277899026,-0.45995410098191347
1789550675255957800,4.181957763671875,-0.24871055693030356,0.505856641511619,-0.6756193339332938
1789550675265926000,4.19192578125,-0.9306441885769366,1.2680138566911219,0.16237415307294575
1789550675275894800,4.201894775390625,-0.19994564923942088,0.0385880893304944,-0.03685991383101791
1789550675285863000,4.21186279296875,0.14975859979093073,-0.7086246546953916,-0.7894692927360534
1789550675295831800,4.221831787109375,-0.32304654372930525,0.043644788198173044,-2.116633695923537
1789550675305800000,4.231800048828125,-0.14230828378498553,-0.5510875298574567,-1.2652324092790483
1789550675315768000,4.24176806640625,0.496281880697608,-1.136965510328114,-1.1506770786859095
1789550675325737000,4.251737060546875,0.031176059508323667,-1.0306514999881387,-2.4663109108164907
1789550675335704800,4.261704833984375,1.381063312765956,-2.4875387000232934,-1.7873355444535612
1789550675345673700,4.271673828125,1.1441980919301509,-1.4926932574316858,-2.8888635384365915
1789550675355641900,4.281641845703125,0.7027817738860845,-0.7798439707785845,-1.9671666264250873
1789550675365610800,4.29161083984375,-0.22470073578953742,-0.32603228154182434,-0.6455449520565569
1789550675375579000,4.301578857421875,-1.1862708085060119,-0.319909999269247,0.5454972355697304
1789550675385547800,4.3115478515625,-0.7230103229224681,0.26039485724419353,1.0033353307783603
1789550675395516000,4.321515869140625,0.1549140828579664,-0.9182917797431349,0.9994039826788008
1789550675405484800,4.33148486328125,1.0527613327264784,-0.9908271468609571,0.7996927267171442
1789550675415453000,4.341452880859375,0.1742687716692686,0.5118672801032662,1.07832773565948
1789550675425422000,4.351422119140625,0.6821580880522727,-0.5162345354020595,0.4086068121150136
1789550675435390000,4.361389892578125,-1.2069190442591904,1.4111375485122204,-0.45604043466951694
1789550675445357800,4.37135791015625,-1.4323574466735123,1.4067457432940602,-0.9518459665596485
1789550675455326700,4.38132666015625,-0.2919084781438112,1.409489196783304,-1.5482418339133261
1789550675465294800,4.391294921875,1.346036423048377,0.47635874434858555,-0.7313458973303437
1789550675475263700,4.401263671875,1.2904910614371299,0.3550245672702789,0.2000054714015685
1789550675485231900,4.41123193359375,0.8814671929538249,0.6889736132860184,0.7110748973917216
1789550675495200800,4.42120068359375,-0.5457780252724885,1.10897918677181,-0.40685163901075716
1789550675505169000,4.4311689453125,-1.7970745559185741,1.6340172063544391,-0.820556943308562
1789550675515137800,4.4411376953125,-2.227065224584937,0.961669733698666,0.015568430004548281
1789550675525106000,4.45110595703125,-0.6825275058865546,-0.05975450373888015,-0.3525948559053242
1789550675535075000,4.461074951171875,0.7301718851149082,-0.07035685403496027,-0.24516773322429505
1789550675545043000,4.47104296875,1.369931093376875,-0.017824702765047547,0.13029210290191695
1789550675555010800,4.4810107421875,1.1226672281235457,-0.7063371282801032,-0.1719626866839826
1789550675564979700,4.490979736328125,0.03251052298247814,-0.6095505324810743,0.8984165741890668
1789550675574947800,4.50094775390625,1.054731756016612,-1.0722855328857899,0.5916144782960414
1789550675584916700,4.510916748046875,1.5665642570674418,-1.5068661596909165,1.136862634475529
1789550675594884900,4.520884765625,0.33555355860292907,-1.3887886463209986,1.4498149235613644
1789550675604853800,4.530853759765625,-1.0927934833854436,-0.7263032269880175,1.4807861081473528
1789550675614822000,4.54082177734375,-1.6329343795537947,0.046185704852640626,1.4375249124392866
1789550675624790800,4.550790771484375,-0.3328454686880111,-1.0139423572495578,2.2993682442516086
1789550675634759000,4.560759033203125,0.6492506747066974,-1.1963777765005825,2.1305716203831135
1789550675644727000,4.57072705078125,0.8430898237645625,-0.9466936983630061,0.3017944968640804
1789550675654696000,4.580696044921875,0.23956220483481883,-0.40260844848304983,-0.0017092927024932576
1789550675664663800,4.590663818359375,-0.43291503168046475,-0.3228127349734306,0.0327255905052647
1789550675674632700,4.6006328125,-0.35453999862372876,-0.2864300467327237,-0.2573641112461686
1789550675684600800,4.610600830078125,0.16317746881246567,-0.35830782672464845,-1.381847302750498
1789550675694569700,4.62056982421875,-1.0803747313171626,1.9398910814866424,-0.4836121860755607
1789550675704537900,4.630537841796875,0.27047990566790103,1.3282169809803366,-0.35002456702589985
1789550675714506800,4.6405068359375,0.17346096241772174,0.3802297356754541,0.6574473521005362
1789550675724475000,4.650474853515625,-0.5604775817543268,0.9507114095717668,0.8652155847243964
1789550675734443800,4.66044384765625,-0.8670195654064417,1.3389029179066418,-0.20711170494388786
1789550675744412000,4.670411865234375,-0.14826339279711245,0.7595844420820475,0.4976715814903378
1789550675754380000,4.680380126953125,-0.17485446260273454,0.9250357010453939,1.1224041932731865
1789550675764349000,4.690348876953125,-0.05181202030181885,-0.13707593608945606,-0.3072312445579096
1789550675774316800,4.70031689453125,-0.18923779274225233,0.2508589671358466,0.11624408739767968
1789550675784285700,4.71028564453125,-0.35413434043228625,0.9773968796625733,0.836449655097723
1789550675794253800,4.72025390625,-0.07899696434736252,-0.05702361747026443,0.47014819927066565
1789550675804222700,4.73022265625,0.4065390659302473,-0.5484338004782796,-0.379023282495141
1789550675814190800,4.74019091796875,-0.16211773062646387,-0.11408435208052396,-0.0444311071371194
1789550675824159700,4.75015966796875,-0.579645808082819,0.01658814670741558,-0.2881291788008064
1789550675834128000,4.7601279296875,-0.5830787051409483,-0.6611097470656037,0.11643568271333352
1789550675844097000,4.770096923828125,0.06310615225434303,-0.7044017763033509,0.12521761264922096
1789550675854065000,4.78006494140625,0.20013854146301746,-0.38066958839744325,-0.9530188097313046
1789550675864033000,4.790032958984375,-0.18833996711969375,0.5226555083602666,-0.8372929740540683
1789550675874002000,4.800001953125,-0.6714110685884952,1.0707079083055258,-1.254052551355958
1789550675883969800,4.8099697265625,-0.15970950044095517,0.6215045896470547,-1.0770828501649201
1789550675893938700,4.819938720703125,1.6683534834593534,-0.9298629750713705,-0.896257131132856
1789550675903906800,4.82990673828125,2.192640392413735,-0.13099661617577074,-1.3614698467627167
1789550675913875700,4.839875732421875,1.8483394637316464,0.012701076140999794,-0.7255091540008783
1789550675923843800,4.84984375,0.23150515510737896,0.7165387888208031,-0.26975239511094984
1789550675933812700,4.859812744140625,-2.2193799307793376,1.1821993212833999,-0.40793632897492493
1789550675943780900,4.86978076171875,-2.898863246664405,0.4642620638415217,-0.7249751932546495
1789550675953750000,4.87975,-2.0747475879609585,0.903973916055262,-0.5891692405683919
1789550675963717000,4.889717041015625,1.856959992560744,-0.6754238113611937,0.29990336762154474
1789550675973685200,4.899685302734375,3.487999352148175,-0.32512422678619624,0.8602754979737103
1789550675983654100,4.909654052734375,2.4366829575330016,0.12043196754157542,1.3388685772456228
1789550675993622300,4.919622314453125,-0.3783130883991718,1.3085358366936444,1.5185831932306288
1789550676003591400,4.92959130859375,-1.410835935217142,1.1929714751884342,0.40789026134349404
1789550676013559300,4.939559326171875,-0.6201981832236051,0.35857699905484913,-0.5723117388676852
1789550676023528400,4.949528564453125,-0.5887994208753109,-0.1269686758339405,0.23815840245150027
1789550676033496300,4.959496337890625,-0.27997721733152864,0.01635901412665844,0.4876722385887056
1789550676043465500,4.969465576171875,-0.593498976868391,0.4679965741947293,0.8066596431203186
1789550676053433300,4.979433349609375,-0.14634733004271983,-0.5496753249719739,0.13629994674827903
1789550676063402500,4.989402587890625,-0.4727180497586727,-0.4408104611054063,-0.568893454856798
1789550676073370000,4.9993701171875,0.018928572353720665,-1.2437111900836229,-0.38630156640242785
1789550676083338200,5.009338134765625,0.30653380034565925,-0.2757639835506677,-0.8310390282258391
1789550676093307100,5.01930712890625,0.9823486568510532,-0.9224848475188017,-0.4235753217313438
1789550676103275300,5.029275146484375,-0.9822095406413077,-0.005603519095480442,0.015499707583314738
1789550676113244400,5.039244384765625,0.10305588532686233,-0.7484656666964292,-0.4680578759279102
1789550676123212300,5.04921240234375,-0.2234866838246584,0.8068643719121813,-0.5073450899710878
1789550676133181400,5.059181396484375,0.03326630978584289,0.82626289986521,-0.9579358078673481
1789550676143149300,5.0691494140625,0.018581950873136518,0.14535568865686654,-0.09475361040038988
1789550676153118500,5.079118408203125,-0.707588881906867,0.45956630724072456,1.203879822693765
1789550676163086300,5.08908642578125,-0.14084464097321034,-0.07363777540177106,0.25290378910275174
1789550676173054200,5.09905419921875,-0.8235603629082441,1.2440288777306676,-0.060111833843146445
1789550676183023000,5.109023193359375,-1.029375196442008,1.363854403811693,1.197784647623822
1789550676192991200,5.1189912109375,-0.3012380320250988,0.6796893598511815,1.1393740327745676
1789550676202960100,5.128960205078125,0.7506056013345718,0.04242167614400386,1.1467930768594146
1789550676212928300,5.13892822265625,0.07407938168942928,0.6413572911083698,0.9901604996457696
1789550676222897400,5.1488974609375,0.2057218945533037,0.07602700862586498,1.0933535284209996
1789550676232865300,5.158865234375,0.6093132165938615,-0.29404665921628476,0.8333844953734427
1789550676242834400,5.16883447265625,0.5815624553591012,-0.08866583318561315,0.9528212413325905
1789550676252802300,5.17880224609375,-0.13942016112804412,0.679427201783657,0.475695202405937
1789550676262771500,5.188771484375,0.43350013809204097,-0.4684022323861718,-0.7346694157298654
1789550676272739300,5.1987392578125,0.21787936533689498,-0.14323708906769753,-1.691786089234054
1789550676282707200,5.208707275390625,0.13373685479462147,0.004271101447939872,-0.3331977161917835
1789550676292676000,5.218676025390625,-0.2152250514358282,0.3891542158871889,0.0069396430912922365
1789550676302644200,5.228644287109375,-0.8907762885689735,1.180992575842142,-1.0106536179024725
1789550676312613400,5.23861328125,-0.8315846794098615,0.45688013689666984,-0.38105698027983304
1789550676322581200,5.248581298828125,-0.2889619032979011,0.1348503689944744,-0.885726896224916
1789550676332550400,5.25855029296875,0.8734650882840156,-0.3715884563192725,0.04462217729638796
1789550676342518300,5.268518310546875,1.2638169895231723,-0.49184711312055585,1.4700699222132563
1789550676352487400,5.2784873046875,1.054291611033678,-0.05836977138221264,0.6197843417257071
1789550676362455300,5.288455322265625,0.8863894517868757,-0.345141763420403,-0.1826267953709699
1789550676372423400,5.29842333984375,-1.144085863727331,0.41532910610735413,-0.20405909417392684
1789550676382392300,5.308392333984375,-1.4858230794012546,0.1602978217229247,0.6307197964336723
1789550676392360200,5.318360107421875,-2.578732882642746,1.2555202858209609,0.8551570589814335
1789550676402329000,5.3283291015625,0.08868132301568984,-0.6436176372557878,1.2944557272844015
1789550676412297200,5.338297119140625,1.8211311388105154,-0.8218076740220188,0.8939610560849308
1789550676422266400,5.348266357421875,2.1060738695949315,-0.9701534844055771,1.5671248135596514
1789550676432234200,5.358234130859375,1.4091735549628734,-0.17050620426535606,1.264282999599725
1789550676442203400,5.368203369140625,0.6807219177693128,0.2080366012364626,0.9351430343661457
1789550676452171300,5.378171142578125,0.2663286312073469,-0.5008724233582615,0.4762860809711739
1789550676462139400,5.388139404296875,-0.2559714878439903,-0.6718257868692279,0.5882650217376649
1789550676472108300,5.3981083984375,-0.7250356912702322,0.7949085611805319,-0.22843226873436942
1789550676482076400,5.408076416015625,-1.0442179607868194,0.9980798944681882,0.7195740648634731
1789550676492045300,5.41804541015625,-0.9891963307887315,0.6330412981837987,0.9457251455917954
1789550676502013200,5.42801318359375,-0.7349655491322279,0.381537311142683,0.9437445662338286
1789550676511982000,5.437982177734375,-0.8745411930829287,0.6357102251321077,0.3205198747958988
1789550676521950200,5.4479501953125,-0.11698621100187301,0.6955395476728677,-0.02252189327110536
1789550676531919400,5.45791943359375,0.5677800137221812,0.006911386823654175,-0.6483895278327166
1789550676541887200,5.46788720703125,0.7254916183441877,-0.6425017849683762,-0.6323720206201077
1789550676551856400,5.4778564453125,0.5133586877048015,-0.27998744646459817,-0.4252206777855754
1789550676561824300,5.48782421875,-0.426006567466259,0.6670028967574239,0.10932928477423265
1789550676571792400,5.49779248046875,0.7064023024708033,-0.5073576937243343,0.2594583070464432
1789550676581761300,5.50776123046875,0.14707798240482806,0.3713333125144243,0.10013874663799069
1789550676591729400,5.5177294921875,0.7046084047913551,-0.39325112981200216,0.2218990493070334
1789550676601698300,5.5276982421875,-0.04369008864462375,-0.322800752274692,-0.11596211951798759
1789550676611666200,5.537666259765625,-1.0199538726240396,0.5952572187125682,-0.5116373803375288
1789550676621635000,5.547635009765625,-1.3643950865596532,0.5242524221628904,0.11222960019246675
1789550676631603200,5.557603271484375,-0.5774135189861059,-0.18640870679616928,-0.7520873643249273
1789550676641572400,5.567572265625,-0.06349719739854336,0.25398440568000075,-0.8486657972659916
1789550676651540200,5.577540283203125,0.1062508819758892,0.21278087315410374,-1.2832947201922535
1789550676661508400,5.58750830078125,1.1711778687924146,-1.0925889007240532,-1.072053404630348
1789550676671477200,5.597477294921875,1.6072627626806497,-1.1225064846038817,-1.4518730251349508
1789550676681445400,5.6074453125,1.0478677154660225,-0.5408177725166082,-1.593814521434158
1789550676691414300,5.617414306640625,0.9968401235401629,-0.7689554970175028,-2.151938525799662
1789550676701382400,5.62738232421875,0.15579378830194474,-0.7092091765850782,-1.501278861077875
1789550676711351300,5.637351318359375,-2.3207208288818597,1.4118459890425203,-0.733949796218425
1789550676721319200,5.647319091796875,-1.396260881897807,1.0634361637368797,-1.021918742956221
1789550676731288300,5.657288330078125,-1.39677759924829,1.0652753618627786,-1.0336977358162402
1789550676741256200,5.667256103515625,0.994268227225542,0.03318564576506614,-0.9576163666546345
1789550676751224300,5.677224365234375,1.0701958671301603,0.7728051581829786,1.695832003623992
1789550676761193200,5.687193115234375,0.8503536772876977,0.2515031102582812,0.8610383721049875
1789550676771161300,5.697161376953125,0.35224399664103984,0.27341888172924517,-0.295184540672414
1789550676781130200,5.707130126953125,0.35294951456189155,0.27110446730703114,-0.29998156569059936
1789550676791098400,5.717098388671875,-0.8538789288043975,0.7631354125618934,1.1086846608046441
1789550676801067300,5.7270673828125,-2.212245841115713,2.2292311704471706,0.7007345590326934
1789550676811035400,5.737035400390625,-2.6179391038715836,1.0809548692926765,1.7039005976587533
1789550676821004300,5.74700439453125,-0.18423545441031455,-0.6035816872045398,0.6494899633552879
1789550676830972200,5.75697216796875,-0.1854921764731407,-0.5995163374617696,0.6468735703118145
1789550676840940300,5.766940185546875,1.9991034411728381,-1.564159826274216,2.247393726864457
1789550676850909200,5.7769091796875,1.1416665276259184,-0.35593496011346576,1.105867703687772
1789550676860877300,5.786877197265625,1.1422592328220604,-0.3578253039047122,1.113392765430361
1789550676870846200,5.79684619140625,-0.31848785751163955,-0.3776052323907614,1.8293382645331322
1789550676880814300,5.806814453125,-0.31867782712578774,-0.3770142807602882,1.841303573745489
1789550676890783200,5.816783203125,0.17005787597596644,-0.42865737423598765,-0.9309995048206299
1789550676900751400,5.82675146484375,-0.15706570793390273,-0.29731355205774307,0.7208628625649959
1789550676910720300,5.83672021484375,-0.37018121986985203,-0.5863891448631883,-0.0384554713601945
1789550676920688400,5.8466884765625,0.22030688474476337,-1.719401241390407,-1.2847634775705634
1789550676930656300,5.85665625,-0.11609072346687316,-0.9540010987669229,-2.513959673959017
1789550676940625400,5.86662548828125,-0.24852117183804512,-0.06803162595778703,-1.3132294013373553
1789550676950593300,5.87659326171875,-0.4772498479694128,-0.24168606512099503,-0.7493190686553716
1789550676960562000,5.88656201171875,-0.32177345505356786,-0.017541794170439242,-1.5215972803547977
1789550676970530000,5.896530029296875,-0.6452239034086465,0.30412936955243347,0.9624353843089193
1789550676980499000,5.9064990234375,0.16278934627771377,0.5320177954673767,0.30146710980692876
1789550676990466800,5.916466796875,1.1000187584638594,0.007500292627513408,0.0703534382351674
1789550677000435700,5.926435791015625,0.652200172162056,0.6060963003739714,1.6918892573475837
1789550677010403800,5.93640380859375,0.7422901929318905,-0.0695800244435668,0.9761457105576992
1789550677020372000,5.9463720703125,-0.8097405118703842,0.6939587082222104,0.24101894298177212
1789550677030340900,5.9563408203125,-1.3677946658700704,1.1645575738698244,-1.2349109207734466
1789550677040309000,5.96630908203125,-0.44112171901166436,-0.13122078032046555,0.019104594499262748
1789550677050278000,5.97627783203125,-0.3256242852628231,0.6536772589772939,0.15428537476668133
1789550677060246000,5.98624609375,1.2020277650862932,0.07872720749527215,-1.1988440935488789
1789550677070215000,5.99621484375,1.8447335481941698,-1.0241855188444255,-0.44226946427468206
1789550677080183000,6.00618310546875,0.22603870639503001,-0.14169541258364915,0.34706688626408577
1789550677090151000,6.01615087890625,-1.0250012191414832,0.4952499073013663,-0.9132022015191614
1789550677100119800,6.026119873046875,-2.320852930828929,0.7952639504894614,-0.5565170806255191
1789550677110088000,6.036087890625,-1.367469087177515,0.13219400926679373,-0.5198035529952496
1789550677120056800,6.046056884765625,-0.4144143293499946,0.4212371611073613,-2.311936487793177
1789550677130025000,6.05602490234375,-0.41476153535246846,0.4217705373317003,-2.330198705192655
1789550677139993900,6.065993896484375,-0.19234978728294372,0.9793278477251529,1.0088329783465713
1789550677149962000,6.0759619140625,0.6900286752969026,0.6821648100540042,0.0525428553270176
1789550677159931000,6.085930908203125,0.7493699220597744,0.9912576472327113,-1.8430854887261985
1789550677169899000,6.09589892578125,0.6082540629297495,0.48353141245692965,-0.3234804781671613
1789550677179867100,6.1058671875,0.6091010351479054,0.48011195940226314,-0.3357269789410755
1789550677189836000,6.1158359375,0.9463502917528152,0.9632470660179853,-1.2149750710733234
1789550677199804000,6.125803955078125,0.5558499219536781,1.181968142876029,-0.5091311331376434
1789550677209772800,6.135772705078125,-0.9157201756894588,1.3755381196036933,0.08614586798762902
1789550677219741000,6.145740966796875,-1.468184546858072,0.7762436081990599,-0.3829813724711537
1789550677229709800,6.155709716796875,-1.4668079978078603,0.7715922752618789,-0.3859798967000097
1789550677239678000,6.165677978515625,-1.2032406480073927,0.45865503761470316,2.4608918083772062
1789550677249646800,6.175646728515625,0.11050737037658691,-0.3123518389746547,1.2907187327131628
1789550677259615000,6.185614990234375,0.6404968748867511,-0.9223474848747253,0.9404146911587565
1789550677269583000,6.1955830078125,0.4035410531580448,-0.3131833213627338,0.976088135151565
1789550677279552000,6.205552001953125,0.40274844147562977,-0.3101376700565219,0.9849535055872052
1789550677289520000,6.21552001953125,0.3944476461201906,-0.6821300310015678,-0.10595897722407244
1789550677299489000,6.225489013671875,0.831874602267146,-1.8080919167563319,0.0526005951299332
1789550677309457000,6.235456787109375,-0.46591889113783835,-0.844814163339138,-0.7633578962061554
1789550677319425800,6.24542578125,-0.862500042155385,-0.2530503397002816,-0.9758740540094673
1789550677329394000,6.255393798828125,-0.8389274433881044,-0.31433307591974735,-0.6136398476213216
1789550677339361800,6.26536181640625,-0.9084493079036474,-0.11361439648121595,-1.126597480244562
1789550677349331000,6.2753310546875,-1.9044798686265945,0.6945140040174126,-0.7001742217361927
1789550677359299000,6.285299072265625,-1.5047756171524524,0.40521950776427984,-1.171928687159717
1789550677369268000,6.29526806640625,-0.636267274492979,-0.7770218990951776,-1.6143227641947566
1789550677379236000,6.305236083984375,0.21146073046624658,-0.6698033411309122,-1.4455512747675179
1789550677389205000,6.315205078125,0.6999959425598382,-0.09610445875376462,-0.37646486671660095
1789550677399173000,6.325173095703125,1.667895218297839,-0.5811714102149009,-0.6558348754025995
1789550677409142000,6.33514208984375,2.0103671779870984,-0.13239245444834233,-1.550570422991365
1789550677419110000,6.34510986328125,2.0311375788152217,-0.04584317502528429,-1.153066896431893
1789550677429077800,6.355077880859375,2.615264331704378,-0.7048030505806208,-0.020346257131919263
1789550677439047000,6.365046875,1.5705524499207735,0.36995179502815007,0.0915035773621872
1789550677449014800,6.375014892578125,-0.17975217151641845,1.474400937154889,-0.9055206340406089
1789550677458984000,6.38498388671875,-0.9352192414075136,1.2538663811340927,-1.4610310218416154
1789550677468952000,6.3949521484375,-1.6649422137111425,1.8497747572317718,-2.163222720880061
1789550677478921000,6.4049208984375,-0.906098360863328,1.3150509176760912,-1.601524365159124
1789550677488889000,6.41488916015625,0.6478267793834209,-0.1806084960848093,-1.5659956633992491
1789550677498857000,6.42485693359375,1.59741473788321,-0.7889020142421126,-1.5421633907824754
1789550677508826000,6.434826171875,0.9290601342558861,0.20627309869527816,-1.714818882036209
1789550677518793700,6.444793701171875,1.3213105625927448,-1.4947437602207063,-1.0827136956587433
1789550677528763000,6.454762939453125,0.29868659397661684,-0.8668769420653581,-1.2334504928320646
1789550677538730800,6.464730712890625,-0.9554407761812209,-0.3773968503370881,-0.8187778048068285
1789550677548700000,6.474699951171875,-1.2685627227455376,-0.4104457179799676,-0.27636680828202514
1789550677558667800,6.484667724609375,-1.2811550778150558,-0.38595658888965845,0.9331829132743179
1789550677568637000,6.494636962890625,-1.2082792266964912,-0.7671215595886111,0.37009525861945003
1789550677578605000,6.50460498046875,-1.2070587449908257,-0.7713704492047428,0.36731815858893097
1789550677588573000,6.514572998046875,0.22816695059537886,-1.2163207865938543,0.12718228205200283
1789550677598542000,6.5245419921875,1.386950617238879,-1.975826610481739,0.14696648485437036
1789550677608510000,6.534510009765625,1.42812843080163,-1.5846858969524502,-0.8798932216353714
1789550677618479000,6.54447900390625,0.9398036465883255,-0.9031038552224635,-0.7929466865230351
1789550677628447000,6.554447021484375,0.5559913762509823,-0.8311699611291289,-0.04629011507518589
1789550677638416100,6.564416015625,-1.277896368280053,0.6692287561133503,-1.3068307863414286
1789550677648383700,6.5743837890625,-2.231435110232234,1.5162950822934507,-0.26659520972166206
1789550677658351900,6.584351806640625,-1.5378583870649336,1.4968492080673574,0.2438231136823073
1789550677668320800,6.59432080078125,0.3999824838936329,1.057411788880825,0.3601313888899982
1789550677678289000,6.604288818359375,1.9719898087978363,0.41635815689414735,-0.14896730328276753
1789550677688258000,6.614258056640625,0.9973322909712791,2.501736152201891,0.05218556632194668
1789550677698226000,6.624225830078125,0.7432394564807414,2.20220872348696,0.9734960728317499
1789550677708195000,6.634195068359375,0.7442214532554149,2.199372038756311,0.9765298875696956
1789550677718163000,6.644162841796875,-0.602273819476366,1.2947323522686958,0.3441386873250827
1789550677728130800,6.654130859375,-0.6012585049539804,1.2922113093584775,0.350929151182808
1789550677738100000,6.664099853515625,-0.6938152080982923,0.9930658656984567,-0.27412293834537266
1789550677748067800,6.67406787109375,-1.4968208587557077,1.1579963156580924,-0.41843543809223915
1789550677758036700,6.68403662109375,-0.16459434987306593,0.640019612763822,0.186622093818523
1789550677768004900,6.6940048828125,0.6181178698182106,0.04354395817220211,0.30184246419165284
1789550677777974000,6.70397412109375,1.174728254750371,-0.3647404901206493,-0.37047494211941956
1789550677787942000,6.71394189453125,0.5198579865962266,-0.4927548756152391,-0.14186477780118584
1789550677797911000,6.7239111328125,-2.1277111163854596,0.9981117509111761,0.5575841984003782
1789550677807879000,6.73387890625,-3.053937488520145,0.2822673740953207,1.2583578473344446
1789550677817847000,6.743846923828125,-0.9411281731903552,-1.6360852448001504,0.14961407675370572
1789550677827816000,6.75381591796875,1.0503735608071088,-1.0891761696711182,-0.9236005536757409
1789550677837784000,6.7637841796875,1.8290555020689963,-1.3580495169252156,0.5103867592219263
1789550677847753000,6.7737529296875,1.1863123095601797,-1.3989555278092622,1.0309003601826727
1789550677857720800,6.783720947265625,-2.367634555748105,-0.07129296584129333,0.7767806376852094
1789550677867689700,6.793689697265625,-4.323747580978274,-0.6912023952513933,-0.7468135155752301
1789550677877657900,6.803657958984375,-4.9736628570735455,-0.27742870189249513,-0.7524300402827561
1789550677887626000,6.8136259765625,-2.0293290680885314,-1.090023141889274,-0.8824400565739721
1789550677897595000,6.823594970703125,0.7169049917846918,-1.0495765652105211,-2.1061432815693317
1789550677907563000,6.83356298828125,3.895956468182802,-2.664635096333921,-0.6494645366530865
1789550677917532000,6.843531982421875,4.172997632062435,-1.110810493852198,-1.9740388502821324
1789550677927500000,6.8535,3.6877573698610067,-0.7466060103043913,-2.1888069517306983
1789550677937469000,6.863468994140625,1.3676859447985887,0.2211044648632407,-2.7832813495025035
1789550677947437000,6.87343701171875,-1.2476380081385374,2.3828408927083014,-3.2241622454956174
1789550677957405200,6.8834052734375,-0.5190244583815335,1.5081030080094933,-1.6980960030332206
1789550677967374000,6.8933740234375,0.3121872960627079,1.9515055314347147,-1.760925676433742
1789550677977342200,6.90334228515625,0.8500672615617513,1.9804028323560952,-0.4978228630619123
1789550677987311000,6.91331103515625,0.8951210397750139,1.7652248349323867,0.4755914132378995
1789550677997279200,6.923279296875,0.1762508853971958,1.6250459643915294,-0.1928338079402223
1789550678007248100,6.933248046875,-0.06715338181853293,0.38051819722801444,-1.3716659543454646
1789550678017216300,6.94321630859375,0.4968541276276111,-0.46862405844330784,-1.5698812726609408
1789550678027184000,6.95318408203125,0.30005028354525565,0.6299447934731841,-1.0362111799418925
1789550678037153300,6.9631533203125,0.18341537019908427,1.762184444323182,-1.0465191504012792
1789550678047121200,6.97312109375,0.5528127462148666,0.7233285950914025,-1.9765503947116434
1789550678057090000,6.983090087890625,-0.7104436868160963,-0.019620061749219892,-1.2914654594272374
1789550678067058200,6.99305810546875,-1.6333996589779853,-0.5079059752568602,-1.3242245503433048
1789550678077027000,7.003027099609375,-1.632728627848625,-0.5438908963516355,-2.2332807380989195
1789550678086995200,7.0129951171875,0.03768061909675598,-0.6269450271353125,-1.4873177018731831
1789550678096963000,7.022963134765625,1.4843594365894794,-0.45001200469285246,-1.4149255426183343
1789550678106932200,7.03293212890625,0.6400953083485365,0.6104606330633163,-1.2300750250495969
1789550678116900000,7.042900146484375,-0.5531003309845924,0.3361033014401793,-0.4890136432603001
1789550678126869200,7.052869140625,-0.6547802517831325,0.2424243162676692,-1.3130720188185572
1789550678136837000,7.062837158203125,-0.5180459687381983,0.17618892607688902,-0.7358459121633321
1789550678146806300,7.07280615234375,0.1605833606660366,-0.2092296104133129,-0.31970344384647903
1789550678156774100,7.082774169921875,-0.39329087730050083,0.1691483599156141,-0.5154313292603939
1789550678166742000,7.092741943359375,-1.7904273729890583,0.40332068840563295,-0.10781835048831999
1789550678176711200,7.102711181640625,-3.035004239991307,1.346608962239325,0.6022437896642834
1789550678186679000,7.112678955078125,-1.275535484367609,0.11366320405900478,1.1045320711698383
1789550678196648200,7.122648193359375,1.127159278845787,-1.0964832778140903,-0.06723053870797156
1789550678206616000,7.132615966796875,1.0003326418310403,-0.2204913014009595,0.699490184994787
1789550678216585200,7.142585205078125,-0.7860603610754012,1.02834585339427,1.5614821314975618
1789550678226553000,7.152552978515625,-0.7861310882240533,1.0300143711283802,1.5670760059818625
1789550678236521200,7.162521240234375,0.17560031253397465,0.12950666987895965,1.7095217985413969
1789550678246490400,7.172490478515625,1.524386911073327,-0.791036688183248,-0.006869447378069162
1789550678256458000,7.1824580078125,1.4804408018410204,-0.8919085074692964,1.3042892851650714
1789550678266427100,7.19242724609375,-0.1276303546130657,1.1288690053731203,1.9430353708617387
1789550678276395000,7.20239501953125,0.11713526408374308,0.3876628082856536,1.0690432630289346
1789550678286364200,7.2123642578125,-0.21689152334332465,0.0960509750008583,0.3713724024157971
1789550678296332000,7.22233203125,-0.5885591823786497,0.17749796284884214,0.0024918898809701204
1789550678306300200,7.232300048828125,-0.5226888261079788,0.1379112178698182,0.042245808120444414
1789550678316269000,7.24226904296875,-0.069708326998353,0.22329291481822727,0.32918738457188007
1789550678326237200,7.2522373046875,0.31425416546463963,-0.2614329681202769,-0.7350323307581246
1789550678336206000,7.2622060546875,0.5214525623112917,-0.8456655194714665,-0.7402586871042848
1789550678346174200,7.27217431640625,0.4761988776117563,-0.6440247567519545,-1.178389480671659
1789550678356143400,7.282143310546875,-0.2896072154641151,1.061652787451446,-0.8329287144299596
1789550678366111000,7.292111083984375,-0.4515770620524883,1.1232979272425174,-0.5118040056087076
1789550678376079000,7.3020791015625,-1.0446633664667606,1.0909902333557606,-0.307648995045945
1789550678386048000,7.312048095703125,-0.8588625624358653,0.4754655949011445,0.7160881224438548
1789550678396016000,7.32201611328125,-1.662339337736368,1.1452356182843446,-0.007645728980191052
1789550678405985000,7.331985107421875,-0.045079497176408766,0.4971314832642674,-0.5980083805842324
1789550678415953200,7.341953125,0.21134031895697117,0.8217144427806139,0.10956727651488035
1789550678425922000,7.351922119140625,1.252390755623579,-0.5664499341621995,-0.2602101483270526
1789550678435890200,7.36189013671875,0.33414427632689475,0.007753682866692543,-0.28215423257704825
1789550678445858300,7.3718583984375,-0.5553460640847683,0.23513182117193937,0.2816628323309123
1789550678455827200,7.3818271484375,0.14124913012087345,0.7401531809031963,-0.3958669383335858
1789550678465795000,7.391795166015625,0.1418348210543394,0.7404974642962217,-0.37885128692910075
1789550678475764000,7.401763916015625,0.6016822833240032,0.22228198421001433,-0.8363790740795433
1789550678485732000,7.411732177734375,-0.7321481536239385,0.8515975398689508,-0.5514139122676104
1789550678495701000,7.421700927734375,-0.5028711959600448,0.8059569016784429,-0.8850574725307524
1789550678505669000,7.431669189453125,0.030299861195683477,0.2751838455751538,-0.2757313599226996
1789550678515637200,7.44163720703125,1.3159709551304577,-0.501970155467093,-0.962960358031094
1789550678525606100,7.451606201171875,1.8581395577341318,-1.4142784768864511,0.22216243121726437
1789550678535574300,7.46157421875,1.0057757096678017,-1.1446429130882023,-0.48398233456220474
1789550678545543200,7.471543212890625,-0.30910861926972866,-0.17238894927203655,-0.33826062560454007
1789550678555511300,7.48151123046875,-0.8110422421187162,0.009055997636914252,-0.21823860883703455
1789550678565480200,7.491480224609375,0.1569979033946991,-1.073680202114582,-0.7387694714598357
1789550678575448000,7.501447998046875,0.6284089622080326,-0.7307505617856979,0.24985937990555537
1789550678585416200,7.511416259765625,0.6548854657232761,-0.04442833979129791,-0.7586609705615788
1789550678595385000,7.521385009765625,0.0228700034558773,0.3394520273461938,-0.48613863581325856
1789550678605353200,7.531353271484375,-0.6801327197045087,0.4327040192782879,0.17549758281186223
1789550678615322000,7.541322021484375,-0.2188853275090456,-0.10464110869169235,0.17390713528264312
1789550678625290200,7.551290283203125,-0.29487492673397064,0.6176727563992143,0.6973794033858924
1789550678635259100,7.561259033203125,0.07810556846559047,0.8046902427434921,-0.1409758113385178
1789550678645227300,7.571227294921875,0.5351105007857084,0.2615349671900272,-0.27627461822023613
1789550678655195100,7.581195068359375,-0.7631652231782674,0.923722572620213,-0.2853762816297822
1789550678665164300,7.591164306640625,-1.0722001926898956,0.33963907435089347,0.10054826815379783
1789550678675132200,7.601132080078125,0.02460077277123928,0.4032239500328898,1.3254613986618815
1789550678685101000,7.61110107421875,0.2189893724054098,0.8003881616353988,0.10906389357000588
1789550678695069200,7.621069091796875,0.09424655592739581,0.02291413485854864,-1.049602868695557
1789550678705037000,7.631037109375,-1.4465145668417214,1.2975541316911576,0.2471122183555737
1789550678715006200,7.641006103515625,-2.1186235545665024,1.2277452669277786,0.234211893315427
1789550678724974000,7.65097412109375,-2.1188211229652163,1.2285446006119252,0.23892403479544444
1789550678734943200,7.660943115234375,0.035220366463065145,-0.30207156023979187,-0.34293387811258436
1789550678744911000,7.6709111328125,1.2927689432412386,-0.8216627125933766,-1.105058433131501
1789550678754880300,7.68088037109375,1.443811153101921,-0.9184200822979212,0.09691506275059655
1789550678764848000,7.69084814453125,0.5475578944265842,0.3374193524748087,-0.12499502854025922
1789550678774816000,7.70081591796875,-0.09401976143419742,-0.15706336984634398,-0.6506158986452967
1789550678784785200,7.71078515625,-1.3261264384418725,0.6348717284813523,-0.038215703220991416
1789550678794753000,7.7207529296875,-1.9495535205841064,0.805305744293332,-0.036507310134219005
1789550678804722200,7.73072216796875,-0.6659492960512637,0.1702285563677549,1.1497229928314685
1789550678814690000,7.74068994140625,-0.667774757912755,0.17611673762351274,1.1510957424893975
1789550678824659200,7.7506591796875,1.3849591511607169,-1.1728753203600644,-0.9075805622451006
1789550678834627000,7.760626953125,0.22909926300942896,0.33601503863483667,0.30331284727146846
1789550678844595200,7.77059521484375,0.8544295484244823,-0.08102583982646465,-0.27294098028549924
1789550678854564000,7.780564208984375,0.764794285684824,-0.136037240691483,-0.12772532115383073
1789550678864532200,7.7905322265625,0.648169893732667,-0.2587184484645724,-0.13909229001370257
1789550678874501000,7.800501220703125,0.7337573423862457,-0.46505964395999905,0.23138450613608583
1789550678884469000,7.810468994140625,0.7331985394597053,-0.46337008343785996,0.22893987119663506
1789550678894438100,7.820438232421875,-1.1380664573073387,1.3743302051186561,-1.3770461860790848
1789550678904406000,7.830406005859375,-1.1398100861042737,1.3796104836091398,-1.3834601447746158
1789550678914374100,7.8403740234375,0.6429144574224949,-0.6776748051583766,-1.2969156876571475
1789550678924343000,7.850343017578125,0.6411205597430467,-0.6725047090440989,-1.308323947508633
1789550678934311200,7.860311279296875,0.9544137712210417,-0.19080927984267473,-0.2904741527580656
1789550678944280000,7.870280029296875,1.1164701270490884,0.31199469610005615,0.05477488869540393
1789550678954248200,7.880248291015625,-0.062059858071804044,1.5439540735915303,-0.17528448805045335
1789550678964217600,7.890217529296875,-0.061767012605071066,1.5423840477958322,-0.18684286042973397
1789550678974185700,7.900185791015625,-0.13703063564300536,0.9307429727762937,-0.5459510072192176
1789550678984153900,7.91015380859375,-0.42370705835223194,0.9789581376299261,-0.8134853974871337
1789550678994122800,7.920122802734375,-0.8209639166742563,1.237366204971075,-1.2404027961879969
1789550679004091000,7.9300908203125,-0.4854495210379362,0.9789537537157535,-1.5525377775415776
1789550679014059800,7.940059814453125,-0.45685587923824783,0.31840543992519377,-0.20763434057850388
1789550679024027600,7.950027587890625,-0.26307868950068947,-0.19649726235121487,0.15326147507904098
1789550679033995500,7.95999560546875,-0.09391045584082602,0.571275746883452,-1.4717793564796446
1789550679043964700,7.969964599609375,0.05125321737527847,0.7280851419687271,-0.6931968570042402
1789550679053932500,7.9799326171875,-0.2009516114115715,0.04584083693772554,-0.38554252819605167
1789550679063901700,7.989901611328125,-0.23267653697431087,-0.47621612100750205,0.14029920898489653
1789550679073869800,7.999869873046875,-0.8164011388033628,0.18988807334452867,-0.7906424281686544
1789550679083838700,8.009838623046875,0.6885381444782018,-0.9697697457849979,-1.133468315862119
1789550679093806800,8.019806884765625,0.6858849996209144,-0.44373423959761854,-0.12231975404955446
1789550679103774700,8.029774658203126,0.7049041728675365,-0.3786445123106241,0.001860606240108609
1789550679113744000,8.039743896484374,-0.04215747224986553,-0.1346025317132473,-0.5607435757467523
1789550679123711500,8.04971142578125,-1.1298457414507865,1.4513292736470698,-0.19885938837267458
1789550679133680600,8.0596806640625,-0.5660474908411502,0.42924686456173655,-0.977204791156575
1789550679143648500,8.0696484375,-0.23555998345613477,-0.31702859861403704,-0.1412724744638428
1789550679153616600,8.07961669921875,0.37033728721439835,-0.18407266506403683,-0.23063385216556487
1789550679163585500,8.08958544921875,0.6316279242545366,0.37006840714514255,0.5089363777505234
1789550679173553700,8.0995537109375,0.9471329665631055,-0.16231880615651606,0.25693364740703256
1789550679183522800,8.109522705078126,0.22625088784098624,0.4522837490171194,-1.0323075966320931
1789550679193490700,8.11949072265625,-0.22525018636584282,0.5146773690879345,-0.48449254910666495
1789550679203459800,8.1294599609375,-0.43337621945142746,0.8269514666512608,-0.3960627166340127
1789550679213427700,8.139427734375,-0.45130818198323247,1.4468842769369483,0.28940818576067684
1789550679223395600,8.1493955078125,-0.2696270882308483,0.8047846430286765,-0.2664439281500876
1789550679233364500,8.159364501953124,-1.1379752718925475,0.6831538210913538,-1.5577347616627812
1789550679243332600,8.16933251953125,-1.3487147023469208,0.5656085149019956,-1.5805898598104715
1789550679253301500,8.179301513671875,-1.2132979316413401,0.19771365240365266,-0.5621431038137525
1789550679263269600,8.18926953125,-0.7091361113488673,-0.4285127050682902,-1.7283230912536383
1789550679273238800,8.19923876953125,1.006840124028921,-1.4513780812248587,-1.9283423902511596
1789550679283206700,8.20920654296875,1.2605898441702126,-1.2996525652751325,-2.1533293956361708
1789550679293174800,8.2191748046875,1.253697746568918,-0.6457818295523524,-2.0080244142532346
1789550679303143700,8.229143798828124,1.195011748844385,-0.4616434057757258,-1.978065475449711
1789550679313111800,8.23911181640625,-1.237726270455122,1.3659966765373945,-3.4743352761939166
1789550679323080700,8.249080810546875,-1.434775029209256,0.5232853306964039,-2.1894711147278545
1789550679333048600,8.259048583984375,-1.643394983291626,0.7763575899675488,-1.794075958624482
1789550679343016700,8.2690166015625,0.2671615749001503,-0.05337941574901342,-1.7807210947498677
1789550679352985600,8.278985595703125,0.70650167119205,0.5367155978947877,-1.7042196004800498
1789550679362953700,8.28895361328125,0.9725573306769132,-0.22030600796192884,-0.6005823592580855
1789550679372922600,8.298922607421876,0.6566904693186283,0.39279081882387396,-0.4836470747258514
1789550679382890800,8.308890869140624,0.8040905232846737,0.007175882978737354,-0.9791714881196617
1789550679392859600,8.318859619140625,0.5660942525923252,0.14549217451810836,0.0757874277163297
1789550679402827800,8.328827880859375,-0.2671376095026731,0.6891685513362288,-0.5612505388882011
1789550679412796000,8.3387958984375,-1.006681718596816,1.4857479683384298,-0.5780923680957406
1789550679422764800,8.348764892578124,-1.204670973071456,0.9617132805794477,-0.7748531767539679
1789550679432732700,8.358732666015625,-1.6708949846357106,0.7959612851038574,-0.5849055552419274
1789550679442701600,8.36870166015625,-1.0071183564484119,0.23388211337178944,0.29882563712112603
1789550679452669700,8.378669677734376,0.12083587216734885,-0.17302520134896038,-0.5367447509240358
1789550679462637600,8.388637451171874,0.7355009711831808,0.09588146365284919,-0.20706709861718117
1789550679472606700,8.398606689453125,1.0503016646146774,-0.6066387366876006,-0.3968995693169534
1789550679482574600,8.40857470703125,-0.6136246500521898,0.8329401856720448,-0.8254010223388671
1789550679492543700,8.418543701171876,-0.5040758955746889,0.018465923278033734,-0.0900264540143311
1789550679502511600,8.42851171875,-0.566579405760765,-0.6524068006500602,0.25547500956393776
1789550679512480800,8.438480712890625,0.09533259759843349,-0.14522943192869425,0.8309857636686414
1789550679522449000,8.448448974609375,1.396865277531743,-1.168226910032332,0.6540788255155087
1789550679532416500,8.45841650390625,-0.5266670820891857,0.18462591503262518,-0.14838621545918285
1789550679542385700,8.4683857421875,-0.6816454623550177,0.04236497752070427,0.24016455464214084
1789550679552353500,8.478353515625,-0.284232536688447,-0.3660758303776383,-0.20412753803394734
1789550679562322700,8.48832275390625,1.0005518375396727,-1.1265911235690116,1.1650563171721995
1789550679572290600,8.49829052734375,0.46144846772551534,0.31872137400656936,-0.049097135319933295
1789550679582258700,8.5082587890625,0.2181488299280405,0.3422293831050396,0.30795941270198673
1789550679592227600,8.5182275390625,0.06450315957069397,-0.6322706060722469,-0.2359308260625228
1789550679602195700,8.52819580078125,-0.2536199562817812,-0.002969371199607849,-0.1314587172621861
1789550679612164600,8.53816455078125,-0.03691547994315624,0.28966742121875283,-0.26328783873934297
1789550679622132700,8.5481328125,-0.16127835719287395,0.7922206372708082,-0.059721916643530125
1789550679632102000,8.558101806640625,-0.4644429733663797,0.7413038122430443,-0.332690168528445
1789550679642069500,8.568069580078125,-0.028065234011411665,0.39302345853596926,0.5849444259475917
1789550679652037600,8.57803759765625,-0.38012043008208274,0.2098351750910282,0.30719664816856385
1789550679662006500,8.588006591796875,-0.2159393371850252,0.04971124863028526,0.27344975179154424
1789550679671974700,8.597974609375,-0.5660995132893324,0.19743366641849278,0.0599269742289558
1789550679681943600,8.607943603515626,0.5026584299921989,-0.3672697163373232,-0.04241159314140677
1789550679691911700,8.61791162109375,1.0648656120181084,-0.5756304349616169,-0.05334116609785706
1789550679701880600,8.627880615234375,1.80857093244493,-0.7943219934642315,0.014557334999553858
1789550679711848700,8.6378486328125,1.4165268403351305,-0.44937312226742504,0.07628209763178602
1789550679721816800,8.64781689453125,0.005661679023504257,1.0274047731518745,0.27518649418996644
1789550679731785700,8.65778564453125,-1.2720201697230338,1.2526923689186573,-0.6962661814469844
1789550679741753600,8.667753662109375,-2.171273194736242,0.9153712161213159,0.7151335981979966
1789550679751722500,8.677722412109375,-1.9955477945178746,0.9874246449410915,0.07009661392988636
1789550679761690600,8.687690673828126,0.27114275349080563,-0.24134528885930775,-0.37427020621653645
1789550679771658800,8.69765869140625,1.119147237303853,-0.12809709534198044,0.13801846850342117
1789550679781627600,8.707627685546875,1.2892670726001263,-0.2628457575276494,0.416768016336672
1789550679791595800,8.717595703125,1.155675179234147,-0.29198621955513954,1.0196444413486867
1789550679801564700,8.727564697265626,0.9189677793085574,-0.2304658751875162,1.562746452344954
1789550679811532800,8.73753271484375,0.826249748122692,-0.4293368809327483,0.45083154091481115
1789550679821500700,8.747500732421875,0.318656784337759,0.21112638394534586,-0.2833651792693883
1789550679831469800,8.7574697265625,-1.1257044038623572,1.562220382644236,1.3045961591571569
1789550679841437700,8.767437744140626,-0.7295365098208189,0.6390133583307266,0.21161624982152133
1789550679851406600,8.777406494140624,-1.5452011510431765,0.18802666338682172,-0.22040276460098102
1789550679861374700,8.787374755859375,-1.2767244018912314,0.5909533840388059,-1.007061584759876
1789550679871343600,8.797343505859375,-0.3349129226118326,0.7877016985416412,-0.472972535976395
1789550679881311700,8.807311767578126,0.4897223760515451,0.07140373273938894,-0.5766803093407302
1789550679891279600,8.817279541015624,0.3612123159945011,0.6163242643997073,-0.04342332290064078
1789550679901248800,8.827248779296875,0.07637596819400787,0.5209864061042666,0.5831602459445595
1789550679911216600,8.837216552734375,0.29164602781534193,-0.09934095645695924,-0.4451278859131038
1789550679921185800,8.847185791015624,-0.5496048900842666,1.0347376002579927,-0.5036719178836793
1789550679931153700,8.857153564453125,-0.4940016608059406,0.9340995897278189,-0.21769460162082685
1789550679941121500,8.86712158203125,0.9155793059140444,-1.1746791549116373,0.5799655415564775
1789550679951090700,8.877090576171875,-0.596216419133544,0.5606579067572951,0.07730928525505587
1789550679961058600,8.88705859375,-1.622545672008395,1.2741226949602364,-0.3569084082555026
1789550679971027200,8.897027099609375,-1.3261053956538438,0.362633580969274,0.18362409931262955
1789550679980995000,8.9069951171875,-0.4049778079628944,-0.11638298441171645,0.7552591992940754
1789550679990964200,8.916964111328125,0.11797639108300208,0.5033700853928923,0.4831954585008323
1789550680000932000,8.92693212890625,1.7343389905422926,-1.3628262298077345,0.05012671126311179
1789550680010900200,8.936900146484374,2.142619347181916,-0.7785197364374995,-0.913465455565229
1789550680020869400,8.946869384765625,1.0430372265696526,0.6700017863124609,-0.782848267161101
1789550680030837000,8.9568369140625,0.2128764424830675,0.30357991897612807,-1.4926212151087819
1789550680040806100,8.96680615234375,-1.0314105016618966,1.2784060713678598,0.41492366711162026
1789550680050774000,8.97677392578125,-1.2774725899100303,0.6315174496173859,0.6673376086045056
1789550680060742100,8.9867421875,-0.7400918061047792,0.58366293476969,0.4006677992766723
1789550680070711000,8.9967109375,-0.1807353373348713,0.33391309791952367,0.2576860001442954
1789550680080679200,9.00667919921875,-0.13298632868826388,0.15127046565860508,-0.7036512501969933
1789550680090648000,9.01664794921875,-0.3789408649086952,-0.11099193902313709,-0.03219789966961834
1789550680100616200,9.0266162109375,-0.8648556653708219,0.26718700160235165,0.21207588495621457
1789550680110584300,9.036584228515625,0.06456336532533169,-0.22427286576628683,0.5667744168762118
1789550680120553200,9.04655322265625,1.2061311087518929,-0.5705833807051182,0.0835831413601525
1789550680130521000,9.05652099609375,0.9476789100080728,0.187369660782814,-0.712226697775349
1789550680140490000,9.066489990234375,0.3043050183802843,0.2438745150759816,-1.2289502588033676
1789550680150458000,9.0764580078125,-1.4131950655639172,1.1993790041431784,-0.9024649727970361
1789550680160427000,9.086427001953124,-1.734893701815605,0.7791390373796224,0.3503406472377479
1789550680170395100,9.09639501953125,-1.1855728893697262,0.13546236341297627,-0.30816896379943937
1789550680180363300,9.10636328125,-0.8301181139886379,0.4846601242259144,-0.3353756447527557
1789550680190332200,9.116332275390626,0.8198989177912474,-1.0118842556759715,-0.9940730699796229
1789550680200300300,9.12630029296875,0.7006406702041625,-0.6495876515761018,-0.33612825321834533
1789550680210269200,9.136269287109375,0.385146149289608,0.41771307863444085,0.03849561614091508
1789550680220237300,9.1462373046875,0.8873270248979329,-0.10738777705132961,-0.5642863263875245
1789550680230205200,9.156205078125,0.21410803010463714,-0.22498305986225603,-0.7476903714749962
1789550680240174000,9.166174072265624,-0.44765725826025005,0.18523469458073377,-1.4683305312000214
1789550680250142200,9.17614208984375,-0.4140583555191755,0.464222316353023,-1.0775744330741464
1789550680260111000,9.186111083984375,-0.20930033756196498,0.5049211142271757,-0.9883757351208478
1789550680270079200,9.196079345703126,-0.01478957285284996,0.07004208899736404,-1.2477446833834052
1789550680280047000,9.206047119140624,-0.16351415342092512,0.8783411698877811,-1.156726368787512
1789550680290016300,9.216016357421875,-0.021705635851621625,1.576280472178757,-1.2326051280491053
1789550680299984100,9.225984130859375,0.27170330998301506,0.4941507138878107,-0.46126514704786237
1789550680309953300,9.235953369140624,-0.1570370663613081,1.2017495326668024,-0.5855540092132985
1789550680319921200,9.245921142578124,-0.0007674772411584853,0.5166042454972863,-0.6943309756007046
1789550680329890300,9.255890380859375,-0.2731225291311741,0.644663639177382,-0.46158261549919843
1789550680339858200,9.265858154296875,-0.8749667250186205,1.947597710341215,0.31398616217821834
1789550680349826000,9.275825927734376,0.2776701094329357,0.33353491225689647,0.21093243227582423
1789550680359795200,9.285795166015625,0.7608388260573148,-0.18371639897227285,0.11717932242117822
1789550680369763000,9.29576318359375,-0.8945721737205982,1.390309572277963,0.41379670890830456
1789550680379732200,9.305732177734376,-0.24252105464041232,0.8676140241682528,0.123088984856382
1789550680389700000,9.3157001953125,0.10559504841566085,0.01905862847417593,0.3065220368426293
1789550680399668200,9.325668212890625,-0.18295944312512874,0.176364282643795,0.3124241004932672
1789550680409637000,9.33563720703125,-0.4757230767935514,0.872996301728487,-0.43836642895415423
1789550680419605200,9.345605224609375,1.6521388462394475,-1.8161884217113256,-0.9747372319992631
1789550680429574100,9.35557421875,1.3343980077028275,-0.05649257933348417,-1.276217913673818
1789550680439542000,9.3655419921875,1.7497282828539609,-0.1298141283929348,-0.8723648719571531
1789550680449511200,9.37551123046875,0.7738198881834745,0.31033903784751893,0.19269344962146132
1789550680459479000,9.38547900390625,-1.0935527773201466,1.07545597961545,0.07373195649124681
1789550680469447200,9.395447265625,-1.7058347805917262,0.7998296509698033,0.6703576140128076
1789550680479416000,9.405416015625,-0.8474965342909098,0.07136983046978712,0.37513109736219047
1789550680489384200,9.41538427734375,-1.5368810664653778,0.7580345822915434,0.021025672497134655
1789550680499353000,9.42535302734375,-0.4542307914316654,-0.49369215646535153,-0.3180591472381726
1789550680509321200,9.4353212890625,1.0676099422901868,-1.0720216212525964,-0.68560413685292
1789550680519289300,9.445289306640625,1.9473095410495995,-1.2793801770970226,-0.13585889758304692
1789550680529258200,9.45525830078125,1.85284612750113,-0.7634411175101995,0.055007418809644874
1789550680539226000,9.46522607421875,0.7570107922017574,-0.18276655090153215,0.5284870640579611
1789550680549195000,9.475195068359374,0.8805611840248108,-0.16898001761138437,0.22710717587675897
1789550680559163100,9.4851630859375,1.6312632314711808,-0.2802852603673935,-1.0959132228411734
1789550680569131000,9.495131103515625,0.4373147279441356,0.31789953622967004,-1.2355178006254135
1789550680579100200,9.50510009765625,-0.9368640860050916,1.1054203252464532,-0.45575767220538105
1789550680589068300,9.515068359375,-3.130979227146506,1.2309639367133378,-0.6466996750496328
1789550680599037200,9.525037109375,-3.131335785499215,1.2323694195970891,-0.6377160850618034
1789550680609005300,9.53500537109375,0.12497428714632987,-0.656689300274849,-0.3545366741554811
1789550680618974200,9.54497412109375,0.12410451857447624,-0.6536354656621813,-0.34355274066329
1789550680628942300,9.5549423828125,1.9442150821655988,-0.4872825816839933,-0.18472532028649002
1789550680638910000,9.564909912109375,1.1301105298668146,-0.23067191915363072,0.3892373275933787
1789550680648879000,9.574879150390625,0.2765589333206415,0.5610881148681044,1.5393094626560806
1789550680658847000,9.584846923828126,0.08666063084304332,0.8164937855228781,0.3373630557103082
1789550680668816100,9.594816162109375,-0.4549012380391359,0.3864560628443956,0.38551498260200023
1789550680678784300,9.6047841796875,-1.424532452136278,0.30309038189351556,-0.315365049315989
1789550680688752000,9.614752197265625,-1.2123597740083931,0.43161359369307756,0.31757362874355166
1789550680698721300,9.62472119140625,-0.5308785623043776,0.5246525273963809,0.8744077028963715
1789550680708689200,9.634689208984375,0.3961065192431211,0.0080801383420825,-0.10408304555066861
1789550680718658300,9.644658203125,0.31190204938054084,0.2983940407708287,0.22924848048808052
1789550680728626200,9.654626220703125,-0.11936463057100773,0.5779948260053992,0.13375095638521015
1789550680738595300,9.66459521484375,0.5094815540105104,-0.30887773312330247,1.1909208993341773
1789550680748563000,9.67456298828125,-1.0916045658618212,0.7010732164025306,1.0990632843699306
1789550680758531000,9.684531005859375,-1.0925473996698856,0.7038377126798033,1.1110828079875559
1789550680768500000,9.6945,-0.12924655763804913,0.009044307199120522,0.47319629826229065
1789550680778468000,9.704468017578124,-0.1307242289751768,0.01352992818057537,0.48302507036998865
1789550680788437200,9.714437255859375,0.11570260093212127,0.06053191785216331,0.5456735054520889
1789550680798405000,9.724405029296875,0.35287820289134975,-0.7965417153403163,0.257346575589478
1789550680808373200,9.734373291015626,-0.07019874086380004,-0.733435855346918,1.1206660443689673
1789550680818342100,9.744342041015624,-0.385802567371726,0.13281418699175118,0.051138157894555475
1789550680828310300,9.754310302734375,0.2087637464672327,-0.040349838306009765,0.23159962845779955
1789550680838279200,9.764279052734375,0.7110270396620034,0.255185013641417,-0.06896687924759462
1789550680848247000,9.7742470703125,0.6089642570257187,0.7779261544585228,0.35913890725392844
1789550680858215200,9.784215087890624,-0.1064163016706705,1.4472358668535947,0.44347098555155096
1789550680868184000,9.79418408203125,-0.7662737105876207,1.5957780765920877,0.19457946429746226
1789550680878152200,9.804152099609375,-1.219109832790494,1.3007383146852254,0.7874464816715567
1789550680888121000,9.81412109375,-0.8085732216566801,0.48821109470576046,-0.4354926270835101
1789550680898089200,9.824089111328124,-0.76012044865489,0.8562889125555753,0.8136923182360828
1789550680908058000,9.83405810546875,-0.18799451468288897,-0.21893355056494473,0.9569942892335355
1789550680918026200,9.844026123046875,-0.4040250372827053,0.9683680622935295,-0.07366364049538969
1789550680927994400,9.853994384765626,-0.21891747621297836,0.3518798395037651,0.12735009463327004
1789550680937963300,9.86396337890625,-0.052255087894201274,0.02326835512369871,-0.009574815612938254
1789550680947931100,9.87393115234375,0.769335436245799,-0.4737120292320847,0.23071444312110542
1789550680957900000,9.883900146484375,0.9379360991507768,0.0540557075753808,0.382025971442461
1789550680967868200,9.8938681640625,1.9134972878187895,0.12410656440109014,-0.7081422049406916
1789550680977836000,9.9038359375,0.628324206534028,0.6048933543249965,-0.7172662993777543
1789550680987805200,9.91380517578125,-0.5569464850187301,0.4304541945248842,-0.5116076793190092
1789550680997773000,9.92377294921875,-1.6085697536259889,0.8669149359881877,0.3798962294047698
1789550681007742200,9.9337421875,-1.9233306995689867,0.9966893168926239,0.7141109771519899
1789550681017710300,9.94371044921875,-0.49728433573842046,-0.5461749156355857,0.2930469989207573
1789550681027679200,9.95367919921875,1.0001257210820913,-1.3074699610278009,-0.02179139617262408
1789550681037647400,9.9636474609375,0.9605331308841705,-0.41968554775118827,0.6251936534233391
1789550681047615000,9.973614990234376,0.36533611792623993,0.05672814165502786,0.40831272453926504
1789550681057584000,9.983584228515625,0.7068623211979865,-0.6684507574781775,-0.23887941020242867
1789550681067552000,9.993552001953125,0.6294184315115213,-0.38569676890969273,-0.257207952570077
1789550681077521200,10.003521240234376,0.061843584972620005,0.22077888617068528,0.0014333938039839268
1789550681087489000,10.013489013671874,-0.7486234876066445,0.6736386815100908,0.44262909136731177
1789550681097457200,10.02345703125,-0.3401291959553957,0.3550271976187825,-0.6138678111582994
1789550681107426000,10.033426025390625,-0.6636234834522009,0.6901639921143651,-1.3830712915875016
1789550681117394200,10.043394287109376,-1.053237718066573,0.8767451328679918,0.21084552117735147
1789550681127363300,10.05336328125,-0.11861118185520171,0.08518442081063986,-0.18386662109792232
1789550681137331200,10.063331298828125,-0.11399170536100864,0.49805707367658614,1.608370870053023
1789550681147299000,10.073299072265625,-0.013236498191952705,0.6418538424536585,-0.27269686933131887
1789550681157268000,10.08326806640625,-0.05928513266146183,0.16749591653347015,-0.39673042329512537
1789550681167236000,10.093236083984374,-0.2125456030935049,0.6126482062354683,-0.027059847227996214
1789550681177205000,10.103205078125,-0.4578331998378038,0.5070145793750882,-1.139285769969225
1789550681187173000,10.113173095703125,0.038538697230815884,0.29785569611042734,0.4986665838770568
1789550681197142000,10.12314208984375,0.28775077394247056,0.8103308789789676,0.9887423764761537
1789550681207110100,10.133110107421874,-0.007757774519920348,0.04842763856053352,-0.39412539189588275
1789550681217078300,10.143078369140625,-0.4778939910918474,-0.249241302806139,-0.12793447952563874
1789550681227047200,10.153047119140625,-0.4778156651586294,-0.24931407578140496,-0.134438326728018
1789550681237015300,10.163015380859376,-0.3921656726628542,0.2799070747047663,0.3595590688947588
1789550681246984200,10.172984130859374,0.48125440743565556,-1.366896547986567,-0.6503188153948635
1789550681256952000,10.1829521484375,-0.18816110342144965,-0.405743239377439,-0.4589707890329882
1789550681266920200,10.192920166015625,0.7865133655399084,-0.14293459898978472,-1.3018163191802798
1789550681276889000,10.20288916015625,1.124317333418131,0.03348082931935787,-0.669866323364526
1789550681286857200,10.212857177734374,0.92353231074512,0.5752753379136324,-0.2783951357718557
1789550681296826000,10.222826171875,-0.05116086291670799,0.9513672431319952,-0.5889012372819706
1789550681306794200,10.232794189453125,-1.1323808128863573,1.723675849969685,-0.30450750041613356
1789550681316763100,10.24276318359375,-0.3568085280776024,0.666361091722548,-0.28000525611592453
1789550681326731300,10.252731201171875,-1.0704244151890276,1.3180673428878187,0.08742403469728305
1789550681336699100,10.26269921875,-1.0033242248624563,0.8336778522968292,0.1253412207625806
1789550681346668300,10.272668212890625,-0.5908493391424418,0.5326961331203579,-0.6594705284912139
1789550681356636200,10.28263623046875,-0.5968786824345589,0.5373857522413135,-0.606036898336932
1789550681366605000,10.29260498046875,0.666394701731205,-0.5994014789104462,-0.15422244733199475
1789550681376573200,10.3025732421875,0.8382815467000008,-0.049508127273619175,-0.05560211046689655
1789550681386541000,10.312541015625,1.132293719124794,-0.5895566689833999,-0.7339881554674357
1789550681396510200,10.32251025390625,0.8519342244774103,0.8300269285738467,-0.017446431479096646
1789550681406478000,10.33247802734375,0.24958733976483344,0.3460013028591871,-0.44856608020085836
1789550681416447200,10.342447265625,-0.3069745298504829,0.5805418801397085,-0.9504402644801885
1789550681426415000,10.3524150390625,-1.1040221488863229,0.7075728075549006,0.7812732729293406
1789550681436383200,10.36238330078125,-1.380622583261132,-0.07276186935007571,0.18072856053421274
1789550681446352100,10.37235205078125,-0.8536644092708826,-0.4045779949903488,0.8319250903453678
1789550681456320000,10.382320068359375,0.41948564126491544,-0.5898226264432073,-0.8512160662706941
1789550681466289200,10.3922890625,1.9005799385786055,-0.8245628179490566,-0.10819208830469287
1789550681476257000,10.402257080078124,2.0017098242789504,-0.7061772615432739,0.3474837965019047
1789550681486226200,10.41222607421875,1.7694190717518328,-0.7747828879967331,0.40172004827596247
1789550681496194000,10.422194091796875,1.77082309333086,-0.7792883827224374,0.4056297690656036
1789550681506162200,10.432162109375,-0.019395605343580244,0.6744958828613161,0.5626010401817039
1789550681516131000,10.442131103515624,-1.6573317387074231,0.8723857686147093,0.39090716050174085
1789550681526099200,10.45209912109375,-1.6561802305847406,0.8686310922563075,0.3970203096197918
1789550681536069000,10.462069091796875,-1.4784166025370358,0.14123305576890707,-0.37628476090934126
1789550681546037200,10.472037353515624,-1.478528246217966,0.14154139106571673,-0.37144429860822853
1789550681556005000,10.482005126953124,-0.8831728278279304,0.18441519489139319,0.37645021713674065
1789550681565974300,10.491974365234375,-0.06172025085389614,-0.27063801883906125,-0.899041135828197
1789550681575942100,10.501942138671875,0.3316962986528873,-0.3563073005571961,-0.3374424776220694
1789550681585911000,10.5119111328125,0.09600655133724212,-0.7288380061626434,-0.14521629845248535
1789550681595879200,10.521879150390625,0.19697218638658523,-0.632223844321072,-0.24802681244984268
1789550681605847000,10.531846923828125,0.3931453313499689,0.015298983679711818,1.1436175886284559
1789550681615816200,10.541816162109376,0.3977250603556633,-0.2836392469704151,-0.939533524410054
1789550681625784000,10.5517841796875,-0.0030126258194446563,0.14233663309663533,0.6179089763078838
1789550681635753200,10.561753173828125,-0.31886721221804615,0.764706607401371,0.6930095908038317
1789550681645721000,10.57172119140625,0.13719137916266919,-0.09447159685492515,1.1028276784047484
1789550681655689200,10.581689208984375,0.08741057242751121,0.22842092535644767,0.9787646608844399
1789550681665658000,10.591658203125,-0.5029524445027113,1.061384199643135,-0.354948360228911
1789550681675626000,10.6016259765625,-1.2372066304951905,0.7172013443827628,0.024228825053153557
1789550681685595100,10.61159521484375,-0.5477496176064014,-0.12235212194919586,-0.4317979738166556
1789550681695563000,10.62156298828125,0.3167424751490354,0.23594869051277637,0.10322926913239061
1789550681705532200,10.6315322265625,0.5909785184800624,-0.036217268545925614,-0.4920815794635564
1789550681715500000,10.6415,0.6233768132597207,0.4511699425563216,-0.30301901542404663
1789550681725468200,10.65146826171875,0.16769874562919138,1.124982811589539,0.27684763233521953
1789550681735437000,10.66143701171875,0.12315583954751491,0.4342342975854873,-0.05244165997486561
1789550681745405200,10.6714052734375,-0.4753799624443054,0.6611886575207114,0.5223099097929894
1789550681755374000,10.6813740234375,-0.4636410093337297,0.4111377918973565,-0.1911039336740039
1789550681765342200,10.69134228515625,-0.0413093309879303,0.3885317000746727,0.08758297898550517
1789550681775310000,10.70131005859375,-0.08574293147623538,0.43874739109575744,0.09392258467003703
1789550681785279000,10.711279052734374,-0.016553075394034385,-0.06871697787344455,-0.18659261199571192
1789550681795247000,10.7212470703125,-1.0623229417979716,0.7318968092113732,0.22970985092213375
1789550681805216000,10.731216064453125,0.24547055209577082,-0.4961451025754213,-0.654247021689266
1789550681815184100,10.74118408203125,-0.19468904388546943,0.5021840904787183,-1.0304331810623406
1789550681825153000,10.751153076171875,0.5787181718438863,0.12145809571892022,-0.5336276052841916
1789550681835121200,10.76112109375,0.6724994483470916,0.5048100550681353,-0.646952773027867
1789550681845089300,10.77108935546875,-0.0019856208592653273,0.933553061760962,-0.9948389397855848
1789550681855058200,10.78105810546875,-0.2128594913482666,0.5904354976445436,-1.012322208701819
1789550681865026300,10.7910263671875,-1.9802982029378413,1.8493708526059984,-0.7497368556760251
1789550681874995200,10.8009951171875,-1.214572189360857,0.24151187759786844,-0.5838814363585785
1789550681884963000,10.810963134765625,0.0897024827569723,-0.36089988904446363,-0.7345615714412183
1789550681894931200,10.82093115234375,0.4942459909558296,0.21276158393174407,-0.8413815585419535
1789550681904900000,10.830900146484375,1.1867407641053198,-0.05175853654891252,-0.3566982726361602
1789550681914868200,10.8408681640625,1.263372168365121,-0.12842384307831525,-1.0325940123580395
1789550681924837000,10.850837158203126,0.8223603394687176,0.2951411764547229,-1.0797341683913022
1789550681934805200,10.86080517578125,0.293536956128478,0.9433987484708428,-0.5707498233132065
1789550681944774100,10.870774169921875,-0.8137263666361569,1.3497268019989133,-0.9824714795131235
1789550681958480100,10.884480224609375,-0.898587839102745,0.17407587944567202,-0.675030574259907
1789550681968449800,10.89444970703125,-1.1385457652568816,1.0019356931135057,-0.9627313715808093
1789550681978418000,10.90441796875,-0.7765460982769727,0.6496408430680632,0.09696861956873908
1789550681988385800,10.9143857421875,0.24454642298817633,-0.28499709132015705,0.341925577852875
1789550681998355000,10.92435498046875,-0.091258480027318,0.403083664779365,-0.09341869026850909
1789550682008322800,10.93432275390625,0.14348843348026274,-0.24778555103987454,0.10013386040031909
1789550682018291700,10.944291748046876,0.7838216422379016,-1.2009072366237639,-0.30067879070714115
1789550682028259800,10.954259765625,0.23174188647270202,-0.21847850027382373,-0.287925619052723
1789550682038227700,10.964227783203125,-0.28344577022492884,0.1718459284365177,-0.9483135546498
1789550682048196900,10.97419677734375,-0.040865094351768494,-0.5848959836959838,-1.2061996439434588
1789550682058164700,10.984164794921876,-0.10703180322051048,-0.20693448521345853,0.22624453116543589
1789550682068134000,10.9941337890625,0.49970425636172294,-0.027536241701245308,0.6886494958981871
1789550682078101800,11.004101806640625,0.6673766985058784,-0.2234010513678193,0.07100150861404836
1789550682088071000,11.01407080078125,-0.4168769200712442,0.6932666343048215,-0.37933527105376125
1789550682098038800,11.024038818359376,-0.7738286560118198,1.289394206111133,-1.7161986459568142
1789550682108006700,11.034006591796874,0.3914455416947603,-0.6332499724984169,-0.7886287502586841
1789550682117975800,11.043975830078125,0.13919570472240447,-0.46133945439308877,-1.0907385236170142
1789550682127943700,11.053943603515625,-0.47164369852542876,1.1726163771629332,-0.4104405303481966
1789550682137912800,11.063912841796874,0.09586568156182765,0.6841416630849242,-0.707005602126196
1789550682147880700,11.073880615234375,0.11160685605108737,0.9607134558871387,-1.6441927095405757
1789550682157849900,11.083849853515625,0.32294542144238947,0.36040304543823004,-0.5237965316215529
1789550682167817700,11.093817626953125,-0.5243365933150053,1.2175658182188869,-0.5385093129111453
1789550682177785900,11.103785888671876,-0.18717559951543808,1.2685989631026982,0.022625417577661573
1789550682187754800,11.113754638671875,-0.501848867174983,0.6034238662943243,-0.5125740036005154
1789550682197723000,11.123722900390625,-1.6823071900099515,0.8040212574407458,-0.9704829355556517
1789550682207692000,11.133692138671876,-1.0880740536481142,0.15579641865044833,-0.6095503132853657
1789550682217659600,11.14365966796875,0.386546663737297,-0.7491402049571275,-0.806990774770826
1789550682227628800,11.15362890625,0.11231705014705658,-0.09300532369464636,-1.172770837072283
1789550682237596700,11.1635966796875,0.5650748464167118,-0.7653115875571965,-1.0517762672118842
1789550682247564800,11.173564697265626,-0.024181670576333997,-0.3522533489912748,-0.8846800905857235
1789550682257533700,11.18353369140625,0.10584054760932922,-0.08681669818758964,-1.354893098720908
1789550682267501800,11.193501708984375,0.4318810124576091,-0.5235787606850266,-1.628527084505558
1789550682277470700,11.203470703125,-0.2700835998266935,0.11683978826850652,-1.3853724081367254
1789550682287438800,11.21343896484375,-0.5831698905557394,0.6908604499459267,-1.64388159776479
1789550682297407700,11.22340771484375,-1.1714099239826201,1.1145876743033527,-0.9149937611110508
1789550682307375900,11.2333759765625,-1.2402081503987312,0.24706951172500846,-0.38855025864467024
1789550682317343700,11.24334375,-0.20927695668637752,-0.1397346339046955,-0.578174639551714
1789550682327312600,11.253312744140626,0.33710780230760573,0.5037243056580424,-0.21553243688456714
1789550682337280800,11.26328076171875,1.3570353714466095,0.11721943523585795,-1.115740132274106
1789550682347249700,11.273249755859375,1.2864099296033382,0.8928151009202003,0.7495260624695569
1789550682357217800,11.2832177734375,1.2575479922562838,0.32405455172806974,-0.07116093695946038
1789550682367186700,11.293186767578124,0.25732231793105603,1.231924306178093,0.0827921919118613
1789550682377154800,11.30315478515625,0.07946399733722209,1.287583357296884,0.08268858540691434
1789550682387123000,11.313123046875,-0.397854239693284,1.0967200091794131,-0.8271263117615133
1789550682397091800,11.323091796875,-0.3996154041469097,0.6463993769288062,-0.3937885246243328
1789550682407060000,11.33306005859375,-1.138858484467864,1.4581801624551414,-0.20685016793087124
1789550682417028900,11.34302880859375,-0.7742641248196362,0.4185816781625151,-0.1309711894735694
1789550682426996700,11.352996826171875,-0.28418577493727204,0.1190539571866393,-0.1008602749787271
1789550682436965600,11.362965576171876,-0.6732090579211711,0.8692509777203202,-1.3230243807733058
1789550682446933800,11.372933837890624,0.4423188198417425,-0.8303551376149058,-1.005934918817505
1789550682456902700,11.382902587890625,0.4604220472872257,-0.031000995202362536,0.20674243324007838
1789550682466870800,11.392870849609375,0.016532032606005668,0.04085194260925054,-0.12960844975300131
1789550682476839000,11.4028388671875,0.09353110113441944,-0.7867851682186127,0.17779621514305471
1789550682486807800,11.412807861328124,-1.0574164650559426,0.4425423994645476,-0.12027801908887922
1789550682496776000,11.42277587890625,-0.26663550519943235,-0.204546421033144,0.5726059725739061
1789550682506744800,11.432744873046875,0.003357493734359741,-0.48877428154647345,0.6616188656315207
1789550682516713000,11.442712890625,1.0082838930964468,-1.3227283204361795,0.5406117285504937
1789550682526681900,11.452681884765624,0.06379881069362163,0.2892667314633727,0.0856903245061636
1789550682536649700,11.462649658203125,0.09512801493704319,0.14380378303974867,-1.3337826522834597
1789550682546617900,11.472617919921875,0.06572247223258018,-1.046022379860282,-1.1813185929261147
1789550682556586800,11.482586669921876,-1.0554922189950942,0.4194947013542056,-0.5614661178676411
1789550682566555000,11.492554931640624,0.16594401091635227,-0.4777767944529652,0.5542282025033608
1789550682576523800,11.502523681640625,0.06059037004113197,0.050126259171962735,-0.4114687774173915
1789550682586492000,11.512491943359375,0.18091946173012255,0.747546506024897,-0.38135921462941913
1789550682596460800,11.522460693359376,0.3539472934275865,0.17414368398487567,-0.3663289648884907
1789550682606429000,11.532428955078124,0.3320388284802437,0.1531160935252905,-0.1525208310458809
1789550682616396800,11.542396728515625,0.24459201569557187,0.7125891744121908,0.6310425255820155
1789550682626366000,11.552365966796875,-0.25846564274728295,0.7779746697753668,0.4508223712276667
1789550682636333800,11.562333740234376,0.2063409032344818,-0.11109364583194255,0.5509837772220373
1789550682646302700,11.572302734375,-0.8631465233653783,0.3997787780150771,0.06820468096975237
1789550682656270800,11.582270751953125,-0.9523398875564336,0.6117129712119698,-0.5071854789625853
1789550682666239700,11.59223974609375,-0.6664373718291521,0.06277151347249746,0.08861779279280453
1789550682676207900,11.602207763671874,-0.06149871705770492,-0.40566842057555913,0.26351667905915527
1789550682686175700,11.61217578125,1.01249303522408,-0.08874328233599663,0.14532003282159567
1789550682696145000,11.622144775390625,1.3519494464844464,-0.16874533207267522,0.12705584266074002
1789550682706112800,11.63211279296875,1.2064730540573596,-0.13093494911640882,0.007536788713000714
1789550682716082000,11.64208203125,0.5610971749573945,0.5737722398743033,-0.06459609855115413
1789550682726049800,11.6520498046875,-0.4858633625358343,0.9722697459071874,-0.23631270151957867
1789550682736019000,11.66201904296875,-1.4095727834135292,0.7850757339522242,0.8332328850083053
1789550682745986800,11.67198681640625,-2.0338678805619477,0.45033232268840073,0.6336272813782096
1789550682755954700,11.68195458984375,-0.3325514541774988,0.11587795749902724,0.40253436033353207
1789550682765923800,11.691923828125,0.5908341415733098,-0.2956719223305583,0.6505742514606565
1789550682775891700,11.7018916015625,1.1515940474003552,-0.9409759052380919,-0.46497569200359284
1789550682785860900,11.71186083984375,0.09425123210251331,0.27385464279800653,0.09525228063752875
1789550682795828700,11.721828857421874,0.7876911771476268,0.28455986894667146,0.8593545106712728
1789550682805798000,11.7317978515625,0.43179099608659743,0.5420832624077797,0.1330620973382145
1789550682815765800,11.741765869140625,-0.5036538707703352,0.8461950963035225,-0.6099454135501757
1789550682825734000,11.75173388671875,-0.8756693203300238,0.6894841931566595,-0.8357416529588401
1789550682835702800,11.761702880859374,-0.9442799152195454,1.4235972171127795,0.030030971993273124
1789550682845670700,11.771670654296875,-0.9628706339210271,0.8197086559161544,-0.40736919661145654
1789550682855639800,11.781639892578125,-0.5641892957538366,0.12912877647727727,0.0692981067962246
1789550682865607700,11.791607666015626,-0.2711293094873428,0.3637506023004651,-0.4924759125433862
1789550682875576800,11.801576904296875,0.20620763224363325,0.5616735135406256,-0.9706872990213334
1789550682885544700,11.811544677734375,1.2863608297646045,-0.7257394556254148,-0.6307206001512706
1789550682895512800,11.821512939453125,0.3076823858588934,0.7333724347218871,0.0692724106659647
1789550682905481700,11.831481689453126,0.19386837515234945,0.2091775879651308,0.3894050123104825
1789550682915449900,11.841449951171874,0.05097089330255985,0.0914563406869769,-0.4056636713352054
1789550682925418800,11.851418701171875,-0.43453357279300686,1.5159467072471975,-0.3321712957534939
1789550682935387000,11.861386962890625,0.5612251852512359,-0.2638321382164955,-0.35484643422439693
1789550682945355800,11.871355712890624,0.23603227714300154,-0.10626724858880042,-0.09606688495604321
1789550682955323600,11.88132373046875,0.2429354806602001,0.10032236870974302,-0.018391268872935324
1789550682965291800,11.891291748046875,-0.03386544472277164,1.159761279504001,-0.7037181048881263
1789550682975260200,11.90126025390625,0.7196884850233792,-0.09610299744904041,-1.0923030695199967
1789550682985228000,11.91122802734375,-0.1887427027016878,-0.48526978055685754,-0.198110944625549
1789550682995197200,11.921197265625,-1.1735001742601394,1.1361395808979868,-0.026279359808214938
1789550683005165000,11.9311650390625,-0.43250937348902224,0.005457680884003639,0.5650396289728582
1789550683015134200,11.94113427734375,-0.813901723203063,0.7426762696400284,-0.7614948057480156
1789550683025102000,11.95110205078125,-0.09749415954649447,0.3159913645207882,-0.30229762408062816
1789550683035070200,11.9610703125,0.6149906777083873,-0.6429080276817083,-0.014991621063859201
1789550683045039000,11.9710390625,-0.4255237523853779,0.7476870835393666,-0.10933798867049627
1789550683055007200,11.98100732421875,0.05329144520461559,-0.2645367793545127,0.6062960241971537
1789550683064976100,11.99097607421875,-0.35280981383025645,-0.21562194179892538,0.481311727113463
1789550683074944300,12.0009443359375,-0.44949616412520405,-0.04714841240495443,0.12477854537852108
1789550683084913200,12.0109130859375,-0.43456396793127056,-0.5480024233236909,0.48359092409182336
1789550683094881000,12.020881103515626,-0.351046311289072,-0.44584056422710416,-0.5341105299629271
1789550683104849200,12.03084912109375,-0.7111871986597776,0.5119181335076689,-0.27174389772173013
1789550683114818000,12.040818115234375,0.45472003625333307,-0.27718583304733035,-0.6250083599843085
1789550683124786200,12.0507861328125,1.223621172735095,-0.601826075708866,-0.4327814318960532
1789550683134755000,12.060755126953126,1.4568565126359463,-0.20587474702745676,0.2192038006073795
1789550683144723200,12.07072314453125,0.4795493570834398,0.6509890428066253,0.33611356710586693
1789550683154692000,12.080692138671875,1.1699264074265956,0.49728842739164825,-0.3758629187680781
1789550683164660200,12.09066015625,-0.30255203723311425,1.8359397086247802,-0.8593659819133579
1789550683174628400,12.10062841796875,-0.7847527856081724,0.6857698488086461,-0.41598402635212983
1789550683184597200,12.11059716796875,-2.0513123518377543,0.6103074883282185,0.1789790865183808
1789550683194565000,12.120565185546875,-1.9513795669674872,0.9893804551839828,0.21167409922229125
1789550683204534000,12.130533935546875,-0.8358972819119691,0.37344197523146866,0.743802131864801
1789550683214502100,12.140502197265626,0.9205366360604762,-0.6499497628867625,-0.49484567388202993
1789550683224471000,12.150470947265624,1.045681019076705,-0.6786261145338416,-0.32862156738266346
1789550683234439200,12.160439208984375,0.7510767259776592,-0.11156769308447838,0.5132155163744464
1789550683244407300,12.1704072265625,0.5908253737449646,0.14860095418840646,-0.04010669089963194
1789550683254376200,12.180376220703126,-0.035684476843476295,0.2075242678001523,0.6779945386320352
1789550683264344300,12.19034423828125,0.4822796588301658,-0.73428078173846,-1.0401839560303836
1789550683274313200,12.200313232421875,-0.17306874822974205,0.4494356661096215,-0.4124920560505241
1789550683284281300,12.21028125,0.22922727330327033,0.5142541752398013,-0.40375210209283974
1789550683294250200,12.220250244140624,0.31355157015323637,-0.34704788930267094,-0.6310154183793812
1789550683304218000,12.230218017578125,-0.61783905287683,0.46826983817815776,-0.4267475950919091
1789550683314186000,12.24018603515625,-1.831405864587426,0.9656959204748272,-1.283230130523443
1789550683324155100,12.250155029296875,-1.0326578713744878,-0.024624153646826744,-1.0544858184315264
1789550683334123000,12.260123046875,-0.5218412693679333,0.44833208878189323,-0.15933547949679194
1789550683344092200,12.270092041015625,-0.5571802937746048,0.4856988196238875,-1.150872382062301
1789550683354060300,12.280060302734375,0.11290800177752972,0.29713439609855413,-0.13154687046967445
1789550683364029200,12.290029296875,0.4691220710933208,1.0348813926428555,-0.32759014197569336
1789550683373997300,12.299997314453124,1.1041922447562218,0.49680473552793264,-0.6061504051813855
1789550683383965200,12.309965087890625,1.1455395696669817,0.47872196634858843,0.5769125471940264
1789550683393934300,12.319934326171875,2.1076427263468505,-0.30903175464123483,0.619716756382212
1789550683403902000,12.32990185546875,1.2742922063082456,0.9127809073671698,0.5918702066227793
1789550683413871000,12.33987109375,0.3692337098866701,0.7401622409924864,-0.7652132417492568
1789550683423839000,12.3498388671875,-1.2028472647756336,0.7125704697117209,-1.0236216744165867
1789550683433808100,12.35980810546875,-2.0791671579688784,1.5363924061655998,-0.3961360375985503
1789550683443776300,12.3697763671875,-1.332643857511878,0.36010844640582795,-0.8159417045980691
1789550683453744000,12.379744140625,-0.40201895815730093,0.18534370791316032,-0.31122955694645643
1789550683463713300,12.38971337890625,0.19938158561587332,0.8559384916827082,-0.3293450228190049
1789550683473681200,12.39968115234375,1.5533283433973788,-0.25818887163251636,-0.7613388114687055
1789550683483650300,12.409650390625,0.815253722333908,0.05881605384498834,-0.3942549000270664
1789550683493618200,12.4196181640625,-1.006276644927263,1.1770490989133715,0.37464002590961754
1789550683503587300,12.42958740234375,-1.5505021800607441,0.22833763098716733,0.04883554350798949
1789550683513555000,12.439554931640625,-0.23113106109797954,-0.20507102942913769,-0.15438121809028088
1789550683523523000,12.449523193359376,-0.24062778823971748,-0.3311164529383182,-0.510360309606418
1789550683533492000,12.459491943359374,0.023282091388106343,-1.1401964550733565,-0.3710963254207745
1789550683543460000,12.469460205078125,0.2169499755322933,-0.4798281740248203,-0.650878348973766
