time,seconds_elapsed,z,y,x
1789550671117793300,0.043793212890625,-0.9930419921875,-0.2603912353515625,-0.1351165771484375
1789550671127761400,0.053761474609375,-0.9089202880859375,-0.3260040283203125,-0.11370849609375
1789550671137730300,0.063730224609375,-0.828521728515625,-0.3373565673828125,-0.02630615234375
1789550671147698400,0.073698486328125,-0.9075469970703125,-0.2290496826171875,-0.0400390625
1789550671157667300,0.083667236328125,-0.9143524169921875,-0.2451629638671875,-0.0781402587890625
1789550671167635500,0.093635498046875,-0.8420257568359375,-0.331787109375,-0.0305023193359375
1789550671177604400,0.103604248046875,-0.915985107421875,-0.322509765625,-0.0213623046875
1789550671187572500,0.113572509765625,-0.998687744140625,-0.3061065673828125,-0.19268798828125
1789550671197541400,0.123541259765625,-1.05023193359375,-0.2574462890625,-0.1742095947265625
1789550671207509200,0.13350927734375,-1.09442138671875,-0.2522125244140625,-0.0070953369140625
1789550671217478400,0.143478515625,-1.056884765625,-0.2749176025390625,0.0693511962890625
1789550671227446300,0.1534462890625,-0.996826171875,-0.316314697265625,-0.1291656494140625
1789550671237415400,0.16341552734375,-0.9052581787109375,-0.3524627685546875,-0.123321533203125
1789550671247383300,0.17338330078125,-0.831268310546875,-0.3880157470703125,-0.051116943359375
1789550671257352400,0.1833525390625,-0.8282012939453125,-0.3386383056640625,0.013458251953125
1789550671267320300,0.1933203125,-0.8450775146484375,-0.33599853515625,-0.0937652587890625
1789550671277289500,0.20328955078125,-0.8482208251953125,-0.4014434814453125,0.049652099609375
1789550671287257300,0.21325732421875,-0.921234130859375,-0.373748779296875,0.1500701904296875
1789550671297226500,0.2232265625,-0.9566802978515625,-0.2972869873046875,0.121337890625
1789550671307194400,0.2331943359375,-0.973602294921875,-0.264190673828125,0.0287322998046875
1789550671317163500,0.24316357421875,-1.00921630859375,-0.3007049560546875,0.0488128662109375
1789550671327131400,0.25313134765625,-1.023834228515625,-0.2861785888671875,0.07257080078125
1789550671337100500,0.2631005859375,-0.970672607421875,-0.2608489990234375,-0.0224609375
1789550671347068400,0.273068359375,-0.8920440673828125,-0.25115966796875,-0.4514923095703125
1789550671357037300,0.283037353515625,-0.9429931640625,-0.279327392578125,-0.4008331298828125
1789550671367005400,0.29300537109375,-1.1953125,-0.2880401611328125,0.280426025390625
1789550671376974300,0.302974365234375,-1.09185791015625,-0.344940185546875,-0.0886383056640625
1789550671386942500,0.3129423828125,-0.8246612548828125,-0.3746185302734375,-0.3440093994140625
1789550671396911400,0.322911376953125,-0.751434326171875,-0.372039794921875,-0.0528717041015625
1789550671406879500,0.33287939453125,-0.81060791015625,-0.376434326171875,0.157989501953125
1789550671416848400,0.342848388671875,-1.020477294921875,-0.3096923828125,0.05810546875
1789550671426817500,0.352817626953125,-1.1708984375,-0.21337890625,0.00360107421875
1789550671436785400,0.362785400390625,-1.1267852783203125,-0.15826416015625,0.0692138671875
1789550671446753500,0.37275341796875,-0.924468994140625,-0.2169647216796875,-0.03875732421875
1789550671456722400,0.382722412109375,-0.709564208984375,-0.3184814453125,-0.166168212890625
1789550671466691600,0.392691650390625,-0.7147216796875,-0.2793426513671875,-0.099884033203125
1789550671476659200,0.4026591796875,-0.9146881103515625,-0.149017333984375,-0.1519012451171875
1789550671486628400,0.41262841796875,-1.025665283203125,-0.12213134765625,-0.2579345703125
1789550671496596200,0.42259619140625,-1.1302490234375,-0.1294097900390625,-0.1255035400390625
1789550671506565400,0.4325654296875,-1.018463134765625,-0.266510009765625,-0.001007080078125
1789550671516533200,0.442533203125,-0.9649658203125,-0.3029632568359375,0.0316009521484375
1789550671526502400,0.45250244140625,-0.9195404052734375,-0.3004913330078125,0.139617919921875
1789550671536470500,0.462470458984375,-0.85577392578125,-0.334808349609375,0.1472015380859375
1789550671546439400,0.472439453125,-0.832672119140625,-0.3749237060546875,0.0634307861328125
1789550671556407600,0.482407470703125,-0.7992095947265625,-0.4651336669921875,0.009124755859375
1789550671566376400,0.49237646484375,-0.9111480712890625,-0.4376678466796875,-0.034393310546875
1789550671576344600,0.502344482421875,-0.9322052001953125,-0.42242431640625,-0.134063720703125
1789550671586313500,0.5123134765625,-0.9373016357421875,-0.4155731201171875,-0.214752197265625
1789550671596281300,0.52228125,-0.875640869140625,-0.467987060546875,-0.188201904296875
1789550671606250200,0.532250244140625,-0.97796630859375,-0.4301910400390625,-0.0951690673828125
1789550671616218400,0.54221826171875,-0.898773193359375,-0.494781494140625,-0.11785888671875
1789550671626187300,0.552187255859375,-0.84954833984375,-0.578704833984375,-0.1838226318359375
1789550671636155400,0.5621552734375,-0.925628662109375,-0.5191650390625,-0.1306610107421875
1789550671646124300,0.572124267578125,-0.88671875,-0.5410919189453125,-0.049285888671875
1789550671656092400,0.582092529296875,-0.8610687255859375,-0.538421630859375,-0.0560455322265625
1789550671666061300,0.592061279296875,-0.8089752197265625,-0.541046142578125,-0.0630035400390625
1789550671676029400,0.602029541015625,-0.8146820068359375,-0.5704345703125,-0.0068359375
1789550671685998300,0.611998291015625,-0.9743499755859375,-0.4619140625,-0.0039825439453125
1789550671695966500,0.621966552734375,-0.989593505859375,-0.4852294921875,-0.0023651123046875
1789550671705935400,0.631935302734375,-0.935943603515625,-0.5004730224609375,0.010711669921875
1789550671715903200,0.6419033203125,-0.8310089111328125,-0.512115478515625,0.0579986572265625
1789550671725872400,0.651872314453125,-0.86602783203125,-0.378387451171875,0.01226806640625
1789550671735840300,0.66184033203125,-0.9874267578125,-0.29095458984375,0.0443878173828125
1789550671745808400,0.671808349609375,-1.00689697265625,-0.2674407958984375,0.119598388671875
1789550671755777300,0.68177734375,-0.9737701416015625,-0.3076934814453125,0.13201904296875
1789550671765746400,0.691746337890625,-0.9292755126953125,-0.2989654541015625,0.0385284423828125
1789550671775714300,0.70171435546875,-0.9478607177734375,-0.2724456787109375,0.014678955078125
1789550671785682400,0.711682373046875,-1.0310211181640625,-0.18353271484375,0.079376220703125
1789550671795651300,0.7216513671875,-1.0265350341796875,-0.1324310302734375,0.041748046875
1789550671805619500,0.731619384765625,-0.9810791015625,-0.212646484375,0.05743408203125
1789550671815588400,0.74158837890625,-1.024871826171875,-0.27777099609375,0.011474609375
1789550671825556200,0.75155615234375,-1.0188446044921875,-0.2829437255859375,-0.0578765869140625
1789550671835525600,0.761525634765625,-1.0643768310546875,-0.1912689208984375,0.1126251220703125
1789550671845493200,0.7714931640625,-1.0374603271484375,-0.154449462890625,0.19549560546875
1789550671855462400,0.78146240234375,-0.9965667724609375,-0.149383544921875,0.095916748046875
1789550671865430300,0.79143017578125,-0.9611358642578125,-0.2486724853515625,0.0662994384765625
1789550671875399400,0.8013994140625,-0.988006591796875,-0.2609405517578125,0.120269775390625
1789550671885367300,0.8113671875,-1.33984375,-0.072357177734375,0.1982421875
1789550671895336400,0.82133642578125,-1.193450927734375,-0.15509033203125,0.0662689208984375
1789550671905304300,0.83130419921875,-0.8277587890625,-0.316650390625,-0.0701751708984375
1789550671915273500,0.8412734375,-0.8501129150390625,-0.2728729248046875,-0.018096923828125
1789550671925241300,0.851241455078125,-0.68206787109375,-0.401031494140625,-0.14178466796875
1789550671935210500,0.86121044921875,-0.5240936279296875,-0.5275421142578125,-0.271087646484375
1789550671945178600,0.8711787109375,-0.6834259033203125,-0.3728179931640625,-0.1861419677734375
1789550671955147800,0.881147705078125,-1.0717926025390625,-0.167449951171875,-0.19927978515625
1789550671965116000,0.891115966796875,-0.9020538330078125,-0.39495849609375,-0.3524169921875
1789550671975084800,0.901084716796875,-1.1961517333984375,-0.25433349609375,-0.155548095703125
1789550671985052700,0.911052734375,-1.3526153564453125,-0.138458251953125,-0.107666015625
1789550671995021600,0.921021484375,-0.870697021484375,-0.356842041015625,-0.1564483642578125
1789550672004989700,0.93098974609375,-0.6581573486328125,-0.3856201171875,0.051361083984375
1789550672014958600,0.94095849609375,-0.7814178466796875,-0.340911865234375,-0.033294677734375
1789550672024926700,0.9509267578125,-1.04022216796875,-0.2366943359375,-0.0628204345703125
1789550672034895600,0.9608955078125,-1.2463531494140625,-0.1904296875,0.0427703857421875
1789550672044863700,0.97086376953125,-1.478973388671875,-0.0990753173828125,-0.004241943359375
1789550672054832600,0.98083251953125,-0.8464508056640625,-0.4376220703125,-0.06280517578125
1789550672064800800,0.99080078125,-0.213165283203125,-0.6342315673828125,-0.0849761962890625
1789550672074769700,1.000769775390625,-0.1156005859375,-0.5305023193359375,-0.0472564697265625
1789550672084737800,1.01073779296875,-0.7233428955078125,-0.2041168212890625,-0.0996856689453125
1789550672094706700,1.020706787109375,-1.625579833984375,0.0581817626953125,-0.0429534912109375
1789550672104674600,1.030674560546875,-1.678924560546875,-0.253753662109375,0.0261688232421875
1789550672114643500,1.0406435546875,-1.23883056640625,-0.583404541015625,0.03314208984375
1789550672124611600,1.050611572265625,-0.9081878662109375,-0.49407958984375,-0.0275115966796875
1789550672134580700,1.060580810546875,-0.7131805419921875,-0.324249267578125,-0.065399169921875
1789550672144548600,1.070548583984375,-0.6277313232421875,-0.3700103759765625,-0.094635009765625
1789550672154517800,1.080517822265625,-0.649169921875,-0.647430419921875,-0.06341552734375
1789550672164485600,1.090485595703125,-0.8834991455078125,-0.6322174072265625,0.0272064208984375
1789550672174454800,1.100454833984375,-1.0907135009765625,-0.2918243408203125,0.0777740478515625
1789550672184422700,1.110422607421875,-0.9910736083984375,-0.1287384033203125,-0.1125640869140625
1789550672194391800,1.120391845703125,-0.8227996826171875,-0.294891357421875,-0.1650390625
1789550672204359700,1.130359619140625,-0.746307373046875,-0.557403564453125,-0.1049652099609375
1789550672214328800,1.140328857421875,-1.0039825439453125,-0.30322265625,0.0016937255859375
1789550672224296400,1.15029638671875,-1.0334625244140625,-0.095428466796875,-0.018310546875
1789550672234265900,1.160265869140625,-0.9630126953125,-0.0796051025390625,-0.0286407470703125
1789550672244233700,1.170233642578125,-0.9149322509765625,-0.240966796875,0.0030670166015625
1789550672254202600,1.18020263671875,-1.001220703125,-0.2912445068359375,-0.09979248046875
1789550672264170800,1.190170654296875,-0.9604034423828125,-0.4079132080078125,-0.12030029296875
1789550672274139600,1.2001396484375,-0.9092864990234375,-0.352447509765625,-0.1095733642578125
1789550672284107800,1.210107666015625,-0.926177978515625,-0.2458343505859375,-0.2254486083984375
1789550672294076700,1.22007666015625,-0.919769287109375,-0.36822509765625,-0.2065887451171875
1789550672304044800,1.230044921875,-0.8012237548828125,-0.68328857421875,0.00164794921875
1789550672314013700,1.240013671875,-0.8661041259765625,-0.5993194580078125,0.1050872802734375
1789550672323981800,1.24998193359375,-0.8164520263671875,-0.5561065673828125,0.1230926513671875
1789550672333949700,1.25994970703125,-0.89703369140625,-0.3847808837890625,0.1045989990234375
1789550672343918800,1.2699189453125,-1.028350830078125,-0.1338348388671875,0.1961669921875
1789550672353886700,1.27988671875,-1.1707000732421875,0.0363006591796875,-0.038177490234375
1789550672363855600,1.289855712890625,-0.9087982177734375,-0.3326416015625,-0.1105194091796875
1789550672373823700,1.29982373046875,-0.8042449951171875,-0.4016571044921875,0.0200347900390625
1789550672383792600,1.309792724609375,-0.8412933349609375,-0.3786468505859375,0.1192169189453125
1789550672393760800,1.3197607421875,-0.913970947265625,-0.4596405029296875,0.1027374267578125
1789550672403729700,1.329729736328125,-1.0304107666015625,-0.355072021484375,-0.0258941650390625
1789550672413697800,1.33969775390625,-1.1476898193359375,-0.1351165771484375,0.09698486328125
1789550672423666700,1.349666748046875,-1.1410980224609375,-0.111297607421875,0.090484619140625
1789550672433634800,1.359634765625,-0.9888153076171875,-0.3438873291015625,0.06231689453125
1789550672443603700,1.369603759765625,-0.951873779296875,-0.3200836181640625,0.1643829345703125
1789550672453571800,1.37957177734375,-0.884857177734375,-0.3177337646484375,0.1829986572265625
1789550672463540700,1.389540771484375,-0.871673583984375,-0.4199066162109375,0.11358642578125
1789550672473508600,1.399508544921875,-0.9670562744140625,-0.3841094970703125,0.1103057861328125
1789550672483477500,1.4094775390625,-1.06646728515625,-0.2371978759765625,0.221710205078125
1789550672493445600,1.419445556640625,-1.043060302734375,-0.2999420166015625,0.1146087646484375
1789550672503414500,1.42941455078125,-0.9929656982421875,-0.310546875,0.0449371337890625
1789550672513382700,1.439382568359375,-1.0137481689453125,-0.2674407958984375,0.0973663330078125
1789550672523351600,1.4493515625,-1.0104827880859375,-0.28021240234375,0.15240478515625
1789550672533319700,1.459319580078125,-0.9418487548828125,-0.3353424072265625,0.02783203125
1789550672543288800,1.469288818359375,-0.8317108154296875,-0.3250274658203125,-0.0284423828125
1789550672553256700,1.479256591796875,-0.8538360595703125,-0.335723876953125,0.0205078125
1789550672563225900,1.489225830078125,-0.94366455078125,-0.25958251953125,0.0052032470703125
1789550672573193700,1.49919384765625,-1.01812744140625,-0.24517822265625,-0.02203369140625
1789550672583163000,1.509162841796875,-0.98712158203125,-0.360687255859375,-0.1170196533203125
1789550672593130500,1.519130615234375,-0.9657135009765625,-0.3778839111328125,-0.1368865966796875
1789550672603099600,1.529099609375,-0.9681243896484375,-0.27410888671875,-0.1396331787109375
1789550672613067500,1.539067626953125,-0.9630584716796875,-0.245452880859375,-0.0803985595703125
1789550672623036700,1.54903662109375,-1.0182342529296875,-0.15118408203125,-0.1132659912109375
1789550672633004500,1.559004638671875,-0.9916534423828125,-0.10577392578125,0.020263671875
1789550672642972700,1.56897265625,-0.8638916015625,-0.27362060546875,0.100494384765625
1789550672652941800,1.57894189453125,-0.9483642578125,-0.232208251953125,-0.153106689453125
1789550672662909700,1.58890966796875,-1.0107879638671875,-0.1549530029296875,-0.2042999267578125
1789550672672878800,1.59887890625,-1.0825958251953125,-0.1210174560546875,-0.1215362548828125
1789550672682846700,1.6088466796875,-1.1127166748046875,-0.1945953369140625,-0.172515869140625
1789550672692816000,1.61881591796875,-1.03057861328125,-0.25604248046875,-0.2277374267578125
1789550672702783500,1.628783447265625,-0.8590545654296875,-0.2766265869140625,-0.1466827392578125
1789550672712752600,1.638752685546875,-0.7448883056640625,-0.3719329833984375,-0.0852508544921875
1789550672722720500,1.648720458984375,-0.8401336669921875,-0.348876953125,-0.064453125
1789550672732689700,1.658689697265625,-0.8698883056640625,-0.3953704833984375,-0.0151824951171875
1789550672742657500,1.668657470703125,-0.89111328125,-0.446258544921875,0.03155517578125
1789550672752626700,1.678626708984375,-0.96380615234375,-0.4300079345703125,-0.0873870849609375
1789550672762594800,1.6885947265625,-0.9183349609375,-0.4417572021484375,-0.1633758544921875
1789550672772563700,1.698563720703125,-0.89837646484375,-0.435577392578125,-0.08209228515625
1789550672782531800,1.70853173828125,-0.938140869140625,-0.4517822265625,-0.139251708984375
1789550672792500700,1.718500732421875,-0.9159698486328125,-0.4595184326171875,-0.17431640625
1789550672802468900,1.72846875,-0.8865509033203125,-0.4641571044921875,-0.086395263671875
1789550672812437800,1.738437744140625,-0.834320068359375,-0.5069580078125,-0.02813720703125
1789550672822405600,1.748405517578125,-0.9171905517578125,-0.455413818359375,-0.0459136962890625
1789550672832374500,1.75837451171875,-0.92071533203125,-0.5133514404296875,0.015899658203125
1789550672842342700,1.7683427734375,-0.939422607421875,-0.5137939453125,0.030029296875
1789550672852311600,1.7783115234375,-0.9626617431640625,-0.431060791015625,0.0292816162109375
1789550672862279700,1.78827978515625,-0.9000244140625,-0.3947906494140625,0.0547027587890625
1789550672872247800,1.798247802734375,-0.837493896484375,-0.4207305908203125,0.062408447265625
1789550672882216700,1.808216796875,-0.82659912109375,-0.4672698974609375,0.0396881103515625
1789550672892184800,1.818184814453125,-0.9017181396484375,-0.436492919921875,-0.023223876953125
1789550672902153700,1.82815380859375,-0.9051055908203125,-0.3881378173828125,-0.067596435546875
1789550672912121900,1.838121826171875,-0.876495361328125,-0.4093475341796875,0.0310211181640625
1789550672922090800,1.8480908203125,-0.8181304931640625,-0.5147857666015625,0.05889892578125
1789550672932058600,1.85805859375,-0.7834625244140625,-0.5476226806640625,0.0442657470703125
1789550672942027500,1.868027587890625,-0.837860107421875,-0.4678192138671875,0.1277923583984375
1789550672951995600,1.87799560546875,-0.949554443359375,-0.40673828125,0.112579345703125
1789550672961964500,1.887964599609375,-0.989501953125,-0.4326934814453125,0.0892791748046875
1789550672971932700,1.8979326171875,-1.0152130126953125,-0.4105072021484375,0.149383544921875
1789550672981901600,1.907901611328125,-1.067169189453125,-0.3383636474609375,0.1433563232421875
1789550672991869400,1.917869384765625,-0.974029541015625,-0.4052581787109375,-0.036041259765625
1789550673001838300,1.92783837890625,-0.8806610107421875,-0.4557342529296875,0.0573577880859375
1789550673011806500,1.937806396484375,-0.9064178466796875,-0.3542938232421875,0.0120849609375
1789550673021775400,1.947775390625,-0.944000244140625,-0.2330474853515625,-0.0543060302734375
1789550673031743500,1.957743408203125,-0.8645782470703125,-0.2884979248046875,-0.0148773193359375
1789550673041712600,1.967712646484375,-0.84869384765625,-0.2623291015625,0.0124053955078125
1789550673051680500,1.977680419921875,-0.9634552001953125,-0.2374267578125,0.0811767578125
1789550673061649700,1.987649658203125,-1.096160888671875,-0.1103057861328125,0.156768798828125
1789550673071617500,1.997617431640625,-1.1882476806640625,-0.10699462890625,0.055908203125
1789550673081586700,2.007586669921875,-0.967681884765625,-0.354034423828125,0.0858612060546875
1789550673091554600,2.017554443359375,-0.957122802734375,-0.355926513671875,0.0775299072265625
1789550673101522400,2.0275224609375,-0.8887939453125,-0.3803558349609375,0.00592041015625
1789550673111491600,2.03749169921875,-1.0547027587890625,-0.2395782470703125,-0.0470428466796875
1789550673121459500,2.04745947265625,-1.2919158935546875,-0.00189208984375,-0.132293701171875
1789550673131428600,2.0574287109375,-1.166107177734375,-0.0622406005859375,-0.1683502197265625
1789550673141396500,2.067396484375,-0.8927459716796875,-0.292327880859375,-0.143829345703125
1789550673151365600,2.07736572265625,-0.7671966552734375,-0.20672607421875,-0.1923370361328125
1789550673161333500,2.08733349609375,-0.773223876953125,-0.1718597412109375,-0.1885528564453125
1789550673171302700,2.097302734375,-0.9859161376953125,-0.0814361572265625,-0.1517181396484375
1789550673181270500,2.1072705078125,-1.1419677734375,-0.157135009765625,-0.1035003662109375
1789550673191239700,2.11723974609375,-1.1987152099609375,-0.244903564453125,0.0133209228515625
1789550673201207600,2.12720751953125,-1.071197509765625,-0.334442138671875,0.02490234375
1789550673211176700,2.1371767578125,-0.841705322265625,-0.3916015625,-0.036895751953125
1789550673221144600,2.14714453125,-0.7876434326171875,-0.3606414794921875,-0.109649658203125
1789550673231113700,2.15711376953125,-0.797943115234375,-0.389495849609375,-0.0754547119140625
1789550673241081600,2.16708154296875,-0.944305419921875,-0.3685150146484375,-0.0660247802734375
1789550673251050500,2.177050537109375,-1.024749755859375,-0.320770263671875,-0.049896240234375
1789550673261018600,2.1870185546875,-0.944976806640625,-0.2993927001953125,-0.0789947509765625
1789550673270986500,2.196986572265625,-0.8484344482421875,-0.2777557373046875,-0.1749267578125
1789550673280955600,2.20695556640625,-0.80059814453125,-0.30364990234375,-0.165740966796875
1789550673290923500,2.216923583984375,-0.8495330810546875,-0.2703094482421875,-0.0933837890625
1789550673300892700,2.226892578125,-0.9468841552734375,-0.2195892333984375,-0.14508056640625
1789550673310860500,2.236860595703125,-1.102874755859375,-0.1837310791015625,-0.2020111083984375
1789550673320829700,2.24682958984375,-1.093536376953125,-0.3255157470703125,-0.1052398681640625
1789550673330797600,2.256797607421875,-1.0507965087890625,-0.3871917724609375,0.0137939453125
1789550673340766700,2.2667666015625,-1.0206146240234375,-0.41015625,0.065155029296875
1789550673350734600,2.276734619140625,-1.090484619140625,-0.3526458740234375,0.0778350830078125
1789550673360703500,2.286703369140625,-0.9500579833984375,-0.4610443115234375,0.1683807373046875
1789550673370671600,2.296671630859375,-0.8112335205078125,-0.5422515869140625,0.195770263671875
1789550673380640500,2.306640625,-0.8393096923828125,-0.4907989501953125,0.17974853515625
1789550673390608600,2.316608642578125,-0.88916015625,-0.37567138671875,0.12548828125
1789550673400577500,2.32657763671875,-0.9599456787109375,-0.3046722412109375,0.0771026611328125
1789550673410545700,2.336545654296875,-0.89239501953125,-0.3523406982421875,0.0351409912109375
1789550673420514600,2.3465146484375,-0.832183837890625,-0.41644287109375,0.0839691162109375
1789550673430482700,2.356482666015625,-0.7711334228515625,-0.45343017578125,0.0858612060546875
1789550673440451600,2.36645166015625,-0.944305419921875,-0.258453369140625,0.1520538330078125
1789550673450419700,2.376419677734375,-1.0821990966796875,-0.19195556640625,0.033966064453125
1789550673460387600,2.3863876953125,-1.1282958984375,-0.2425384521484375,-0.011199951171875
1789550673470356500,2.3963564453125,-1.1355743408203125,-0.251312255859375,0.0659637451171875
1789550673480324600,2.40632470703125,-1.14178466796875,-0.28448486328125,0.0876922607421875
1789550673490293500,2.41629345703125,-0.97039794921875,-0.3651123046875,0.1151580810546875
1789550673500261600,2.42626171875,-0.8187255859375,-0.3561553955078125,0.192596435546875
1789550673510230500,2.43623046875,-0.7563323974609375,-0.39111328125,0.113067626953125
1789550673520198700,2.44619873046875,-0.746490478515625,-0.388458251953125,0.0919036865234375
1789550673530167600,2.45616748046875,-0.896209716796875,-0.224517822265625,0.0897369384765625
1789550673540135700,2.4661357421875,-0.9797821044921875,-0.21697998046875,0.115814208984375
1789550673550104600,2.4761044921875,-1.0056915283203125,-0.27191162109375,-0.005523681640625
1789550673560072700,2.48607275390625,-0.88507080078125,-0.4011077880859375,0.0510711669921875
1789550673570041600,2.49604150390625,-0.8506622314453125,-0.398223876953125,0.018829345703125
1789550673580009500,2.506009521484375,-0.9681549072265625,-0.3124542236328125,0.042083740234375
1789550673589978400,2.515978271484375,-0.9880523681640625,-0.275665283203125,0.013946533203125
1789550673599946500,2.525946533203125,-1.0671844482421875,-0.262603759765625,0.0879364013671875
1789550673609914600,2.53591455078125,-1.07275390625,-0.2964324951171875,0.09368896484375
1789550673619883500,2.545883544921875,-1.0143280029296875,-0.29083251953125,0.142913818359375
1789550673629851600,2.5558515625,-0.80419921875,-0.363677978515625,0.1500244140625
1789550673639820500,2.565820556640625,-0.808349609375,-0.3660430908203125,0.1941070556640625
1789550673649788700,2.57578857421875,-0.9099273681640625,-0.3389129638671875,0.2928009033203125
1789550673659757600,2.585757568359375,-0.9707794189453125,-0.3495941162109375,0.236053466796875
1789550673669725700,2.5957255859375,-1.0883941650390625,-0.3029327392578125,0.12713623046875
1789550673679694600,2.605694580078125,-1.0678253173828125,-0.2866973876953125,0.20867919921875
1789550673689662500,2.615662353515625,-0.993255615234375,-0.3697052001953125,0.242218017578125
1789550673699631400,2.62563134765625,-0.947662353515625,-0.3929595947265625,0.059661865234375
1789550673709599500,2.635599609375,-0.754730224609375,-0.4918060302734375,0.0230712890625
1789550673719568400,2.645568359375,-0.7398834228515625,-0.4631500244140625,0.0257720947265625
1789550673729536500,2.65553662109375,-0.839202880859375,-0.3061981201171875,0.088897705078125
1789550673739505400,2.66550537109375,-0.92071533203125,-0.1505126953125,0.04449462890625
1789550673749473500,2.6754736328125,-0.956329345703125,-0.145111083984375,-0.07232666015625
1789550673759442700,2.685442626953125,-0.9115447998046875,-0.2759552001953125,0.0584716796875
1789550673769410600,2.69541064453125,-0.9744720458984375,-0.241455078125,0.1097869873046875
1789550673779378700,2.705378662109375,-1.0202484130859375,-0.14349365234375,-0.1168365478515625
1789550673789347600,2.71534765625,-1.080291748046875,-0.13916015625,-0.06085205078125
1789550673799315500,2.7253154296875,-1.1097564697265625,-0.249786376953125,0.0823974609375
1789550673809284400,2.735284423828125,-0.984619140625,-0.3885040283203125,-0.030548095703125
1789550673819252500,2.74525244140625,-0.84417724609375,-0.3800201416015625,-0.0772247314453125
1789550673829221400,2.755221435546875,-0.790557861328125,-0.4019317626953125,-0.0259552001953125
1789550673839189500,2.765189453125,-0.9122467041015625,-0.3258056640625,-0.0355682373046875
1789550673849158400,2.775158447265625,-1.0323028564453125,-0.29833984375,-0.05181884765625
1789550673859126500,2.78512646484375,-1.01141357421875,-0.27191162109375,-0.050018310546875
1789550673869095700,2.795095703125,-0.85858154296875,-0.3079376220703125,-0.0853271484375
1789550673879063600,2.8050634765625,-0.9422454833984375,-0.2609100341796875,-0.112823486328125
1789550673889032700,2.81503271484375,-1.0203094482421875,-0.2642822265625,-0.217864990234375
1789550673899000600,2.82500048828125,-1.022003173828125,-0.2937774658203125,-0.23272705078125
1789550673908969700,2.8349697265625,-0.984954833984375,-0.2982635498046875,-0.145538330078125
1789550673918937300,2.844937255859375,-0.963623046875,-0.2779693603515625,-0.1241302490234375
1789550673928905500,2.854905517578125,-0.9681396484375,-0.2490386962890625,-0.087646484375
1789550673938874400,2.864874267578125,-1.01275634765625,-0.211517333984375,-0.0778045654296875
1789550673948842500,2.874842529296875,-0.9750213623046875,-0.288055419921875,-0.108306884765625
1789550673958812700,2.884812744140625,-0.9235687255859375,-0.3392486572265625,-0.0914459228515625
1789550673968780800,2.89478076171875,-0.8376312255859375,-0.3349456787109375,-0.0082550048828125
1789550673978749700,2.904749755859375,-0.739593505859375,-0.37451171875,-0.0793304443359375
1789550673988717800,2.9147177734375,-0.7360076904296875,-0.3593902587890625,-0.13653564453125
1789550673998686700,2.924686767578125,-0.8455963134765625,-0.2922210693359375,-0.038116455078125
1789550674008654800,2.93465478515625,-0.8766937255859375,-0.3304290771484375,-0.0904693603515625
1789550674018623700,2.944623779296875,-1.0111541748046875,-0.221099853515625,-0.0888214111328125
1789550674028591900,2.954591796875,-1.0466461181640625,-0.2310638427734375,-0.01531982421875
1789550674038560800,2.964560791015625,-1.1083831787109375,-0.207489013671875,-0.0039520263671875
1789550674048529000,2.97452880859375,-1.1353759765625,-0.2044525146484375,-0.0050201416015625
1789550674058497800,2.984497802734375,-1.1334228515625,-0.255340576171875,0.0471343994140625
1789550674068465700,2.994465576171875,-1.241973876953125,-0.2715911865234375,-0.1303863525390625
1789550674078433800,3.004433837890625,-1.784271240234375,-0.0350189208984375,0.066864013671875
1789550674088402700,3.014402587890625,-1.824462890625,-0.136749267578125,-0.0460205078125
1789550674098370800,3.024370849609375,-1.2932586669921875,-0.3872833251953125,-0.0648193359375
1789550674108339700,3.034339599609375,-0.2351226806640625,-0.8661041259765625,-0.0031280517578125
1789550674118307800,3.044307861328125,0.191253662109375,-0.8842620849609375,0.1348419189453125
1789550674128276700,3.05427685546875,0.1606597900390625,-0.7604522705078125,0.1568756103515625
1789550674138244900,3.064244873046875,-0.527252197265625,-0.33721923828125,0.00775146484375
1789550674148213800,3.0742138671875,-0.8824310302734375,-0.0625152587890625,-0.1487274169921875
1789550674158182000,3.084181884765625,-0.74462890625,-0.2876129150390625,0.2091064453125
1789550674168150800,3.09415087890625,-1.035919189453125,-0.2012176513671875,0.09368896484375
1789550674178118700,3.10411865234375,-1.550048828125,0.184478759765625,0.1678466796875
1789550674188087800,3.114087890625,-1.4343109130859375,0.098236083984375,0.082763671875
1789550674198055700,3.1240556640625,-0.962127685546875,-0.22650146484375,-0.02471923828125
1789550674208024800,3.13402490234375,-0.7198486328125,-0.4395599365234375,-0.0807952880859375
1789550674217992700,3.14399267578125,-0.7986297607421875,-0.3143157958984375,-0.0642852783203125
1789550674227960800,3.1539609375,-1.035858154296875,-0.07415771484375,-0.0966644287109375
1789550674237929700,3.1639296875,-1.0792236328125,-0.21099853515625,-0.2402496337890625
1789550674247897900,3.17389794921875,-1.0222930908203125,-0.4674224853515625,-0.2302093505859375
1789550674257866800,3.18386669921875,-1.047882080078125,-0.4505157470703125,-0.1165924072265625
1789550674267835000,3.1938349609375,-0.9199371337890625,-0.4241790771484375,-0.121917724609375
1789550674277803800,3.2038037109375,-0.7409210205078125,-0.3784332275390625,-0.05078125
1789550674287771600,3.213771728515625,-0.8444976806640625,-0.3758087158203125,0.0315093994140625
1789550674297740800,3.22374072265625,-0.9216766357421875,-0.47808837890625,0.0526275634765625
1789550674307708700,3.233708740234375,-0.8517608642578125,-0.5323944091796875,0.13861083984375
1789550674317677800,3.243677734375,-0.9144744873046875,-0.2685546875,0.0639495849609375
1789550674327645700,3.253645751953125,-0.9345245361328125,-0.1774749755859375,-0.0736083984375
1789550674337613800,3.26361376953125,-1.2973175048828125,0.0294647216796875,-0.1966400146484375
1789550674347582700,3.273582763671875,-1.31182861328125,-0.043975830078125,-0.1714324951171875
1789550674357550800,3.28355078125,-1.2066802978515625,-0.1025848388671875,-0.020538330078125
1789550674367519700,3.293519775390625,-1.00384521484375,-0.2091217041015625,0.256317138671875
1789550674377488000,3.30348779296875,-1.143463134765625,0.109588623046875,0.1836090087890625
1789550674387456800,3.313456787109375,-0.8839111328125,-0.3663330078125,0.0940093994140625
1789550674397424600,3.323424560546875,-0.808013916015625,-0.600433349609375,-0.19854736328125
1789550674407393800,3.333393798828125,-0.7760772705078125,-0.5660858154296875,-0.2671661376953125
1789550674417361700,3.343361572265625,-0.6418609619140625,-0.7873077392578125,0.1591796875
1789550674427330800,3.353330810546875,-0.7542724609375,-0.7105865478515625,0.20263671875
1789550674437298700,3.363298583984375,-0.9173736572265625,-0.3494415283203125,0.0536346435546875
1789550674447267800,3.373267822265625,-0.8992156982421875,-0.2588348388671875,0.06182861328125
1789550674457235700,3.383235595703125,-0.8751678466796875,-0.23712158203125,0.1475982666015625
1789550674467204900,3.393204833984375,-0.8672943115234375,-0.2795257568359375,0.121856689453125
1789550674477172700,3.4031728515625,-0.9102783203125,-0.2916107177734375,-0.0335235595703125
1789550674487140900,3.413140869140625,-1.061431884765625,-0.162841796875,0.0716705322265625
1789550674497110000,3.423110107421875,-1.153411865234375,-0.048614501953125,-0.0271759033203125
1789550674507077600,3.43307763671875,-1.067901611328125,-0.19140625,-0.2274017333984375
1789550674517047000,3.443047119140625,-0.86346435546875,-0.3848419189453125,-0.0883331298828125
1789550674527014700,3.4530146484375,-0.8704833984375,-0.2725982666015625,-0.13037109375
1789550674536983800,3.46298388671875,-0.988128662109375,-0.153839111328125,-0.1181793212890625
1789550674546951700,3.47295166015625,-1.1059417724609375,-0.0681610107421875,-0.023895263671875
1789550674556920800,3.4829208984375,-0.9459381103515625,-0.2543792724609375,-0.0404815673828125
1789550674566888700,3.492888671875,-0.844451904296875,-0.364288330078125,0.0299072265625
1789550674576857900,3.50285791015625,-0.8666839599609375,-0.3130340576171875,-0.0014190673828125
1789550674586825700,3.51282568359375,-0.863800048828125,-0.342559814453125,0.064666748046875
1789550674596793900,3.5227939453125,-0.9450531005859375,-0.352325439453125,0.1073760986328125
1789550674606763000,3.532762939453125,-1.079132080078125,-0.306854248046875,0.0403594970703125
1789550674616731000,3.54273095703125,-1.1668853759765625,-0.2936553955078125,-0.0875091552734375
1789550674626700000,3.552699951171875,-1.0228271484375,-0.340576171875,-0.0640411376953125
1789550674636667600,3.562667724609375,-0.862457275390625,-0.4154205322265625,-0.144439697265625
1789550674646636800,3.57263671875,-0.8325958251953125,-0.434478759765625,-0.14874267578125
1789550674656604700,3.582604736328125,-0.937164306640625,-0.2833404541015625,-0.194122314453125
1789550674666573800,3.59257373046875,-0.970428466796875,-0.2923126220703125,-0.103729248046875
1789550674676541700,3.602541748046875,-0.951873779296875,-0.3074951171875,-0.1447906494140625
1789550674686510800,3.6125107421875,-0.8593597412109375,-0.2528533935546875,-0.0186309814453125
1789550674696478700,3.622478759765625,-0.8773040771484375,-0.2735595703125,-0.0515594482421875
1789550674706448000,3.63244775390625,-0.9314117431640625,-0.217681884765625,0.016571044921875
1789550674716416000,3.642416015625,-1.0016021728515625,-0.199737548828125,0.1231689453125
1789550674726383900,3.6523837890625,-1.0052642822265625,-0.255340576171875,0.12939453125
1789550674736353000,3.66235302734375,-1.0521392822265625,-0.2012786865234375,0.0890655517578125
1789550674746320600,3.672320556640625,-1.0399017333984375,-0.249542236328125,0.133270263671875
1789550674756289800,3.682289794921875,-0.9733428955078125,-0.264495849609375,0.0848846435546875
1789550674766257700,3.692257568359375,-0.964630126953125,-0.2515106201171875,0.1894378662109375
1789550674776226800,3.702226806640625,-0.9792938232421875,-0.3319091796875,0.1394805908203125
1789550674786194700,3.712194580078125,-1.0571136474609375,-0.344940185546875,0.102081298828125
1789550674796163800,3.722163818359375,-1.0429534912109375,-0.3408966064453125,0.1825714111328125
1789550674806131700,3.732131591796875,-0.8374786376953125,-0.465576171875,0.039764404296875
1789550674816100900,3.742100830078125,-0.80853271484375,-0.392791748046875,0.2055206298828125
1789550674826069000,3.752069091796875,-0.7797088623046875,-0.424041748046875,0.08892822265625
1789550674836036900,3.762036865234375,-0.871490478515625,-0.348480224609375,0.098541259765625
1789550674846006000,3.772006103515625,-1.034149169921875,-0.210601806640625,0.06500244140625
1789550674855973600,3.7819736328125,-0.994964599609375,-0.3540191650390625,-0.0755157470703125
1789550674865942800,3.79194287109375,-0.9908599853515625,-0.3829193115234375,-0.007049560546875
1789550674875910700,3.80191064453125,-1.0254669189453125,-0.2930908203125,-0.038604736328125
1789550674885879800,3.8118798828125,-0.9458465576171875,-0.3540496826171875,-0.1031341552734375
1789550674895847700,3.82184765625,-0.870269775390625,-0.359100341796875,0.056121826171875
1789550674905816800,3.83181689453125,-0.8907623291015625,-0.2366485595703125,0.0777587890625
1789550674915785000,3.841784912109375,-0.843292236328125,-0.237152099609375,0.0255584716796875
1789550674925753900,3.85175390625,-0.91058349609375,-0.230438232421875,0.0555877685546875
1789550674935722000,3.861721923828125,-0.9405975341796875,-0.2281341552734375,0.049652099609375
1789550674945691000,3.87169091796875,-1.021728515625,-0.1840667724609375,0.039031982421875
1789550674955658000,3.881657958984375,-1.03448486328125,-0.2463226318359375,-0.0211181640625
1789550674965626000,3.891626220703125,-1.12109375,-0.1965484619140625,-0.0197906494140625
1789550674975595000,3.901594970703125,-1.084320068359375,-0.187469482421875,-0.1179656982421875
1789550674985563000,3.91156298828125,-1.010589599609375,-0.2660980224609375,-0.1192779541015625
1789550674995531800,3.92153173828125,-1.0251312255859375,-0.2252197265625,-0.067138671875
1789550675005500000,3.9315,-0.89129638671875,-0.3174285888671875,-0.07305908203125
1789550675015468800,3.94146875,-0.844482421875,-0.32379150390625,-0.034698486328125
1789550675025437000,3.95143701171875,-0.8990325927734375,-0.31365966796875,-0.111114501953125
1789550675035405800,3.96140576171875,-0.8902587890625,-0.3074798583984375,-0.0637054443359375
1789550675045374000,3.9713740234375,-0.9100341796875,-0.3123016357421875,-0.0911407470703125
1789550675055342800,3.9813427734375,-0.99456787109375,-0.3180389404296875,-0.079010009765625
1789550675065311000,3.99131103515625,-1.1049652099609375,-0.32684326171875,-0.055511474609375
1789550675075280000,4.00127978515625,-1.110076904296875,-0.2997589111328125,-0.0898284912109375
1789550675085248000,4.011248046875,-0.90765380859375,-0.4191131591796875,-0.087677001953125
1789550675095215900,4.0212158203125,-0.83551025390625,-0.377044677734375,-0.164276123046875
1789550675105184800,4.031184814453125,-0.7988433837890625,-0.330322265625,-0.1042633056640625
1789550675115153000,4.04115283203125,-0.8968353271484375,-0.254638671875,0.06915283203125
1789550675125121800,4.051121826171875,-0.8812103271484375,-0.2699432373046875,0.0166778564453125
1789550675135090000,4.06108984375,-0.8972930908203125,-0.2287750244140625,-0.07122802734375
1789550675145058800,4.071058837890625,-0.9045257568359375,-0.2397003173828125,-0.0587310791015625
1789550675155027000,4.08102685546875,-0.94183349609375,-0.21240234375,0.049407958984375
1789550675164995800,4.090995849609375,-0.965240478515625,-0.2619476318359375,0.117828369140625
1789550675174964000,4.1009638671875,-1.0497894287109375,-0.184539794921875,0.1433563232421875
1789550675184932900,4.110932861328125,-1.005645751953125,-0.2104949951171875,0.158111572265625
1789550675194901000,4.12090087890625,-1.092529296875,-0.1864013671875,0.1435089111328125
1789550675204868900,4.130868896484375,-1.008819580078125,-0.224212646484375,0.0154876708984375
1789550675214837800,4.140837646484375,-1.0411529541015625,-0.2032928466796875,0.133331298828125
1789550675224806000,4.150805908203125,-1.02374267578125,-0.14813232421875,0.0926361083984375
1789550675234774800,4.16077490234375,-0.9594268798828125,-0.2261505126953125,0.0935516357421875
1789550675244743000,4.170742919921875,-0.9452056884765625,-0.2882843017578125,-0.060943603515625
1789550675254711800,4.1807119140625,-1.0036163330078125,-0.18939208984375,0.0039825439453125
1789550675264680000,4.190679931640625,-1.00250244140625,-0.2215118408203125,0.03350830078125
1789550675274648800,4.20064892578125,-0.9931488037109375,-0.3067474365234375,-0.0069427490234375
1789550675284617000,4.210616943359375,-0.9167022705078125,-0.3509368896484375,-0.0971221923828125
1789550675294585900,4.2205859375,-0.9903411865234375,-0.3102874755859375,-0.2180023193359375
1789550675304554000,4.230553955078125,-0.9541778564453125,-0.369842529296875,-0.07080078125
1789550675314521900,4.24052197265625,-0.942230224609375,-0.352813720703125,-0.1058349609375
1789550675324490800,4.25049072265625,-0.864532470703125,-0.4912261962890625,-0.182647705078125
1789550675334459000,4.260458984375,-0.8125,-0.5389862060546875,-0.2733154296875
1789550675344427800,4.270427734375,-0.8499908447265625,-0.40582275390625,-0.23858642578125
1789550675354396000,4.28039599609375,-0.9244537353515625,-0.3332977294921875,-0.0975494384765625
1789550675364364800,4.29036474609375,-1.00653076171875,-0.3265380859375,0.0274658203125
1789550675374333000,4.3003330078125,-1.08154296875,-0.308807373046875,0.071563720703125
1789550675384301800,4.3103017578125,-1.0178985595703125,-0.2731170654296875,0.1365509033203125
1789550675394270000,4.32027001953125,-0.89068603515625,-0.41192626953125,0.1559295654296875
1789550675404238800,4.33023876953125,-0.85711669921875,-0.349578857421875,0.110382080078125
1789550675414207000,4.34020703125,-0.9423828125,-0.2477874755859375,0.1037445068359375
1789550675424175900,4.35017578125,-0.92669677734375,-0.3105621337890625,0.0665283203125
1789550675434143700,4.360143798828125,-1.1109466552734375,-0.113922119140625,-0.0509796142578125
1789550675444112000,4.37011181640625,-1.071685791015625,-0.1636505126953125,-0.0980224609375
1789550675454080800,4.380080810546875,-0.9107208251953125,-0.1790313720703125,-0.1277313232421875
1789550675464049000,4.390048828125,-0.8325653076171875,-0.23028564453125,0.020477294921875
1789550675474017800,4.400017822265625,-0.832183837890625,-0.2489471435546875,0.1015777587890625
1789550675483986000,4.40998583984375,-0.896148681640625,-0.216796875,0.0291748046875
1789550675493954800,4.419954833984375,-1.0605621337890625,-0.1632843017578125,-0.0339813232421875
1789550675503923000,4.4299228515625,-1.184478759765625,-0.1342315673828125,-0.0403900146484375
1789550675513891800,4.439891845703125,-1.18310546875,-0.1935577392578125,0.05322265625
1789550675523860000,4.44985986328125,-0.9171905517578125,-0.3382720947265625,-0.0085296630859375
1789550675533828900,4.459828857421875,-0.8304901123046875,-0.3148956298828125,-0.01092529296875
1789550675543796700,4.469796630859375,-0.8307647705078125,-0.30291748046875,0.0039520263671875
1789550675553764900,4.479764892578125,-0.8946990966796875,-0.3621978759765625,0.0820770263671875
1789550675563733800,4.489733642578125,-0.9310455322265625,-0.3721771240234375,0.0896759033203125
1789550675573702000,4.499701904296875,-0.80645751953125,-0.4250335693359375,0.09869384765625
1789550675583670800,4.5096708984375,-0.8486328125,-0.43994140625,0.134368896484375
1789550675593639000,4.519638916015625,-1.0254058837890625,-0.378570556640625,0.132354736328125
1789550675603607800,4.52960791015625,-1.0524444580078125,-0.3723602294921875,0.1996612548828125
1789550675613576000,4.539575927734375,-1.105621337890625,-0.2930755615234375,0.1707916259765625
1789550675623544800,4.549544921875,-0.958892822265625,-0.4048919677734375,0.2815093994140625
1789550675633513000,4.559512939453125,-0.8589935302734375,-0.4302825927734375,0.1222991943359375
1789550675643480800,4.569480712890625,-0.909820556640625,-0.337432861328125,0.0319366455078125
1789550675653450000,4.579449951171875,-0.9374847412109375,-0.3515625,0.0026702880859375
1789550675663417900,4.58941796875,-1.016571044921875,-0.31341552734375,0.006561279296875
1789550675673386800,4.59938671875,-0.9789886474609375,-0.3297119140625,-0.1025238037109375
1789550675683355000,4.60935498046875,-0.976593017578125,-0.2542572021484375,-0.083770751953125
1789550675693323800,4.61932373046875,-1.02392578125,-0.0926055908203125,-0.07684326171875
1789550675703292000,4.6292919921875,-0.918212890625,-0.20037841796875,-0.001129150390625
1789550675713260800,4.6392607421875,-0.980010986328125,-0.2447967529296875,0.0759735107421875
1789550675723229000,4.64922900390625,-1.0505218505859375,-0.1352996826171875,0.075408935546875
1789550675733197800,4.65919775390625,-1.027496337890625,-0.187957763671875,-0.0365753173828125
1789550675743166000,4.669166015625,-0.9603729248046875,-0.209930419921875,0.0810699462890625
1789550675753134000,4.679134033203125,-0.973419189453125,-0.229705810546875,0.04425048828125
1789550675763103000,4.68910302734375,-0.9436492919921875,-0.3302001953125,-0.02862548828125
1789550675773070800,4.69907080078125,-0.996490478515625,-0.2083587646484375,0.0267791748046875
1789550675783039700,4.709039794921875,-0.9851531982421875,-0.22540283203125,0.0670928955078125
1789550675793007900,4.7190078125,-0.937103271484375,-0.337677001953125,0.010101318359375
1789550675802976800,4.728976806640625,-0.92181396484375,-0.341796875,-0.0628814697265625
1789550675812945000,4.73894482421875,-1.0168914794921875,-0.265899658203125,-0.0044708251953125
1789550675822913800,4.748913818359375,-0.99945068359375,-0.3379364013671875,-0.0460052490234375
1789550675832882000,4.7588818359375,-1.0087738037109375,-0.3594818115234375,0.0195159912109375
1789550675842850800,4.768850830078125,-0.9295501708984375,-0.3602142333984375,-0.043121337890625
1789550675852819000,4.77881884765625,-0.959686279296875,-0.30023193359375,-0.1226043701171875
1789550675862787000,4.788787109375,-0.9939117431640625,-0.2080535888671875,-0.1068267822265625
1789550675872756000,4.798755859375,-1.02191162109375,-0.1932373046875,-0.147308349609375
1789550675882723800,4.808723876953125,-0.93304443359375,-0.2693634033203125,-0.09423828125
1789550675892692700,4.818692626953125,-0.7259979248046875,-0.3936920166015625,-0.13262939453125
1789550675902660900,4.828660888671875,-0.7338104248046875,-0.2843170166015625,-0.139312744140625
1789550675912629800,4.838629638671875,-0.796051025390625,-0.2968902587890625,-0.052947998046875
1789550675922598000,4.848597900390625,-1.0364990234375,-0.18841552734375,-0.0688629150390625
1789550675932566800,4.85856689453125,-1.2504119873046875,-0.1755523681640625,-0.0382537841796875
1789550675942535000,4.868534912109375,-1.25201416015625,-0.2209625244140625,-0.078521728515625
1789550675952503800,4.87850390625,-0.9959259033203125,-0.2884674072265625,-0.0606689453125
1789550675962471200,4.88847119140625,-0.6753997802734375,-0.36431884765625,0.041900634765625
1789550675972439300,4.898439208984375,-0.600799560546875,-0.305816650390625,0.109710693359375
1789550675982408200,4.908408203125,-0.823760986328125,-0.23236083984375,0.153167724609375
1789550675992376300,4.918376220703125,-1.0380706787109375,-0.18499755859375,0.094329833984375
1789550676002345200,4.92834521484375,-1.1009063720703125,-0.1847686767578125,-0.0319671630859375
1789550676012313300,4.938313232421875,-1.0317840576171875,-0.258819580078125,-0.0207977294921875
1789550676022282200,4.9482822265625,-0.9841461181640625,-0.323089599609375,0.0304107666015625
1789550676032250400,4.95825048828125,-0.9728546142578125,-0.2872161865234375,0.059600830078125
1789550676042219500,4.968219482421875,-1.0084991455078125,-0.2836151123046875,0.03228759765625
1789550676052187100,4.978187255859375,-0.9839324951171875,-0.345367431640625,-0.0066986083984375
1789550676062156300,4.98815625,-1.0234222412109375,-0.3428955078125,-0.06170654296875
1789550676072124200,4.998124267578125,-0.916595458984375,-0.4091644287109375,-0.0315399169921875
1789550676082092300,5.00809228515625,-0.8783416748046875,-0.3526458740234375,-0.1290130615234375
1789550676092061200,5.018061279296875,-0.9421844482421875,-0.334930419921875,0.002532958984375
1789550676102029300,5.028029296875,-1.0334625244140625,-0.3302001953125,-0.009735107421875
1789550676111998200,5.037998291015625,-0.935791015625,-0.331573486328125,-0.07244873046875
1789550676121966300,5.04796630859375,-0.98907470703125,-0.1664886474609375,-0.0547637939453125
1789550676131935200,5.057935302734375,-0.917205810546875,-0.2630767822265625,-0.097412109375
1789550676141903400,5.0679033203125,-0.99798583984375,-0.25787353515625,0.0588531494140625
1789550676151872500,5.07787255859375,-0.986907958984375,-0.2871856689453125,0.10333251953125
1789550676161840000,5.087840087890625,-1.00775146484375,-0.244659423828125,-0.0018157958984375
1789550676171808300,5.097808349609375,-1.0535888671875,-0.155517578125,0.0363616943359375
1789550676181777200,5.107777099609375,-1.0499114990234375,-0.1667938232421875,0.1403045654296875
1789550676191745300,5.117745361328125,-0.93731689453125,-0.2589569091796875,0.1192626953125
1789550676201714200,5.127714111328125,-0.8854522705078125,-0.270721435546875,0.121673583984375
1789550676211682300,5.137682373046875,-0.961212158203125,-0.246917724609375,0.0923614501953125
1789550676221651200,5.147651123046875,-0.9166412353515625,-0.299407958984375,0.1224212646484375
1789550676231619300,5.157619384765625,-0.8980255126953125,-0.3249969482421875,0.0830230712890625
1789550676241588500,5.16758837890625,-0.9145050048828125,-0.26483154296875,0.104522705078125
1789550676251556400,5.177556396484375,-0.9559173583984375,-0.2630615234375,0.00347900390625
1789550676261525500,5.187525390625,-0.9072723388671875,-0.355743408203125,-0.1296844482421875
1789550676271493000,5.1974931640625,-0.95806884765625,-0.2855377197265625,-0.1317901611328125
1789550676281461200,5.207461181640625,-0.964080810546875,-0.28228759765625,-0.00128173828125
1789550676291430100,5.21743017578125,-0.9935455322265625,-0.2129669189453125,-0.0252838134765625
1789550676301398300,5.227398193359375,-1.0700531005859375,-0.1946868896484375,-0.0955657958984375
1789550676311367200,5.2373671875,-1.0301513671875,-0.24688720703125,-0.05584716796875
1789550676321335300,5.247335205078125,-0.925262451171875,-0.3149566650390625,-0.0615234375
1789550676331304200,5.25730419921875,-0.8174591064453125,-0.3685455322265625,0.0558319091796875
1789550676341272300,5.267272216796875,-0.8720855712890625,-0.3059234619140625,0.1360931396484375
1789550676351241500,5.277241455078125,-0.8460540771484375,-0.3092193603515625,0.0178070068359375
1789550676361209300,5.287209228515625,-0.943603515625,-0.291259765625,-0.011199951171875
1789550676371177200,5.29717724609375,-1.0769805908203125,-0.2956085205078125,-0.013092041015625
1789550676381146400,5.307146484375,-1.192840576171875,-0.192657470703125,0.0772552490234375
1789550676391114200,5.3171142578125,-1.140106201171875,-0.2366943359375,0.1086883544921875
1789550676401083100,5.327083251953125,-0.8560333251953125,-0.369903564453125,0.119720458984375
1789550676411051300,5.33705126953125,-0.7351837158203125,-0.4101409912109375,0.0977935791015625
1789550676421020200,5.347020263671875,-0.7775115966796875,-0.3460845947265625,0.141754150390625
1789550676430988300,5.35698828125,-0.8292388916015625,-0.30535888671875,0.1371612548828125
1789550676440957200,5.366957275390625,-0.933624267578125,-0.256439208984375,0.045745849609375
1789550676450925300,5.37692529296875,-0.9153289794921875,-0.3960113525390625,0.0726318359375
1789550676460893400,5.3868935546875,-0.9873046875,-0.3292236328125,0.0126190185546875
1789550676470862300,5.3968623046875,-1.0720672607421875,-0.167938232421875,-0.0527191162109375
1789550676480830200,5.406830322265625,-1.0388031005859375,-0.2171173095703125,0.1183624267578125
1789550676490799400,5.41679931640625,-1.0513916015625,-0.233734130859375,0.1122283935546875
1789550676500767200,5.426767333984375,-1.0330963134765625,-0.254119873046875,0.008087158203125
1789550676510736100,5.436736083984375,-1.0178375244140625,-0.2232666015625,0.0601348876953125
1789550676520704300,5.446704345703125,-0.9322662353515625,-0.2505950927734375,-0.0902252197265625
1789550676530673200,5.456673095703125,-0.90093994140625,-0.3220977783203125,-0.0532989501953125
1789550676540641300,5.466641357421875,-0.883087158203125,-0.359893798828125,-0.104705810546875
1789550676550610200,5.476610107421875,-0.9442596435546875,-0.2755889892578125,0.0122833251953125
1789550676560578300,5.486578369140625,-1.0066680908203125,-0.23394775390625,-0.023956298828125
1789550676570546400,5.49654638671875,-0.85272216796875,-0.3496551513671875,0.0304718017578125
1789550676580515300,5.506515380859375,-0.9652252197265625,-0.24835205078125,0.0133514404296875
1789550676590483500,5.5164833984375,-0.8720245361328125,-0.370513916015625,-0.04632568359375
1789550676600452400,5.526452392578125,-1.01678466796875,-0.2822418212890625,-0.0300140380859375
1789550676610420200,5.536420166015625,-1.081634521484375,-0.207000732421875,-0.01129150390625
1789550676620389000,5.54638916015625,-1.0709381103515625,-0.3007965087890625,-0.03594970703125
1789550676630357200,5.556357177734375,-1.016510009765625,-0.283843994140625,-0.1511383056640625
1789550676640326100,5.566326171875,-0.958587646484375,-0.25177001953125,-0.0759735107421875
1789550676650294300,5.576294189453125,-0.8917999267578125,-0.32452392578125,-0.1214447021484375
1789550676660262400,5.586262451171875,-0.8219146728515625,-0.4227752685546875,-0.146728515625
1789550676670231300,5.596231201171875,-0.8176727294921875,-0.3632659912109375,-0.1556549072265625
1789550676680199400,5.606199462890625,-0.832763671875,-0.3717041015625,-0.2020263671875
1789550676690168300,5.616168212890625,-0.870361328125,-0.3996429443359375,-0.185638427734375
1789550676700136400,5.626136474609375,-1.01666259765625,-0.290863037109375,-0.2382354736328125
1789550676710105300,5.636105224609375,-1.12237548828125,-0.2461090087890625,-0.1940765380859375
1789550676720073200,5.6460732421875,-1.20269775390625,-0.11175537109375,-0.098052978515625
1789550676730042000,5.6560419921875,-1.010650634765625,-0.2645111083984375,-0.11474609375
1789550676740010200,5.66601025390625,-0.89007568359375,-0.294464111328125,-0.13360595703125
1789550676749978400,5.675978271484375,-0.8201904296875,-0.2777557373046875,0.0292510986328125
1789550676759947300,5.685947265625,-0.8518829345703125,-0.2342529296875,0.1228790283203125
1789550676769915400,5.695915283203125,-0.8931121826171875,-0.2725067138671875,0.0455780029296875
1789550676779884300,5.70588427734375,-0.931060791015625,-0.2647247314453125,0.0069580078125
1789550676789852400,5.715852294921875,-0.9837188720703125,-0.3034210205078125,0.095794677734375
1789550676799821300,5.7258212890625,-1.085235595703125,-0.1430206298828125,0.0845489501953125
1789550676809789400,5.73578955078125,-1.2362518310546875,-0.0888824462890625,0.1008453369140625
1789550676819758300,5.74575830078125,-1.173248291015625,-0.2253570556640625,0.1653900146484375
1789550676829726200,5.755726318359375,-0.8870849609375,-0.3828125,0.108489990234375
1789550676839694300,5.7656943359375,-0.73858642578125,-0.503570556640625,0.18798828125
1789550676849663200,5.775663330078125,-0.802825927734375,-0.3845672607421875,0.1752777099609375
1789550676859631400,5.78563134765625,-0.876220703125,-0.3021392822265625,0.1185150146484375
1789550676869600300,5.795600341796875,-0.9820556640625,-0.2705841064453125,0.125885009765625
1789550676879568400,5.805568359375,-0.9800872802734375,-0.367340087890625,0.117523193359375
1789550676889537300,5.815537353515625,-0.86712646484375,-0.4173431396484375,-0.0364990234375
1789550676899505400,5.82550537109375,-0.9666900634765625,-0.3187713623046875,-0.0467987060546875
1789550676909474300,5.835474365234375,-0.97613525390625,-0.3387908935546875,0.0308837890625
1789550676919442400,5.8454423828125,-0.960479736328125,-0.4207763671875,-0.048553466796875
1789550676929410300,5.855410400390625,-0.9588623046875,-0.41632080078125,-0.16864013671875
1789550676939379200,5.865379150390625,-0.9387359619140625,-0.38763427734375,-0.223175048828125
1789550676949347300,5.875347412109375,-1.0120391845703125,-0.291534423828125,-0.1430511474609375
1789550676959316000,5.88531591796875,-1.006744384765625,-0.307464599609375,-0.1153717041015625
1789550676969283800,5.895283935546875,-0.9760284423828125,-0.31475830078125,-0.07598876953125
1789550676979253000,5.9052529296875,-1.040069580078125,-0.20489501953125,0.1351776123046875
1789550676989220900,5.915220947265625,-0.8968353271484375,-0.2752685546875,-0.035247802734375
1789550676999189800,5.925189697265625,-0.8388824462890625,-0.287933349609375,0.0669708251953125
1789550677009158000,5.935157958984375,-0.8855133056640625,-0.2495574951171875,0.1499481201171875
1789550677019126000,5.9451259765625,-0.935546875,-0.287322998046875,0.1070709228515625
1789550677029095000,5.955094970703125,-1.0663299560546875,-0.1871185302734375,-0.063201904296875
1789550677039063000,5.96506298828125,-1.050537109375,-0.2533721923828125,-0.1117401123046875
1789550677049032000,5.975031982421875,-1.009185791015625,-0.27099609375,0.049468994140625
1789550677059000000,5.985,-0.9224853515625,-0.249542236328125,-0.027313232421875
1789550677068969000,5.994968994140625,-0.7718505859375,-0.3510284423828125,-0.1382293701171875
1789550677078937000,6.00493701171875,-0.822845458984375,-0.384185791015625,0.0087890625
1789550677088905000,6.014905029296875,-0.999053955078125,-0.2662353515625,0.0293121337890625
1789550677098873900,6.024873779296875,-1.106719970703125,-0.2269744873046875,-0.096527099609375
1789550677108842000,6.034842041015625,-1.174285888671875,-0.266021728515625,-0.06036376953125
1789550677118811000,6.044810791015625,-1.0744476318359375,-0.2509002685546875,-0.0994720458984375
1789550677128779000,6.054779052734375,-0.9420166015625,-0.27789306640625,-0.203857421875
1789550677138748000,6.064747802734375,-0.8989105224609375,-0.2618865966796875,-0.015228271484375
1789550677148716000,6.074716064453125,-0.94512939453125,-0.221710205078125,0.129638671875
1789550677158685000,6.084684814453125,-0.9086151123046875,-0.179901123046875,-0.0905303955078125
1789550677168653000,6.094653076171875,-0.86053466796875,-0.2115325927734375,-0.1277313232421875
1789550677178621000,6.104620849609375,-0.871368408203125,-0.2975006103515625,0.084716796875
1789550677188590000,6.114590087890625,-0.9189910888671875,-0.2071075439453125,-0.0174407958984375
1789550677198558000,6.124557861328125,-0.8593292236328125,-0.196868896484375,-0.0890045166015625
1789550677208526800,6.13452685546875,-0.9507598876953125,-0.1488494873046875,0.03515625
1789550677218495000,6.144494873046875,-1.0943450927734375,-0.1628265380859375,-0.00384521484375
1789550677228463900,6.1544638671875,-1.0838470458984375,-0.26861572265625,0.0520782470703125
1789550677238432000,6.164431884765625,-1.1572265625,-0.2477264404296875,0.2751922607421875
1789550677248401000,6.17440087890625,-1.0213470458984375,-0.25164794921875,0.2285919189453125
1789550677258369000,6.184369140625,-0.8845062255859375,-0.3922576904296875,0.1632080078125
1789550677268337000,6.1943369140625,-0.9079132080078125,-0.3659210205078125,0.07464599609375
1789550677278306000,6.20430615234375,-0.880218505859375,-0.3530731201171875,0.1278533935546875
1789550677288274200,6.214274169921875,-0.8801727294921875,-0.348663330078125,0.175079345703125
1789550677298243000,6.2242431640625,-0.8787384033203125,-0.415802001953125,-0.0173797607421875
1789550677308211000,6.2342109375,-0.91253662109375,-0.4675140380859375,0.0000152587890625
1789550677318179800,6.244179931640625,-1.035430908203125,-0.333465576171875,-0.09033203125
1789550677328148000,6.25414794921875,-1.0254058837890625,-0.331085205078125,-0.066253662109375
1789550677338115800,6.26411572265625,-1.0250091552734375,-0.345458984375,-0.075958251953125
1789550677348085000,6.2740849609375,-1.09295654296875,-0.2660675048828125,-0.063507080078125
1789550677358052900,6.284052978515625,-1.15887451171875,-0.2237396240234375,-0.124359130859375
1789550677368022000,6.29402197265625,-1.052215576171875,-0.3115081787109375,-0.09442138671875
1789550677377990000,6.303989990234375,-1.00445556640625,-0.3787384033203125,-0.119476318359375
1789550677387959000,6.313958984375,-0.922149658203125,-0.3423309326171875,-0.1641998291015625
1789550677397927200,6.32392724609375,-0.8789520263671875,-0.3176422119140625,0.009063720703125
1789550677407896000,6.33389599609375,-0.7742919921875,-0.333984375,-0.070404052734375
1789550677417864000,6.343864013671875,-0.7422027587890625,-0.3026275634765625,-0.149139404296875
1789550677427831800,6.353831787109375,-0.7494964599609375,-0.327484130859375,-0.0484771728515625
1789550677437801000,6.363801025390625,-0.6920013427734375,-0.3472747802734375,0.01983642578125
1789550677447768800,6.373768798828125,-0.8416748046875,-0.2305755615234375,0.01531982421875
1789550677457738000,6.383738037109375,-0.995452880859375,-0.16558837890625,-0.09375
1789550677467705900,6.393705810546875,-1.08984375,-0.1497955322265625,-0.18182373046875
1789550677477675000,6.403675048828125,-1.11181640625,-0.11865234375,-0.1726226806640625
1789550677487643000,6.413642822265625,-0.9925994873046875,-0.2140045166015625,-0.1032257080078125
1789550677497611000,6.423611083984375,-0.83984375,-0.3541717529296875,-0.1418609619140625
1789550677507580200,6.433580078125,-0.809234619140625,-0.340606689453125,-0.1457061767578125
1789550677517547800,6.4435478515625,-0.8339996337890625,-0.3435211181640625,-0.128936767578125
1789550677527517000,6.453516845703125,-0.865814208984375,-0.4443511962890625,-0.0697021484375
1789550677537484800,6.46348486328125,-0.9905242919921875,-0.3366851806640625,-0.082244873046875
1789550677547454000,6.473453857421875,-1.0642852783203125,-0.363067626953125,-0.0422210693359375
1789550677557421800,6.483421875,-1.1018524169921875,-0.3129425048828125,0.04461669921875
1789550677567391000,6.493390869140625,-1.0865020751953125,-0.35211181640625,0.1324310302734375
1789550677577358800,6.50335888671875,-1.0428009033203125,-0.3816680908203125,0.0930023193359375
1789550677587327000,6.513326904296875,-0.975738525390625,-0.4142913818359375,0.0785064697265625
1789550677597295900,6.5232958984375,-0.9325408935546875,-0.42620849609375,0.0032501220703125
1789550677607264000,6.533263916015625,-0.7865447998046875,-0.4769134521484375,0.0520172119140625
1789550677617233200,6.543233154296875,-0.78033447265625,-0.4600372314453125,-0.0080108642578125
1789550677627200800,6.55320068359375,-0.897430419921875,-0.386688232421875,-0.09710693359375
1789550677637170000,6.563169921875,-0.9890289306640625,-0.2994537353515625,-0.0299530029296875
1789550677647137800,6.5731376953125,-1.0924224853515625,-0.2121124267578125,0.000152587890625
1789550677657106000,6.58310595703125,-1.209716796875,-0.0999908447265625,0.031982421875
1789550677667074800,6.59307470703125,-1.0178985595703125,-0.1870574951171875,0.0096435546875
1789550677677043000,6.60304296875,-0.8438262939453125,-0.220947265625,0.0655975341796875
1789550677687011800,6.61301171875,-0.770416259765625,-0.1834564208984375,0.0458526611328125
1789550677696980000,6.62297998046875,-0.8967437744140625,0.01123046875,0.0682373046875
1789550677706949000,6.63294921875,-0.87579345703125,-0.1129150390625,0.1636962890625
1789550677716917000,6.6429169921875,-0.9571075439453125,-0.1412506103515625,0.05029296875
1789550677726884900,6.652884765625,-1.0412750244140625,-0.1399993896484375,0.1362762451171875
1789550677736853800,6.662853759765625,-1.0246734619140625,-0.15069580078125,-0.0391998291015625
1789550677746822000,6.67282177734375,-1.0595703125,-0.1943817138671875,0.06402587890625
1789550677756790800,6.682790771484375,-1.085601806640625,-0.1809539794921875,-0.04779052734375
1789550677766759000,6.692759033203125,-0.9449310302734375,-0.23919677734375,0.0781097412109375
1789550677776727800,6.702727783203125,-0.84906005859375,-0.324462890625,0.0716400146484375
1789550677786696000,6.712696044921875,-0.8713226318359375,-0.325225830078125,-0.0411224365234375
1789550677796664800,6.722664794921875,-0.9908294677734375,-0.285919189453125,0.0332183837890625
1789550677806633000,6.732633056640625,-1.2196197509765625,-0.1973876953125,0.17987060546875
1789550677816601000,6.74260107421875,-1.1885528564453125,-0.3821563720703125,0.0876617431640625
1789550677826570000,6.752570068359375,-0.9731292724609375,-0.45623779296875,-0.0396270751953125
1789550677836537900,6.762537841796875,-0.826141357421875,-0.380157470703125,0.0110015869140625
1789550677846506800,6.7725068359375,-0.69915771484375,-0.5003204345703125,0.1126251220703125
1789550677856475000,6.782474853515625,-1.0159759521484375,-0.3310699462890625,0.131439208984375
1789550677866443800,6.79244384765625,-1.2615814208984375,-0.3470611572265625,0.0584259033203125
1789550677876412000,6.802411865234375,-1.436279296875,-0.356353759765625,-0.0845947265625
1789550677886380000,6.812380126953125,-1.40069580078125,-0.3412322998046875,-0.006011962890625
1789550677896349000,6.822348876953125,-1.0251312255859375,-0.418365478515625,-0.165740966796875
1789550677906317000,6.832317138671875,-0.75653076171875,-0.4707489013671875,-0.097076416015625
1789550677916286000,6.842285888671875,-0.4959564208984375,-0.56207275390625,-0.1008148193359375
1789550677926254000,6.852254150390625,-0.54669189453125,-0.385101318359375,-0.1965484619140625
1789550677936223000,6.862222900390625,-0.6734161376953125,-0.331085205078125,-0.1914520263671875
1789550677946190800,6.87219091796875,-0.928009033203125,-0.1895751953125,-0.279571533203125
1789550677956159200,6.8821591796875,-1.080352783203125,-0.0963287353515625,-0.2422332763671875
1789550677966128000,6.892128173828125,-0.9973602294921875,-0.115020751953125,-0.1924896240234375
1789550677976096300,6.90209619140625,-0.859283447265625,-0.1278076171875,-0.0602264404296875
1789550677986065200,6.912065185546875,-0.86663818359375,-0.090179443359375,0.0531768798828125
1789550677996033300,6.922033203125,-0.892822265625,-0.1185302734375,0.0180816650390625
1789550678006002200,6.932002197265625,-0.927978515625,-0.19354248046875,0.01080322265625
1789550678015970300,6.94197021484375,-0.921051025390625,-0.3272857666015625,-0.114288330078125
1789550678025938000,6.95193798828125,-0.922393798828125,-0.331207275390625,-0.1375732421875
1789550678035907000,6.961906982421875,-0.95574951171875,-0.1413116455078125,-0.0344696044921875
1789550678045875200,6.971875244140625,-0.8722381591796875,-0.17364501953125,-0.0527801513671875
1789550678055844000,6.981843994140625,-0.94927978515625,-0.251556396484375,-0.1567230224609375
1789550678065812200,6.991812255859375,-1.04925537109375,-0.348541259765625,-0.1011962890625
1789550678075781000,7.001781005859375,-1.175628662109375,-0.3277435302734375,-0.0835113525390625
1789550678085749200,7.011749267578125,-1.044036865234375,-0.3717193603515625,-0.1348419189453125
1789550678095717000,7.021717041015625,-0.8631134033203125,-0.391204833984375,-0.108673095703125
1789550678105686300,7.031686279296875,-0.846923828125,-0.2704925537109375,-0.0904083251953125
1789550678115654100,7.041654052734375,-0.9437408447265625,-0.2305145263671875,0.0053863525390625
1789550678125623300,7.051623291015625,-1.00982666015625,-0.2813262939453125,0.003326416015625
1789550678135591000,7.0615908203125,-1.0585784912109375,-0.2402801513671875,-0.072174072265625
1789550678145560000,7.07156005859375,-0.9306793212890625,-0.35052490234375,0.005645751953125
1789550678155528200,7.081528076171875,-1.0024566650390625,-0.2491455078125,0.031707763671875
1789550678165496000,7.09149609375,-0.9996337890625,-0.3084716796875,0.0534820556640625
1789550678175465200,7.10146533203125,-1.21002197265625,-0.1970977783203125,0.0748291015625
1789550678185433000,7.11143310546875,-1.237335205078125,-0.180267333984375,0.1659393310546875
1789550678195402200,7.12140234375,-0.969970703125,-0.36041259765625,0.1417694091796875
1789550678205370000,7.1313701171875,-0.8251953125,-0.371978759765625,0.084075927734375
1789550678215339300,7.14133935546875,-0.913970947265625,-0.257415771484375,0.2110595703125
1789550678225307100,7.15130712890625,-1.034149169921875,-0.213134765625,0.1964874267578125
1789550678235275000,7.16127490234375,-0.9652252197265625,-0.2805023193359375,0.2488861083984375
1789550678245244000,7.171243896484375,-0.8788604736328125,-0.31195068359375,0.1605072021484375
1789550678255212000,7.1812119140625,-0.7831573486328125,-0.391326904296875,0.10748291015625
1789550678265181200,7.19118115234375,-0.8520660400390625,-0.3279876708984375,0.26629638671875
1789550678275149000,7.201149169921875,-0.9855194091796875,-0.1629486083984375,0.2119598388671875
1789550678285118200,7.2111181640625,-0.920257568359375,-0.293792724609375,0.16192626953125
1789550678295086000,7.221086181640625,-0.9853057861328125,-0.2807464599609375,0.0964202880859375
1789550678305054200,7.23105419921875,-1.00555419921875,-0.2947845458984375,0.0590057373046875
1789550678315023000,7.241023193359375,-0.97857666015625,-0.2854156494140625,0.04388427734375
1789550678324991200,7.2509912109375,-0.942962646484375,-0.2945098876953125,0.0987701416015625
1789550678334960000,7.260960205078125,-0.9306640625,-0.3172760009765625,-0.042266845703125
1789550678344928000,7.270927978515625,-0.867767333984375,-0.413818359375,-0.015350341796875
1789550678354897200,7.280897216796875,-0.9357147216796875,-0.29638671875,-0.0477752685546875
1789550678364865000,7.290864990234375,-0.978729248046875,-0.17401123046875,-0.0666046142578125
1789550678374833200,7.300833251953125,-0.9986724853515625,-0.2052459716796875,0.0302276611328125
1789550678384802000,7.310802001953125,-1.07281494140625,-0.194427490234375,0.082427978515625
1789550678394770200,7.320770263671875,-1.0887298583984375,-0.213897705078125,0.0674285888671875
1789550678404739000,7.330739013671875,-1.0230255126953125,-0.2595977783203125,0.04949951171875
1789550678414707200,7.340707275390625,-0.98455810546875,-0.1862945556640625,-0.0045166015625
1789550678424676000,7.350676025390625,-0.892974853515625,-0.2784881591796875,0.02691650390625
1789550678434644200,7.360644287109375,-0.8449249267578125,-0.333648681640625,0.049835205078125
1789550678444612000,7.370612060546875,-0.9805145263671875,-0.279144287109375,0.0344085693359375
1789550678454581200,7.380581298828125,-0.96722412109375,-0.2778167724609375,0.0259246826171875
1789550678464549000,7.390549072265625,-0.9371795654296875,-0.227447509765625,-0.017333984375
1789550678474518000,7.40051806640625,-0.9019012451171875,-0.276031494140625,-0.055023193359375
1789550678484486100,7.410486083984375,-0.9394073486328125,-0.2476806640625,-0.008056640625
1789550678494455000,7.420455078125,-1.0281219482421875,-0.2144317626953125,-0.0619354248046875
1789550678504423200,7.430423095703125,-0.99755859375,-0.2256317138671875,-0.0216827392578125
1789550678514391300,7.440391357421875,-0.87396240234375,-0.3190460205078125,-0.011383056640625
1789550678524360200,7.450360107421875,-0.8098297119140625,-0.3862762451171875,-0.063629150390625
1789550678534328300,7.460328369140625,-0.791961669921875,-0.4234161376953125,0.0656280517578125
1789550678544297200,7.470297119140625,-0.8774261474609375,-0.407928466796875,-0.0245361328125
1789550678554265300,7.480265380859375,-1.02435302734375,-0.29193115234375,-0.00311279296875
1789550678564234200,7.490234130859375,-1.0220184326171875,-0.3251800537109375,-0.041900634765625
1789550678574202000,7.5002021484375,-0.90362548828125,-0.4331512451171875,0.0145263671875
1789550678584170000,7.510169921875,-0.915313720703125,-0.3092193603515625,0.0078887939453125
1789550678594139100,7.52013916015625,-0.88055419921875,-0.314361572265625,-0.0480194091796875
1789550678604107300,7.530107177734375,-0.9901123046875,-0.2534027099609375,-0.0228118896484375
1789550678614076200,7.540076171875,-1.012908935546875,-0.2823028564453125,0.0421295166015625
1789550678624044300,7.550044189453125,-1.0018768310546875,-0.27105712890625,0.0524444580078125
1789550678634013200,7.56001318359375,-0.9633026123046875,-0.2236785888671875,0.0924530029296875
1789550678643981300,7.569981201171875,-0.9366912841796875,-0.23681640625,-0.041717529296875
1789550678653949200,7.57994921875,-0.9577178955078125,-0.2228240966796875,0.0188140869140625
1789550678663918300,7.58991845703125,-1.022674560546875,-0.256072998046875,-0.05816650390625
1789550678673886000,7.599885986328125,-1.048858642578125,-0.25634765625,0.119964599609375
1789550678683855000,7.609855224609375,-0.91986083984375,-0.235626220703125,0.1067962646484375
1789550678693823000,7.619822998046875,-0.9324188232421875,-0.2550506591796875,-0.0466156005859375
1789550678703791000,7.629791015625,-0.9903717041015625,-0.2574462890625,-0.04656982421875
1789550678713760300,7.63976025390625,-1.1362762451171875,-0.1538848876953125,0.028961181640625
1789550678723728100,7.64972802734375,-1.1578826904296875,-0.2017822265625,0.094818115234375
1789550678733697300,7.659697265625,-1.045684814453125,-0.2968292236328125,0.038360595703125
1789550678743665200,7.6696650390625,-0.9066619873046875,-0.32366943359375,-0.0545196533203125
1789550678753634300,7.67963427734375,-0.7458648681640625,-0.443817138671875,-0.0710296630859375
1789550678763602200,7.689602294921875,-0.8514404296875,-0.3347015380859375,0.036712646484375
1789550678773570000,7.699570068359375,-0.9476470947265625,-0.2484130859375,-0.065032958984375
1789550678783539000,7.7095390625,-0.9970550537109375,-0.30877685546875,-0.00421142578125
1789550678793507000,7.719507080078125,-1.11505126953125,-0.2104339599609375,0.003631591796875
1789550678803476000,7.72947607421875,-1.12628173828125,-0.2541656494140625,0.047119140625
1789550678813444000,7.739444091796875,-1.0145263671875,-0.2639923095703125,0.0606842041015625
1789550678823413200,7.749413330078125,-0.85791015625,-0.3575592041015625,-0.0023956298828125
1789550678833381000,7.759381103515625,-0.8394317626953125,-0.3758697509765625,-0.051666259765625
1789550678843349200,7.769349365234375,-0.916259765625,-0.263092041015625,0.0144500732421875
1789550678853318100,7.779318115234375,-0.871246337890625,-0.3122406005859375,-0.013824462890625
1789550678863286300,7.789286376953125,-0.877838134765625,-0.3103179931640625,0.01171875
1789550678873255200,7.799255126953125,-0.862274169921875,-0.3665771484375,-0.017303466796875
1789550678883223000,7.80922314453125,-0.9391937255859375,-0.268280029296875,0.0490264892578125
1789550678893192000,7.81919189453125,-1.069091796875,-0.1289215087890625,-0.0810394287109375
1789550678903160000,7.82916015625,-1.075439453125,-0.1920013427734375,-0.1028900146484375
1789550678913128200,7.839128173828125,-1.052459716796875,-0.264373779296875,-0.138275146484375
1789550678923097000,7.84909716796875,-0.8551788330078125,-0.3601531982421875,-0.06597900390625
1789550678933065200,7.859065185546875,-0.801788330078125,-0.335235595703125,0.0131988525390625
1789550678943034000,7.8690341796875,-0.8509368896484375,-0.2468109130859375,0.01873779296875
1789550678953002200,7.879002197265625,-0.892913818359375,-0.190277099609375,0.046722412109375
1789550678962971600,7.8889716796875,-0.9513397216796875,-0.1685943603515625,-0.0101165771484375
1789550678972939800,7.898939697265625,-0.9591064453125,-0.2374420166015625,-0.0630340576171875
1789550678982907600,7.90890771484375,-1.0573883056640625,-0.155242919921875,-0.0688934326171875
1789550678992876800,7.918876708984375,-1.0164794921875,-0.1851348876953125,-0.1173553466796875
1789550679002844700,7.9288447265625,-0.9798431396484375,-0.2450103759765625,-0.087860107421875
1789550679012813600,7.9388134765625,-1.0187835693359375,-0.2863616943359375,0.0146484375
1789550679022781700,7.94878173828125,-0.9860992431640625,-0.2862548828125,-0.0128936767578125
1789550679032749600,7.95874951171875,-0.9230499267578125,-0.23883056640625,-0.0828857421875
1789550679042718700,7.96871875,-0.9627838134765625,-0.25103759765625,-0.004669189453125
1789550679052686600,7.9786865234375,-0.985595703125,-0.3374786376953125,-0.07568359375
1789550679062655700,7.98865576171875,-0.9916839599609375,-0.31207275390625,0.0999603271484375
1789550679072623600,7.99862353515625,-0.9803009033203125,-0.3354339599609375,-0.0705413818359375
1789550679082592800,8.0085927734375,-0.8800811767578125,-0.3805389404296875,-0.0649871826171875
1789550679092561000,8.018560791015625,-0.8917083740234375,-0.3170166015625,0.04168701171875
1789550679102528500,8.028528564453126,-0.847686767578125,-0.3873748779296875,0.0483551025390625
1789550679112497700,8.03849755859375,-1.0096588134765625,-0.247344970703125,-0.0235443115234375
1789550679122465500,8.048465576171875,-1.0720062255859375,-0.15521240234375,-0.0207366943359375
1789550679132434700,8.0584345703125,-0.983123779296875,-0.3119049072265625,-0.02099609375
1789550679142402600,8.068402587890626,-0.97021484375,-0.319976806640625,0.05487060546875
1789550679152370700,8.07837060546875,-0.8905181884765625,-0.2855987548828125,0.03466796875
1789550679162339600,8.088339599609375,-0.8614349365234375,-0.3026123046875,0.10919189453125
1789550679172307700,8.0983076171875,-0.8914031982421875,-0.298004150390625,0.018280029296875
1789550679182276600,8.108276611328124,-0.987640380859375,-0.20355224609375,-0.0466156005859375
1789550679192244700,8.11824462890625,-0.980316162109375,-0.2604522705078125,0.038055419921875
1789550679202214000,8.1282138671875,-0.988433837890625,-0.17987060546875,0.0313568115234375
1789550679212181500,8.138181396484375,-0.9905548095703125,-0.17578125,0.0577545166015625
1789550679222149600,8.148149658203126,-0.991119384765625,-0.21783447265625,-0.027191162109375
1789550679232118500,8.158118408203125,-1.0889129638671875,-0.217498779296875,-0.0716705322265625
1789550679242086700,8.168086669921875,-1.0760650634765625,-0.2646942138671875,-0.081756591796875
1789550679252055600,8.1780556640625,-1.068206787109375,-0.2996826171875,-0.05120849609375
1789550679262023700,8.188023681640624,-0.9629669189453125,-0.383941650390625,-0.1172332763671875
1789550679271992600,8.19799267578125,-0.8164825439453125,-0.4506072998046875,-0.127410888671875
1789550679281960700,8.207960693359375,-0.8296661376953125,-0.3997955322265625,-0.1654510498046875
1789550679291928800,8.2179287109375,-0.8031768798828125,-0.367034912109375,-0.1298370361328125
1789550679301897700,8.227897705078124,-0.9311370849609375,-0.26483154296875,-0.2042999267578125
1789550679311865600,8.237865478515625,-1.078857421875,-0.1773681640625,-0.2228851318359375
1789550679321834800,8.247834716796875,-1.1507568359375,-0.2238311767578125,-0.13128662109375
1789550679331802600,8.257802734375,-1.026275634765625,-0.271453857421875,-0.15533447265625
1789550679341770800,8.267770751953124,-0.879852294921875,-0.2873992919921875,-0.0600433349609375
1789550679351739600,8.27773974609375,-0.85882568359375,-0.2719573974609375,-0.0896453857421875
1789550679361707800,8.287707763671875,-0.8683624267578125,-0.3093719482421875,0.0316162109375
1789550679371676700,8.2976767578125,-0.8982391357421875,-0.237823486328125,0.0221710205078125
1789550679381644800,8.307644775390624,-0.8450927734375,-0.3237762451171875,-0.002838134765625
1789550679391613700,8.31761376953125,-0.9204864501953125,-0.2608795166015625,0.082550048828125
1789550679401581800,8.327581787109375,-1.00115966796875,-0.196929931640625,-0.00958251953125
1789550679411549700,8.3375498046875,-1.0729522705078125,-0.1443634033203125,0.0358123779296875
1789550679421518800,8.347518798828125,-1.101531982421875,-0.1951141357421875,-0.01617431640625
1789550679431486700,8.35748681640625,-1.088409423828125,-0.2536468505859375,0.08966064453125
1789550679441455600,8.36745556640625,-1.0210113525390625,-0.2971038818359375,0.026824951171875
1789550679451423700,8.377423828125,-0.9085235595703125,-0.3029022216796875,0.0601348876953125
1789550679461391600,8.3873916015625,-0.876953125,-0.2972869873046875,0.0419769287109375
1789550679471360800,8.39736083984375,-0.893707275390625,-0.3200225830078125,0.0257568359375
1789550679481328600,8.40732861328125,-1.02813720703125,-0.2088165283203125,0.02130126953125
1789550679491297800,8.4172978515625,-1.0282440185546875,-0.3360748291015625,0.061065673828125
1789550679501265700,8.427265625,-1.01983642578125,-0.3202362060546875,0.11199951171875
1789550679511234800,8.43723486328125,-0.8627777099609375,-0.3494873046875,0.19769287109375
1789550679521202700,8.44720263671875,-0.8333740234375,-0.40850830078125,0.080047607421875
1789550679531170600,8.457170654296876,-1.0504608154296875,-0.238128662109375,0.062744140625
1789550679541139700,8.4671396484375,-1.0037384033203125,-0.3183135986328125,0.0486907958984375
1789550679551107600,8.477107666015625,-0.908233642578125,-0.3893585205078125,0.117218017578125
1789550679561076700,8.48707666015625,-0.84881591796875,-0.3739471435546875,0.1304931640625
1789550679571044600,8.497044677734374,-0.9391937255859375,-0.225128173828125,0.0631103515625
1789550679581012700,8.5070126953125,-0.952362060546875,-0.2875518798828125,0.068878173828125
1789550679590981600,8.516981689453125,-0.9238128662109375,-0.3871002197265625,0.0261993408203125
1789550679600949800,8.52694970703125,-0.9863433837890625,-0.26763916015625,0.03369140625
1789550679610918700,8.536918701171874,-0.9487457275390625,-0.2516632080078125,-0.00390625
1789550679620886800,8.54688671875,-0.9884490966796875,-0.2038116455078125,0.0871734619140625
1789550679630855700,8.556855712890625,-0.989776611328125,-0.241058349609375,-0.0073089599609375
1789550679640823600,8.566823486328126,-0.9510040283203125,-0.2827606201171875,0.1146697998046875
1789550679650791700,8.576791748046874,-1.0254058837890625,-0.255889892578125,0.06036376953125
1789550679660760600,8.586760498046875,-0.97265625,-0.292327880859375,0.068206787109375
1789550679670728700,8.596728759765625,-0.9817352294921875,-0.295501708984375,0.05316162109375
1789550679680697600,8.606697509765626,-0.88531494140625,-0.343658447265625,-0.018707275390625
1789550679690665700,8.616665771484374,-0.8203887939453125,-0.352142333984375,0.0567779541015625
1789550679700634600,8.626634521484375,-0.7747650146484375,-0.3825836181640625,0.052154541015625
1789550679710602800,8.636602783203125,-0.8748931884765625,-0.279937744140625,0.008636474609375
1789550679720571000,8.64657080078125,-0.987274169921875,-0.17340087890625,0.0289154052734375
1789550679730539800,8.656539794921875,-1.0941619873046875,-0.2110137939453125,0.0032501220703125
1789550679740507600,8.666507568359375,-1.2206573486328125,-0.1700592041015625,0.0729217529296875
1789550679750476500,8.6764765625,-1.0444488525390625,-0.2693328857421875,-0.0050048828125
1789550679760444700,8.686444580078126,-0.9080047607421875,-0.316558837890625,-0.0054473876953125
1789550679770412800,8.696412841796874,-0.8274688720703125,-0.2831573486328125,0.0486907958984375
1789550679780381700,8.706381591796875,-0.792938232421875,-0.3501129150390625,0.11944580078125
1789550679790349800,8.716349853515625,-0.8317413330078125,-0.3409423828125,0.0971832275390625
1789550679800318700,8.726318603515624,-0.8629150390625,-0.3398590087890625,0.10693359375
1789550679810286800,8.736286865234375,-0.861846923828125,-0.3393707275390625,0.0399932861328125
1789550679820254700,8.746254638671875,-0.9903106689453125,-0.2031097412109375,0.053070068359375
1789550679830224000,8.756223876953126,-1.054168701171875,-0.167327880859375,0.07867431640625
1789550679840191500,8.76619140625,-1.0764617919921875,-0.24200439453125,0.000274658203125
1789550679850160600,8.77616064453125,-1.1105804443359375,-0.27679443359375,-0.032470703125
1789550679860128800,8.786128662109375,-1.072113037109375,-0.2025604248046875,-0.1196441650390625
1789550679870097700,8.79609765625,-0.967681884765625,-0.21881103515625,-0.0003204345703125
1789550679880065800,8.806065673828124,-0.8717498779296875,-0.3163299560546875,-0.0954132080078125
1789550679890033700,8.81603369140625,-0.9392547607421875,-0.209381103515625,0.0250091552734375
1789550679900002800,8.8260029296875,-0.927093505859375,-0.29827880859375,0.03070068359375
1789550679909970700,8.835970703125,-0.94708251953125,-0.266510009765625,-0.0807037353515625
1789550679919939800,8.84593994140625,-1.033721923828125,-0.1679229736328125,-0.019378662109375
1789550679929907700,8.85590771484375,-0.9636077880859375,-0.272125244140625,-0.02838134765625
1789550679939875600,8.86587548828125,-0.8942108154296875,-0.378570556640625,0.07183837890625
1789550679949844500,8.875844482421876,-1.04754638671875,-0.208831787109375,-0.006866455078125
1789550679959812600,8.8858125,-1.1322021484375,-0.178375244140625,-0.0763092041015625
1789550679969781200,8.89578125,-1.0604095458984375,-0.3096771240234375,0.0539703369140625
1789550679979749000,8.9057490234375,-0.984649658203125,-0.25372314453125,0.079864501953125
1789550679989718300,8.91571826171875,-0.862579345703125,-0.336273193359375,0.041229248046875
1789550679999686100,8.92568603515625,-0.7828216552734375,-0.42755126953125,-0.074188232421875
1789550680009654000,8.935654052734375,-0.7783203125,-0.287445068359375,-0.0641632080078125
1789550680019623200,8.945623046875,-0.85162353515625,-0.2852630615234375,-0.1228790283203125
1789550680029591000,8.955591064453126,-1.023345947265625,-0.186614990234375,-0.134979248046875
1789550680039560200,8.965560302734374,-1.0770111083984375,-0.1946868896484375,0.122100830078125
1789550680049528000,8.975528076171875,-1.0605010986328125,-0.2430419921875,0.01605224609375
1789550680059496200,8.98549609375,-1.0219573974609375,-0.2372894287109375,0.039520263671875
1789550680069465000,8.995465087890626,-0.953826904296875,-0.2757568359375,0.0078887939453125
1789550680079433200,9.00543310546875,-0.9808502197265625,-0.2925567626953125,-0.0796051025390625
1789550680089402000,9.015402099609375,-1.0311737060546875,-0.2876129150390625,0.010284423828125
1789550680099370200,9.025370361328125,-1.018463134765625,-0.2869415283203125,0.0536346435546875
1789550680109338000,9.035338134765626,-0.8960418701171875,-0.33642578125,0.038848876953125
1789550680119307000,9.04530712890625,-0.827117919921875,-0.3333740234375,0.0052490234375
1789550680129275100,9.055275146484375,-0.8603057861328125,-0.2866668701171875,-0.12445068359375
1789550680139244000,9.065244140625,-0.98089599609375,-0.2411651611328125,-0.1214752197265625
1789550680149212200,9.075212158203126,-1.1057586669921875,-0.1791229248046875,-0.024993896484375
1789550680159181000,9.08518115234375,-1.1274871826171875,-0.2462005615234375,0.03253173828125
1789550680169149200,9.095149169921875,-1.0344085693359375,-0.283905029296875,-0.0418853759765625
1789550680179117300,9.105117431640625,-0.9630584716796875,-0.30816650390625,-0.0439453125
1789550680189086200,9.115086181640624,-0.89874267578125,-0.395111083984375,-0.0931243896484375
1789550680199054300,9.125054443359375,-0.8948822021484375,-0.317626953125,0.022918701171875
1789550680209023200,9.135023193359375,-0.9013824462890625,-0.2756500244140625,-0.02313232421875
1789550680218991000,9.1449912109375,-0.893798828125,-0.30792236328125,-0.060028076171875
1789550680228959000,9.154958984375,-0.9503021240234375,-0.3126220703125,-0.0951995849609375
1789550680238928100,9.16492822265625,-1.0167694091796875,-0.26513671875,-0.11907958984375
1789550680248896000,9.17489599609375,-0.990936279296875,-0.248382568359375,-0.093597412109375
1789550680258865200,9.184865234375,-0.9718017578125,-0.2673187255859375,-0.1295928955078125
1789550680268833300,9.194833251953124,-0.93768310546875,-0.2935943603515625,-0.094207763671875
1789550680278801200,9.20480126953125,-0.974578857421875,-0.1534576416015625,-0.09124755859375
1789550680288770300,9.214770263671875,-0.96148681640625,-0.1753082275390625,-0.1142120361328125
1789550680298738200,9.22473828125,-0.9477691650390625,-0.2278289794921875,-0.019927978515625
1789550680308707300,9.234707275390624,-0.9468536376953125,-0.1832733154296875,-0.0249786376953125
1789550680318675000,9.244675048828125,-0.9441375732421875,-0.290985107421875,-0.0617218017578125
1789550680328644000,9.25464404296875,-1.019073486328125,-0.1686553955078125,-0.020538330078125
1789550680338612000,9.264612060546876,-1.005767822265625,-0.1426544189453125,0.0639190673828125
1789550680348580000,9.274580078125,-0.8814544677734375,-0.3157196044921875,0.050994873046875
1789550680358549000,9.284549072265625,-0.925079345703125,-0.2608489990234375,0.0378570556640625
1789550680368517000,9.29451708984375,-1.0165252685546875,-0.1803436279296875,0.0594024658203125
1789550680378486300,9.304486328125,-0.981536865234375,-0.23321533203125,0.007843017578125
1789550680388454100,9.3144541015625,-0.9376983642578125,-0.3205108642578125,0.0830841064453125
1789550680398422300,9.32442236328125,-1.021759033203125,-0.2049102783203125,0.0290374755859375
1789550680408391200,9.33439111328125,-0.9008636474609375,-0.3306427001953125,-0.051513671875
1789550680418359000,9.344359130859376,-0.771759033203125,-0.46685791015625,-0.10784912109375
1789550680428328000,9.354327880859374,-0.81427001953125,-0.258697509765625,-0.097503662109375
1789550680438296000,9.364296142578125,-0.7800140380859375,-0.3448333740234375,-0.032501220703125
1789550680448265000,9.374264892578125,-0.984588623046875,-0.1790771484375,0.0465087890625
1789550680458233000,9.384233154296876,-1.0728912353515625,-0.235504150390625,0.056060791015625
1789550680468201200,9.394201171875,-1.111419677734375,-0.2308807373046875,0.061737060546875
1789550680478170000,9.404170166015625,-1.0662841796875,-0.253143310546875,0.057769775390625
1789550680488138200,9.41413818359375,-1.07489013671875,-0.26409912109375,0.0117034912109375
1789550680498107100,9.424107177734374,-0.9320068359375,-0.38702392578125,-0.055572509765625
1789550680508075300,9.4340751953125,-0.7767181396484375,-0.440216064453125,-0.03155517578125
1789550680518043100,9.444043212890625,-0.7886505126953125,-0.375579833984375,0.00286865234375
1789550680528012000,9.454011962890625,-0.771575927734375,-0.384490966796875,0.0501251220703125
1789550680537980200,9.463980224609376,-0.9073028564453125,-0.2936859130859375,0.060943603515625
1789550680547949000,9.473948974609375,-0.8369598388671875,-0.3190765380859375,-0.0241546630859375
1789550680557917200,9.483917236328125,-0.8181610107421875,-0.2951812744140625,-0.097015380859375
1789550680567885000,9.493885009765625,-0.9653167724609375,-0.234130859375,-0.098968505859375
1789550680577854200,9.503854248046874,-1.105621337890625,-0.1585540771484375,-0.016571044921875
1789550680587822000,9.513822021484375,-1.322967529296875,-0.0605621337890625,-0.040252685546875
1789550680597791200,9.523791259765625,-1.211761474609375,-0.2546234130859375,0.042877197265625
1789550680607759400,9.53375927734375,-1.0442352294921875,-0.38165283203125,-0.01824951171875
1789550680617728300,9.543728271484374,-0.9123382568359375,-0.3115234375,-0.0269775390625
1789550680627696000,9.553696044921875,-0.8075714111328125,-0.27886962890625,-0.018646240234375
1789550680637664000,9.5636640625,-0.76019287109375,-0.3476715087890625,0.0316314697265625
1789550680647633200,9.573633056640626,-0.8769378662109375,-0.3007354736328125,0.07733154296875
1789550680657601000,9.58360107421875,-0.9496307373046875,-0.2167510986328125,0.0951385498046875
1789550680667570200,9.593570068359375,-0.9676971435546875,-0.2096099853515625,0.0624847412109375
1789550680677538000,9.6035380859375,-1.032379150390625,-0.272430419921875,0.041534423828125
1789550680687506200,9.613506103515626,-1.1091461181640625,-0.2676239013671875,-0.0817413330078125
1789550680697475000,9.62347509765625,-1.069183349609375,-0.227691650390625,0.0807037353515625
1789550680707443200,9.633443115234375,-0.95751953125,-0.25811767578125,0.0638580322265625
1789550680717412400,9.643412353515625,-0.9004974365234375,-0.292327880859375,0.02099609375
1789550680727380000,9.6533798828125,-0.9376678466796875,-0.2448883056640625,-0.026336669921875
1789550680737349000,9.66334912109375,-0.9330596923828125,-0.287139892578125,0.0312652587890625
1789550680747317000,9.67331689453125,-0.9656524658203125,-0.2779998779296875,0.152557373046875
1789550680757285000,9.68328515625,-1.0407867431640625,-0.240142822265625,0.09246826171875
1789550680767254000,9.69325390625,-0.948333740234375,-0.3525238037109375,0.0017852783203125
1789550680777222100,9.70322216796875,-0.967864990234375,-0.26361083984375,0.0406341552734375
1789550680787191000,9.71319091796875,-0.9438629150390625,-0.25616455078125,0.0399017333984375
1789550680797159200,9.7231591796875,-0.9481201171875,-0.30450439453125,0.0551605224609375
1789550680807127300,9.733127197265626,-0.9341583251953125,-0.3903961181640625,0.0232696533203125
1789550680817096200,9.74309619140625,-0.9915008544921875,-0.313079833984375,0.1042938232421875
1789550680827064000,9.75306396484375,-0.95269775390625,-0.303955078125,-0.0550689697265625
1789550680837033000,9.763032958984375,-0.9186859130859375,-0.3023529052734375,0.037811279296875
1789550680847001000,9.7730009765625,-0.8968963623046875,-0.230682373046875,-0.0591583251953125
1789550680856969200,9.78296923828125,-0.9123687744140625,-0.207794189453125,0.0507659912109375
1789550680866938000,9.792938232421875,-1.02154541015625,-0.1116943359375,0.025390625
1789550680876906200,9.80290625,-1.052581787109375,-0.133056640625,0.021881103515625
1789550680886875100,9.812875244140624,-1.08563232421875,-0.19744873046875,0.0234222412109375
1789550680896843300,9.82284326171875,-1.008453369140625,-0.2423095703125,-0.0619049072265625
1789550680906812200,9.832812255859375,-1.0371551513671875,-0.2287139892578125,0.116912841796875
1789550680916780300,9.8427802734375,-0.9501495361328125,-0.3109283447265625,0.016387939453125
1789550680926748200,9.852748046875,-1.0100555419921875,-0.182037353515625,0.00213623046875
1789550680936717000,9.862717041015625,-0.973480224609375,-0.2920379638671875,-0.0564727783203125
1789550680946685200,9.872685302734375,-0.93426513671875,-0.297454833984375,-0.0053863525390625
1789550680956654000,9.882654052734376,-0.8633575439453125,-0.3393707275390625,0.0716094970703125
1789550680966622200,9.892622314453124,-0.8177337646484375,-0.300628662109375,-0.0916290283203125
1789550680976590000,9.902590087890625,-0.8312530517578125,-0.21337890625,-0.09259033203125
1789550680986559200,9.912559326171875,-0.9238739013671875,-0.25799560546875,-0.041778564453125
1789550680996527000,9.922527099609376,-1.033203125,-0.2494659423828125,-0.07073974609375
1789550681006496300,9.932496337890624,-1.173614501953125,-0.175140380859375,0.0291900634765625
1789550681016464100,9.942464111328125,-1.087615966796875,-0.2642669677734375,0.03271484375
1789550681026433300,9.952433349609375,-0.950714111328125,-0.38568115234375,0.031585693359375
1789550681036401200,9.962401123046876,-0.85125732421875,-0.3935394287109375,-0.034271240234375
1789550681046369000,9.972369140625,-0.856781005859375,-0.3294830322265625,0.07708740234375
1789550681056338200,9.982338134765625,-0.9079742431640625,-0.3186187744140625,-0.037353515625
1789550681066306000,9.99230615234375,-0.9016876220703125,-0.3481292724609375,-0.0437469482421875
1789550681076275200,10.002275146484376,-0.8943939208984375,-0.31622314453125,-0.0166473388671875
1789550681086243000,10.0122431640625,-0.970428466796875,-0.26763916015625,-0.009124755859375
1789550681096211200,10.022211181640625,-1.0528564453125,-0.2242584228515625,-0.0030517578125
1789550681106180000,10.03218017578125,-0.9907073974609375,-0.249755859375,-0.1317901611328125
1789550681116148200,10.042148193359376,-1.0404205322265625,-0.207733154296875,-0.090179443359375
1789550681126117000,10.0521171875,-1.026275634765625,-0.2450103759765625,0.017669677734375
1789550681136085000,10.0620849609375,-0.9632415771484375,-0.2913665771484375,-0.0191497802734375
1789550681146053000,10.07205322265625,-0.9901123046875,-0.1898956298828125,0.1262359619140625
1789550681156022000,10.08202197265625,-0.9226837158203125,-0.2800140380859375,-0.026824951171875
1789550681165990100,10.091990234375,-0.9601898193359375,-0.2725830078125,-0.065673828125
1789550681175959000,10.101958984375,-0.9991302490234375,-0.2269744873046875,-0.087432861328125
1789550681185927200,10.11192724609375,-0.9755401611328125,-0.257354736328125,-0.046112060546875
1789550681195896000,10.12189599609375,-0.931610107421875,-0.2540130615234375,0.082427978515625
1789550681205864200,10.1318642578125,-0.9281005859375,-0.234161376953125,0.038818359375
1789550681215832300,10.141832275390625,-1.002166748046875,-0.30426025390625,-0.076263427734375
1789550681225801200,10.15180126953125,-1.02093505859375,-0.2926483154296875,-0.0269927978515625
1789550681235769000,10.16176904296875,-1.0374755859375,-0.2298431396484375,-0.0427703857421875
1789550681245738000,10.171738037109375,-0.958465576171875,-0.35198974609375,-0.0461578369140625
1789550681255706000,10.1817060546875,-0.9527435302734375,-0.3965301513671875,-0.05645751953125
1789550681265674200,10.19167431640625,-0.938690185546875,-0.3147430419921875,-0.068145751953125
1789550681275643100,10.20164306640625,-0.8328857421875,-0.3272247314453125,-0.1143951416015625
1789550681285611300,10.211611328125,-0.8499755859375,-0.2662353515625,-0.087890625
1789550681295580200,10.221580078125,-0.89447021484375,-0.2257232666015625,-0.0535125732421875
1789550681305548300,10.23154833984375,-0.992156982421875,-0.1483001708984375,0.010284423828125
1789550681315517200,10.24151708984375,-1.02008056640625,-0.1875152587890625,-0.069244384765625
1789550681325485300,10.2514853515625,-0.9858856201171875,-0.2404022216796875,-0.040557861328125
1789550681335453000,10.261452880859375,-1.11083984375,-0.13720703125,0.0152740478515625
1789550681345422000,10.271422119140626,-1.02264404296875,-0.2378387451171875,0.0058135986328125
1789550681355390000,10.281389892578124,-1.0152130126953125,-0.2245635986328125,-0.043609619140625
1789550681365359000,10.291359130859375,-0.9630279541015625,-0.3061065673828125,-0.095672607421875
1789550681375327200,10.3013271484375,-0.88604736328125,-0.3368377685546875,-0.0173492431640625
1789550681385295000,10.311295166015626,-0.8584136962890625,-0.308868408203125,0.0293426513671875
1789550681395264300,10.32126416015625,-0.8318634033203125,-0.32830810546875,-0.0906829833984375
1789550681405232000,10.331232177734375,-0.88616943359375,-0.2174530029296875,-0.010833740234375
1789550681415201300,10.341201171875,-0.9632110595703125,-0.2618255615234375,-0.0726165771484375
1789550681425169200,10.351169189453126,-0.99774169921875,-0.229705810546875,-0.0203704833984375
1789550681435137000,10.361136962890624,-1.109527587890625,-0.2357177734375,0.05548095703125
1789550681445106000,10.37110595703125,-1.0684967041015625,-0.3284912109375,0.0460968017578125
1789550681455074000,10.381073974609375,-0.985260009765625,-0.357818603515625,0.057525634765625
1789550681465043000,10.39104296875,-0.8648223876953125,-0.3527069091796875,-0.133941650390625
1789550681475011000,10.401010986328124,-0.7421112060546875,-0.3863067626953125,0.0673675537109375
1789550681484980200,10.410980224609375,-0.7490692138671875,-0.3781280517578125,-0.0049285888671875
1789550681494948000,10.420947998046875,-0.798828125,-0.34710693359375,0.110992431640625
1789550681504916200,10.430916259765626,-0.8930816650390625,-0.233917236328125,0.0870208740234375
1789550681514885000,10.440885009765625,-1.0358428955078125,-0.214752197265625,0.03900146484375
1789550681524853200,10.450853271484375,-1.140625,-0.219207763671875,0.030364990234375
1789550681536069000,10.462069091796875,-1.124481201171875,-0.264007568359375,-0.0614471435546875
1789550681546037200,10.472037353515624,-1.08428955078125,-0.2784881591796875,-0.00006103515625
1789550681556005000,10.482005126953124,-1.0026397705078125,-0.2947845458984375,-0.0258026123046875
1789550681565974300,10.491974365234375,-0.9309234619140625,-0.3371124267578125,-0.07373046875
1789550681575942100,10.501942138671875,-0.941070556640625,-0.3407135009765625,-0.0257110595703125
1789550681585911000,10.5119111328125,-0.9451141357421875,-0.3732147216796875,-0.0193939208984375
1789550681595879200,10.521879150390625,-0.9147491455078125,-0.3387908935546875,0.0331573486328125
1789550681605847000,10.531846923828125,-0.9262237548828125,-0.287841796875,0.0125885009765625
1789550681615816200,10.541816162109376,-0.9113311767578125,-0.32867431640625,-0.0287933349609375
1789550681625784000,10.5517841796875,-0.9932098388671875,-0.21209716796875,0.0698699951171875
1789550681635753200,10.561753173828125,-0.9335174560546875,-0.290283203125,0.0847930908203125
1789550681645721000,10.57172119140625,-0.9552459716796875,-0.298492431640625,0.09375
1789550681655689200,10.581689208984375,-0.95526123046875,-0.2332000732421875,0.043975830078125
1789550681665658000,10.591658203125,-1.0688323974609375,-0.17584228515625,-0.0362091064453125
1789550681675626000,10.6016259765625,-1.052703857421875,-0.279693603515625,-0.0371551513671875
1789550681685595100,10.61159521484375,-0.9520111083984375,-0.306243896484375,-0.0032806396484375
1789550681695563000,10.62156298828125,-0.9146575927734375,-0.2624664306640625,-0.036956787109375
1789550681705532200,10.6315322265625,-0.8677825927734375,-0.30743408203125,-0.0397796630859375
1789550681715500000,10.6415,-0.9495697021484375,-0.1815338134765625,-0.022796630859375
1789550681725468200,10.65146826171875,-0.92767333984375,-0.2322235107421875,0.01776123046875
1789550681735437000,10.66143701171875,-0.9775238037109375,-0.2372283935546875,0.023193359375
1789550681745405200,10.6714052734375,-1.03240966796875,-0.21868896484375,-0.0043487548828125
1789550681755374000,10.6813740234375,-0.9493560791015625,-0.2830810546875,0.01776123046875
1789550681765342200,10.69134228515625,-0.980712890625,-0.220123291015625,-0.012451171875
1789550681775310000,10.70131005859375,-0.9136199951171875,-0.317626953125,-0.0133514404296875
1789550681785279000,10.711279052734374,-1.0446014404296875,-0.229766845703125,0.01519775390625
1789550681795247000,10.7212470703125,-0.9966583251953125,-0.2945709228515625,-0.020751953125
1789550681805216000,10.731216064453125,-0.932464599609375,-0.3184051513671875,-0.09747314453125
1789550681815184100,10.74118408203125,-0.9675445556640625,-0.2391204833984375,-0.0700531005859375
1789550681825153000,10.751153076171875,-0.8849945068359375,-0.278228759765625,-0.09429931640625
1789550681835121200,10.76112109375,-0.916229248046875,-0.1995086669921875,-0.0481719970703125
1789550681845089300,10.77108935546875,-0.9581756591796875,-0.224029541015625,-0.0875701904296875
1789550681855058200,10.78105810546875,-1.0546875,-0.176666259765625,-0.1251983642578125
1789550681865026300,10.7910263671875,-1.1451416015625,-0.164886474609375,-0.0370025634765625
1789550681874995200,10.8009951171875,-1.0103302001953125,-0.330352783203125,-0.09185791015625
1789550681884963000,10.810963134765625,-0.8962554931640625,-0.317962646484375,-0.0251007080078125
1789550681894931200,10.82093115234375,-0.8758087158203125,-0.280853271484375,-0.088653564453125
1789550681904900000,10.830900146484375,-0.8387603759765625,-0.2935028076171875,-0.057861328125
1789550681914868200,10.8408681640625,-0.820892333984375,-0.311004638671875,-0.0607757568359375
1789550681924837000,10.850837158203126,-0.9043121337890625,-0.2372283935546875,-0.114959716796875
1789550681934805200,10.86080517578125,-0.9949493408203125,-0.145751953125,-0.03765869140625
1789550681944774100,10.870774169921875,-1.0440826416015625,-0.2271881103515625,-0.068511962890625
1789550681958480100,10.884480224609375,-1.0597381591796875,-0.216552734375,-0.0865631103515625
1789550681968449800,10.89444970703125,-1.0475616455078125,-0.20953369140625,0.0211639404296875
1789550681978418000,10.90441796875,-0.933868408203125,-0.331268310546875,0.0673675537109375
1789550681988385800,10.9143857421875,-0.961029052734375,-0.2574462890625,0.011260986328125
1789550681998355000,10.92435498046875,-0.94342041015625,-0.3104705810546875,0.046356201171875
1789550682008322800,10.93432275390625,-0.86883544921875,-0.4243621826171875,0.0028533935546875
1789550682018291700,10.944291748046876,-0.92529296875,-0.33099365234375,-0.0030364990234375
1789550682028259800,10.954259765625,-0.97021484375,-0.2814483642578125,-0.04608154296875
1789550682038227700,10.964227783203125,-0.962677001953125,-0.353179931640625,-0.100311279296875
1789550682048196900,10.97419677734375,-0.9637298583984375,-0.3303680419921875,0.042510986328125
1789550682058164700,10.984164794921876,-0.9207611083984375,-0.29022216796875,0.112548828125
1789550682068134000,10.9941337890625,-0.8746337890625,-0.3293304443359375,0.0605621337890625
1789550682078101800,11.004101806640625,-0.9910125732421875,-0.2374725341796875,0.0019073486328125
1789550682088071000,11.01407080078125,-1.0337982177734375,-0.163482666015625,-0.1138916015625
1789550682098038800,11.024038818359376,-0.9347076416015625,-0.335205078125,-0.0575103759765625
1789550682108006700,11.034006591796874,-0.9344482421875,-0.3538360595703125,-0.05316162109375
1789550682117975800,11.043975830078125,-0.9944610595703125,-0.1958465576171875,-0.002685546875
1789550682127943700,11.053943603515625,-0.9489898681640625,-0.220550537109375,-0.0098876953125
1789550682137912800,11.063912841796874,-0.9402313232421875,-0.2028656005859375,-0.126220703125
1789550682147880700,11.073880615234375,-0.918365478515625,-0.2501068115234375,-0.006988525390625
1789550682157849900,11.083849853515625,-0.9891204833984375,-0.1906890869140625,0.0044097900390625
1789550682167817700,11.093817626953125,-0.9800872802734375,-0.1644287109375,0.0500640869140625
1789550682177785900,11.103785888671876,-1.0004425048828125,-0.2192535400390625,0.0044097900390625
1789550682187754800,11.113754638671875,-1.115936279296875,-0.21856689453125,-0.0385589599609375
1789550682197723000,11.123722900390625,-1.0867767333984375,-0.2549591064453125,0.0117340087890625
1789550682207692000,11.133692138671876,-0.9241790771484375,-0.3735809326171875,-0.033660888671875
1789550682217659600,11.14365966796875,-0.943756103515625,-0.3064727783203125,-0.058319091796875
1789550682227628800,11.15362890625,-0.903533935546875,-0.357147216796875,-0.0441741943359375
1789550682237596700,11.1635966796875,-0.94073486328125,-0.3451995849609375,-0.0256500244140625
1789550682247564800,11.173564697265626,-0.956024169921875,-0.2953948974609375,-0.0671844482421875
1789550682257533700,11.18353369140625,-0.909881591796875,-0.3480682373046875,-0.1137542724609375
1789550682267501800,11.193501708984375,-0.97967529296875,-0.283172607421875,-0.0725250244140625
1789550682277470700,11.203470703125,-1.0050048828125,-0.2342071533203125,-0.0892333984375
1789550682287438800,11.21343896484375,-1.06396484375,-0.179901123046875,-0.0587310791015625
1789550682297407700,11.22340771484375,-1.093902587890625,-0.2507476806640625,0.0343780517578125
1789550682307375900,11.2333759765625,-0.9838409423828125,-0.318450927734375,0.003143310546875
1789550682317343700,11.24334375,-0.9360198974609375,-0.2353668212890625,0.0511932373046875
1789550682327312600,11.253312744140626,-0.82183837890625,-0.287261962890625,-0.0516357421875
1789550682337280800,11.26328076171875,-0.815093994140625,-0.2113037109375,0.123992919921875
1789550682347249700,11.273249755859375,-0.8180694580078125,-0.2601470947265625,0.0722503662109375
1789550682357217800,11.2832177734375,-0.9257659912109375,-0.17254638671875,0.066925048828125
1789550682367186700,11.293186767578124,-0.9394683837890625,-0.1626129150390625,0.0838470458984375
1789550682377154800,11.30315478515625,-0.989471435546875,-0.1784820556640625,-0.0161590576171875
1789550682387123000,11.313123046875,-0.9898681640625,-0.2270355224609375,0.01727294921875
1789550682397091800,11.323091796875,-1.069091796875,-0.1490478515625,0.03564453125
1789550682407060000,11.33306005859375,-1.0410003662109375,-0.2346954345703125,0.052825927734375
1789550682417028900,11.34302880859375,-0.9834747314453125,-0.286956787109375,0.0549163818359375
1789550682426996700,11.352996826171875,-1.025390625,-0.2007598876953125,-0.0661773681640625
1789550682436965600,11.362965576171876,-0.9157867431640625,-0.363677978515625,-0.0434112548828125
1789550682446933800,11.372933837890624,-0.9015350341796875,-0.3192138671875,0.0600433349609375
1789550682456902700,11.382902587890625,-0.96258544921875,-0.2644805908203125,0.040069580078125
1789550682466870800,11.392870849609375,-0.9194183349609375,-0.3939666748046875,0.088897705078125
1789550682476839000,11.4028388671875,-1.06353759765625,-0.25164794921875,0.0281829833984375
1789550682486807800,11.412807861328124,-0.99822998046875,-0.2999114990234375,0.1087799072265625
1789550682496776000,11.42277587890625,-0.958770751953125,-0.3416748046875,0.116912841796875
1789550682506744800,11.432744873046875,-0.85638427734375,-0.4228668212890625,0.1171875
1789550682516713000,11.442712890625,-0.923431396484375,-0.30401611328125,0.0607452392578125
1789550682526681900,11.452681884765624,-0.969512939453125,-0.2473602294921875,-0.074798583984375
1789550682536649700,11.462649658203125,-0.934722900390625,-0.4061431884765625,-0.091033935546875
1789550682546617900,11.472617919921875,-1.049835205078125,-0.26629638671875,-0.004486083984375
1789550682556586800,11.482586669921876,-0.950714111328125,-0.329010009765625,0.0802001953125
1789550682566555000,11.492554931640624,-0.94781494140625,-0.302886962890625,0.01837158203125
1789550682576523800,11.502523681640625,-0.934814453125,-0.219451904296875,-0.0120086669921875
1789550682586492000,11.512491943359375,-0.9141845703125,-0.2756805419921875,0.0147705078125
1789550682596460800,11.522460693359376,-0.9282989501953125,-0.2741241455078125,0.0083770751953125
1789550682606429000,11.532428955078124,-0.9234771728515625,-0.2271270751953125,0.1036834716796875
1789550682616396800,11.542396728515625,-0.9823760986328125,-0.2091827392578125,0.06951904296875
1789550682626366000,11.552365966796875,-0.92706298828125,-0.2996368408203125,0.1057281494140625
1789550682636333800,11.562333740234376,-1.042572021484375,-0.256256103515625,0.042694091796875
1789550682646302700,11.572302734375,-1.0538787841796875,-0.2292938232421875,-0.0300140380859375
1789550682656270800,11.582270751953125,-1.0236053466796875,-0.2807464599609375,0.044036865234375
1789550682666239700,11.59223974609375,-0.9676513671875,-0.3374786376953125,0.0460662841796875
1789550682676207900,11.602207763671874,-0.8653106689453125,-0.3028564453125,0.046539306640625
1789550682686175700,11.61217578125,-0.815704345703125,-0.3129730224609375,0.0374603271484375
1789550682696145000,11.622144775390625,-0.8266754150390625,-0.3102264404296875,0.0224761962890625
1789550682706112800,11.63211279296875,-0.8910675048828125,-0.2412109375,0.0264739990234375
1789550682716082000,11.64208203125,-0.98114013671875,-0.2094879150390625,-0.0143280029296875
1789550682726049800,11.6520498046875,-1.0900115966796875,-0.2082366943359375,0.086700439453125
1789550682736019000,11.66201904296875,-1.1864776611328125,-0.2273406982421875,0.0954437255859375
1789550682745986800,11.67198681640625,-0.9854583740234375,-0.29852294921875,0.06475830078125
1789550682755954700,11.68195458984375,-0.921722412109375,-0.30426025390625,0.0767059326171875
1789550682765923800,11.691923828125,-0.830230712890625,-0.3962249755859375,-0.03662109375
1789550682775891700,11.7018916015625,-0.940765380859375,-0.2774810791015625,0.0276031494140625
1789550682785860900,11.71186083984375,-0.885162353515625,-0.25860595703125,0.0995330810546875
1789550682795828700,11.721828857421874,-0.8986968994140625,-0.2548370361328125,0.01605224609375
1789550682805798000,11.7317978515625,-0.9921417236328125,-0.2092132568359375,-0.0345458984375
1789550682815765800,11.741765869140625,-1.04644775390625,-0.22540283203125,-0.08349609375
1789550682825734000,11.75173388671875,-1.05267333984375,-0.155426025390625,-0.003662109375
1789550682835702800,11.761702880859374,-1.0504608154296875,-0.1976470947265625,-0.0170745849609375
1789550682845670700,11.771670654296875,-1.0180816650390625,-0.2798614501953125,-0.0013885498046875
1789550682855639800,11.781639892578125,-0.991119384765625,-0.2609405517578125,-0.035736083984375
1789550682865607700,11.791607666015626,-0.9465179443359375,-0.22442626953125,-0.0905609130859375
1789550682875576800,11.801576904296875,-0.8213043212890625,-0.3679656982421875,-0.06103515625
1789550682885544700,11.811544677734375,-0.9095306396484375,-0.240325927734375,-0.0052032470703125
1789550682895512800,11.821512939453125,-0.936859130859375,-0.2564849853515625,0.04644775390625
1789550682905481700,11.831481689453126,-0.9374542236328125,-0.3033294677734375,-0.0276641845703125
1789550682915449900,11.841449951171874,-1.0078125,-0.139678955078125,-0.0279541015625
1789550682925418800,11.851418701171875,-0.893310546875,-0.3079376220703125,-0.034637451171875
1789550682935387000,11.861386962890625,-0.94061279296875,-0.3059844970703125,-0.0137939453125
1789550682945355800,11.871355712890624,-0.9297943115234375,-0.28118896484375,0.012420654296875
1789550682955323600,11.88132373046875,-0.9512176513671875,-0.1932220458984375,-0.045989990234375
1789550682965291800,11.891291748046875,-0.8954010009765625,-0.279144287109375,-0.1247711181640625
1789550682975260200,11.90126025390625,-0.97100830078125,-0.34063720703125,-0.02874755859375
1789550682985228000,11.91122802734375,-1.057830810546875,-0.2011871337890625,0.016937255859375
1789550682995197200,11.921197265625,-1.002044677734375,-0.2783966064453125,0.0549774169921875
1789550683005165000,11.9311650390625,-1.0458221435546875,-0.228668212890625,-0.061676025390625
1789550683015134200,11.94113427734375,-0.9791412353515625,-0.2421722412109375,-0.03656005859375
1789550683025102000,11.95110205078125,-0.892181396484375,-0.3646087646484375,0.0098114013671875
1789550683035070200,11.9610703125,-0.9899749755859375,-0.2253265380859375,-0.0035552978515625
1789550683045039000,11.9710390625,-0.948944091796875,-0.309173583984375,0.0458526611328125
1789550683055007200,11.98100732421875,-0.9905242919921875,-0.3172760009765625,0.0695953369140625
1789550683064976100,11.99097607421875,-0.99560546875,-0.2976531982421875,0.0205078125
1789550683074944300,12.0009443359375,-1.0018768310546875,-0.3468780517578125,0.0594024658203125
1789550683084913200,12.0109130859375,-0.9971771240234375,-0.3429107666015625,-0.0550384521484375
1789550683094881000,12.020881103515626,-1.03460693359375,-0.240142822265625,-0.0094146728515625
1789550683104849200,12.03084912109375,-0.9191131591796875,-0.312744140625,-0.0445404052734375
1789550683114818000,12.040818115234375,-0.832244873046875,-0.3690948486328125,-0.0596923828125
1789550683124786200,12.0507861328125,-0.81182861328125,-0.312164306640625,0.0140838623046875
1789550683134755000,12.060755126953126,-0.9004364013671875,-0.2305908203125,0.05853271484375
1789550683144723200,12.07072314453125,-0.82781982421875,-0.250946044921875,-0.01776123046875
1789550683154692000,12.080692138671875,-0.9615631103515625,-0.1237640380859375,-0.079254150390625
1789550683164660200,12.09066015625,-1.0321807861328125,-0.2073974609375,-0.066619873046875
1789550683174628400,12.10062841796875,-1.1532135009765625,-0.23565673828125,0.0372772216796875
1789550683184597200,12.11059716796875,-1.1568450927734375,-0.1969146728515625,0.0280914306640625
1789550683194565000,12.120565185546875,-1.060302734375,-0.246978759765625,0.0776214599609375
1789550683204534000,12.130533935546875,-0.8809661865234375,-0.3473663330078125,-0.0307159423828125
1789550683214502100,12.140502197265626,-0.853973388671875,-0.3603515625,-0.0336151123046875
1789550683224471000,12.150470947265624,-0.878143310546875,-0.3108062744140625,0.069610595703125
1789550683234439200,12.160439208984375,-0.8853302001953125,-0.2880401611328125,-0.01422119140625
1789550683244407300,12.1704072265625,-0.9579620361328125,-0.2631988525390625,0.08349609375
1789550683254376200,12.180376220703126,-0.91058349609375,-0.366546630859375,-0.0823974609375
1789550683264344300,12.19034423828125,-0.962799072265625,-0.26800537109375,-0.0474853515625
1789550683274313200,12.200313232421875,-0.9344940185546875,-0.2324676513671875,-0.0269317626953125
1789550683284281300,12.21028125,-0.9218902587890625,-0.33026123046875,-0.0658721923828125
1789550683294250200,12.220250244140624,-1.0075836181640625,-0.2537078857421875,-0.0299224853515625
1789550683304218000,12.230218017578125,-1.1340484619140625,-0.187713623046875,-0.1070709228515625
1789550683314186000,12.24018603515625,-1.069976806640625,-0.2942962646484375,-0.109588623046875
1789550683324155100,12.250155029296875,-1.0114898681640625,-0.258453369140625,-0.015960693359375
1789550683334123000,12.260123046875,-1.0261383056640625,-0.2321624755859375,-0.1032562255859375
1789550683344092200,12.270092041015625,-0.9482879638671875,-0.2747039794921875,-0.0097503662109375
1789550683354060300,12.280060302734375,-0.9283599853515625,-0.1857757568359375,-0.0189971923828125
1789550683364029200,12.290029296875,-0.844879150390625,-0.2386932373046875,-0.066436767578125
1789550683373997300,12.299997314453124,-0.8565216064453125,-0.232574462890625,0.0697174072265625
1789550683383965200,12.309965087890625,-0.739990234375,-0.3264312744140625,0.0750732421875
1789550683393934300,12.319934326171875,-0.8114166259765625,-0.2215423583984375,0.0660552978515625
1789550683403902000,12.32990185546875,-0.9114532470703125,-0.20208740234375,-0.0441741943359375
1789550683413871000,12.33987109375,-1.058319091796875,-0.2280731201171875,-0.1064453125
1789550683423839000,12.3498388671875,-1.1562347412109375,-0.1405181884765625,-0.0162811279296875
1789550683433808100,12.35980810546875,-1.10687255859375,-0.2406768798828125,-0.0845184326171875
1789550683443776300,12.3697763671875,-0.995025634765625,-0.2905426025390625,-0.0267791748046875
1789550683453744000,12.379744140625,-0.961273193359375,-0.188507080078125,-0.017547607421875
1789550683463713300,12.38971337890625,-0.795867919921875,-0.321136474609375,-0.053985595703125
1789550683473681200,12.39968115234375,-0.860595703125,-0.28826904296875,-0.0477294921875
1789550683483650300,12.409650390625,-1.0383453369140625,-0.1788177490234375,0.0433807373046875
1789550683493618200,12.4196181640625,-1.1151580810546875,-0.2509613037109375,0.02752685546875
1789550683503587300,12.42958740234375,-0.9931182861328125,-0.31964111328125,0.0021209716796875
1789550683513555000,12.439554931640625,-0.9771728515625,-0.31304931640625,-0.0458984375
1789550683523523000,12.449523193359376,-0.9676666259765625,-0.4020843505859375,-0.019073486328125
1789550683533492000,12.459491943359374,-0.91461181640625,-0.356475830078125,-0.0625762939453125
1789550683543460000,12.469460205078125,-0.9638519287109375,-0.3756561279296875,-0.014801025390625
1789550683553429200,12.47942919921875,-0.9308319091796875,-0.3677215576171875,-0.059326171875
1789550683563397000,12.489397216796876,-0.823822021484375,-0.3320465087890625,-0.074310302734375
1789550683573366300,12.4993662109375,-0.8012237548828125,-0.3613739013671875,-0.0810089111328125
1789550683583334100,12.509334228515625,-0.8921966552734375,-0.2776641845703125,-0.08905029296875
1789550683593302300,12.51930224609375,-0.9304656982421875,-0.204803466796875,-0.044219970703125
1789550683603271200,12.529271240234374,-1.02996826171875,-0.19677734375,-0.1053314208984375
1789550683613239000,12.539239013671875,-1.01531982421875,-0.2927703857421875,-0.08544921875
1789550683623208000,12.5492080078125,-1.037811279296875,-0.2444610595703125,-0.062774658203125
1789550683633176000,12.559176025390625,-0.92352294921875,-0.30291748046875,-0.1181640625
1789550683643144200,12.569144287109374,-0.7722930908203125,-0.3830108642578125,-0.002838134765625
1789550683653113000,12.579113037109375,-0.71990966796875,-0.414215087890625,-0.0228271484375
1789550683663081200,12.589081298828125,-0.7967376708984375,-0.3079376220703125,0.020660400390625
1789550683673050000,12.599050048828126,-0.890289306640625,-0.1789398193359375,-0.04656982421875
1789550683683018200,12.609018310546874,-0.9695281982421875,-0.1265716552734375,-0.1070098876953125
1789550683692987100,12.618987060546875,-0.954498291015625,-0.310760498046875,0.06048583984375
1789550683702955300,12.628955322265625,-1.0415802001953125,-0.2595977783203125,-0.042938232421875
1789550683712923100,12.638923095703126,-1.1083221435546875,-0.156463623046875,0.095458984375
1789550683722892000,12.64889208984375,-1.099884033203125,-0.228240966796875,0.077423095703125
1789550683732860200,12.658860107421875,-1.061004638671875,-0.3012237548828125,0.06201171875
1789550683742829000,12.6688291015625,-1.048095703125,-0.2299957275390625,0.070587158203125
1789550683752797200,12.678797119140626,-0.8955535888671875,-0.378875732421875,0.0658416748046875
1789550683762766000,12.68876611328125,-0.8231201171875,-0.4100341796875,0.0501556396484375
1789550683772734200,12.698734130859375,-0.9493255615234375,-0.2282257080078125,0.1341094970703125
1789550683782702000,12.7087021484375,-0.9540252685546875,-0.2508544921875,0.0627899169921875
1789550683792671200,12.718671142578126,-1.0614013671875,-0.2756195068359375,0.0186309814453125
1789550683802639400,12.728639404296874,-1.1410675048828125,-0.2003631591796875,-0.03314208984375
1789550683812608300,12.738608154296875,-1.0323333740234375,-0.24945068359375,0.0697174072265625
1789550683822576000,12.748576171875,-1.004180908203125,-0.263458251953125,0.1271209716796875
1789550683832545000,12.758544921875,-1.031463623046875,-0.249237060546875,0.08740234375
1789550683842513200,12.76851318359375,-1.10748291015625,-0.1884002685546875,-0.010711669921875
1789550683852481000,12.77848095703125,-1.014373779296875,-0.3077392578125,-0.096771240234375
1789550683862450200,12.7884501953125,-0.9548797607421875,-0.317901611328125,-0.0258026123046875
1789550683872418000,12.79841796875,-0.943084716796875,-0.2437744140625,0.0069580078125
