time,seconds_elapsed,z,y,x
1789550671117793300,0.043793212890625,0.1581488847732544,0.17168307304382324,0.1263672560453415
1789550671127761400,0.053761474609375,0.15232455730438232,0.20750471949577332,0.07956539839506149
1789550671137730300,0.063730224609375,0.1460520178079605,0.23067742586135864,0.052258409559726715
1789550671147698400,0.073698486328125,0.17182289063930511,0.18533523380756378,0.0797097459435463
1789550671157667300,0.083667236328125,0.24038410186767578,0.19081096351146698,0.07275968790054321
1789550671167635500,0.093635498046875,0.3063250482082367,0.20491187274456024,0.03134913370013237
1789550671177604400,0.103604248046875,0.3094470798969269,0.1688484102487564,0.05649576708674431
1789550671187572500,0.113572509765625,0.28067746758461,0.2132592797279358,0.05907423794269562
1789550671197541400,0.123541259765625,0.2467823475599289,0.25853222608566284,0.021567076444625854
1789550671207509200,0.13350927734375,0.20973458886146545,0.2341374009847641,0.05321342125535011
1789550671217478400,0.143478515625,0.2118227779865265,0.1873834729194641,0.1110498234629631
1789550671227446300,0.1534462890625,0.25252118706703186,0.22369647026062012,0.0711498111486435
1789550671237415400,0.16341552734375,0.23679204285144806,0.2766105532646179,0.07341615855693817
1789550671247383300,0.17338330078125,0.22997140884399414,0.2508777678012848,0.10078386962413788
1789550671257352400,0.1833525390625,0.29472512006759644,0.2496950477361679,0.09987945854663849
1789550671267320300,0.1933203125,0.3275730609893799,0.26948127150535583,0.05431570112705231
1789550671277289500,0.20328955078125,0.3133973181247711,0.28452226519584656,0.02022537589073181
1789550671287257300,0.21325732421875,0.3134641647338867,0.2444225251674652,-0.018213890492916107
1789550671297226500,0.2232265625,0.26854491233825684,0.20685358345508575,0.028813539072871208
1789550671307194400,0.2331943359375,0.2498876005411148,0.1696137934923172,0.07994410395622253
1789550671317163500,0.24316357421875,0.24239692091941833,0.1741587519645691,0.06719181686639786
1789550671327131400,0.25313134765625,0.2206604778766632,0.20143857598304749,0.06670313328504562
1789550671337100500,0.2631005859375,0.2207275778055191,0.1844172477722168,0.10615439713001251
1789550671347068400,0.273068359375,0.13140782713890076,0.23160633444786072,0.07063023000955582
1789550671357037300,0.283037353515625,0.11436811834573746,0.30166611075401306,0.010916030965745449
1789550671367005400,0.29300537109375,0.18595708906650543,0.32113808393478394,0.027466244995594025
1789550671376974300,0.302974365234375,0.2706490755081177,0.14612871408462524,0.12010723352432251
1789550671386942500,0.3129423828125,0.1636456549167633,0.27731814980506897,0.14313904941082
1789550671396911400,0.322911376953125,0.06680858880281448,0.2891063690185547,0.11097445338964462
1789550671406879500,0.33287939453125,-0.04705432802438736,0.23079752922058105,0.10335781425237656
1789550671416848400,0.342848388671875,-0.11879828572273254,0.1696729212999344,0.06746825575828552
1789550671426817500,0.352817626953125,-0.1567147821187973,0.13581056892871857,0.0946628600358963
1789550671436785400,0.362785400390625,-0.1524079144001007,0.16240088641643524,0.09405139833688736
1789550671446753500,0.37275341796875,-0.10208908468484879,0.1906098872423172,0.06349961459636688
1789550671456722400,0.382722412109375,0.0006258428329601884,0.1829296052455902,0.023903468623757362
1789550671466691600,0.392691650390625,0.1410660445690155,0.17655107378959656,-0.0035388083197176456
1789550671476659200,0.4026591796875,0.1867443174123764,0.20946747064590454,-0.02177746780216694
1789550671486628400,0.41262841796875,0.13533172011375427,0.23421329259872437,-0.034090060740709305
1789550671496596200,0.42259619140625,0.08013425022363663,0.23181751370429993,0.004251470323652029
1789550671506565400,0.4325654296875,0.03281174227595329,0.2092783898115158,0.008478439413011074
1789550671516533200,0.442533203125,-0.019245866686105728,0.20660564303398132,0.011358115822076797
1789550671526502400,0.45250244140625,-0.043786630034446716,0.17416593432426453,0.006596117280423641
1789550671536470500,0.462470458984375,-0.10409950464963913,0.15631291270256042,0.011171960271894932
1789550671546439400,0.472439453125,-0.11178752034902573,0.1391882449388504,0.0004319647268857807
1789550671556407600,0.482407470703125,-0.10399883985519409,0.12953509390354156,-0.030613569542765617
1789550671566376400,0.49237646484375,-0.08405282348394394,0.10810090601444244,-0.01281752809882164
1789550671576344600,0.502344482421875,-0.053294647485017776,0.11746857315301895,-0.025109080597758293
1789550671586313500,0.5123134765625,-0.015364575199782848,0.14681394398212433,-0.05133775621652603
1789550671596281300,0.52228125,-0.0025153555907309055,0.15215171873569489,-0.06969652324914932
1789550671606250200,0.532250244140625,-0.022653913125395775,0.12293551117181778,-0.015379754826426506
1789550671616218400,0.54221826171875,-0.02803642861545086,0.11269858479499817,0.016574716195464134
1789550671626187300,0.552187255859375,-0.07122118026018143,0.1362617015838623,0.005015797447413206
1789550671636155400,0.5621552734375,-0.07499514520168304,0.17580777406692505,-0.017553692683577538
1789550671646124300,0.572124267578125,-0.08662570267915726,0.17099277675151825,-0.0027651600539684296
1789550671656092400,0.582092529296875,-0.09512438625097275,0.16441291570663452,-0.02058703452348709
1789550671666061300,0.592061279296875,-0.10166111588478088,0.16556419432163239,-0.012196744792163372
1789550671676029400,0.602029541015625,-0.09978331625461578,0.12878167629241943,-0.03337686508893967
1789550671685998300,0.611998291015625,-0.12784451246261597,0.11983026564121246,-0.005015264730900526
1789550671695966500,0.621966552734375,-0.13295112550258636,0.11330338567495346,-0.007151652593165636
1789550671705935400,0.631935302734375,-0.13194870948791504,0.11125835031270981,0.0167347714304924
1789550671715903200,0.6419033203125,-0.07786523550748825,0.08398624509572983,0.017489777877926826
1789550671725872400,0.651872314453125,-0.03555905818939209,0.1469803899526596,-0.02287442237138748
1789550671735840300,0.66184033203125,-0.08258968591690063,0.11378355324268341,0.021737253293395042
1789550671745808400,0.671808349609375,-0.04792278632521629,0.1134549230337143,0.01925305649638176
1789550671755777300,0.68177734375,-0.012262258678674698,0.09146600216627121,-0.0007837683078832924
1789550671765746400,0.691746337890625,-0.0514054000377655,0.0808948501944542,-0.019813651219010353
1789550671775714300,0.70171435546875,-0.04078604653477669,0.10943274945020676,-0.03730369731783867
1789550671785682400,0.711682373046875,-0.023574834689497948,0.07162145525217056,0.0112196309491992
1789550671795651300,0.7216513671875,0.07797282934188843,0.0956178680062294,-0.01543514896184206
1789550671805619500,0.731619384765625,0.12469799071550369,0.12028300017118454,-0.030782679095864296
1789550671815588400,0.74158837890625,0.18668971955776215,0.0902920812368393,-0.05626087635755539
1789550671825556200,0.75155615234375,0.1646760255098343,0.08469811081886292,-0.029572272673249245
1789550671835525600,0.761525634765625,0.14296594262123108,0.07170374691486359,0.01914067193865776
1789550671845493200,0.7714931640625,0.14613910019397736,0.03449113294482231,0.011993013322353363
1789550671855462400,0.78146240234375,0.14070118963718414,0.05168796330690384,0.0375569611787796
1789550671865430300,0.79143017578125,0.08099178969860077,0.06029556319117546,0.053761497139930725
1789550671875399400,0.8013994140625,0.0701868087053299,0.0871942937374115,0.0035177695099264383
1789550671885367300,0.8113671875,0.06317684054374695,-0.015499064698815346,0.10206112265586853
1789550671895336400,0.82133642578125,0.06493186205625534,0.008051268756389618,0.11748401820659637
1789550671905304300,0.83130419921875,0.0322684571146965,0.06765095144510269,0.07130800187587738
1789550671915273500,0.8412734375,-0.025076590478420258,0.0065100970678031445,0.08840309828519821
1789550671925241300,0.851241455078125,-0.07944582402706146,0.023095732554793358,0.02660205028951168
1789550671935210500,0.86121044921875,-0.1513458490371704,0.07777921855449677,-0.06631430983543396
1789550671945178600,0.8711787109375,-0.192191019654274,0.012007393874228,-0.05932004749774933
1789550671955147800,0.881147705078125,-0.2308736890554428,0.013043363578617573,0.027765851467847824
1789550671965116000,0.891115966796875,-0.3085106909275055,0.12049392610788345,-0.04982348158955574
1789550671975084800,0.901084716796875,-0.35734879970550537,0.04132826626300812,-0.015326225198805332
1789550671985052700,0.911052734375,-0.3323148190975189,0.05561638996005058,0.05025837570428848
1789550671995021600,0.921021484375,-0.3417040705680847,0.05016889423131943,0.06577502191066742
1789550672004989700,0.93098974609375,-0.3255466818809509,0.030294256284832954,-0.010293916799128056
1789550672014958600,0.94095849609375,-0.2792809009552002,0.019454125314950943,-0.03518754988908768
1789550672024926700,0.9509267578125,-0.2706751823425293,0.04158499464392662,-0.022188393399119377
1789550672034895600,0.9608955078125,-0.18387529253959656,0.02142779342830181,-0.007708253338932991
1789550672044863700,0.97086376953125,-0.04987381771206856,0.0038900794461369514,0.048595499247312546
1789550672054832600,0.98083251953125,-0.05124321207404137,-0.009729326702654362,0.056356217712163925
1789550672064800800,0.99080078125,-0.1052182987332344,-0.029138443991541862,0.010060356929898262
1789550672074769700,1.000769775390625,-0.08447147160768509,0.020436299964785576,-0.1278490424156189
1789550672084737800,1.01073779296875,-0.2293703407049179,0.044928327202796936,-0.06408257782459259
1789550672094706700,1.020706787109375,-0.2659437954425812,0.047925181686878204,-0.014971492812037468
1789550672104674600,1.030674560546875,-0.17039677500724792,0.018088456243276596,0.014357633888721466
1789550672114643500,1.0406435546875,-0.18608304858207703,-0.02791072614490986,0.05169941484928131
1789550672124611600,1.050611572265625,-0.17347058653831482,-0.01056103128939867,0.03942863270640373
1789550672134580700,1.060580810546875,-0.158231720328331,-0.000046871635277057067,0.05535060539841652
1789550672144548600,1.070548583984375,-0.18705376982688904,0.0012804478174075484,0.062276691198349
1789550672154517800,1.080517822265625,-0.18864421546459198,0.014665229246020317,-0.021766016259789467
1789550672164485600,1.090485595703125,-0.1707080900669098,-0.01113227941095829,-0.08525710552930832
1789550672174454800,1.100454833984375,-0.15130563080310822,-0.04759548231959343,-0.04237968102097511
1789550672184422700,1.110422607421875,-0.18591155111789703,-0.033551301807165146,-0.030817566439509392
1789550672194391800,1.120391845703125,-0.2760539650917053,-0.014283332042396069,-0.005334311630576849
1789550672204359700,1.130359619140625,-0.28824591636657715,-0.02388349547982216,-0.07383348047733307
1789550672214328800,1.140328857421875,-0.2115710973739624,-0.04327157512307167,-0.12113787233829498
1789550672224296400,1.15029638671875,-0.2338780015707016,-0.05836423859000206,-0.1254711002111435
1789550672234265900,1.160265869140625,-0.33283573389053345,-0.041128527373075485,-0.07461617887020111
1789550672244233700,1.170233642578125,-0.2832335829734802,-0.04944717884063721,-0.08496895432472229
1789550672254202600,1.18020263671875,-0.23300422728061676,-0.08396041393280029,-0.05421982705593109
1789550672264170800,1.190170654296875,-0.26421061158180237,-0.05570027977228165,0.011532818898558617
1789550672274139600,1.2001396484375,-0.18479354679584503,-0.03098694421350956,-0.015789348632097244
1789550672284107800,1.210107666015625,-0.1263827085494995,-0.019810190424323082,-0.006756173446774483
1789550672294076700,1.22007666015625,-0.21688544750213623,0.02767264097929001,0.024514663964509964
1789550672304044800,1.230044921875,-0.2342282086610794,-0.04743143171072006,0.015856727957725525
1789550672314013700,1.240013671875,-0.1311630755662918,-0.08429304510354996,0.014223677106201649
1789550672323981800,1.24998193359375,-0.019953735172748566,-0.09815692901611328,-0.10732299089431763
1789550672333949700,1.25994970703125,-0.09948477894067764,-0.04255571588873863,-0.06998174637556076
1789550672343918800,1.2699189453125,-0.013569338247179985,-0.07623644918203354,-0.048291899263858795
1789550672353886700,1.27988671875,0.09011231362819672,-0.061818093061447144,-0.019213374704122543
1789550672363855600,1.289855712890625,0.025114940479397774,-0.0027537085115909576,0.014189588837325573
1789550672373823700,1.29982373046875,0.11872585117816925,-0.011869442649185658,-0.017654893919825554
1789550672383792600,1.309792724609375,0.23742879927158356,-0.03672152757644653,-0.042387936264276505
1789550672393760800,1.3197607421875,0.3176434636116028,-0.06405328214168549,-0.10513414442539215
1789550672403729700,1.329729736328125,0.22753702104091644,-0.04502686485648155,-0.0734768807888031
1789550672413697800,1.33969775390625,0.18528597056865692,-0.05182112008333206,-0.024955684319138527
1789550672423666700,1.349666748046875,0.17392918467521667,-0.09359679371118546,0.02208825759589672
1789550672433634800,1.359634765625,0.1835988610982895,-0.06159891560673714,-0.011739746667444706
1789550672443603700,1.369603759765625,0.19228875637054443,-0.04603566974401474,0.045215949416160583
1789550672453571800,1.37957177734375,0.3240475654602051,-0.05764758214354515,0.031143805012106895
1789550672463540700,1.389540771484375,0.46010369062423706,-0.041316282004117966,-0.022224079817533493
1789550672473508600,1.399508544921875,0.5137916803359985,0.012831642292439938,-0.05092629790306091
1789550672483477500,1.4094775390625,0.5587072372436523,-0.014335529878735542,-0.009339706040918827
1789550672493445600,1.419445556640625,0.6393687725067139,-0.04818377271294594,0.014808506704866886
1789550672503414500,1.42941455078125,0.6590069532394409,-0.03333558514714241,0.002174471039324999
1789550672513382700,1.439382568359375,0.5879748463630676,0.021513015031814575,-0.006384395994246006
1789550672523351600,1.4493515625,0.5961278080940247,-0.0205172598361969,0.021317273378372192
1789550672533319700,1.459319580078125,0.6393150091171265,0.0120689133182168,0.03350336477160454
1789550672543288800,1.469288818359375,0.6003934144973755,0.06699847429990768,0.007761782966554165
1789550672553256700,1.479256591796875,0.5894086956977844,0.06731192767620087,0.0011262508342042565
1789550672563225900,1.489225830078125,0.6102761626243591,0.08557482063770294,0.07149655371904373
1789550672573193700,1.49919384765625,0.6208750009536743,0.070384681224823,0.09114348888397217
1789550672583163000,1.509162841796875,0.5712062120437622,0.1012701615691185,0.05963350087404251
1789550672593130500,1.519130615234375,0.47706642746925354,0.16178171336650848,0.041298169642686844
1789550672603099600,1.529099609375,0.3817622661590576,0.19822973012924194,0.05114148184657097
1789550672613067500,1.539067626953125,0.26204147934913635,0.09749513119459152,0.03213583305478096
1789550672623036700,1.54903662109375,-0.04939790815114975,0.15559013187885284,0.08046261966228485
1789550672633004500,1.559004638671875,-0.09981580823659897,0.15161696076393127,0.09888476878404617
1789550672642972700,1.56897265625,-0.06996523588895798,0.11550289392471313,0.05330290272831917
1789550672652941800,1.57894189453125,-0.11299525946378708,0.17724934220314026,0.05108528956770897
1789550672662909700,1.58890966796875,-0.13597914576530457,0.22971388697624207,0.07769878953695297
1789550672672878800,1.59887890625,-0.09339093416929245,0.1630464494228363,0.08334442228078842
1789550672682846700,1.6088466796875,-0.04412271827459335,0.12123428285121918,0.08326426148414612
1789550672692816000,1.61881591796875,-0.14464479684829712,0.1385861039161682,0.06742111593484879
1789550672702783500,1.628783447265625,-0.26228728890419006,0.13019129633903503,0.09521839767694473
1789550672712752600,1.638752685546875,-0.24937467277050018,0.15281830728054047,0.03243330866098404
1789550672722720500,1.648720458984375,-0.29552245140075684,0.14684855937957764,0.04929138347506523
1789550672732689700,1.658689697265625,-0.30332818627357483,0.1511884480714798,0.010084059089422226
1789550672742657500,1.668657470703125,-0.2725881040096283,0.1355317234992981,-0.02315804921090603
1789550672752626700,1.678626708984375,-0.32220786809921265,0.129839226603508,0.02622867375612259
1789550672762594800,1.6885947265625,-0.31729620695114136,0.14698119461536407,0.011431618593633175
1789550672772563700,1.698563720703125,-0.27392902970314026,0.14451749622821808,0.019182216376066208
1789550672782531800,1.70853173828125,-0.26349157094955444,0.1465553492307663,0.016457270830869675
1789550672792500700,1.718500732421875,-0.26784634590148926,0.15020760893821716,0.01786182075738907
1789550672802468900,1.72846875,-0.24182620644569397,0.1407454013824463,-0.0035459990613162518
1789550672812437800,1.738437744140625,-0.201587975025177,0.12605354189872742,0.0032344090286642313
1789550672822405600,1.748405517578125,-0.17640352249145508,0.15091468393802643,-0.004388889297842979
1789550672832374500,1.75837451171875,-0.1590125560760498,0.14687199890613556,-0.020780378952622414
1789550672842342700,1.7683427734375,-0.16100460290908813,0.15141908824443817,-0.013681723736226559
1789550672852311600,1.7783115234375,-0.12493713945150375,0.15438637137413025,-0.03620167821645737
1789550672862279700,1.78827978515625,-0.08700467646121979,0.14012807607650757,-0.03880678489804268
1789550672872247800,1.798247802734375,-0.07405265420675278,0.14764006435871124,-0.04252428933978081
1789550672882216700,1.808216796875,-0.02935629151761532,0.1423366367816925,-0.09229424595832825
1789550672892184800,1.818184814453125,-0.004127100575715303,0.1453864872455597,-0.09050007164478302
1789550672902153700,1.82815380859375,-0.03620860353112221,0.18184490501880646,-0.06265219300985336
1789550672912121900,1.838121826171875,-0.0055817193351686,0.14935460686683655,-0.07224863022565842
1789550672922090800,1.8480908203125,0.03187350928783417,0.13012604415416718,-0.05697406828403473
1789550672932058600,1.85805859375,0.023182017728686333,0.18990975618362427,-0.06179172918200493
1789550672942027500,1.868027587890625,0.06241064518690109,0.17083778977394104,-0.09012589603662491
1789550672951995600,1.87799560546875,0.06907200813293457,0.17453931272029877,-0.09270650148391724
1789550672961964500,1.887964599609375,0.01811721920967102,0.15155623853206635,-0.09709139913320541
1789550672971932700,1.8979326171875,-0.014703578315675259,0.12304683029651642,-0.03393133357167244
1789550672981901600,1.907901611328125,0.023032881319522858,0.10154792666435242,0.01101323589682579
1789550672991869400,1.917869384765625,0.022406771779060364,0.1352321207523346,0.006370814051479101
1789550673001838300,1.92783837890625,0.02172446995973587,0.11363841593265533,-0.0010303769959136844
1789550673011806500,1.937806396484375,0.05974162742495537,0.15128380060195923,-0.04731079190969467
1789550673021775400,1.947775390625,0.005739378277212381,0.17857852578163147,0.004324440844357014
1789550673031743500,1.957743408203125,-0.0005451490869745612,0.16481424868106842,-0.03323465213179588
1789550673041712600,1.967712646484375,-0.05696900933980942,0.14483095705509186,-0.04854702949523926
1789550673051680500,1.977680419921875,-0.12032188475131989,0.1337660551071167,-0.04363243281841278
1789550673061649700,1.987649658203125,-0.13868410885334015,0.12890711426734924,0.00532445777207613
1789550673071617500,1.997617431640625,-0.18452084064483643,0.1104695200920105,0.06233687698841095
1789550673081586700,2.007586669921875,-0.24260704219341278,0.10029464215040207,-0.02791818417608738
1789550673091554600,2.017554443359375,-0.272310346364975,0.0923115536570549,-0.005012335255742073
1789550673101522400,2.0275224609375,-0.3125850558280945,0.09530095010995865,-0.03470365330576897
1789550673111491600,2.03749169921875,-0.3622279763221741,0.036790505051612854,-0.05354684963822365
1789550673121459500,2.04745947265625,-0.40121638774871826,0.04399408772587776,-0.0038719698786735535
1789550673131428600,2.0574287109375,-0.459849089384079,0.08830349892377853,0.00686003640294075
1789550673141396500,2.067396484375,-0.49503371119499207,0.05060245841741562,0.01570253074169159
1789550673151365600,2.07736572265625,-0.49414634704589844,0.042327750474214554,0.020773189142346382
1789550673161333500,2.08733349609375,-0.5306463241577148,0.08038672059774399,0.010659568943083286
1789550673171302700,2.097302734375,-0.5570025444030762,0.07876458764076233,0.015679894015192986
1789550673181270500,2.1072705078125,-0.6357855200767517,0.04489423707127571,0.08319076150655746
1789550673191239700,2.11723974609375,-0.7071004509925842,0.0178823284804821,0.09369640052318573
1789550673201207600,2.12720751953125,-0.7064138650894165,-0.016439160332083702,0.09179090708494186
1789550673211176700,2.1371767578125,-0.7514444589614868,-0.0229354090988636,0.030653249472379684
1789550673221144600,2.14714453125,-0.8889226913452148,-0.043413788080215454,0.10499326139688492
1789550673231113700,2.15711376953125,-0.8638322353363037,-0.06632202863693237,0.06541150063276291
1789550673241081600,2.16708154296875,-0.862457275390625,-0.07610142230987549,0.012528841383755207
1789550673251050500,2.177050537109375,-0.9235536456108093,-0.09394460171461105,0.04412218555808067
1789550673261018600,2.1870185546875,-0.8695889115333557,-0.12314216792583466,0.07785911113023758
1789550673270986500,2.196986572265625,-0.7412373423576355,-0.11837990581989288,0.02761644683778286
1789550673280955600,2.20695556640625,-0.6869704127311707,-0.09130514413118362,0.015871906653046608
1789550673290923500,2.216923583984375,-0.6418604254722595,-0.09737955033779144,-0.003352120751515031
1789550673300892700,2.226892578125,-0.5996916890144348,-0.12759684026241302,-0.0028003137558698654
1789550673310860500,2.236860595703125,-0.5522612929344177,-0.09694598615169525,0.03983849287033081
1789550673320829700,2.24682958984375,-0.5381659865379333,-0.10144966095685959,0.04557147994637489
1789550673330797600,2.256797607421875,-0.5279562473297119,-0.1240319311618805,0.0341891273856163
1789550673340766700,2.2667666015625,-0.4644579589366913,-0.1401083767414093,0.0346732921898365
1789550673350734600,2.276734619140625,-0.44027698040008545,-0.1543584167957306,0.09319864958524704
1789550673360703500,2.286703369140625,-0.4185304045677185,-0.2092251181602478,0.08550797402858734
1789550673370671600,2.296671630859375,-0.3676570951938629,-0.22653673589229584,0.061460964381694794
1789550673380640500,2.306640625,-0.3397495746612549,-0.2410706728696823,0.04097886011004448
1789550673390608600,2.316608642578125,-0.2713952958583832,-0.243037149310112,-0.003291134489700198
1789550673400577500,2.32657763671875,-0.29057350754737854,-0.2521403729915619,0.05937810614705086
1789550673410545700,2.336545654296875,-0.3036336600780487,-0.24033963680267334,0.03161225467920303
1789550673420514600,2.3465146484375,-0.23901763558387756,-0.27892884612083435,0.011631621979176998
1789550673430482700,2.356482666015625,-0.21989747881889343,-0.26168113946914673,-0.0211244598031044
1789550673440451600,2.36645166015625,-0.2012404352426529,-0.2825230360031128,-0.0030652983114123344
1789550673450419700,2.376419677734375,-0.1454184502363205,-0.3244001865386963,-0.02149091102182865
1789550673460387600,2.3863876953125,-0.16943776607513428,-0.2697470486164093,0.018914835527539253
1789550673470356500,2.3963564453125,-0.15653342008590698,-0.2923375964164734,0.012869992293417454
1789550673480324600,2.40632470703125,-0.09424979984760284,-0.32877495884895325,0.03316514194011688
1789550673490293500,2.41629345703125,-0.11662754416465759,-0.337868332862854,0.05145413428544998
1789550673500261600,2.42626171875,-0.09194963425397873,-0.33796340227127075,0.04824795573949814
1789550673510230500,2.43623046875,0.007803061977028847,-0.3296431601047516,-0.0504264235496521
1789550673520198700,2.44619873046875,-0.022471753880381584,-0.34977930784225464,-0.0489659458398819
1789550673530167600,2.45616748046875,-0.0484924353659153,-0.35549578070640564,0.010599114932119846
1789550673540135700,2.4661357421875,0.03966858237981796,-0.35355594754219055,0.03753698989748955
1789550673550104600,2.4761044921875,0.13022857904434204,-0.3438902497291565,0.03172757104039192
1789550673560072700,2.48607275390625,0.22118538618087769,-0.3320399820804596,0.004026965703815222
1789550673570041600,2.49604150390625,0.2597846984863281,-0.2950662672519684,-0.020427243784070015
1789550673580009500,2.506009521484375,0.28973275423049927,-0.33036139607429504,0.0034226945135742426
1789550673589978400,2.515978271484375,0.3678949177265167,-0.3137880265712738,-0.026524551212787628
1789550673599946500,2.525946533203125,0.40353041887283325,-0.30688509345054626,0.03329217806458473
1789550673609914600,2.53591455078125,0.47714072465896606,-0.2707180380821228,-0.02172047458589077
1789550673619883500,2.545883544921875,0.5181859135627747,-0.26268887519836426,-0.02726730704307556
1789550673629851600,2.5558515625,0.5065521597862244,-0.3189183175563812,0.014257232658565044
1789550673639820500,2.565820556640625,0.5425021648406982,-0.2333296686410904,0.01068114023655653
1789550673649788700,2.57578857421875,0.6118268966674805,-0.3233117461204529,0.0023451796732842922
1789550673659757600,2.585757568359375,0.6783776879310608,-0.2931325435638428,-0.05029113218188286
1789550673669725700,2.5957255859375,0.665738582611084,-0.20724666118621826,0.02714320458471775
1789550673679694600,2.605694580078125,0.6938841938972473,-0.2610640823841095,0.05775437504053116
1789550673689662500,2.615662353515625,0.8124476075172424,-0.2900770902633667,0.06605038791894913
1789550673699631400,2.62563134765625,0.8432585000991821,-0.15631796419620514,0.027834028005599976
1789550673709599500,2.635599609375,0.7660505771636963,-0.17943473160266876,0.02340146340429783
1789550673719568400,2.645568359375,0.7718544006347656,-0.1310853213071823,-0.0004468784318305552
1789550673729536500,2.65553662109375,0.8363356590270996,-0.14264050126075745,-0.014839399605989456
1789550673739505400,2.66550537109375,0.8346930146217346,-0.07987379282712936,-0.030912375077605247
1789550673749473500,2.6754736328125,0.7935961484909058,-0.021274395287036896,-0.04146568477153778
1789550673759442700,2.685442626953125,0.8226560354232788,-0.0302622988820076,-0.03614708408713341
1789550673769410600,2.69541064453125,0.8660584092140198,-0.061655376106500626,-0.03596599027514458
1789550673779378700,2.705378662109375,0.771765410900116,0.04024995118379593,0.00917219277471304
1789550673789347600,2.71534765625,0.7124477624893188,0.006085056811571121,0.07097643613815308
1789550673799315500,2.7253154296875,0.7496548295021057,0.030786674469709396,0.06523972004652023
1789550673809284400,2.735284423828125,0.6058701872825623,0.08727631717920303,0.02172580175101757
1789550673819252500,2.74525244140625,0.4295947849750519,0.11535722017288208,0.04799841716885567
1789550673829221400,2.755221435546875,0.3704555630683899,0.10389789938926697,0.020593957975506783
1789550673839189500,2.765189453125,0.2928329408168793,0.1096830889582634,-0.00004021373388241045
1789550673849158400,2.775158447265625,0.1830664873123169,0.1075778603553772,-0.06255978345870972
1789550673859126500,2.78512646484375,0.05048314854502678,0.105445995926857,0.0449480339884758
1789550673869095700,2.795095703125,0.10508434474468231,0.07986047863960266,0.01563648320734501
1789550673879063600,2.8050634765625,0.20253020524978638,0.09910501539707184,-0.00857271533459425
1789550673889032700,2.81503271484375,0.17697185277938843,0.17238880693912506,-0.023120231926441193
1789550673899000600,2.82500048828125,0.10997896641492844,0.1886865645647049,0.04445002228021622
1789550673908969700,2.8349697265625,0.17420828342437744,0.16364406049251556,-0.016288958489894867
1789550673918937300,2.844937255859375,0.13985005021095276,0.17848186194896698,0.02737782895565033
1789550673928905500,2.854905517578125,0.0686672106385231,0.18775765597820282,0.06892234086990356
1789550673938874400,2.864874267578125,0.0638761818408966,0.1797119677066803,0.013971475884318352
1789550673948842500,2.874842529296875,-0.01239035651087761,0.22953039407730103,-0.004621649626642466
1789550673958812700,2.884812744140625,-0.11251509189605713,0.2228996604681015,0.04294320568442345
1789550673968780800,2.89478076171875,-0.0917871743440628,0.2019919753074646,0.022786006331443787
1789550673978749700,2.904749755859375,-0.07385105639696121,0.2035837471485138,-0.030370688065886497
1789550673988717800,2.9147177734375,-0.1566798835992813,0.2173973023891449,-0.042810846120119095
1789550673998686700,2.924686767578125,-0.19584007561206818,0.18850892782211304,-0.022219818085432053
1789550674008654800,2.93465478515625,-0.18986260890960693,0.18889056146144867,-0.07883409410715103
1789550674018623700,2.944623779296875,-0.2540285587310791,0.1697070151567459,-0.07200388610363007
1789550674028591900,2.954591796875,-0.25769999623298645,0.18934009969234467,-0.031797610223293304
1789550674038560800,2.964560791015625,-0.18927538394927979,0.17661844193935394,-0.03153742104768753
1789550674048529000,2.97452880859375,-0.16717034578323364,0.14974474906921387,-0.014764298684895039
1789550674058497800,2.984497802734375,-0.1475689560174942,0.11825180798768997,0.009829727932810783
1789550674068465700,2.994465576171875,-0.16309064626693726,0.1252250224351883,-0.0215993020683527
1789550674078433800,3.004433837890625,-0.2579633593559265,0.038964178413152695,0.19020509719848633
1789550674088402700,3.014402587890625,-0.29603058099746704,0.1562149077653885,0.24210025370121002
1789550674098370800,3.024370849609375,-0.2072266936302185,0.1573435515165329,0.2568568289279938
1789550674108339700,3.034339599609375,-0.21621565520763397,0.11648213863372803,0.1346624791622162
1789550674118307800,3.044307861328125,-0.3504573404788971,0.0022485069930553436,0.12076050788164139
1789550674128276700,3.05427685546875,-0.3925877511501312,-0.013321930542588234,0.0776364728808403
1789550674138244900,3.064244873046875,-0.2670072019100189,0.032045818865299225,-0.03976365923881531
1789550674148213800,3.0742138671875,-0.20437709987163544,0.11820147186517715,-0.24015668034553528
1789550674158182000,3.084181884765625,-0.2269687056541443,-0.006323676090687513,-0.10741060972213745
1789550674168150800,3.09415087890625,-0.1801346242427826,0.03827761486172676,-0.1803753674030304
1789550674178118700,3.10411865234375,-0.03466024249792099,-0.02895521931350231,-0.144203782081604
1789550674188087800,3.114087890625,-0.02022617496550083,0.00977619830518961,-0.12851563096046448
1789550674198055700,3.1240556640625,-0.15358076989650726,0.017106017097830772,0.004083158448338509
1789550674208024800,3.13402490234375,-0.10262011736631393,-0.00008974852971732616,-0.01913747563958168
1789550674217992700,3.14399267578125,0.0057036918587982655,0.01227477565407753,-0.07136392593383789
1789550674227960800,3.1539609375,-0.03573722392320633,0.026804715394973755,0.02214098908007145
1789550674237929700,3.1639296875,-0.10913873463869095,0.05180327594280243,0.07673365622758865
1789550674247897900,3.17389794921875,-0.07274051755666733,0.07061265408992767,0.03128761425614357
1789550674257866800,3.18386669921875,-0.05401476472616196,0.056528523564338684,0.019178753718733788
1789550674267835000,3.1938349609375,-0.1211000606417656,0.028813272714614868,0.05929155275225639
1789550674277803800,3.2038037109375,-0.12803812325000763,0.05746462568640709,0.0199848935008049
1789550674287771600,3.213771728515625,-0.13607154786586761,0.03768372908234596,-0.054426491260528564
1789550674297740800,3.22374072265625,-0.22283600270748138,0.007834487594664097,-0.011451859027147293
1789550674307708700,3.233708740234375,-0.20989730954170227,0.04210697486996651,-0.17066921293735504
1789550674317677800,3.243677734375,-0.22672981023788452,-0.047206394374370575,-0.08015981316566467
1789550674327645700,3.253645751953125,-0.18920934200286865,0.041673146188259125,-0.18522444367408752
1789550674337613800,3.26361376953125,-0.2741508483886719,0.08242297172546387,-0.17410574853420258
1789550674347582700,3.273582763671875,-0.36249804496765137,0.03605946898460388,-0.07345504313707352
1789550674357550800,3.28355078125,-0.388045996427536,0.028630046173930168,-0.10367686301469803
1789550674367519700,3.293519775390625,-0.370222270488739,-0.1021822914481163,0.04518026113510132
1789550674377488000,3.30348779296875,-0.35253116488456726,-0.1624392420053482,0.2223329395055771
1789550674387456800,3.313456787109375,-0.14539821445941925,-0.08858872205018997,0.0942804291844368
1789550674397424600,3.323424560546875,-0.12355469167232513,-0.025306155905127525,0.08944785594940186
1789550674407393800,3.333393798828125,-0.19418412446975708,0.06564292311668396,0.1954754889011383
1789550674417361700,3.343361572265625,-0.031445540487766266,0.0206363033503294,0.08594819903373718
1789550674427330800,3.353330810546875,0.08326053619384766,-0.06179572269320488,-0.06488605588674545
1789550674437298700,3.363298583984375,-0.049250103533267975,-0.049737729132175446,-0.06709408015012741
1789550674447267800,3.373267822265625,-0.17107561230659485,-0.08359955251216888,0.07102704048156738
1789550674457235700,3.383235595703125,-0.11776551604270935,-0.17140157520771027,0.04289793223142624
1789550674467204900,3.393204833984375,-0.012019910849630833,-0.16528962552547455,-0.04141188785433769
1789550674477172700,3.4031728515625,-0.1599704921245575,-0.055503737181425095,-0.06094617396593094
1789550674487140900,3.413140869140625,-0.22445175051689148,-0.09984590113162994,-0.009315204806625843
1789550674497110000,3.423110107421875,-0.08334655314683914,-0.15842479467391968,0.024205736815929413
1789550674507077600,3.43307763671875,-0.07181879878044128,-0.1071389690041542,0.01780616119503975
1789550674517047000,3.443047119140625,-0.07571686804294586,-0.0878896415233612,-0.007310110609978437
1789550674527014700,3.4530146484375,-0.08098353445529938,-0.07804526388645172,-0.0246126689016819
1789550674536983800,3.46298388671875,-0.03513774648308754,-0.11348474770784378,-0.03175792843103409
1789550674546951700,3.47295166015625,-0.05649496614933014,-0.144690603017807,0.09005346149206161
1789550674556920800,3.4829208984375,-0.09774307161569595,-0.07349126040935516,0.10761594027280807
1789550674566888700,3.492888671875,0.04537893459200859,-0.08503153920173645,-0.0025784724857658148
1789550674576857900,3.50285791015625,0.03438061103224754,-0.08057740330696106,-0.03447328880429268
1789550674586825700,3.51282568359375,-0.04500742256641388,-0.05275695398449898,0.032694827765226364
1789550674596793900,3.5227939453125,-0.03204954415559769,-0.09567059576511383,0.007139668334275484
1789550674606763000,3.532762939453125,0.0005054679932072759,-0.12934467196464539,-0.0610889196395874
1789550674616731000,3.54273095703125,-0.0927824005484581,-0.12543648481369019,-0.002951048780232668
1789550674626700000,3.552699951171875,-0.12857714295387268,-0.08329169452190399,-0.005016330163925886
1789550674636667600,3.562667724609375,-0.06458991020917892,-0.1346512883901596,-0.015690546482801437
1789550674646636800,3.57263671875,-0.01685541309416294,-0.10555412620306015,-0.030296919867396355
1789550674656604700,3.582604736328125,-0.06560111045837402,-0.022396918386220932,-0.06015628203749657
1789550674666573800,3.59257373046875,-0.01769058033823967,-0.07334265857934952,-0.034018419682979584
1789550674676541700,3.602541748046875,-0.0034059167373925447,-0.08498919010162354,0.010369017720222473
1789550674686510800,3.6125107421875,0.023494407534599304,-0.057800982147455215,-0.013409548439085484
1789550674696478700,3.622478759765625,0.05933789163827896,-0.05247678980231285,-0.05194122716784477
1789550674706448000,3.63244775390625,0.034341197460889816,-0.006085323169827461,-0.06308548897504807
1789550674716416000,3.642416015625,0.048225853592157364,-0.07079800963401794,-0.031019434332847595
1789550674726383900,3.6523837890625,0.15766872465610504,-0.0796588733792305,-0.041433461010456085
1789550674736353000,3.66235302734375,0.17030036449432373,-0.08422939479351044,-0.08185545355081558
1789550674746320600,3.672320556640625,0.14014512300491333,-0.07418874651193619,-0.060497432947158813
1789550674756289800,3.682289794921875,0.10434318333864212,-0.06189612299203873,-0.024287229403853416
1789550674766257700,3.692257568359375,0.17619048058986664,-0.10728863626718521,-0.020008862018585205
1789550674776226800,3.702226806640625,0.20214511454105377,-0.08946330100297928,-0.002153431996703148
1789550674786194700,3.712194580078125,0.18488329648971558,-0.05118941888213158,0.017601629719138145
1789550674796163800,3.722163818359375,0.24949398636817932,-0.10781674087047577,0.03062688559293747
1789550674806131700,3.732131591796875,0.25595560669898987,-0.05180114507675171,0.011290471069514751
1789550674816100900,3.742100830078125,0.2809264659881592,-0.11990270018577576,0.02461879327893257
1789550674826069000,3.752069091796875,0.3099314868450165,-0.049845319241285324,-0.005659217480570078
1789550674836036900,3.762036865234375,0.37425535917282104,-0.07472030818462372,0.010616691783070564
1789550674846006000,3.772006103515625,0.42423704266548157,-0.10577356815338135,0.0421900637447834
1789550674855973600,3.7819736328125,0.4113992750644684,-0.02997441031038761,0.05000990256667137
1789550674865942800,3.79194287109375,0.45195120573043823,-0.034690070897340775,0.046610645949840546
1789550674875910700,3.80191064453125,0.47214651107788086,0.019957462325692177,0.028012726455926895
1789550674885879800,3.8118798828125,0.4410676658153534,0.017357151955366135,0.03485172241926193
1789550674895847700,3.82184765625,0.4223717451095581,0.022416625171899796,0.018006430938839912
1789550674905816800,3.83181689453125,0.4022523760795593,0.03321414440870285,-0.015974439680576324
1789550674915785000,3.841784912109375,0.35902872681617737,0.01643250323832035,-0.017017599195241928
1789550674925753900,3.85175390625,0.29933425784111023,0.022842198610305786,-0.0036759611684828997
1789550674935722000,3.861721923828125,0.27547845244407654,0.060926202684640884,0.003471963107585907
1789550674945691000,3.87169091796875,0.3339036703109741,0.055213987827301025,-0.0052173989824950695
1789550674955658000,3.881657958984375,0.31376218795776367,0.0811113640666008,-0.07587452232837677
1789550674965626000,3.891626220703125,0.23205214738845825,0.08682970702648163,-0.013952034525573254
1789550674975595000,3.901594970703125,0.1972036212682724,0.05206506699323654,0.04743729159235954
1789550674985563000,3.91156298828125,0.19193801283836365,0.12088913470506668,-0.028915537521243095
1789550674995531800,3.92153173828125,0.11274679005146027,0.12025131285190582,-0.06315872818231583
1789550675005500000,3.9315,-0.03888028860092163,0.07499914616346359,0.041246507316827774
1789550675015468800,3.94146875,-0.07796537131071091,0.09415686130523682,0.006454437039792538
1789550675025437000,3.95143701171875,-0.056536246091127396,0.07969829440116882,-0.038717567920684814
1789550675035405800,3.96140576171875,-0.12714064121246338,0.116054967045784,-0.02713281847536564
1789550675045374000,3.9713740234375,-0.16533489525318146,0.12024544924497604,0.038108501583337784
1789550675055342800,3.9813427734375,-0.12374324351549149,0.11362989246845245,-0.04758722707629204
1789550675065311000,3.99131103515625,-0.14158056676387787,0.08828991651535034,-0.019403524696826935
1789550675075280000,4.00127978515625,-0.234854593873024,0.08434657007455826,0.13297297060489655
1789550675085248000,4.011248046875,-0.12600213289260864,0.04471553862094879,0.0776071771979332
1789550675095215900,4.0212158203125,-0.053702108561992645,0.1347743272781372,-0.046065762639045715
1789550675105184800,4.031184814453125,-0.17402638494968414,0.14812394976615906,-0.013026053085923195
1789550675115153000,4.04115283203125,-0.1638222187757492,0.06989093124866486,0.05187598243355751
1789550675125121800,4.051121826171875,-0.03863447904586792,0.03281600400805473,-0.008797752670943737
1789550675135090000,4.06108984375,-0.10066375881433487,0.048470862209796906,-0.026613501831889153
1789550675145058800,4.071058837890625,-0.1855006217956543,0.10947589576244354,-0.003961984533816576
1789550675155027000,4.08102685546875,-0.14040398597717285,0.0511566624045372,-0.011779960244894028
1789550675164995800,4.090995849609375,-0.062069229781627655,0.0018221348291262984,-0.03453986719250679
1789550675174964000,4.1009638671875,-0.09329639375209808,0.05470265820622444,-0.021991051733493805
1789550675184932900,4.110932861328125,-0.0729580968618393,-0.008569786325097084,-0.026310432702302933
1789550675194901000,4.12090087890625,-0.01678377389907837,-0.0173273254185915,0.006976683158427477
1789550675204868900,4.130868896484375,-0.029353095218539238,-0.002784867538139224,-0.03924993425607681
1789550675214837800,4.140837646484375,-0.027303792536258698,0.008104532025754452,0.0036397422663867474
1789550675224806000,4.150805908203125,-0.03423387184739113,-0.03099653124809265,-0.009135973639786243
1789550675234774800,4.16077490234375,-0.013875868171453476,-0.02827451564371586,-0.03099386766552925
1789550675244743000,4.170742919921875,-0.038955654948949814,-0.01607270911335945,-0.006104497704654932
1789550675254711800,4.1807119140625,-0.04008882865309715,-0.016039952635765076,0.018001103773713112
1789550675264680000,4.190679931640625,-0.009881925769150257,-0.002549710450693965,-0.04055222123861313
1789550675274648800,4.20064892578125,0.0006271744496189058,-0.042027343064546585,-0.018254637718200684
1789550675284617000,4.210616943359375,-0.01383805088698864,-0.005940447095781565,-0.02520415559411049
1789550675294585900,4.2205859375,-0.06836840510368347,0.018698053434491158,-0.06649540364742279
1789550675304554000,4.230553955078125,-0.07301109284162521,0.06821367144584656,-0.06745147705078125
1789550675314521900,4.24052197265625,-0.10279721766710281,-0.049373406916856766,0.07346329838037491
1789550675324490800,4.25049072265625,0.0695367306470871,-0.03261839598417282,-0.004658667836338282
1789550675334459000,4.260458984375,0.04501354694366455,0.05366269499063492,-0.04484177380800247
1789550675344427800,4.270427734375,-0.052872803062200546,0.0627904161810875,-0.03906217962503433
1789550675354396000,4.28039599609375,-0.0514964796602726,0.043541353195905685,-0.000016777914424892515
1789550675364364800,4.29036474609375,-0.00954130757600069,0.0018282600212842226,-0.004216849338263273
1789550675374333000,4.3003330078125,-0.15138526260852814,0.06671964377164841,0.010675547644495964
1789550675384301800,4.3103017578125,-0.2695862054824829,0.028297951444983482,0.048410676419734955
1789550675394270000,4.32027001953125,-0.3052006661891937,0.009691243059933186,0.04288754612207413
1789550675404238800,4.33023876953125,-0.3008594512939453,-0.047319844365119934,0.011657188646495342
1789550675414207000,4.34020703125,-0.2503373920917511,-0.02521267905831337,-0.01503913663327694
1789550675424175900,4.35017578125,-0.2436286360025406,-0.08629520982503891,0.005854426883161068
1789550675434143700,4.360143798828125,-0.22225837409496307,-0.11233719438314438,-0.008303469978272915
1789550675444112000,4.37011181640625,-0.2231513261795044,-0.06340187788009644,0.004256263840943575
1789550675454080800,4.380080810546875,-0.3017699718475342,-0.04646097496151924,-0.019224029034376144
1789550675464049000,4.390048828125,-0.2516745924949646,-0.05541159212589264,0.015091334469616413
1789550675474017800,4.400017822265625,-0.1500486135482788,-0.1454157829284668,0.017615744844079018
1789550675483986000,4.40998583984375,-0.06681205332279205,-0.08748217672109604,-0.0185872670263052
1789550675493954800,4.419954833984375,-0.04800853878259659,-0.050696466118097305,-0.029213812202215195
1789550675503923000,4.4299228515625,-0.06726265698671341,-0.07650808990001678,0.0033135050907731056
1789550675513891800,4.439891845703125,-0.07340390980243683,-0.14630155265331268,0.10661805421113968
1789550675523860000,4.44985986328125,-0.061820223927497864,-0.13335539400577545,0.07219856232404709
1789550675533828900,4.459828857421875,-0.04842452332377434,-0.09371291100978851,-0.029032716527581215
1789550675543796700,4.469796630859375,-0.09652840346097946,-0.05957145243883133,-0.03930985555052757
1789550675553764900,4.479764892578125,-0.05204588919878006,-0.15370620787143707,0.0019049590919166803
1789550675563733800,4.489733642578125,0.0844602882862091,-0.1253853589296341,-0.013543771579861641
1789550675573702000,4.499701904296875,0.13264726102352142,-0.20275284349918365,-0.02659459225833416
1789550675583670800,4.5096708984375,0.26159724593162537,-0.14622165262699127,-0.06209852546453476
1789550675593639000,4.519638916015625,0.25291135907173157,-0.12545086443424225,0.039202794432640076
1789550675603607800,4.52960791015625,0.22244904935359955,-0.14077548682689667,0.013202354311943054
1789550675613576000,4.539575927734375,0.25561127066612244,-0.12570013105869293,-0.007538876496255398
1789550675623544800,4.549544921875,0.2416246086359024,-0.18627400696277618,0.03481896594166756
1789550675633513000,4.559512939453125,0.2739838659763336,-0.11352816224098206,0.0030397321097552776
1789550675643480800,4.569480712890625,0.28115764260292053,-0.13873285055160522,0.026614300906658173
1789550675653450000,4.579449951171875,0.46861833333969116,-0.097757987678051,-0.0030011162161827087
1789550675663417900,4.58941796875,0.506357729434967,-0.10655014216899872,-0.017110010609030724
1789550675673386800,4.59938671875,0.47196513414382935,-0.048224255442619324,-0.011361843906342983
1789550675683355000,4.60935498046875,0.4978848993778229,-0.04302336648106575,0.012915532104671001
1789550675693323800,4.61932373046875,0.43209150433540344,-0.0057497648522257805,-0.02311757020652294
1789550675703292000,4.6292919921875,0.3877434730529785,0.01690548099577427,-0.028544826433062553
1789550675713260800,4.6392607421875,0.38971659541130066,-0.025202292948961258,-0.027189010754227638
1789550675723229000,4.64922900390625,0.3544688820838928,-0.02959704026579857,0.01872148923575878
1789550675733197800,4.65919775390625,0.3610687255859375,-0.02485368400812149,0.028927255421876907
1789550675743166000,4.669166015625,0.2845883071422577,-0.006457100156694651,0.0191957987844944
1789550675753134000,4.679134033203125,0.24553892016410828,0.00022503710351884365,0.0010612696642056108
1789550675763103000,4.68910302734375,0.2484031468629837,0.03901158273220062,-0.02761618047952652
1789550675773070800,4.69907080078125,0.17461548745632172,-0.006713029928505421,0.011718973517417908
1789550675783039700,4.709039794921875,0.1725243628025055,-0.006128998938947916,0.030341926962137222
1789550675793007900,4.7190078125,0.1738719344139099,-0.019818179309368134,0.0040855552069842815
1789550675802976800,4.728976806640625,0.1423366367816925,-0.0009318400407209992,-0.014456703327596188
1789550675812945000,4.73894482421875,0.10261692106723785,-0.003439472522586584,0.023556191474199295
1789550675822913800,4.748913818359375,0.10697918385267258,-0.0005941512063145638,0.002284992253407836
1789550675832882000,4.7588818359375,0.10624095052480698,-0.015851933509111404,-0.01050270814448595
1789550675842850800,4.768850830078125,0.10078652948141098,-0.010538394562900066,-0.019419237971305847
1789550675852819000,4.77881884765625,0.11844568699598312,0.02701270952820778,-0.019999008625745773
1789550675862787000,4.788787109375,0.09909356385469437,0.042934149503707886,-0.0010431602131575346
1789550675872756000,4.798755859375,0.0703202337026596,0.08460463583469391,0.016527045518159866
1789550675882723800,4.808723876953125,0.046658314764499664,0.017907626926898956,0.04898405447602272
1789550675892692700,4.818692626953125,0.04930123686790466,0.05801456794142723,0.036854952573776245
1789550675902660900,4.828660888671875,0.03260774537920952,0.06633827835321426,-0.0001001348573481664
1789550675912629800,4.838629638671875,0.10908015072345734,0.06111768260598183,-0.0442659966647625
1789550675922598000,4.848597900390625,0.11793755739927292,0.08934000134468079,-0.046838078647851944
1789550675932566800,4.85856689453125,0.11457771062850952,0.07752168923616409,0.008113319985568523
1789550675942535000,4.868534912109375,0.14893701672554016,0.06469510495662689,0.09039913862943649
1789550675952503800,4.87850390625,0.08120989799499512,0.10503294318914413,0.023201726377010345
1789550675962471200,4.88847119140625,-0.0006772418855689466,0.07606787234544754,-0.0024740765802562237
1789550675972439300,4.898439208984375,0.05372314900159836,0.06278987973928452,-0.03171877935528755
1789550675982408200,4.908408203125,0.15002784132957458,0.057618822902441025,-0.024691764265298843
1789550675992376300,4.918376220703125,0.22696790099143982,0.05576872453093529,-0.07510673254728317
1789550676002345200,4.92834521484375,0.19704408943653107,0.10055243968963623,-0.06640592217445374
1789550676012313300,4.938313232421875,0.165909081697464,0.059480901807546616,-0.0031403994653373957
1789550676022282200,4.9482822265625,0.1646893471479416,0.10467314720153809,-0.00788402184844017
1789550676032250400,4.95825048828125,0.1091722920536995,0.055808402597904205,-0.04670465365052223
1789550676042219500,4.968219482421875,0.03906937316060066,0.07402335852384567,-0.05758260190486908
1789550676052187100,4.978187255859375,-0.007941014133393764,0.05014412850141525,-0.02688833884894848
1789550676062156300,4.98815625,-0.0250406377017498,0.049914829432964325,0.018426677212119102
1789550676072124200,4.998124267578125,0.02550322934985161,0.024323182180523872,0.025536784902215004
1789550676082092300,5.00809228515625,0.013352290727198124,0.1017489954829216,-0.040536507964134216
1789550676092061200,5.018061279296875,0.013909423723816872,0.06451241672039032,0.005542570725083351
1789550676102029300,5.028029296875,0.048957157880067825,0.06482400000095367,-0.0193736981600523
1789550676111998200,5.037998291015625,0.030758177861571312,0.07844793796539307,-0.01683810167014599
1789550676121966300,5.04796630859375,0.032725989818573,0.09842457622289658,0.009325857274234295
1789550676131935200,5.057935302734375,-0.03991679102182388,0.1356329321861267,-0.023069899529218674
1789550676141903400,5.0679033203125,-0.006914631463587284,0.07458608597517014,-0.004531102254986763
1789550676151872500,5.07787255859375,0.01774384267628193,0.07675736397504807,-0.03994635120034218
1789550676161840000,5.087840087890625,-0.022535935044288635,0.061296913772821426,-0.004611263517290354
1789550676171808300,5.097808349609375,-0.07116951793432236,0.06649699807167053,-0.0027917916886508465
1789550676181777200,5.107777099609375,-0.12218955904245377,0.022491460666060448,0.024264859035611153
1789550676191745300,5.117745361328125,-0.1388726681470871,0.01071096770465374,0.02033643051981926
1789550676201714200,5.127714111328125,-0.14641660451889038,-0.022243520244956017,0.013709686696529388
1789550676211682300,5.137682373046875,-0.11361284554004669,-0.00977246928960085,-0.0029467877466231585
1789550676221651200,5.147651123046875,-0.11174517124891281,-0.04632408916950226,-0.0010133327450603247
1789550676231619300,5.157619384765625,-0.08364535868167877,-0.04487453028559685,0.0034000577870756388
1789550676241588500,5.16758837890625,-0.02269279584288597,-0.06968427449464798,0.0046091326512396336
1789550676251556400,5.177556396484375,0.012337093241512775,-0.07100386917591095,-0.020410733297467232
1789550676261525500,5.187525390625,0.02118384838104248,-0.03569434955716133,-0.0503702312707901
1789550676271493000,5.1974931640625,0.03646639734506607,-0.04332244023680687,-0.044327784329652786
1789550676281461200,5.207461181640625,0.10413385927677155,-0.03446396812796593,-0.03355742618441582
1789550676291430100,5.21743017578125,0.14973489940166473,-0.027005251497030258,-0.0137200728058815
1789550676301398300,5.227398193359375,0.11165222525596619,-0.007847269997000694,-0.003891411004588008
1789550676311367200,5.2373671875,0.06630871444940567,0.009900301694869995,0.049261823296546936
1789550676321335300,5.247335205078125,0.07010132074356079,0.05594342574477196,0.026857713237404823
1789550676331304200,5.25730419921875,0.10512881726026535,0.006200638134032488,-0.04480821639299393
1789550676341272300,5.267272216796875,0.132102370262146,-0.03754923865199089,-0.0173875130712986
1789550676351241500,5.277241455078125,0.14314331114292145,-0.011972772888839245,-0.02370612882077694
1789550676361209300,5.287209228515625,0.1879110485315323,-0.02491200715303421,-0.0033451966010034084
1789550676371177200,5.29717724609375,0.16903056204319,0.05314284563064575,-0.07789772748947144
1789550676381146400,5.307146484375,0.05362354591488838,0.007443002425134182,0.015411446802318096
1789550676391114200,5.3171142578125,0.015194399282336235,-0.015794143080711365,0.016261260956525803
1789550676401083100,5.327083251953125,0.0051899682730436325,-0.02845667488873005,0.025172198191285133
1789550676411051300,5.33705126953125,0.021976672112941742,-0.042635343968868256,-0.009271794930100441
1789550676421020200,5.347020263671875,0.04911801218986511,-0.056946638971567154,0.005336175672709942
1789550676430988300,5.35698828125,0.2145109623670578,-0.062306515872478485,-0.015157381072640419
1789550676440957200,5.366957275390625,0.28906774520874023,-0.046731818467378616,0.023137809708714485
1789550676450925300,5.37692529296875,0.40874356031417847,-0.019059712067246437,-0.019285546615719795
1789550676460893400,5.3868935546875,0.430036336183548,-0.003381948219612241,-0.07127924263477325
1789550676470862300,5.3968623046875,0.2809251546859741,0.026218820363283157,-0.0181177519261837
1789550676480830200,5.406830322265625,0.2911042869091034,0.026671025902032852,0.0005446164286695421
1789550676490799400,5.41679931640625,0.25967419147491455,-0.018879415467381477,0.006929811555892229
1789550676500767200,5.426767333984375,0.16615009307861328,0.017194433137774467,0.021580126136541367
1789550676510736100,5.436736083984375,0.19790056347846985,-0.003968908917158842,0.022363096475601196
1789550676520704300,5.446704345703125,0.13746970891952515,0.021169200539588928,-0.004761199466884136
1789550676530673200,5.456673095703125,0.12585167586803436,0.002775546396151185,-0.020540961995720863
1789550676540641300,5.466641357421875,0.13369175791740417,0.06166256591677666,-0.04129044711589813
1789550676550610200,5.476610107421875,0.16487284004688263,0.008265652693808079,-0.030007965862751007
1789550676560578300,5.486578369140625,0.14250308275222778,0.046906523406505585,0.012858274392783642
1789550676570546400,5.49654638671875,0.10978162288665771,0.048349156975746155,0.019901802763342857
1789550676580515300,5.506515380859375,0.1414434164762497,0.004315386060625315,0.004577174782752991
1789550676590483500,5.5164833984375,0.06209852546453476,0.011212972924113274,-0.009035040624439716
1789550676600452400,5.526452392578125,0.007714911364018917,0.06498006731271744,-0.022792130708694458
1789550676610420200,5.536420166015625,0.02544304169714451,-0.016095612198114395,0.007163104135543108
1789550676620389000,5.54638916015625,0.03608716279268265,0.030120352283120155,-0.044686511158943176
1789550676630357200,5.556357177734375,-0.1397978514432907,0.02919250726699829,-0.017593374475836754
1789550676640326100,5.566326171875,-0.16806703805923462,0.04213307052850723,0.021812088787555695
1789550676650294300,5.576294189453125,-0.09580748528242111,0.027462517842650414,-0.024027038365602493
1789550676660262400,5.586262451171875,-0.06958946585655212,0.07562924921512604,-0.03855618089437485
1789550676670231300,5.596231201171875,-0.07774113118648529,0.05065172538161278,0.005167864263057709
1789550676680199400,5.606199462890625,-0.07683832198381424,0.09187852591276169,-0.021320201456546783
1789550676690168300,5.616168212890625,-0.006314354948699474,0.03942064195871353,-0.09639764577150345
1789550676700136400,5.626136474609375,-0.08787766098976135,0.10048293322324753,-0.033537719398736954
1789550676710105300,5.636105224609375,-0.0802471712231636,0.023663783445954323,-0.03602617606520653
1789550676720073200,5.6460732421875,-0.0965355932712555,0.05459107458591461,0.01564181037247181
1789550676730042000,5.6560419921875,-0.19693623483181,0.08907581120729446,-0.0034200313966721296
1789550676740010200,5.66601025390625,-0.2561928927898407,0.11368048936128616,0.017355287447571754
1789550676749978400,5.675978271484375,-0.13652056455612183,0.02978559210896492,-0.01236372534185648
1789550676759947300,5.685947265625,-0.07136579602956772,0.03236512839794159,-0.04609239473938942
1789550676769915400,5.695915283203125,-0.06314221769571304,0.032653018832206726,-0.05714557692408562
1789550676779884300,5.70588427734375,-0.018914835527539253,-0.019301526248455048,-0.05648511275649071
1789550676789852400,5.715852294921875,0.049853045493364334,0.0002972087822854519,-0.07223132252693176
1789550676799821300,5.7258212890625,-0.017680726945400238,0.019095130264759064,-0.04411313310265541
1789550676809789400,5.73578955078125,-0.041906703263521194,0.014255634509027004,-0.020109528675675392
1789550676819758300,5.74575830078125,-0.08918447047472,0.009669139049947262,0.043046269565820694
1789550676829726200,5.755726318359375,-0.07224250584840775,-0.014772821217775345,0.05925826355814934
1789550676839694300,5.7656943359375,0.03531964123249054,-0.03847122564911842,-0.03843260928988457
1789550676849663200,5.775663330078125,0.0314125157892704,-0.009227586910128593,-0.03399578481912613
1789550676859631400,5.78563134765625,0.12836968898773193,-0.08629520982503891,-0.007699997629970312
1789550676869600300,5.795600341796875,0.2687433063983917,-0.06217389181256294,-0.014879346825182438
1789550676879568400,5.805568359375,0.27886730432510376,-0.027904069051146507,0.008519185706973076
1789550676889537300,5.815537353515625,0.341233491897583,0.058635350316762924,-0.00902758352458477
1789550676899505400,5.82550537109375,0.3417533338069916,-0.03338006138801575,0.0014652712270617485
1789550676909474300,5.835474365234375,0.33585336804389954,0.02798103354871273,0.040097083896398544
1789550676919442400,5.8454423828125,0.32205820083618164,0.024574052542448044,-0.000833036785479635
1789550676929410300,5.855410400390625,0.29844313859939575,0.0622231587767601,0.045882802456617355
1789550676939379200,5.865379150390625,0.3736007511615753,0.05369465425610542,0.022828083485364914
1789550676949347300,5.875347412109375,0.3483380079269409,0.11341843754053116,0.014574415050446987
1789550676959316000,5.88531591796875,0.23368173837661743,0.11545202881097794,0.06185005232691765
1789550676969283800,5.895283935546875,0.23412221670150757,0.14805817604064941,0.006046707276254892
1789550676979253000,5.9052529296875,0.1797202229499817,0.07375012338161469,0.047323305159807205
1789550676989220900,5.915220947265625,0.10296553373336792,0.1384739875793457,0.05432529002428055
1789550676999189800,5.925189697265625,0.053646981716156006,0.0982900857925415,0.022224079817533493
1789550677009158000,5.935157958984375,0.06980571150779724,0.15516215562820435,-0.021102089434862137
1789550677019126000,5.9451259765625,0.11381418257951736,0.055512793362140656,0.0042706448584795
1789550677029095000,5.955094970703125,0.08485469967126846,0.14264076948165894,0.032696161419153214
1789550677039063000,5.96506298828125,0.028312597423791885,0.1452046036720276,-0.011914449743926525
1789550677049032000,5.975031982421875,0.013383449986577034,0.10928947478532791,0.03587251156568527
1789550677059000000,5.985,-0.03400590270757675,0.1007617637515068,0.03411083295941353
1789550677068969000,5.994968994140625,-0.06687969714403152,0.13016332685947418,-0.03341042250394821
1789550677078937000,6.00493701171875,-0.027628431096673012,0.11418090015649796,-0.048465803265571594
1789550677088905000,6.014905029296875,-0.011922972276806831,0.07594110071659088,-0.031691618263721466
1789550677098873900,6.024873779296875,-0.017553161829710007,0.057920023798942566,0.00427117757499218
1789550677108842000,6.034842041015625,-0.06848052144050598,0.06212196126580238,-0.03791622444987297
1789550677118811000,6.044810791015625,-0.19214147329330444,0.09496672451496124,0.009020392782986164
1789550677128779000,6.054779052734375,-0.2949970066547394,0.07509022206068039,-0.011233213357627392
1789550677138748000,6.064747802734375,-0.33201682567596436,0.09286362677812576,-0.004333495628088713
1789550677148716000,6.074716064453125,-0.2642636001110077,0.05211247131228447,-0.060030315071344376
1789550677158685000,6.084684814453125,-0.40177860856056213,0.06621070951223373,0.02642281912267208
1789550677168653000,6.094653076171875,-0.4021788537502289,0.046977896243333817,0.03515958413481712
1789550677178621000,6.104620849609375,-0.2893660366535187,0.023132748901844025,-0.05025065317749977
1789550677188590000,6.114590087890625,-0.34988105297088623,0.02900182455778122,-0.07043608278036118
1789550677198558000,6.124557861328125,-0.3598146438598633,0.0032858080230653286,-0.05350663512945175
1789550677208526800,6.13452685546875,-0.20441199839115143,-0.08277477324008942,-0.04589425399899483
1789550677218495000,6.144494873046875,-0.14438115060329437,-0.03466130793094635,-0.009309878572821617
1789550677228463900,6.1544638671875,-0.026981282979249954,-0.02901034615933895,-0.06515423208475113
1789550677238432000,6.164431884765625,0.09779686480760574,-0.03849519416689873,-0.02376445196568966
1789550677248401000,6.17440087890625,0.17960092425346375,-0.06615451723337173,0.0411788634955883
1789550677258369000,6.184369140625,0.2960268557071686,-0.05258624628186226,0.01631186157464981
1789550677268337000,6.1943369140625,0.30592235922813416,-0.0275671798735857,0.0023105584550648928
1789550677278306000,6.20430615234375,0.24767957627773285,-0.00023276027059182525,-0.01050084363669157
1789550677288274200,6.214274169921875,0.2813619077205658,-0.06706931442022324,0.028925657272338867
1789550677298243000,6.2242431640625,0.3212320804595947,-0.049311358481645584,-0.002263686852529645
1789550677308211000,6.2342109375,0.31175974011421204,-0.004193946253508329,-0.02413010410964489
1789550677318179800,6.244179931640625,0.2963171601295471,0.04619705677032471,0.0035483958199620247
1789550677328148000,6.25414794921875,0.2801762521266937,0.04012078791856766,0.008828112855553627
1789550677338115800,6.26411572265625,0.2624446749687195,0.10145445168018341,-0.02773123048245907
1789550677348085000,6.2740849609375,0.22411778569221497,0.0336756706237793,0.0037792918737977743
1789550677358052900,6.284052978515625,0.09958437830209732,0.06932874023914337,0.06955670565366745
1789550677368022000,6.29402197265625,0.03688850998878479,0.10934779793024063,0.05722440779209137
1789550677377990000,6.303989990234375,0.02387923374772072,0.07642393559217453,0.062126222997903824
1789550677387959000,6.313958984375,-0.10230213403701782,0.07836297899484634,0.0755072757601738
1789550677397927200,6.32392724609375,-0.20841099321842194,0.08100510388612747,0.06126415729522705
1789550677407896000,6.33389599609375,-0.2546733021736145,0.04749348387122154,0.057737600058317184
1789550677417864000,6.343864013671875,-0.29192692041397095,0.11621928215026855,0.016328373923897743
1789550677427831800,6.353831787109375,-0.2880712151527405,0.08182615786790848,-0.010576478205621243
1789550677437801000,6.363801025390625,-0.31954389810562134,0.06715001165866852,-0.00794660672545433
1789550677447768800,6.373768798828125,-0.2877654731273651,0.015542740933597088,-0.044862281531095505
1789550677457738000,6.383738037109375,-0.2695563733577728,0.006500243674963713,-0.08111109584569931
1789550677467705900,6.393705810546875,-0.3626876473426819,0.007192931603640318,-0.039381492882966995
1789550677477675000,6.403675048828125,-0.42355260252952576,0.037579599767923355,-0.00780652416869998
1789550677487643000,6.413642822265625,-0.38181421160697937,-0.015050588175654411,0.0008476841612718999
1789550677497611000,6.423611083984375,-0.30359557271003723,-0.002258360618725419,-0.0008870989549905062
1789550677507580200,6.433580078125,-0.2642923593521118,0.014179468154907227,0.0016141419764608145
1789550677517547800,6.4435478515625,-0.15637949109077454,0.06108918786048889,-0.08144186437129974
1789550677527517000,6.453516845703125,-0.06517660617828369,0.041794318705797195,-0.09196800738573074
1789550677537484800,6.46348486328125,-0.03442428633570671,0.01840963400900364,-0.0501776821911335
1789550677547454000,6.473453857421875,-0.0420776791870594,0.03051449917256832,-0.07952571660280228
1789550677557421800,6.483421875,-0.08327518403530121,0.02004747837781906,-0.06288974732160568
1789550677567391000,6.493390869140625,-0.05319850519299507,0.030110232532024384,-0.04228540509939194
1789550677577358800,6.50335888671875,-0.04300525784492493,-0.0014021543320268393,-0.05536258965730667
1789550677587327000,6.513326904296875,-0.0542222261428833,-0.005421929527074099,-0.0694083720445633
1789550677597295900,6.5232958984375,-0.1317407190799713,-0.008109325543045998,-0.02455700747668743
1789550677607264000,6.533263916015625,-0.0936223641037941,0.0145299406722188,0.010822820477187634
1789550677617233200,6.543233154296875,0.08221817016601562,-0.009870207868516445,-0.08769842982292175
1789550677627200800,6.55320068359375,0.05053667724132538,0.013733655214309692,-0.10762260109186172
1789550677637170000,6.563169921875,-0.08436281979084015,0.04258048161864281,-0.0033539850264787674
1789550677647137800,6.5731376953125,-0.025662751868367195,-0.0015052186790853739,-0.02732696197926998
1789550677657106000,6.58310595703125,0.03657425567507744,-0.05908782035112381,0.007540740538388491
1789550677667074800,6.59307470703125,-0.029260683804750443,0.027885960415005684,0.01587536931037903
1789550677677043000,6.60304296875,-0.06506182253360748,0.021954035386443138,-0.04759202152490616
1789550677687011800,6.61301171875,-0.02624465338885784,-0.00016458335448987782,-0.049673814326524734
1789550677696980000,6.62297998046875,0.022898390889167786,-0.02906627207994461,-0.029636455699801445
1789550677706949000,6.63294921875,0.03304077312350273,-0.022783342748880386,-0.029921147972345352
1789550677716917000,6.6429169921875,-0.00036432043998502195,0.00774766830727458,-0.07562152296304703
1789550677726884900,6.652884765625,0.07367928326129913,-0.058522433042526245,-0.04988846182823181
1789550677736853800,6.662853759765625,0.06017731875181198,-0.015629027038812637,-0.02033110335469246
1789550677746822000,6.67282177734375,0.09206787496805191,-0.03826190158724785,-0.006630206014961004
1789550677756790800,6.682790771484375,0.08965931087732315,-0.004054396413266659,0.012455870397388935
1789550677766759000,6.692759033203125,0.10378684848546982,-0.008623582310974598,0.050211504101753235
1789550677776727800,6.702727783203125,0.19263842701911926,-0.009228119626641273,0.016117451712489128
1789550677786696000,6.712696044921875,0.15449103713035583,0.00811891257762909,0.0005427522119134665
1789550677796664800,6.722664794921875,0.10733098536729813,0.06561949104070663,0.046112366020679474
1789550677806633000,6.732633056640625,0.2393295019865036,-0.02635171264410019,0.06368576735258102
1789550677816601000,6.74260107421875,0.27342090010643005,-0.03310229256749153,0.03341228514909744
1789550677826570000,6.752570068359375,0.14870452880859375,0.02039182372391224,0.03934341296553612
1789550677836537900,6.762537841796875,0.09809833765029907,-0.007714378647506237,0.08551356941461563
1789550677846506800,6.7725068359375,0.1669386476278305,0.00555082643404603,-0.025551166385412216
1789550677856475000,6.782474853515625,0.1922493427991867,0.021629394963383675,0.034882351756095886
1789550677866443800,6.79244384765625,0.18619729578495026,0.01967383548617363,0.054121024906635284
1789550677876412000,6.802411865234375,0.19611944258213043,0.05818953737616539,0.08391807228326797
1789550677886380000,6.812380126953125,0.23440077900886536,-0.010423080064356327,0.15029895305633545
1789550677896349000,6.822348876953125,0.1620003581047058,0.06448817998170853,0.1959173083305359
1789550677906317000,6.832317138671875,0.16561345756053925,0.0334588922560215,0.13379162549972534
1789550677916286000,6.842285888671875,0.15176476538181305,0.06546715646982193,0.0647832602262497
1789550677926254000,6.852254150390625,0.12339091300964355,0.13761991262435913,-0.014371482655405998
1789550677936223000,6.862222900390625,0.06842885911464691,0.0975784882903099,0.0007976167253218591
1789550677946190800,6.87219091796875,0.06487247347831726,0.14423547685146332,0.03753885254263878
1789550677956159200,6.8821591796875,0.0841447040438652,0.13785560429096222,-0.026445189490914345
1789550677966128000,6.892128173828125,-0.053643520921468735,0.22700251638889313,0.02997334487736225
1789550677976096300,6.90209619140625,-0.0684719979763031,0.23456910252571106,-0.015543805435299873
1789550677986065200,6.912065185546875,-0.048519067466259,0.16660842299461365,-0.026743197813630104
1789550677996033300,6.922033203125,-0.1722327470779419,0.18625935912132263,0.025968482717871666
1789550678006002200,6.932002197265625,-0.22404402494430542,0.1798030585050583,0.005646700505167246
1789550678015970300,6.94197021484375,-0.24686917662620544,0.17366446554660797,-0.07635974884033203
1789550678025938000,6.95193798828125,-0.34786075353622437,0.15926581621170044,-0.08306026458740234
1789550678035907000,6.961906982421875,-0.39739876985549927,0.13160516321659088,0.01840483956038952
1789550678045875200,6.971875244140625,-0.34295204281806946,0.11387703567743301,-0.012539493851363659
1789550678055844000,6.981843994140625,-0.3803553283214569,0.12950658798217773,-0.018854914233088493
1789550678065812200,6.991812255859375,-0.47479182481765747,0.16168956458568573,-0.05271141603589058
1789550678075781000,7.001781005859375,-0.5100142359733582,0.12557470798492432,-0.0031766186002641916
1789550678085749200,7.011749267578125,-0.47236859798431396,0.05393647029995918,-0.02478337660431862
1789550678095717000,7.021717041015625,-0.4402599334716797,0.09894175827503204,-0.10793871432542801
1789550678105686300,7.031686279296875,-0.4774363338947296,0.07491312175989151,-0.06437446177005768
1789550678115654100,7.041654052734375,-0.4436919689178467,0.03710822016000748,-0.03609329089522362
1789550678125623300,7.051623291015625,-0.40459010004997253,0.039031021296978,-0.06881288439035416
1789550678135591000,7.0615908203125,-0.4354505240917206,0.02617248147726059,-0.02153964713215828
1789550678145560000,7.07156005859375,-0.4551169276237488,0.026006033644080162,-0.08166370540857315
1789550678155528200,7.081528076171875,-0.4788861572742462,-0.002537193475291133,-0.03544986993074417
1789550678165496000,7.09149609375,-0.42821764945983887,-0.021090904250741005,-0.05578257143497467
1789550678175465200,7.10146533203125,-0.366154283285141,-0.02454955130815506,-0.04706231877207756
1789550678185433000,7.11143310546875,-0.3167465329170227,-0.048413340002298355,0.0169113390147686
1789550678195402200,7.12140234375,-0.27890485525131226,-0.060196228325366974,0.010381534695625305
1789550678205370000,7.1313701171875,-0.25566133856773376,-0.07456398010253906,0.025319738313555717
1789550678215339300,7.14133935546875,-0.19961456954479218,-0.14774206280708313,0.04603327065706253
1789550678225307100,7.15130712890625,-0.1460600048303604,-0.09407749772071838,0.038727156817913055
1789550678235275000,7.16127490234375,-0.07561619579792023,-0.17376060783863068,0.05806570127606392
1789550678245244000,7.171243896484375,-0.025115473195910454,-0.12449425458908081,0.04187421128153801
1789550678255212000,7.1812119140625,-0.005873868241906166,-0.14185194671154022,0.01642504520714283
1789550678265181200,7.19118115234375,0.07193437963724136,-0.16036543250083923,0.009563145227730274
1789550678275149000,7.201149169921875,0.130850687623024,-0.16109168529510498,0.02008715830743313
1789550678285118200,7.2111181640625,0.10809078067541122,-0.1503242552280426,0.03568023443222046
1789550678295086000,7.221086181640625,0.14369218051433563,-0.16950727999210358,0.028083566576242447
1789550678305054200,7.23105419921875,0.16683292388916016,-0.16012229025363922,0.026334401220083237
1789550678315023000,7.241023193359375,0.09926906228065491,-0.14535772800445557,0.03749331459403038
1789550678324991200,7.2509912109375,0.14239415526390076,-0.16087809205055237,0.03400137647986412
1789550678334960000,7.260960205078125,0.12270914018154144,-0.16639776527881622,0.0814538449048996
1789550678344928000,7.270927978515625,0.16068501770496368,-0.1395035684108734,0.026685940101742744
1789550678354897200,7.280897216796875,0.20178239047527313,-0.13179877400398254,0.016893763095140457
1789550678364865000,7.290864990234375,0.0914153978228569,-0.10961517691612244,0.013421799056231976
1789550678374833200,7.300833251953125,0.0668429434299469,-0.07423161715269089,-0.021796641871333122
1789550678384802000,7.310802001953125,0.04181908443570137,-0.18772462010383606,-0.013785053975880146
1789550678394770200,7.320770263671875,-0.021760156378149986,-0.17413371801376343,0.07511898875236511
1789550678404739000,7.330739013671875,0.021168667823076248,-0.12143374979496002,-0.03807627782225609
1789550678414707200,7.340707275390625,-0.021975873038172722,-0.16548243165016174,0.020413927733898163
1789550678424676000,7.350676025390625,-0.06013444438576698,-0.13037292659282684,0.03225380927324295
1789550678434644200,7.360644287109375,-0.011990083381533623,-0.1545134037733078,0.02551521360874176
1789550678444612000,7.370612060546875,0.03496171161532402,-0.1802067905664444,0.03873381391167641
1789550678454581200,7.380581298828125,0.041255559772253036,-0.14411349594593048,-0.0008247809601016343
1789550678464549000,7.390549072265625,0.04433790221810341,-0.12097515910863876,-0.014210893772542477
1789550678474518000,7.40051806640625,-0.01708630844950676,-0.1448136419057846,-0.022827817127108574
1789550678484486100,7.410486083984375,0.020731642842292786,-0.14965154230594635,-0.00025726135936565697
1789550678494455000,7.420455078125,-0.006352970842272043,-0.13345207273960114,-0.002079928759485483
1789550678504423200,7.430423095703125,-0.004163053352385759,-0.12102255970239639,0.0248440969735384
1789550678514391300,7.440391357421875,0.05933789163827896,-0.1411171704530716,-0.0057311225682497025
1789550678524360200,7.450360107421875,0.053956177085638046,-0.1102340966463089,-0.01690627820789814
1789550678534328300,7.460328369140625,0.07058016210794449,-0.1520387977361679,0.022605976089835167
1789550678544297200,7.470297119140625,0.16185148060321808,-0.11103224754333496,-0.021437114104628563
1789550678554265300,7.480265380859375,0.2054695338010788,-0.11261709034442902,-0.04217967763543129
1789550678564234200,7.490234130859375,0.18839281797409058,-0.028848426416516304,-0.022338861599564552
1789550678574202000,7.5002021484375,0.1978294551372528,-0.09544742852449417,-0.04536322131752968
1789550678584170000,7.510169921875,0.2200293093919754,-0.09572891891002655,-0.004652808886021376
1789550678594139100,7.52013916015625,0.21831396222114563,-0.07486545294523239,-0.01450144499540329
1789550678604107300,7.530107177734375,0.1919127106666565,-0.05299903452396393,-0.021943116560578346
1789550678614076200,7.540076171875,0.205903097987175,0.00017443705291952938,-0.039148468524217606
1789550678624044300,7.550044189453125,0.20282314717769623,-0.05096171796321869,-0.0028216191567480564
1789550678634013200,7.56001318359375,0.25785738229751587,-0.025954103097319603,-0.01324203610420227
1789550678643981300,7.569981201171875,0.2455810010433197,-0.0046719834208488464,-0.03839852288365364
1789550678653949200,7.57994921875,0.21600259840488434,-0.020239757373929024,0.030654581263661385
1789550678663918300,7.58991845703125,0.15906953811645508,0.02509603276848793,-0.0247892364859581
1789550678673886000,7.599885986328125,0.19001281261444092,0.004708202555775642,-0.040535975247621536
1789550678683855000,7.609855224609375,0.23418986797332764,-0.05609948933124542,-0.022703714668750763
1789550678693823000,7.619822998046875,0.20474062860012054,0.0079146483913064,-0.052506349980831146
1789550678703791000,7.629791015625,0.15234266221523285,-0.018617892637848854,-0.04706870764493942
1789550678713760300,7.63976025390625,0.1686720997095108,0.05769632011651993,-0.043529100716114044
1789550678723728100,7.64972802734375,0.22412285208702087,-0.0076304893009364605,-0.005804892163723707
1789550678733697300,7.659697265625,0.19427147507667542,-0.025844912976026535,0.035343609750270844
1789550678743665200,7.6696650390625,0.17254513502120972,-0.01449744962155819,0.07419566810131073
1789550678753634300,7.67963427734375,0.1939561516046524,0.05203364044427872,-0.04165929555892944
1789550678763602200,7.689602294921875,0.22700491547584534,0.03235607594251633,-0.08460570126771927
1789550678773570000,7.699570068359375,0.16951365768909454,0.05281154811382294,-0.038649655878543854
1789550678783539000,7.7095390625,0.1279158890247345,0.030848992988467216,-0.007734085898846388
1789550678793507000,7.719507080078125,0.17670126259326935,0.03261014074087143,-0.004349741153419018
1789550678803476000,7.72947607421875,0.21998828649520874,0.03610287606716156,0.0027830032631754875
1789550678813444000,7.739444091796875,0.1409299522638321,0.02538418583571911,0.07742661237716675
1789550678823413200,7.749413330078125,0.1507149487733841,0.0448971688747406,0.08695726841688156
1789550678833381000,7.759381103515625,0.1763196438550949,0.031022364273667336,0.06299654394388199
1789550678843349200,7.769349365234375,0.17357338964939117,0.14015710353851318,0.03063593991100788
1789550678853318100,7.779318115234375,0.14018960297107697,0.1140219122171402,0.052447494119405746
1789550678863286300,7.789286376953125,0.11883211135864258,0.08717644959688187,0.06596037745475769
1789550678873255200,7.799255126953125,0.12359357625246048,0.07375012338161469,0.021320734173059464
1789550678883223000,7.80922314453125,0.13179823756217957,0.07013700902462006,0.037995584309101105
1789550678893192000,7.81919189453125,0.12336720526218414,0.11518704146146774,0.020917532965540886
1789550678903160000,7.82916015625,0.138749897480011,0.10771048069000244,0.034992337226867676
1789550678913128200,7.839128173828125,0.07804419845342636,0.13535569608211517,0.08568933606147766
1789550678923097000,7.84909716796875,0.02612347900867462,0.09902804344892502,0.11635404080152512
1789550678933065200,7.859065185546875,0.05614795908331871,0.15304920077323914,0.010459565557539463
1789550678943034000,7.8690341796875,0.05350876599550247,0.14220348000526428,-0.03374278172850609
1789550678953002200,7.879002197265625,0.025896845385432243,0.1508297324180603,0.005037102848291397
1789550678962971600,7.8889716796875,0.003972637467086315,0.09813348948955536,-0.01739283837378025
1789550678972939800,7.898939697265625,-0.009824134409427643,0.14114700257778168,-0.06456274539232254
1789550678982907600,7.90890771484375,-0.04644446447491646,0.1239139586687088,-0.012794625014066696
1789550678992876800,7.918876708984375,-0.05000085011124611,0.15331605076789856,0.0043534692376852036
1789550679002844700,7.9288447265625,-0.008432633243501186,0.17054058611392975,-0.05578416958451271
1789550679012813600,7.9388134765625,-0.060445766896009445,0.14790424704551697,-0.053515154868364334
1789550679022781700,7.94878173828125,-0.12705515325069427,0.15731239318847656,0.0139568280428648
1789550679032749600,7.95874951171875,-0.12116051465272903,0.15908019244670868,-0.020020313560962677
1789550679042718700,7.96871875,-0.09612280130386353,0.14555107057094574,-0.03658917173743248
1789550679052686600,7.9786865234375,-0.20703920722007751,0.16732747852802277,-0.04050348326563835
1789550679062655700,7.98865576171875,-0.17794230580329895,0.13436126708984375,0.0034530546981841326
1789550679072623600,7.99862353515625,-0.11900708079338074,0.11307595670223236,-0.05240941047668457
1789550679082592800,8.0085927734375,-0.17349828779697418,0.14202557504177094,-0.026766633614897728
1789550679092561000,8.018560791015625,-0.19661825895309448,0.12421702593564987,0.027950141578912735
1789550679102528500,8.028528564453126,-0.10216578096151352,0.12400263547897339,-0.044622328132390976
1789550679112497700,8.03849755859375,-0.09434514492750168,0.10046322643756866,-0.05625448375940323
1789550679122465500,8.048465576171875,-0.15931536257266998,0.13761618733406067,-0.0054765245877206326
1789550679132434700,8.0584345703125,-0.1831943243741989,0.08790109306573868,0.009608685038983822
1789550679142402600,8.068402587890626,-0.15100549161434174,0.09128917008638382,0.013232448138296604
1789550679152370700,8.07837060546875,-0.1454903483390808,0.07454800605773926,0.029135514050722122
1789550679162339600,8.088339599609375,-0.13136868178844452,0.11081306636333466,-0.03941771388053894
1789550679172307700,8.0983076171875,-0.15037699043750763,0.08462221175432205,-0.08147461712360382
1789550679182276600,8.108276611328124,-0.22810986638069153,0.0805068239569664,-0.02472691796720028
1789550679192244700,8.11824462890625,-0.2702011168003082,0.03437528386712074,-0.026761572808027267
1789550679202214000,8.1282138671875,-0.23203642666339874,0.03189321979880333,-0.03569567948579788
1789550679212181500,8.138181396484375,-0.24643081426620483,0.020205402746796608,-0.04249925538897514
1789550679222149600,8.148149658203126,-0.3071199953556061,0.06978840380907059,-0.023721573874354362
1789550679232118500,8.158118408203125,-0.2829238474369049,0.04869350418448448,0.01064998097717762
1789550679242086700,8.168086669921875,-0.26966822147369385,0.023433420807123184,0.03231586143374443
1789550679252055600,8.1780556640625,-0.3232576847076416,0.05277666077017784,0.04903145879507065
1789550679262023700,8.188023681640624,-0.34996333718299866,0.03051716275513172,0.04481221362948418
1789550679271992600,8.19799267578125,-0.3551498353481293,-0.0017992316279560328,0.0401812419295311
1789550679281960700,8.207960693359375,-0.33993732929229736,-0.00567093538120389,0.0220914538949728
1789550679291928800,8.2179287109375,-0.34096476435661316,0.01636911928653717,-0.004885302856564522
1789550679301897700,8.227897705078124,-0.37947383522987366,0.06275100260972977,0.025117337703704834
1789550679311865600,8.237865478515625,-0.3296753764152527,0.08994160592556,-0.003932157531380653
1789550679321834800,8.247834716796875,-0.340715229511261,0.005420864559710026,0.07513150572776794
1789550679331802600,8.257802734375,-0.4047938287258148,0.05495725944638252,0.06399309635162354
1789550679341770800,8.267770751953124,-0.4121047258377075,-0.0070949275977909565,0.05523422732949257
1789550679351739600,8.27773974609375,-0.41131457686424255,-0.008886968716979027,0.021399831399321556
1789550679361707800,8.287707763671875,-0.4584226906299591,-0.042693935334682465,0.01062414888292551
1789550679371676700,8.2976767578125,-0.4665517210960388,-0.05276414379477501,0.029329659417271614
1789550679381644800,8.307644775390624,-0.4642483592033386,-0.0883258655667305,-0.012867861427366734
1789550679391613700,8.31761376953125,-0.4191780984401703,-0.08191137760877609,-0.052139900624752045
1789550679401581800,8.327581787109375,-0.4303513765335083,-0.08686379343271255,-0.04327530041337013
1789550679411549700,8.3375498046875,-0.4078918695449829,-0.09572838991880417,-0.02455328032374382
1789550679421518800,8.347518798828125,-0.3760654926300049,-0.08699561655521393,0.04326251894235611
1789550679431486700,8.35748681640625,-0.29613497853279114,-0.1358715444803238,0.022604910656809807
1789550679441455600,8.36745556640625,-0.286128968000412,-0.09096665680408478,0.016217052936553955
1789550679451423700,8.377423828125,-0.25328153371810913,-0.14282479882240295,0.011655057780444622
1789550679461391600,8.3873916015625,-0.22950243949890137,-0.15773344039916992,0.020314060151576996
1789550679471360800,8.39736083984375,-0.18458609282970428,-0.1607302874326706,0.024020114913582802
1789550679481328600,8.40732861328125,-0.12112056463956833,-0.15210270881652832,0.00213585514575243
1789550679491297800,8.4172978515625,-0.12426762282848358,-0.17046627402305603,0.017242902889847755
1789550679501265700,8.427265625,-0.14639662206172943,-0.17071793973445892,0.08434071391820908
1789550679511234800,8.43723486328125,-0.022487998008728027,-0.22805073857307434,0.05708858743309975
1789550679521202700,8.44720263671875,0.06772498786449432,-0.171272411942482,0.01564420759677887
1789550679531170600,8.457170654296876,0.0560680627822876,-0.19861029088497162,0.03175739571452141
1789550679541139700,8.4671396484375,0.02172819897532463,-0.16242539882659912,0.08363497257232666
1789550679551107600,8.477107666015625,0.08058299124240875,-0.23265615105628967,0.011635617353022099
1789550679561076700,8.48707666015625,0.0910596027970314,-0.18335464596748352,-0.02245071344077587
1789550679571044600,8.497044677734374,0.08091402053833008,-0.23051096498966217,0.0003147856332361698
1789550679581012700,8.5070126953125,0.07825299352407455,-0.22294625639915466,0.032234370708465576
1789550679590981600,8.516981689453125,0.13984552025794983,-0.2219363898038864,-0.022953253239393234
1789550679600949800,8.52694970703125,0.19664302468299866,-0.1860969066619873,-0.05818713828921318
1789550679610918700,8.536918701171874,0.1442517191171646,-0.15088245272636414,-0.0453866571187973
1789550679620886800,8.54688671875,0.1819295883178711,-0.18531526625156403,-0.030728351324796677
1789550679630855700,8.556855712890625,0.15296530723571777,-0.1762503981590271,-0.017838384956121445
1789550679640823600,8.566823486328126,0.14226074516773224,-0.18076658248901367,-0.03422534838318825
1789550679650791700,8.576791748046874,0.1477295458316803,-0.2055550217628479,0.022942600771784782
1789550679660760600,8.586760498046875,0.14659236371517181,-0.214120551943779,0.04475921392440796
1789550679670728700,8.596728759765625,0.18881891667842865,-0.1747736781835556,0.010382866486907005
1789550679680697600,8.606697509765626,0.15668894350528717,-0.15476374328136444,0.006401440128684044
1789550679690665700,8.616665771484374,0.17473186552524567,-0.13189251720905304,0.005841111298650503
1789550679700634600,8.626634521484375,0.22262828052043915,-0.18742555379867554,-0.026456641033291817
1789550679710602800,8.636602783203125,0.20174697041511536,-0.16860392689704895,-0.02105575054883957
1789550679720571000,8.64657080078125,0.20679818093776703,-0.128643199801445,-0.04182308167219162
1789550679730539800,8.656539794921875,0.2754984200000763,-0.1249760240316391,-0.07139908522367477
1789550679740507600,8.666507568359375,0.290243536233902,-0.15615418553352356,0.0033539850264787674
1789550679750476500,8.6764765625,0.28541016578674316,-0.11990536749362946,0.00541314110159874
1789550679760444700,8.686444580078126,0.26237568259239197,-0.14160586893558502,0.030132070183753967
1789550679770412800,8.696412841796874,0.27757567167282104,-0.07585322111845016,0.07952757924795151
1789550679780381700,8.706381591796875,0.3661593496799469,-0.11432071775197983,0.03341095522046089
1789550679790349800,8.716349853515625,0.3569461405277252,-0.109415702521801,-0.019642943516373634
1789550679800318700,8.726318603515624,0.2647347152233124,-0.10575119405984879,-0.04055754467844963
1789550679810286800,8.736286865234375,0.2606819272041321,-0.07478369027376175,-0.07649637013673782
1789550679820254700,8.746254638671875,0.32455572485923767,-0.1288812905550003,-0.05741136148571968
1789550679830224000,8.756223876953126,0.3518126308917999,-0.08854717761278152,-0.06863818317651749
1789550679840191500,8.76619140625,0.3242851197719574,-0.059650812298059464,-0.02803696133196354
1789550679850160600,8.77616064453125,0.341867595911026,-0.06697157770395279,-0.014490525238215923
1789550679860128800,8.786128662109375,0.3622037470340729,0.01395656168460846,0.020425112918019295
1789550679870097700,8.79609765625,0.3639361262321472,-0.019026421010494232,0.0631592646241188
1789550679880065800,8.806065673828124,0.3276185989379883,0.02564038150012493,0.024210531264543533
1789550679890033700,8.81603369140625,0.3089219033718109,0.001680720946751535,0.000651675509288907
1789550679900002800,8.8260029296875,0.29893556237220764,0.01836036518216133,-0.03515851870179176
1789550679909970700,8.835970703125,0.22379128634929657,0.025979669764637947,-0.03927842900156975
1789550679919939800,8.84593994140625,0.20870687067508698,0.048409610986709595,-0.00808881875127554
1789550679929907700,8.85590771484375,0.1893954873085022,0.029956834390759468,-0.008224107325077057
1789550679939875600,8.86587548828125,0.20329134166240692,0.04774089157581329,0.020544156432151794
1789550679949844500,8.875844482421876,0.25041037797927856,0.03743419051170349,-0.020605942234396935
1789550679959812600,8.8858125,0.16412582993507385,0.12331368029117584,0.009635583497583866
1789550679969781200,8.89578125,0.11577613651752472,0.07629770040512085,0.02064775489270687
1789550679979749000,8.9057490234375,0.11700784415006638,0.034998197108507156,0.0733887329697609
1789550679989718300,8.91571826171875,0.1543933004140854,0.01630680076777935,0.011154117062687874
1789550679999686100,8.92568603515625,0.10390349477529526,0.07183264195919037,0.0007563377148471773
1789550680009654000,8.935654052734375,0.09205322712659836,0.026803916320204735,0.042152248322963715
1789550680019623200,8.945623046875,0.12241912633180618,0.08501049876213074,-0.0733857974410057
1789550680029591000,8.955591064453126,0.0481848381459713,0.12708072364330292,-0.03212011978030205
1789550680039560200,8.965560302734374,0.07539542019367218,0.050338003784418106,0.003433347214013338
1789550680049528000,8.975528076171875,0.06956309825181961,0.062437545508146286,0.010391121730208397
1789550680059496200,8.98549609375,0.041899245232343674,0.06157441437244415,0.01974440924823284
1789550680069465000,8.995465087890626,0.06487913429737091,0.09676169604063034,0.021082915365695953
1789550680079433200,9.00543310546875,0.021638981997966766,0.08870457112789154,0.008364723064005375
1789550680089402000,9.015402099609375,-0.05005437880754471,0.1073450967669487,0.04814009740948677
1789550680099370200,9.025370361328125,-0.04382684454321861,0.031746212393045425,0.04195144400000572
1789550680109338000,9.035338134765626,-0.04091494157910347,0.04469556733965874,0.024967135861516
1789550680119307000,9.04530712890625,-0.031190410256385803,0.00321896281093359,0.02117239683866501
1789550680129275100,9.055275146484375,-0.04048910364508629,0.05727234482765198,-0.028735773637890816
1789550680139244000,9.065244140625,-0.0893876701593399,0.09256935119628906,-0.03062848374247551
1789550680149212200,9.075212158203126,-0.09647087752819061,0.08630719035863876,-0.01786661520600319
1789550680159181000,9.08518115234375,-0.08185651898384094,0.03795643523335457,0.023991884663701057
1789550680169149200,9.095149169921875,-0.08367811888456345,0.0375383198261261,0.04743462800979614
1789550680179117300,9.105117431640625,-0.1094822883605957,0.057916827499866486,-0.001984587637707591
1789550680189086200,9.115086181640624,-0.17446820437908173,0.03325995057821274,0.021024592220783234
1789550680199054300,9.125054443359375,-0.17307378351688385,-0.013647901825606823,0.041682999581098557
1789550680209023200,9.135023193359375,-0.15179406106472015,0.013997307978570461,-0.005939648021012545
1789550680218991000,9.1449912109375,-0.17550072073936462,0.023274961858987808,-0.005858688149601221
1789550680228959000,9.154958984375,-0.17766879498958588,0.040035832673311234,-0.008809736929833889
1789550680238928100,9.16492822265625,-0.1549144834280014,0.04844822734594345,-0.003652791725471616
1789550680248896000,9.17489599609375,-0.15414482355117798,0.02311117760837078,0.012704343535006046
1789550680258865200,9.184865234375,-0.19576656818389893,0.06389136612415314,0.0220312662422657
1789550680268833300,9.194833251953124,-0.17657610774040222,0.05432742089033127,-0.011408981867134571
1789550680278801200,9.20480126953125,-0.15072239935398102,0.05379505455493927,0.0003222425002604723
1789550680288770300,9.214770263671875,-0.19099950790405273,0.017771007493138313,0.018979815766215324
1789550680298738200,9.22473828125,-0.1978190690279007,0.040828920900821686,0.0696488544344902
1789550680308707300,9.234707275390624,-0.13438230752944946,0.0010319749126210809,0.04164731130003929
1789550680318675000,9.244675048828125,-0.12268304079771042,0.06214885786175728,-0.031067637726664543
1789550680328644000,9.25464404296875,-0.177753746509552,0.041486456990242004,-0.01859925128519535
1789550680338612000,9.264612060546876,-0.18237513303756714,0.041607365012168884,-0.0036796897184103727
1789550680348580000,9.274580078125,-0.1586490273475647,-0.03363226354122162,-0.0030839405953884125
1789550680358549000,9.284549072265625,-0.14755776524543762,-0.019412845373153687,0.020108729600906372
1789550680368517000,9.29451708984375,-0.1288839429616928,-0.04005181044340134,-0.037273336201906204
1789550680378486300,9.304486328125,-0.16884920001029968,-0.013932859525084496,-0.01727299578487873
1789550680388454100,9.3144541015625,-0.15599705278873444,-0.07936646044254303,-0.03654416278004646
1789550680398422300,9.32442236328125,-0.14072223007678986,-0.08600039780139923,0.037044838070869446
1789550680408391200,9.33439111328125,-0.09306736290454865,-0.07641008496284485,-0.029804501682519913
1789550680418359000,9.344359130859376,-0.06663282215595245,-0.030460970476269722,-0.07543403655290604
1789550680428328000,9.354327880859374,-0.06291797757148743,-0.03337766230106354,-0.08875703066587448
1789550680438296000,9.364296142578125,-0.07211067527532578,-0.035712990909814835,-0.12819817662239075
1789550680448265000,9.374264892578125,-0.1027332991361618,-0.08573461323976517,-0.06869810074567795
1789550680458233000,9.384233154296876,-0.05619083344936371,-0.08099605143070221,-0.07970494776964188
1789550680468201200,9.394201171875,-0.043780770152807236,-0.07228804379701614,-0.09551852941513062
1789550680478170000,9.404170166015625,-0.037646979093551636,-0.07650649547576904,0.011348261497914791
1789550680488138200,9.41413818359375,-0.003909520339220762,-0.12199302017688751,0.019819511100649834
1789550680498107100,9.424107177734374,0.013990383595228195,-0.056605756282806396,0.0210709311068058
1789550680508075300,9.4340751953125,0.011353322304785252,-0.06096960976719856,-0.04890256002545357
1789550680518043100,9.444043212890625,-0.06366952508687973,-0.06898865848779678,-0.008489358238875866
1789550680528012000,9.454011962890625,-0.04938459396362305,-0.11421685665845871,-0.04856833443045616
1789550680537980200,9.463980224609376,0.0007307713967747986,-0.11416438966989517,-0.06124205142259598
1789550680547949000,9.473948974609375,-0.007346063386648893,-0.09178158640861511,-0.06326525658369064
1789550680557917200,9.483917236328125,0.02598845772445202,-0.08643582463264465,-0.05584675446152687
1789550680567885000,9.493885009765625,0.05992378666996956,-0.08236997574567795,-0.06656358391046524
1789550680577854200,9.503854248046874,0.0683329850435257,-0.04802824556827545,-0.07555947452783585
1789550680587822000,9.513822021484375,0.02629738487303257,-0.030191991478204727,0.007258179131895304
1789550680597791200,9.523791259765625,0.11729919910430908,-0.09680883586406708,0.035172902047634125
1789550680607759400,9.53375927734375,0.10425982624292374,-0.08807499706745148,-0.015383217483758926
1789550680617728300,9.543728271484374,0.0721474289894104,-0.052074119448661804,0.0017009610310196877
1789550680627696000,9.553696044921875,0.052266933023929596,-0.07363373786211014,-0.0044394894503057
1789550680637664000,9.5636640625,0.0923411175608635,-0.05308052897453308,-0.027212446555495262
1789550680647633200,9.573633056640626,0.10922981798648834,-0.09702029079198837,-0.06384555995464325
1789550680657601000,9.58360107421875,0.08363684266805649,-0.05417189374566078,-0.05848940834403038
1789550680667570200,9.593570068359375,0.12675368785858154,-0.08155105262994766,-0.03430843725800514
1789550680677538000,9.6035380859375,0.1887294352054596,-0.08788671344518661,-0.03907043859362602
1789550680687506200,9.613506103515626,0.1551472395658493,-0.05684357509016991,-0.044433243572711945
1789550680697475000,9.62347509765625,0.14325623214244843,-0.04057565703988075,0.009224656969308853
1789550680707443200,9.633443115234375,0.18948204815387726,-0.0527937076985836,0.013548566028475761
1789550680717412400,9.643412353515625,0.2672058641910553,-0.05176439508795738,-0.006670419592410326
1789550680727380000,9.6533798828125,0.22032570838928223,-0.03881583735346794,-0.003999801818281412
1789550680737349000,9.66334912109375,0.16497483849525452,0.006485329940915108,-0.038897596299648285
1789550680747317000,9.67331689453125,0.1798667013645172,-0.06495503336191177,0.009489375166594982
1789550680757285000,9.68328515625,0.23794464766979218,-0.06964592635631561,0.01780136674642563
1789550680767254000,9.69325390625,0.21596425771713257,-0.05998317524790764,0.004421646241098642
1789550680777222100,9.70322216796875,0.2072400003671646,-0.014828480780124664,-0.0003478088474366814
1789550680787191000,9.71319091796875,0.21054604649543762,-0.046121157705783844,0.024505876004695892
1789550680797159200,9.7231591796875,0.22698281705379486,-0.019026421010494232,0.024220651015639305
1789550680807127300,9.733127197265626,0.24790647625923157,-0.048115331679582596,0.013364541344344616
1789550680817096200,9.74309619140625,0.299391508102417,-0.018516693264245987,0.04260924458503723
1789550680827064000,9.75306396484375,0.2995465099811554,0.01082681491971016,0.004197674337774515
1789550680837033000,9.763032958984375,0.33197474479675293,0.030168289318680763,-0.03903714939951897
1789550680847001000,9.7730009765625,0.2728174030780792,-0.01073839794844389,-0.018908975645899773
1789550680856969200,9.78296923828125,0.2323048710823059,0.010928547941148281,-0.034451182931661606
1789550680866938000,9.792938232421875,0.26941734552383423,-0.011979963630437851,-0.017953168600797653
1789550680876906200,9.80290625,0.27148929238319397,0.0052291168831288815,0.015427691861987114
1789550680886875100,9.812875244140624,0.2589058578014374,0.016437295824289322,0.008298143744468689
1789550680896843300,9.82284326171875,0.19816315174102783,0.05904494225978851,-0.006833671126514673
1789550680906812200,9.832812255859375,0.1861669421195984,0.010728278197348118,0.00227913330309093
1789550680916780300,9.8427802734375,0.18509741127490997,0.04096287861466408,-0.002737463219091296
1789550680926748200,9.852748046875,0.1692100614309311,0.013399961404502392,-0.0012519520241767168
1789550680936717000,9.862717041015625,0.0929134264588356,0.03786935284733772,0.020649617537856102
1789550680946685200,9.872685302734375,0.10450270771980286,0.058888617902994156,0.020870927721261978
1789550680956654000,9.882654052734376,0.20375393331050873,-0.0007853662245906889,0.021330323070287704
1789550680966622200,9.892622314453124,0.16680362820625305,0.050989679992198944,-0.055751677602529526
1789550680976590000,9.902590087890625,0.08619160950183868,0.08752026408910751,0.007398527581244707
1789550680986559200,9.912559326171875,0.1401970535516739,0.03530685603618622,-0.011845740489661694
1789550680996527000,9.922527099609376,0.1587022989988327,0.09744293242692947,-0.05525260418653488
1789550681006496300,9.932496337890624,0.11081279814243317,0.0843319222331047,0.010967696085572243
1789550681016464100,9.942464111328125,0.07653658837080002,0.09199091047048569,0.029379993677139282
1789550681026433300,9.952433349609375,0.08303683251142502,0.02581721544265747,0.04205184429883957
1789550681036401200,9.962401123046876,0.0374954454600811,0.03593562915921211,0.06347644329071045
1789550681046369000,9.972369140625,0.06726239621639252,0.02990996278822422,0.021580925211310387
1789550681056338200,9.982338134765625,0.05415085330605507,0.082515649497509,-0.03802647814154625
1789550681066306000,9.99230615234375,0.010063553228974342,0.07623831182718277,-0.020685836672782898
1789550681076275200,10.002275146484376,0.042505115270614624,0.06766479462385178,-0.023390278220176697
1789550681086243000,10.0122431640625,0.07509741187095642,0.05608857050538063,-0.04989458993077278
1789550681096211200,10.022211181640625,0.05378972738981247,0.05263764411211014,-0.036383841186761856
1789550681106180000,10.03218017578125,-0.015573632903397083,0.06441228091716766,0.01028699241578579
1789550681116148200,10.042148193359376,-0.013369601219892502,0.08051641285419464,0.010844391770660877
1789550681126117000,10.0521171875,0.03141065314412117,0.08550158143043518,-0.025903236120939255
1789550681136085000,10.0620849609375,-0.02767769992351532,0.0850491151213646,-0.027653731405735016
1789550681146053000,10.07205322265625,-0.07395997643470764,0.06156482547521591,0.04301803931593895
1789550681156022000,10.08202197265625,0.024575917050242424,0.029222333803772926,0.0008791094878688455
1789550681165990100,10.091990234375,0.009182313457131386,0.031977374106645584,-0.03621286526322365
1789550681175959000,10.101958984375,-0.09710923582315445,0.10358897596597672,-0.015661250799894333
1789550681185927200,10.11192724609375,-0.09580269455909729,0.05800551176071167,-0.006140716839581728
1789550681195896000,10.12189599609375,-0.02015719935297966,0.03970293700695038,-0.011956261470913887
1789550681205864200,10.1318642578125,-0.010447314940392971,0.02466300129890442,-0.023457655683159828
1789550681215832300,10.141832275390625,-0.08309461921453476,0.04563246667385101,0.001716939965263009
1789550681225801200,10.15180126953125,-0.09535394608974457,0.04555656760931015,0.021221132948994637
1789550681235769000,10.16176904296875,-0.01287585124373436,0.021041901782155037,0.019944945350289345
1789550681245738000,10.171738037109375,-0.05507363751530647,0.06247243285179138,-0.014170413836836815
1789550681255706000,10.1817060546875,-0.07807403057813644,0.05577751249074936,0.03494253754615784
1789550681265674200,10.19167431640625,-0.06607915461063385,0.0285328421741724,0.04773183539509773
1789550681275643100,10.20164306640625,-0.03453267738223076,0.04046114161610603,0.0023007048293948174
1789550681285611300,10.211611328125,-0.10156390815973282,0.0186634324491024,-0.012584500946104527
1789550681295580200,10.221580078125,-0.15375174582004547,0.06354328989982605,-0.0018162758788093925
1789550681305548300,10.23154833984375,-0.10144779831171036,-0.013532852753996849,0.011768242344260216
1789550681315517200,10.24151708984375,-0.07771343737840652,0.03706933930516243,-0.04133066162467003
1789550681325485300,10.2514853515625,-0.13711018860340118,0.044371992349624634,-0.06751725822687149
1789550681335453000,10.261452880859375,-0.1835586428642273,-0.0049319081008434296,0.013259346596896648
1789550681345422000,10.271422119140626,-0.18067710101604462,-0.06127667427062988,0.046663906425237656
1789550681355390000,10.281389892578124,-0.12147583067417145,-0.048519331961870193,0.05607152357697487
1789550681365359000,10.291359130859375,-0.12707246840000153,-0.0020540961995720863,-0.00503870053216815
1789550681375327200,10.3013271484375,-0.16065040230751038,0.05668191984295845,0.013944044709205627
1789550681385295000,10.311295166015626,-0.09883443266153336,-0.02624465338885784,0.0002926813904196024
1789550681395264300,10.32126416015625,-0.04971402511000633,-0.023737819865345955,-0.015990417450666428
1789550681405232000,10.331232177734375,-0.05113189294934273,0.00535614974796772,-0.046178948134183884
1789550681415201300,10.341201171875,-0.10459058731794357,0.023180419579148293,-0.02804015576839447
1789550681425169200,10.351169189453126,-0.08059737086296082,-0.034937210381031036,-0.01877688430249691
1789550681435137000,10.361136962890624,-0.04452246055006981,-0.022640064358711243,0.02695278823375702
1789550681445106000,10.37110595703125,-0.00941986683756113,-0.03709011152386665,0.05326002463698387
1789550681455074000,10.381073974609375,0.04819975420832634,-0.022721823304891586,0.023788953199982643
1789550681465043000,10.39104296875,0.016149675473570824,0.017792046070098877,0.026370620355010033
1789550681475011000,10.401010986328124,0.023252058774232864,-0.014189056120812893,0.016826383769512177
1789550681484980200,10.410980224609375,0.027648938819766045,0.00293293921276927,-0.03298937529325485
1789550681494948000,10.420947998046875,0.06028278172016144,-0.05423234403133392,-0.06775960326194763
1789550681504916200,10.430916259765626,0.06053658202290535,-0.053164150565862656,-0.07528836280107498
1789550681514885000,10.440885009765625,0.03846190497279167,-0.05041683465242386,-0.04489397257566452
1789550681524853200,10.450853271484375,0.08623582124710083,-0.029283586889505386,-0.03719450533390045
1789550681536069000,10.462069091796875,0.1388835906982422,-0.011124822311103344,-0.016622919589281082
1789550681546037200,10.472037353515624,0.17113153636455536,-0.02323128655552864,0.022185996174812317
1789550681556005000,10.482005126953124,0.18271362781524658,0.03654469549655914,0.030529679730534554
1789550681565974300,10.491974365234375,0.18025019764900208,0.03587410971522331,0.027726702392101288
1789550681575942100,10.501942138671875,0.18321695923805237,0.02870168536901474,0.02491839975118637
1789550681585911000,10.5119111328125,0.1917089819908142,0.02623799629509449,0.03351880982518196
1789550681595879200,10.521879150390625,0.20528870820999146,-0.024878185242414474,0.016810672357678413
1789550681605847000,10.531846923828125,0.18047763407230377,0.044310204684734344,0.010511230677366257
1789550681615816200,10.541816162109376,0.1985759437084198,0.04527480527758598,-0.0038333539851009846
1789550681625784000,10.5517841796875,0.1705658733844757,0.0722891092300415,0.029222067445516586
1789550681635753200,10.561753173828125,0.1986638307571411,0.06673109531402588,-0.0007028082036413252
1789550681645721000,10.57172119140625,0.1930280476808548,0.04049815610051155,-0.02786358818411827
1789550681655689200,10.581689208984375,0.16887876391410828,0.04483192041516304,-0.02448590099811554
1789550681665658000,10.591658203125,0.14962038397789001,0.020892499014735222,0.010133327916264534
1789550681675626000,10.6016259765625,0.1090010553598404,0.04519304260611534,0.012985040433704853
1789550681685595100,10.61159521484375,0.15678589046001434,0.04271657019853592,-0.002951315138489008
1789550681695563000,10.62156298828125,0.1898985654115677,0.07320044189691544,-0.0009622001089155674
1789550681705532200,10.6315322265625,0.19538813829421997,0.1007913276553154,-0.03116324543952942
1789550681715500000,10.6415,0.1565568596124649,0.07319937646389008,-0.014960840344429016
1789550681725468200,10.65146826171875,0.15056633949279785,0.09413768351078033,-0.024837173521518707
1789550681735437000,10.66143701171875,0.1562063843011856,0.05110526084899902,-0.03509140759706497
1789550681745405200,10.6714052734375,0.11548185348510742,0.08187169581651688,0.005862948950380087
1789550681755374000,10.6813740234375,0.14528821408748627,0.07971373945474625,-0.008326106704771519
1789550681765342200,10.69134228515625,0.14937616884708405,0.08571277558803558,0.009363141842186451
1789550681775310000,10.70131005859375,0.11332283169031143,0.12038393318653107,-0.027188744395971298
1789550681785279000,10.711279052734374,0.08578361570835114,0.09253951907157898,0.023392140865325928
1789550681795247000,10.7212470703125,0.06462133675813675,0.07260043174028397,0.0035633095540106297
1789550681805216000,10.731216064453125,0.03966831788420677,0.11055314540863037,0.002214152133092284
1789550681815184100,10.74118408203125,0.052088767290115356,0.07185954600572586,-0.020107930526137352
1789550681825153000,10.751153076171875,-0.0016492956783622503,0.09699845314025879,-0.005697300657629967
1789550681835121200,10.76112109375,-0.022456839680671692,0.09980355948209763,0.005829926114529371
1789550681845089300,10.77108935546875,0.034873828291893005,0.13437485694885254,-0.01332725677639246
1789550681855058200,10.78105810546875,0.018127871677279472,0.1499844342470169,0.02502652443945408
1789550681865026300,10.7910263671875,0.03206659108400345,0.17672337591648102,0.03594255447387695
1789550681874995200,10.8009951171875,-0.03134993463754654,0.14547491073608398,0.06325113773345947
1789550681884963000,10.810963134765625,-0.016435964033007622,0.13580018281936646,0.04192934185266495
1789550681894931200,10.82093115234375,-0.02695837989449501,0.09481891989707947,-0.002272741636261344
1789550681904900000,10.830900146484375,-0.10925165563821793,0.1411733627319336,0.01570013351738453
1789550681914868200,10.8408681640625,-0.08246292173862457,0.1130908653140068,-0.018442923203110695
1789550681924837000,10.850837158203126,-0.07130160927772522,0.16232898831367493,-0.06940304487943649
1789550681934805200,10.86080517578125,-0.047139283269643784,0.17391426861286163,-0.025138908997178078
1789550681944774100,10.870774169921875,-0.040535975247621536,0.1466355174779892,-0.015785887837409973
1789550681958480100,10.884480224609375,-0.08426880836486816,0.1851794421672821,0.03133714944124222
1789550681968449800,10.89444970703125,-0.111777663230896,0.15736165642738342,0.028133101761341095
1789550681978418000,10.90441796875,-0.09901659190654755,0.16259263455867767,0.020783575251698494
1789550681988385800,10.9143857421875,-0.1313987672328949,0.13326671719551086,0.03429272770881653
1789550681998355000,10.92435498046875,-0.15721358358860016,0.13190875947475433,0.06522560864686966
1789550682008322800,10.93432275390625,-0.13137346506118774,0.13977494835853577,0.03208230063319206
1789550682018291700,10.944291748046876,-0.09800539165735245,0.13000646233558655,0.012489693239331245
1789550682028259800,10.954259765625,-0.12397467344999313,0.15602794289588928,0.03587757423520088
1789550682038227700,10.964227783203125,-0.1610352247953415,0.15591982007026672,-0.00009480853623244911
1789550682048196900,10.97419677734375,-0.18252240121364594,0.15796513855457306,-0.010495517402887344
1789550682058164700,10.984164794921876,-0.16827502846717834,0.10231465101242065,-0.01558029092848301
1789550682068134000,10.9941337890625,-0.18157006800174713,0.0993066132068634,-0.006975351367145777
1789550682078101800,11.004101806640625,-0.20442397892475128,0.03044765442609787,-0.019630426540970802
1789550682088071000,11.01407080078125,-0.25712767243385315,0.11382190883159637,0.02478337660431862
1789550682098038800,11.024038818359376,-0.23460903763771057,0.08244320750236511,-0.038421958684921265
1789550682108006700,11.034006591796874,-0.26862186193466187,0.12007607519626617,-0.04598799720406532
1789550682117975800,11.043975830078125,-0.27414554357528687,0.052393168210983276,0.009485380724072456
1789550682127943700,11.053943603515625,-0.232503280043602,0.06323888897895813,-0.015628227964043617
1789550682137912800,11.063912841796874,-0.2662396728992462,0.0662890076637268,-0.025727201253175735
1789550682147880700,11.073880615234375,-0.30553728342056274,0.07311069220304489,-0.04325586184859276
1789550682157849900,11.083849853515625,-0.34478986263275146,0.03147829696536064,-0.0029113676864653826
1789550682167817700,11.093817626953125,-0.3028799891471863,0.04248194769024849,-0.01321034412831068
1789550682177785900,11.103785888671876,-0.2878246009349823,0.020685570314526558,-0.06328149884939194
1789550682187754800,11.113754638671875,-0.36667919158935547,0.018859706819057465,-0.016987506300210953
1789550682197723000,11.123722900390625,-0.36546584963798523,0.009181248024106026,0.001862082164734602
1789550682207692000,11.133692138671876,-0.2999531626701355,-0.028786640614271164,-0.016596287488937378
1789550682217659600,11.14365966796875,-0.32673338055610657,-0.010499246418476105,0.002936401404440403
1789550682227628800,11.15362890625,-0.33628082275390625,-0.00025246766745112836,-0.013716877438127995
1789550682237596700,11.1635966796875,-0.3302628695964813,-0.01576751098036766,0.006141782272607088
1789550682247564800,11.173564697265626,-0.2964652180671692,-0.021985992789268494,-0.015291604213416576
1789550682257533700,11.18353369140625,-0.2747977375984192,-0.007077616639435291,-0.025905899703502655
1789550682267501800,11.193501708984375,-0.30174946784973145,-0.01894865743815899,-0.019641079008579254
1789550682277470700,11.203470703125,-0.3225167989730835,-0.004516454879194498,0.032765667885541916
1789550682287438800,11.21343896484375,-0.2949988842010498,-0.06232169643044472,0.04876061528921127
1789550682297407700,11.22340771484375,-0.2750890851020813,-0.03885871544480324,0.05438574403524399
1789550682307375900,11.2333759765625,-0.28419655561447144,-0.05385417863726616,0.03280428424477577
1789550682317343700,11.24334375,-0.2533276081085205,-0.06010647863149643,0.02689925767481327
1789550682327312600,11.253312744140626,-0.2797541618347168,-0.046420227736234665,0.01739683374762535
1789550682337280800,11.26328076171875,-0.2638620138168335,-0.09405512362718582,0.029390113428235054
1789550682347249700,11.273249755859375,-0.2460976541042328,-0.09674039483070374,-0.03904353827238083
1789550682357217800,11.2832177734375,-0.22729893028736115,-0.10337752103805542,-0.0517691895365715
1789550682367186700,11.293186767578124,-0.21905405819416046,-0.13893631100654602,-0.02629631944000721
1789550682377154800,11.30315478515625,-0.21947163343429565,-0.12829431891441345,-0.008820655755698681
1789550682387123000,11.313123046875,-0.1614307016134262,-0.09302714467048645,-0.03315955027937889
1789550682397091800,11.323091796875,-0.1262625902891159,-0.1153218001127243,-0.00669492082670331
1789550682407060000,11.33306005859375,-0.10794111341238022,-0.10968601703643799,0.002919090911746025
1789550682417028900,11.34302880859375,-0.04665645211935043,-0.14808081090450287,-0.018559835851192474
1789550682426996700,11.352996826171875,-0.06878678500652313,-0.10522841662168503,0.04704420641064644
1789550682436965600,11.362965576171876,-0.06378324329853058,-0.08698336780071259,0.017063139006495476
1789550682446933800,11.372933837890624,0.029256688430905342,-0.12500186264514923,0.0028277444653213024
1789550682456902700,11.382902587890625,0.006087453570216894,-0.12321381270885468,0.0023696806747466326
1789550682466870800,11.392870849609375,-0.029872145503759384,-0.14385943114757538,0.010371946729719639
1789550682476839000,11.4028388671875,-0.0028700886759907007,-0.12279489636421204,-0.004890629090368748
1789550682486807800,11.412807861328124,0.010676879435777664,-0.11289539188146591,-0.016463395208120346
1789550682496776000,11.42277587890625,0.013432451523840427,-0.12401062995195389,0.04176981747150421
1789550682506744800,11.432744873046875,0.028782378882169724,-0.14250467717647552,0.0020330571569502354
1789550682516713000,11.442712890625,0.06399282813072205,-0.1507815271615982,0.018863435834646225
1789550682526681900,11.452681884765624,0.059240419417619705,-0.11295584589242935,-0.03953249379992485
1789550682536649700,11.462649658203125,-0.0004977448261342943,-0.12162390351295471,-0.027692880481481552
1789550682546617900,11.472617919921875,-0.03394544869661331,-0.13184379041194916,0.03693404793739319
1789550682556586800,11.482586669921876,0.09020978957414627,-0.15518559515476227,-0.014823420904576778
1789550682566555000,11.492554931640624,0.10981091856956482,-0.11869868636131287,-0.02628673054277897
1789550682576523800,11.502523681640625,0.10434984415769577,-0.12524713575839996,0.010866229422390461
1789550682586492000,11.512491943359375,0.08628775179386139,-0.08929286152124405,-0.004764661658555269
1789550682596460800,11.522460693359376,0.08455802500247955,-0.1117081567645073,-0.04537280648946762
1789550682606429000,11.532428955078124,0.08659721165895462,-0.10657358169555664,-0.015146462246775627
1789550682616396800,11.542396728515625,0.06402425467967987,-0.17272810637950897,0.023004118353128433
1789550682626366000,11.552365966796875,0.07664231210947037,-0.12250514328479767,-0.005880792159587145
1789550682636333800,11.562333740234376,0.15072666108608246,-0.13154365122318268,-0.026574619114398956
1789550682646302700,11.572302734375,0.12381888180971146,-0.11594764143228531,0.02303873933851719
1789550682656270800,11.582270751953125,0.11669731885194778,-0.1269960254430771,0.05440465360879898
1789550682666239700,11.59223974609375,0.1515362560749054,-0.1305079460144043,0.05230821296572685
1789550682676207900,11.602207763671874,0.1426578164100647,-0.11220989376306534,0.022346850484609604
1789550682686175700,11.61217578125,0.16098755598068237,-0.1176169142127037,0.0026312030386179686
1789550682696145000,11.622144775390625,0.18994304537773132,-0.08500783145427704,-0.02323421649634838
1789550682706112800,11.63211279296875,0.20106039941310883,-0.0771818682551384,-0.029934197664260864
1789550682716082000,11.64208203125,0.19848193228244781,-0.052854958921670914,0.0009502158500254154
1789550682726049800,11.6520498046875,0.22073690593242645,-0.07234876602888107,-0.040705084800720215
1789550682736019000,11.66201904296875,0.2089311182498932,-0.06384050101041794,-0.003925499506294727
1789550682745986800,11.67198681640625,0.1731744408607483,-0.12149260938167572,0.07038228958845139
1789550682755954700,11.68195458984375,0.2518884241580963,-0.1295686513185501,0.02232261560857296
1789550682765923800,11.691923828125,0.20359919965267181,-0.0926460474729538,-0.02599538117647171
1789550682775891700,11.7018916015625,0.12793906033039093,-0.030477480962872505,-0.02010180614888668
1789550682785860900,11.71186083984375,0.2101830691099167,-0.05295402929186821,-0.04367450997233391
1789550682795828700,11.721828857421874,0.23952843248844147,-0.08629627525806427,-0.028172781690955162
1789550682805798000,11.7317978515625,0.22384294867515564,-0.014314490370452404,-0.03146098554134369
1789550682815765800,11.741765869140625,0.2308228313922882,0.0019837887957692146,-0.044743768870830536
1789550682825734000,11.75173388671875,0.2032575160264969,-0.03087588958442211,-0.002528937766328454
1789550682835702800,11.761702880859374,0.15355759859085083,-0.031380292028188705,0.030073747038841248
1789550682845670700,11.771670654296875,0.19200804829597473,-0.0294891819357872,0.022953253239393234
1789550682855639800,11.781639892578125,0.18680717051029205,-0.03588023781776428,0.013034841977059841
1789550682865607700,11.791607666015626,0.11172839254140854,-0.011300059035420418,0.044922467321157455
1789550682875576800,11.801576904296875,0.0629107877612114,0.010733338072896004,0.010582337155938148
1789550682885544700,11.811544677734375,0.06510816514492035,-0.019508719444274902,0.016873521730303764
1789550682895512800,11.821512939453125,0.1074654757976532,0.018245050683617592,-0.01082601584494114
1789550682905481700,11.831481689453126,0.09964030981063843,0.034626420587301254,-0.02689233422279358
1789550682915449900,11.841449951171874,0.06529644876718521,0.05325629562139511,0.02009701170027256
1789550682925418800,11.851418701171875,0.04272669181227684,0.026914438232779503,0.004542553797364235
1789550682935387000,11.861386962890625,0.04087712615728378,0.03165752813220024,-0.016499347984790802
1789550682945355800,11.871355712890624,0.009181780740618706,-0.0056712012737989426,-0.013185576535761356
1789550682955323600,11.88132373046875,-0.019098326563835144,-0.0021494373213499784,0.036848295480012894
1789550682965291800,11.891291748046875,0.04205957055091858,0.04842665418982506,-0.0506538562476635
1789550682975260200,11.90126025390625,0.059130165725946426,0.040591102093458176,-0.08213561773300171
1789550682985228000,11.91122802734375,0.0006530070677399635,0.040702689439058304,0.02792430855333805
1789550682995197200,11.921197265625,0.07837070524692535,-0.010938934050500393,-0.019175292924046516
1789550683005165000,11.9311650390625,0.08665526658296585,0.049785397946834564,-0.023334616795182228
1789550683015134200,11.94113427734375,0.04501008614897728,0.021021129563450813,0.0010066748363897204
1789550683025102000,11.95110205078125,0.008926649577915668,0.04325053468346596,-0.00899855513125658
1789550683035070200,11.9610703125,-0.004491420928388834,0.00612367270514369,0.017611218616366386
1789550683045039000,11.9710390625,0.00475374236702919,-0.0099596893414855,0.003310841741040349
1789550683055007200,11.98100732421875,0.0000428768944402691,0.008982576429843903,-0.004794755019247532
1789550683064976100,11.99097607421875,-0.009603625163435936,0.01375069934874773,0.017889518290758133
1789550683074944300,12.0009443359375,0.0523391030728817,0.017886588349938393,0.0007856325246393681
1789550683084913200,12.0109130859375,0.05457749217748642,0.011227354407310486,-0.04216023534536362
1789550683094881000,12.020881103515626,-0.003784085623919964,0.032219454646110535,0.016031164675951004
1789550683104849200,12.03084912109375,-0.027786090970039368,-0.000565389113035053,0.04739920794963837
1789550683114818000,12.040818115234375,0.017651697620749474,0.014007428660988808,0.020083695650100708
1789550683124786200,12.0507861328125,0.03675242140889168,0.041971951723098755,-0.05428081378340721
1789550683134755000,12.060755126953126,-0.024327177554368973,-0.0031670311000198126,-0.0008886968716979027
1789550683144723200,12.07072314453125,-0.034693267196416855,0.0041761030443012714,0.0031007183715701103
1789550683154692000,12.080692138671875,0.0054941014386713505,0.001957689644768834,0.028652150183916092
1789550683164660200,12.09066015625,0.047986168414354324,0.044547758996486664,-0.02418389916419983
1789550683174628400,12.10062841796875,0.028795428574085236,0.05278944596648216,-0.014711035415530205
