time,seconds_elapsed,z,y,x
1789550671129007400,0.05500732421875,0.15640398859977722,0.17605693638324738,0.09069105237722397
1789550671138976300,0.064976318359375,0.15227629244327545,0.21695005893707275,0.06051822006702423
1789550671148944400,0.0749443359375,0.1663540154695511,0.18495137989521027,0.08411702513694763
1789550671158913300,0.084913330078125,0.23362654447555542,0.17051443457603455,0.08473031222820282
1789550671168881400,0.09488134765625,0.30377790331840515,0.18358229100704193,0.040409449487924576
1789550671178850300,0.104850341796875,0.3041614592075348,0.16389085352420807,0.05494048073887825
1789550671188818400,0.114818359375,0.26311975717544556,0.19997961819171906,0.08083227276802063
1789550671198787300,0.124787353515625,0.2477424144744873,0.24506424367427826,0.042599160224199295
1789550671208755500,0.13475537109375,0.22074595093727112,0.21668240427970886,0.04351502284407616
1789550671218724600,0.144724609375,0.18863734602928162,0.1797000914812088,0.1218050867319107
1789550671228692200,0.154692138671875,0.22913017868995667,0.19648465514183044,0.10409480333328247
1789550671238661400,0.164661376953125,0.23764824867248535,0.25396767258644104,0.08576450496912003
1789550671248629200,0.174629150390625,0.23178903758525848,0.2358829528093338,0.11065147817134857
1789550671258598400,0.184598388671875,0.27136993408203125,0.2438674420118332,0.13653282821178436
1789550671268566300,0.194566162109375,0.32184988260269165,0.2452070116996765,0.09901314228773117
1789550671278535400,0.204535400390625,0.3351515531539917,0.2653133273124695,0.07488597929477692
1789550671288503300,0.21450341796875,0.3358636796474457,0.24817107617855072,0.0223841555416584
1789550671298472400,0.224472412109375,0.27267134189605713,0.23585699498653412,0.037694837898015976
1789550671308440300,0.2344404296875,0.24259412288665771,0.19149832427501678,0.08725493401288986
1789550671318409500,0.244409423828125,0.24395160377025604,0.15429067611694336,0.08791602402925491
1789550671328377600,0.254377685546875,0.22082844376564026,0.18446961045265198,0.0697689801454544
1789550671338346500,0.264346435546875,0.17466261982917786,0.18752792477607727,0.12937884032726288
1789550671348314400,0.274314453125,0.12449931353330612,0.21546554565429688,0.15252916514873505
1789550671358283300,0.284283203125,0.16185735166072845,0.17587155103683472,0.11076786369085312
1789550671368251400,0.29425146484375,0.15178634226322174,0.3146358132362366,0.05969801917672157
1789550671378220300,0.30422021484375,0.20770901441574097,0.18988151848316193,0.12088821083307266
1789550671388188400,0.3141884765625,0.16374900937080383,0.26406946778297424,0.17464038729667664
1789550671398157300,0.3241572265625,0.10278930515050888,0.27763593196868896,0.13724613189697266
1789550671408125400,0.33412548828125,-0.043708521872758865,0.2643084228038788,0.10655906051397324
1789550671418094300,0.34409423828125,-0.13237328827381134,0.21512365341186523,0.07660265266895294
1789550671428063500,0.3540634765625,-0.1400754153728485,0.15387387573719025,0.11276039481163025
1789550671438031400,0.36403125,-0.12142174690961838,0.166002094745636,0.12183786183595657
1789550671447999500,0.37399951171875,-0.09370889514684677,0.205527663230896,0.07471083104610443
1789550671457968400,0.383968505859375,0.0035968641750514507,0.19410113990306854,0.03003467246890068
1789550671467937500,0.3939375,0.14835378527641296,0.16685619950294495,0.011271637864410877
1789550671477905400,0.403905517578125,0.18222588300704956,0.21614664793014526,0.0028940089978277683
1789550671487874600,0.41387451171875,0.14014847576618195,0.24501319229602814,0.0010100887157022953
1789550671497842400,0.423842529296875,0.09289983659982681,0.24093495309352875,0.02800534851849079
1789550671507811300,0.433811279296875,0.023594526574015617,0.22035536170005798,0.03755704313516617
1789550671517779500,0.443779541015625,-0.030369745567440987,0.21809980273246765,0.045427896082401276
1789550671527748400,0.453748291015625,-0.043242402374744415,0.17854972183704376,0.03415446728467941
1789550671537716500,0.463716552734375,-0.09308315068483353,0.16494494676589966,0.039535410702228546
1789550671547685400,0.473685302734375,-0.1050705760717392,0.15772750973701477,0.02396497130393982
1789550671557653500,0.483653564453125,-0.10323823243379593,0.14308877289295197,-0.0071363626047968864
1789550671567622400,0.493622314453125,-0.06572627276182175,0.12156696617603302,0.013020837679505348
1789550671577590500,0.503590576171875,-0.042317356914281845,0.11774425953626633,0.02151285856962204
1789550671587559400,0.513559326171875,-0.0029136212542653084,0.15484759211540222,-0.005512785166501999
1789550671597527600,0.523527587890625,0.010320805944502354,0.1535205990076065,-0.037605587393045425
1789550671607496400,0.533496337890625,-0.00989258661866188,0.1326342225074768,-0.011681844480335712
1789550671617464300,0.54346435546875,-0.038462452590465546,0.12480594217777252,0.016770005226135254
1789550671627433200,0.55343310546875,-0.09498991072177887,0.11967136710882187,0.027606939896941185
1789550671637401300,0.5634013671875,-0.08471421152353287,0.1450391709804535,0.005477281287312508
1789550671647370200,0.573370361328125,-0.09962205588817596,0.14888077974319458,0.018823979422450066
1789550671657338400,0.58333837890625,-0.10193397849798203,0.1540824919939041,-0.0010951608419418335
1789550671667307300,0.593307373046875,-0.09780608117580414,0.16249887645244598,-0.006854779087007046
1789550671677275400,0.603275390625,-0.09012603759765625,0.13036274909973145,-0.02091730386018753
1789550671687244300,0.613244384765625,-0.11522074043750763,0.12030079215765,0.003311069682240486
1789550671697212400,0.62321240234375,-0.13295209407806396,0.12286709249019623,0.00534725422039628
1789550671707181600,0.633181640625,-0.1387183666229248,0.11884386092424393,0.008592582307755947
1789550671717149400,0.6431494140625,-0.08975879102945328,0.07700737565755844,0.039351895451545715
1789550671727118600,0.65311865234375,-0.04201789200305939,0.14292168617248535,-0.005696806125342846
1789550671737086200,0.663086181640625,-0.08501377701759338,0.11031545698642731,0.023625724017620087
1789550671747054300,0.673054443359375,-0.05165981873869896,0.104323610663414,0.02357432432472706
1789550671757023200,0.683023193359375,-0.01842297613620758,0.09499742835760117,-0.005310793872922659
1789550671766992400,0.692992431640625,-0.03825899958610535,0.0789196565747261,-0.03504312410950661
1789550671776960300,0.702960205078125,-0.03562149032950401,0.09945804625749588,-0.056377265602350235
1789550671786928400,0.712928466796875,-0.042731065303087234,0.06514694541692734,0.012119239196181297
1789550671796897500,0.7228974609375,0.062794990837574,0.054768405854701996,-0.004235853906720877
1789550671806865400,0.732865478515625,0.13183771073818207,0.10708433389663696,-0.02267424948513508
1789550671816834600,0.74283447265625,0.17815591394901276,0.10833368450403214,-0.03557968884706497
1789550671826802400,0.752802490234375,0.19661349058151245,0.10042276233434677,-0.011899929493665695
1789550671836771600,0.762771484375,0.15486091375350952,0.08432640880346298,0.05044195055961609
1789550671846739200,0.7727392578125,0.14424662292003632,0.053470224142074585,0.03709552064538002
1789550671856708400,0.782708251953125,0.13675887882709503,0.06312760710716248,0.03195535019040108
1789550671866676200,0.79267626953125,0.07059530168771744,0.06112464889883995,0.04731619358062744
1789550671876645400,0.802645263671875,0.06278203427791595,0.07455535233020782,0.0029510422609746456
1789550671886613200,0.81261328125,0.05734279379248619,-0.022013269364833832,0.09378933906555176
1789550671896582400,0.82258251953125,0.038429733365774155,-0.0050864070653915405,0.12348508834838867
1789550671906550500,0.832550537109375,0.012900136411190033,0.0445578433573246,0.07880816608667374
1789550671916519400,0.84251953125,-0.023120621219277382,0.006194932386279106,0.08883452415466309
1789550671926487600,0.852487548828125,-0.08545723557472229,0.0097087062895298,0.04672808572649956
1789550671936456400,0.86245654296875,-0.16061317920684814,0.07730711251497269,-0.053328949958086014
1789550671946424600,0.872424560546875,-0.1871854066848755,0.02786686271429062,-0.035164594650268555
1789550671956393700,0.882393798828125,-0.22952105104923248,0.025361567735671997,0.038231149315834045
1789550671966361900,0.89236181640625,-0.3265802264213562,0.11337744444608688,-0.017264068126678467
1789550671976330800,0.902330810546875,-0.3606018126010895,0.04267845302820206,0.013550600036978722
1789550671986299000,0.912298828125,-0.3180205225944519,0.06928156316280365,0.04230927675962448
1789550671996267800,0.922267822265625,-0.3502293825149536,0.043999455869197845,0.07959294319152832
1789550672006235600,0.932235595703125,-0.3312881886959076,0.025646546855568886,0.011381130665540695
1789550672016204500,0.94220458984375,-0.26956066489219666,0.018035518005490303,-0.011846456676721573
1789550672026172700,0.952172607421875,-0.2509209215641022,0.024105660617351532,-0.0005045868456363678
1789550672036141600,0.9621416015625,-0.1738795042037964,0.012765731662511826,0.05048287287354469
1789550672046109700,0.972109619140625,-0.03540285676717758,0.0077041275799274445,0.06356432288885117
1789550672056078600,0.98207861328125,-0.04769442230463028,0.014249983243644238,0.02625793032348156
1789550672066046700,0.992046630859375,-0.11812411993741989,-0.02313866838812828,0.0029222480952739716
1789550672076015600,1.002015625,-0.09996508806943893,0.028648879379034042,-0.14351193606853485
1789550672085983700,1.011983642578125,-0.25601115822792053,0.0241119172424078,-0.05834722891449928
1789550672095952600,1.02195263671875,-0.28695148229599,0.04152020439505577,0.018636498600244522
1789550672105920800,1.031920654296875,-0.16194671392440796,0.022768352180719376,0.01489822007715702
1789550672115889700,1.0418896484375,-0.17252206802368164,-0.007113986648619175,0.05172686651349068
1789550672125857500,1.051857421875,-0.1709609180688858,0.00016469904221594334,0.05342995747923851
1789550672135826700,1.06182666015625,-0.1580187827348709,-0.0009450025390833616,0.05648430809378624
1789550672145794600,1.071794677734375,-0.18138696253299713,-0.0011623166501522064,0.04433949664235115
1789550672155763700,1.081763671875,-0.19821861386299133,0.011079609394073486,-0.04699941724538803
1789550672165731600,1.091731689453125,-0.1902986466884613,-0.022325485944747925,-0.09939764440059662
1789550672175700700,1.10170068359375,-0.17888349294662476,-0.0577617771923542,-0.05081915482878685
1789550672185668600,1.111668701171875,-0.20293530821800232,-0.04758370667695999,-0.026586785912513733
1789550672195637800,1.1216376953125,-0.27318429946899414,-0.0201131422072649,-0.04045506566762924
1789550672205605600,1.131605712890625,-0.30104655027389526,-0.02829357236623764,-0.07316906750202179
1789550672215574800,1.14157470703125,-0.22677652537822723,-0.04571335017681122,-0.11546985805034637
1789550672225542700,1.151542724609375,-0.22143448889255524,-0.055014170706272125,-0.11741449683904648
1789550672235511800,1.16151171875,-0.31373727321624756,-0.02571827732026577,-0.07005659490823746
1789550672245479700,1.171479736328125,-0.2961244583129883,-0.013273593038320541,-0.06440616399049759
1789550672255448600,1.181448486328125,-0.21800480782985687,-0.06866157799959183,-0.06839815527200699
1789550672265416700,1.191416748046875,-0.24985142052173615,-0.07191675901412964,0.012937450781464577
1789550672275385600,1.201385498046875,-0.22242861986160278,-0.03956920653581619,0.03307197615504265
1789550672285353700,1.211353759765625,-0.13608254492282867,-0.027423327788710594,0.02911585010588169
1789550672295322600,1.221322509765625,-0.17914126813411713,0.017348917201161385,0.007035383954644203
1789550672305290800,1.231290771484375,-0.22671650350093842,-0.040420904755592346,-0.01759619265794754
1789550672315259600,1.241259765625,-0.1646912544965744,-0.07126854360103607,0.020978597924113274
1789550672325227800,1.251227783203125,-0.02454160340130329,-0.09808284789323807,-0.10027672350406647
1789550672335196000,1.26119580078125,-0.06270778924226761,-0.060852546244859695,-0.07832524180412292
1789550672345164800,1.271164794921875,-0.02756311371922493,-0.06149196997284889,-0.0034336899407207966
1789550672355132700,1.281132568359375,0.09597401320934296,-0.06519345939159393,-0.03049752302467823
1789550672365101600,1.2911015625,0.039931513369083405,-0.014609909616410732,-0.013692175969481468
1789550672375069700,1.301069580078125,0.11299184709787369,-0.030560873448848724,-0.016503438353538513
1789550672385038600,1.31103857421875,0.22444407641887665,-0.06040186062455177,-0.030253607779741287
1789550672395006700,1.3210068359375,0.3189626932144165,-0.03855575993657112,-0.09896226972341537
1789550672404975600,1.3309755859375,0.2590112090110779,-0.02748713083565235,-0.06624879688024521
1789550672414943700,1.34094384765625,0.20172005891799927,-0.01440876442939043,-0.01513676717877388
1789550672424912600,1.35091259765625,0.16231992840766907,-0.06638674437999725,0.020684614777565002
1789550672434880800,1.360880859375,0.18421196937561035,-0.06576068699359894,-0.012288989499211311
1789550672444849700,1.370849609375,0.18504314124584198,-0.06421179324388504,0.005710517521947622
1789550672454817800,1.38081787109375,0.28858548402786255,-0.06866540014743805,0.01130125392228365
1789550672464786700,1.39078662109375,0.4498015344142914,-0.057341109961271286,-0.01363365538418293
1789550672474754600,1.400754638671875,0.5402452349662781,-0.002048672176897526,-0.03182768076658249
1789550672484723500,1.410723388671875,0.5807886719703674,0.011119327507913113,-0.011399639770388603
1789550672494691600,1.420691650390625,0.645663321018219,-0.01573123410344124,0.022908560931682587
1789550672504660500,1.430660400390625,0.6713972091674805,-0.03377175331115723,0.02636747434735298
1789550672514628600,1.440628662109375,0.6003538370132446,0.01989050582051277,0.012925880029797554
1789550672524597800,1.45059765625,0.5951012372970581,-0.0018848306499421597,0.021482616662979126
1789550672534565600,1.460565673828125,0.6199039220809937,0.024198606610298157,0.04434248059988022
1789550672544534800,1.47053466796875,0.6012106537818909,0.07716409116983414,0.02569262869656086
1789550672554502700,1.480502685546875,0.6093122959136963,0.0722808986902237,0.00490535655990243
1789550672564471800,1.490471923828125,0.6074275374412537,0.08618579059839249,0.06891336292028427
1789550672574439700,1.500439697265625,0.5832434892654419,0.07593066245317459,0.0940861850976944
1789550672584408800,1.510408935546875,0.5665720701217651,0.09350992739200592,0.05705200135707855
1789550672594376700,1.520376708984375,0.4830418527126312,0.1664479821920395,0.03864216059446335
1789550672604345900,1.530345947265625,0.35942167043685913,0.21526293456554413,0.05118085443973541
1789550672614313700,1.540313720703125,0.2522370219230652,0.09847915172576904,0.022313397377729416
1789550672624282600,1.55028271484375,-0.054588161408901215,0.13017556071281433,0.06279291212558746
1789550672634250800,1.560250732421875,-0.15929660201072693,0.13972288370132446,0.07545902580022812
1789550672644218600,1.570218505859375,-0.1399676501750946,0.09836452454328537,0.04718158394098282
1789550672654187800,1.580187744140625,-0.10732291638851166,0.15599669516086578,0.047864388674497604
1789550672664155600,1.59015576171875,-0.11845013499259949,0.21099896728992462,0.08294780552387238
1789550672674124800,1.600124755859375,-0.09821286797523499,0.16494625806808472,0.09489569813013077
1789550672684092700,1.6100927734375,-0.04072560369968414,0.13792157173156738,0.09367916733026505
1789550672694061800,1.620061767578125,-0.12555113434791565,0.16878649592399597,0.0632772296667099
1789550672704029700,1.63002978515625,-0.2496403157711029,0.15585178136825562,0.08603367209434509
1789550672713998800,1.639998779296875,-0.26922300457954407,0.1632225662469864,0.02390245534479618
1789550672723966700,1.649966796875,-0.3182438313961029,0.13528813421726227,0.03630639612674713
1789550672733935600,1.659935546875,-0.3126891255378723,0.1219998449087143,0.02233586087822914
1789550672743903700,1.66990380859375,-0.27944275736808777,0.1173238679766655,-0.021199896931648254
1789550672753872600,1.67987255859375,-0.33189794421195984,0.1408054679632187,0.025251250714063644
1789550672763840800,1.6898408203125,-0.31992384791374207,0.14963623881340027,0.006764385849237442
1789550672773809700,1.6998095703125,-0.27400681376457214,0.15434086322784424,0.013373672030866146
1789550672783777800,1.70977783203125,-0.2653733789920807,0.15559521317481995,0.015580633655190468
1789550672793746700,1.71974658203125,-0.26240968704223633,0.14390484988689423,0.021338269114494324
1789550672803714800,1.72971484375,-0.22747379541397095,0.14008668065071106,-0.005159119144082069
1789550672813683700,1.73968359375,-0.20463697612285614,0.14574755728244781,0.0051525854505598545
1789550672823651800,1.74965185546875,-0.18294526636600494,0.15820130705833435,-0.0004509720019996166
1789550672833620700,1.759620849609375,-0.15506099164485931,0.14440087974071503,-0.02508264034986496
1789550672843588600,1.769588623046875,-0.16538581252098083,0.13985006511211395,-0.00665622903034091
1789550672853557500,1.7795576171875,-0.13708746433258057,0.1456519365310669,-0.017274394631385803
1789550672863525600,1.789525634765625,-0.08256030827760696,0.13105913996696472,-0.02369101531803608
1789550672873493800,1.79949365234375,-0.06420672684907913,0.15571236610412598,-0.025126054883003235
1789550672883462700,1.809462646484375,-0.021282698959112167,0.17154859006404877,-0.07745823264122009
1789550672893430800,1.8194306640625,0.01711549609899521,0.16325953602790833,-0.09258506447076797
1789550672903399700,1.829399658203125,-0.028384342789649963,0.18097035586833954,-0.05978849530220032
1789550672913367800,1.839367919921875,-0.0124895628541708,0.15721818804740906,-0.07667483389377594
1789550672923336700,1.849336669921875,0.028827782720327377,0.1429300755262375,-0.05933472141623497
1789550672933304800,1.859304931640625,0.014117577113211155,0.19096525013446808,-0.05302352085709572
1789550672943273700,1.869273681640625,0.048740800470113754,0.16612328588962555,-0.07009465247392654
1789550672953241600,1.87924169921875,0.07306238263845444,0.16388273239135742,-0.07572963833808899
1789550672963210500,1.88921044921875,0.03752543032169342,0.1714104264974594,-0.0979209616780281
1789550672973178600,1.8991787109375,-0.002166114980354905,0.15552738308906555,-0.043425552546978
1789550672983147500,1.9091474609375,0.004954112693667412,0.11625801771879196,0.002194660948589444
1789550672993115600,1.91911572265625,0.00807708315551281,0.12332962453365326,-0.009492475539445877
1789550673003084500,1.92908447265625,0.015224208123981953,0.09971830248832703,0.017371095716953278
1789550673013052400,1.939052490234375,0.054139234125614166,0.1473725289106369,-0.030670078471302986
1789550673023021600,1.949021484375,0.001802793936803937,0.18849998712539673,0.001594118308275938
1789550673032989400,1.958989501953125,-0.013386751525104046,0.1532495617866516,-0.02825452759861946
1789550673042958600,1.96895849609375,-0.05358477309346199,0.15847282111644745,-0.044164251536130905
1789550673052926500,1.978926513671875,-0.11295008659362793,0.15860916674137115,-0.04743621125817299
1789550673062895600,1.9888955078125,-0.13970421254634857,0.15465837717056274,-0.0035558361560106277
1789550673072863500,1.998863525390625,-0.21142224967479706,0.08103647083044052,0.06161391735076904
1789550673082832600,2.00883251953125,-0.259528785943985,0.10246986150741577,-0.010140430182218552
1789550673092800500,2.018800537109375,-0.26647767424583435,0.12088712304830551,-0.02841597981750965
1789550673102768600,2.0287685546875,-0.3180875778198242,0.07925792038440704,-0.046902045607566833
1789550673112737500,2.038737548828125,-0.36985063552856445,0.02906768210232258,-0.03465733677148819
1789550673122705400,2.048705322265625,-0.40559718012809753,0.06851761788129807,0.019532132893800735
1789550673132674600,2.058674560546875,-0.45254069566726685,0.09699580073356628,-0.0033398792147636414
1789550673142642400,2.068642333984375,-0.5000789165496826,0.04896516352891922,0.009990572929382324
1789550673152611600,2.078611572265625,-0.5084956288337708,0.054020531475543976,0.015953822061419487
1789550673162579500,2.088579345703125,-0.5515190362930298,0.07480650395154953,0.020325135439634323
1789550673172548600,2.098548583984375,-0.5614690184593201,0.08071010559797287,0.010398820973932743
1789550673182516500,2.1085166015625,-0.6396072506904602,0.04352971166372299,0.08082477748394012
1789550673192485600,2.118485595703125,-0.7150724530220032,0.019438186660408974,0.09123913943767548
1789550673202453500,2.12845361328125,-0.7172127962112427,-0.022685298696160316,0.1064537838101387
1789550673212422700,2.138422607421875,-0.7539541125297546,-0.03408832475543022,0.02559453248977661
1789550673222390500,2.148390625,-0.8934348225593567,-0.028456805273890495,0.07593866437673569
1789550673232359700,2.158359619140625,-0.8922482132911682,-0.0545005239546299,0.08284412324428558
1789550673242327600,2.16832763671875,-0.8549940586090088,-0.09127238392829895,0.023278266191482544
1789550673252296400,2.17829638671875,-0.894209623336792,-0.1023586317896843,0.018495788797736168
1789550673262264600,2.1882646484375,-0.8884528875350952,-0.10715125501155853,0.07847630232572556
1789550673272232400,2.198232421875,-0.767073929309845,-0.1296055167913437,0.053648535162210464
1789550673282201600,2.20820166015625,-0.6666735410690308,-0.13548044860363007,0.0385444201529026
1789550673292169500,2.21816943359375,-0.6294950842857361,-0.10775289684534073,0.009361665695905685
1789550673302138600,2.228138671875,-0.6046725511550903,-0.11043763160705566,0.01625339314341545
1789550673312106500,2.2381064453125,-0.5475381016731262,-0.08915207535028458,0.04845556989312172
1789550673322075600,2.24807568359375,-0.5324433445930481,-0.11519059538841248,0.05903710797429085
1789550673332043500,2.25804345703125,-0.5186737179756165,-0.12781454622745514,0.05484558641910553
1789550673342012700,2.2680126953125,-0.4595877528190613,-0.117586150765419,0.05634095147252083
1789550673351980500,2.27798046875,-0.43596789240837097,-0.14817312359809875,0.10246719419956207
1789550673361949400,2.287949462890625,-0.4032863676548004,-0.21945662796497345,0.08757080137729645
1789550673371917600,2.29791748046875,-0.3632979989051819,-0.23108232021331787,0.05625809356570244
1789550673381886500,2.307886474609375,-0.35442328453063965,-0.23808404803276062,0.05197519809007645
1789550673391854600,2.3178544921875,-0.2745712399482727,-0.25219887495040894,-0.003995564766228199
1789550673401823500,2.327823486328125,-0.2885270118713379,-0.26116013526916504,0.05807233229279518
1789550673411791600,2.33779150390625,-0.31353259086608887,-0.23825794458389282,0.05576407536864281
1789550673421760500,2.347760498046875,-0.22960039973258972,-0.27108195424079895,0.009141181595623493
1789550673431728600,2.357728759765625,-0.20577965676784515,-0.2696106433868408,-0.007580722216516733
1789550673441697500,2.367697509765625,-0.21091076731681824,-0.27496492862701416,0.016445251181721687
1789550673451665700,2.377665771484375,-0.14335322380065918,-0.3284556567668915,0.006791388615965843
1789550673461633500,2.387633544921875,-0.15473103523254395,-0.267443984746933,0.030554508790373802
1789550673471602700,2.397602783203125,-0.15768101811408997,-0.2850296199321747,0.04001113027334213
1789550673481570600,2.407570556640625,-0.08776585012674332,-0.3235498368740082,0.04233153909444809
1789550673491539500,2.41753955078125,-0.10010389238595963,-0.351506769657135,0.04626487195491791
1789550673501507600,2.427507568359375,-0.10219474136829376,-0.3343445658683777,0.07149166613817215
1789550673511476500,2.4374765625,-0.00443394435569644,-0.33844542503356934,-0.03623063862323761
1789550673521444600,2.447444580078125,0.007503941189497709,-0.3335268497467041,-0.05596865713596344
1789550673531413500,2.45741357421875,-0.026577623561024666,-0.3345673382282257,-0.012562902644276619
1789550673541381600,2.467381591796875,0.019108105450868607,-0.3455680310726166,0.03279126435518265
1789550673551350500,2.4773505859375,0.11061743646860123,-0.3616492450237274,0.05279362574219704
1789550673561318700,2.487318603515625,0.2295060157775879,-0.3262462317943573,0.01748649775981903
1789550673571287600,2.49728759765625,0.28341105580329895,-0.29514557123184204,-0.01283913291990757
1789550673581255700,2.507255615234375,0.3023775517940521,-0.31389501690864563,0.01586814410984516
1789550673591224600,2.517224609375,0.3790836036205292,-0.2992367446422577,-0.020959042012691498
1789550673601192400,2.5271923828125,0.4064677953720093,-0.287857323884964,0.03594232350587845
1789550673611160600,2.53716064453125,0.47613707184791565,-0.27967387437820435,0.005033064633607864
1789550673621129500,2.54712939453125,0.5223309397697449,-0.2509958744049072,-0.03368610143661499
1789550673631097600,2.55709765625,0.5246143341064453,-0.28243741393089294,0.01207792479544878
1789550673641066500,2.56706640625,0.5490096807479858,-0.23276066780090332,0.025118358433246613
1789550673651034600,2.57703466796875,0.6117479205131531,-0.3436233103275299,0.03217438980937004
1789550673661003500,2.58700341796875,0.6971957087516785,-0.2818922996520996,-0.028712131083011627
1789550673670971600,2.5969716796875,0.6706671714782715,-0.18544429540634155,0.022393105551600456
1789550673680940500,2.6069404296875,0.6902496218681335,-0.2821367383003235,0.05471748858690262
1789550673690908700,2.61690869140625,0.8127452731132507,-0.27711808681488037,0.10271090269088745
1789550673700877600,2.626877685546875,0.8419092297554016,-0.12778641283512115,0.05299394205212593
1789550673710845400,2.636845458984375,0.7864778637886047,-0.17678606510162354,0.014489874243736267
1789550673720814600,2.646814697265625,0.768823504447937,-0.11687027662992477,0.013254966586828232
1789550673730782500,2.656782470703125,0.8217108845710754,-0.13172927498817444,0.00388454832136631
1789550673740751600,2.666751708984375,0.838111400604248,-0.08526165038347244,0.005178311839699745
1789550673750719500,2.676719482421875,0.8051288723945618,-0.02001013606786728,-0.006518919486552477
1789550673760688600,2.686688720703125,0.8336185812950134,-0.004614934790879488,-0.009215369820594788
1789550673770656500,2.696656494140625,0.8826989531517029,-0.047136202454566956,-0.02141939103603363
1789550673780624600,2.706624755859375,0.7721055746078491,0.04537775367498398,0.012257878668606281
1789550673790593500,2.716593505859375,0.6959777474403381,0.028285089880228043,0.08442094922065735
1789550673800561700,2.726561767578125,0.7285306453704834,0.030570082366466522,0.09042531251907349
1789550673810530600,2.736530517578125,0.6026596426963806,0.07417897135019302,0.03225591778755188
1789550673820498400,2.74649853515625,0.4265330731868744,0.11847399175167084,0.03698915243148804
1789550673830467600,2.756467529296875,0.33311542868614197,0.11117909848690033,0.029775910079479218
1789550673840435500,2.766435546875,0.2589658498764038,0.10230597853660583,0.0163852721452713
1789550673850404600,2.776404541015625,0.21047525107860565,0.11395388096570969,-0.08057272434234619
1789550673860372500,2.78637255859375,0.05830249935388565,0.1168878898024559,0.0020920601673424244
1789550673870341600,2.796341552734375,0.06569316238164902,0.07560475915670395,0.011560773476958275
1789550673880309500,2.8063095703125,0.17647986114025116,0.09181861579418182,0.01291286014020443
1789550673890278700,2.816278564453125,0.1965455859899521,0.15952032804489136,-0.02416456863284111
1789550673900246500,2.82624658203125,0.11480225622653961,0.18890537321567535,0.03528837114572525
1789550673910215700,2.836215576171875,0.1564452052116394,0.19587096571922302,-0.007930867373943329
1789550673920183600,2.84618359375,0.13965503871440887,0.17671963572502136,-0.0020716465078294277
1789550673930151400,2.8561513671875,0.05028659477829933,0.17428730428218842,0.06954772770404816
1789550673940120600,2.86612060546875,0.04323108121752739,0.17366544902324677,0.034401725977659225
1789550673950088400,2.87608837890625,-0.012677716091275215,0.22224387526512146,-0.023098332807421684
1789550673960059000,2.886058837890625,-0.127282053232193,0.22227025032043457,0.028357133269309998
1789550673970026800,2.89602685546875,-0.12174035608768463,0.20197731256484985,0.037255771458148956
1789550673979995600,2.90599560546875,-0.07811164855957031,0.18916670978069305,-0.02536446414887905
1789550673989963800,2.9159638671875,-0.14435742795467377,0.21858736872673035,-0.032955706119537354
1789550673999932700,2.9259326171875,-0.19439396262168884,0.21682888269424438,-0.003234563395380974
1789550674009900800,2.93590087890625,-0.1931321918964386,0.18210850656032562,-0.052705466747283936
1789550674019869700,2.94586962890625,-0.2360176146030426,0.17566418647766113,-0.06641968339681625
1789550674029837800,2.955837890625,-0.2578555643558502,0.1948554664850235,-0.019143547862768173
1789550674039806700,2.965806640625,-0.21274372935295105,0.1791372150182724,-0.0140696931630373
1789550674049774800,2.97577490234375,-0.16255103051662445,0.1342889666557312,-0.023928586393594742
1789550674059744000,2.985743896484375,-0.1395125538110733,0.1793469935655594,0.02234809845685959
1789550674069712000,2.9957119140625,-0.1345348209142685,0.12163706868886948,-0.01691436395049095
1789550674079679700,3.0056796875,-0.24235370755195618,0.04694152623414993,0.17219378054141998
1789550674089648600,3.015648681640625,-0.3482048213481903,0.11462260037660599,0.2906319797039032
1789550674099616800,3.02561669921875,-0.2764328718185425,0.11744262278079987,0.281607061624527
1789550674109585700,3.035585693359375,-0.20512723922729492,0.11309076100587845,0.11458323150873184
1789550674119553800,3.0455537109375,-0.2889009714126587,0.03912145644426346,0.03885864093899727
1789550674129522700,3.055522705078125,-0.39550644159317017,0.0010323190363124013,0.055330876260995865
1789550674139490800,3.06549072265625,-0.3558301627635956,0.011842622421681881,0.0577855110168457
1789550674149459700,3.075459716796875,-0.1612766683101654,0.09036991745233536,-0.24930468201637268
1789550674159427800,3.085427734375,-0.14159271121025085,0.0530766099691391,-0.1548066884279251
1789550674169397000,3.09539697265625,-0.19210705161094666,0.0526803694665432,-0.13747192919254303
1789550674179364900,3.10536474609375,-0.05494866147637367,-0.0044593485072255135,-0.08775471150875092
1789550674189334000,3.115333984375,0.005797514691948891,0.0035948280710726976,-0.11871024966239929
1789550674199301600,3.125301513671875,-0.1323947161436081,0.04090224951505661,-0.03041926398873329
1789550674209270800,3.135270751953125,-0.13924023509025574,0.014099798165261745,-0.01338557992130518
1789550674219238700,3.14523876953125,-0.02090294659137726,0.015134436078369617,-0.048821866512298584
1789550674229206800,3.155206787109375,-0.0069638569839298725,0.020585855469107628,0.022438079118728638
1789550674239175700,3.16517578125,-0.09197648614645004,0.06597091257572174,0.089198999106884
1789550674249143800,3.175143798828125,-0.0819472000002861,0.10242123901844025,0.0719713643193245
1789550674259113000,3.185113037109375,-0.040854889899492264,0.05333412066102028,0.0063899545930325985
1789550674269080800,3.195080810546875,-0.1094750463962555,0.0568666085600853,0.045866694301366806
1789550674279050000,3.205050048828125,-0.13966277241706848,0.0588621161878109,0.03974808007478714
1789550674289017900,3.215017822265625,-0.13177208602428436,0.05013864487409592,-0.07432923465967178
1789550674298987000,3.224987060546875,-0.23306994140148163,0.011817888356745243,-0.02221010811626911
1789550674308954600,3.23495458984375,-0.22414566576480865,0.040158987045288086,-0.1566229909658432
1789550674318923800,3.244923828125,-0.2445816993713379,-0.03784340247511864,-0.05837045982480049
1789550674328891600,3.2548916015625,-0.19584181904792786,0.019833413884043694,-0.08828786760568619
1789550674338859800,3.26485986328125,-0.2518475651741028,0.07835983484983444,-0.14825107157230377
1789550674348828700,3.27482861328125,-0.35675182938575745,0.07879045605659485,-0.036120183765888214
1789550674358796800,3.284796875,-0.3518470823764801,0.05899917706847191,-0.14128150045871735
1789550674368766000,3.294765869140625,-0.36590999364852905,-0.08780831843614578,-0.026415955275297165
1789550674378733800,3.30473388671875,-0.3839752674102783,-0.17707906663417816,0.20317275822162628
1789550674388703000,3.314702880859375,-0.19110846519470215,-0.13732439279556274,0.11126343160867691
1789550674398670800,3.3246708984375,-0.13266487419605255,-0.048256292939186096,0.0800250843167305
1789550674408640000,3.334639892578125,-0.19519130885601044,0.05851725488901138,0.19621515274047852
1789550674418607600,3.344607666015625,-0.058833468705415726,-0.00504227913916111,0.138384610414505
1789550674428576800,3.35457666015625,0.10392503440380096,-0.0638570636510849,0.007687785662710667
1789550674438544600,3.364544677734375,0.034532107412815094,-0.006911494769155979,-0.07222621887922287
1789550674448513800,3.374513671875,-0.14782476425170898,-0.02845023013651371,0.05052913725376129
1789550674458481700,3.384481689453125,-0.16221195459365845,-0.14208970963954926,0.07385469973087311
1789550674468450800,3.394450927734375,-0.01766742579638958,-0.16287578642368317,0.025716902688145638
1789550674478419000,3.4044189453125,-0.10603084415197372,-0.09958869963884354,-0.034242838621139526
1789550674488386800,3.41438671875,-0.2294304519891739,-0.08615956455469131,0.01001572236418724
1789550674498356000,3.42435595703125,-0.1315276026725769,-0.14301751554012299,0.05278022959828377
1789550674508323800,3.43432373046875,-0.05924267694354057,-0.12172266840934753,0.02124239131808281
1789550674518293000,3.44429296875,-0.04705658555030823,-0.09325427561998367,0.0008660145103931427
1789550674528260600,3.454260498046875,-0.0929776206612587,-0.05350751057267189,-0.0041051870211958885
1789550674538229800,3.464229736328125,-0.0330841951072216,-0.0996779352426529,-0.02840466797351837
1789550674548197600,3.47419775390625,-0.03760070353746414,-0.15459255874156952,0.06505277007818222
1789550674558166800,3.484166748046875,-0.1236431747674942,-0.096887968480587,0.1272551566362381
1789550674568135000,3.494135009765625,-0.0017988326726481318,-0.09549637138843536,0.0448172353208065
1789550674578103800,3.504103759765625,0.04650425165891647,-0.0916246697306633,-0.034111667424440384
1789550674588072000,3.514072021484375,-0.01575077697634697,-0.06091931834816933,0.020421171560883522
1789550674598039800,3.524039794921875,-0.05192849040031433,-0.0839971974492073,0.035359639674425125
1789550674608009000,3.534009033203125,-0.004169099032878876,-0.129866823554039,-0.05080043524503708
1789550674617976800,3.543976806640625,-0.060974590480327606,-0.13928616046905518,-0.0267997607588768
1789550674627946000,3.553946044921875,-0.1396188586950302,-0.05980221927165985,-0.010733253322541714
1789550674637913600,3.56391357421875,-0.09225693345069885,-0.13830581307411194,-0.02838095650076866
1789550674647882800,3.5738828125,-0.02548629604279995,-0.11304666101932526,-0.00704893097281456
1789550674657850600,3.5838505859375,-0.056040212512016296,-0.044875070452690125,-0.04274274781346321
1789550674667819800,3.59381982421875,-0.004665512591600418,-0.04083096235990524,-0.045298345386981964
1789550674677788000,3.603787841796875,-0.006165138445794582,-0.07514392584562302,-0.0016235695220530033
1789550674687756800,3.6137568359375,0.012206028215587139,-0.07485219836235046,-0.012866225093603134
1789550674697725000,3.623724853515625,0.04624469205737114,-0.04005080461502075,-0.034179236739873886
1789550674707693800,3.63369384765625,0.0400293692946434,-0.0071844300255179405,-0.06815613061189651
1789550674717662000,3.643661865234375,0.07347654551267624,-0.04951430857181549,-0.032067641615867615
1789550674727629800,3.6536298828125,0.15556178987026215,-0.0536043755710125,-0.006970846094191074
1789550674737599000,3.663598876953125,0.1919267177581787,-0.08660866320133209,-0.05507286265492439
1789550674747566600,3.673566650390625,0.15691305696964264,-0.04711982607841492,-0.052652355283498764
1789550674757535700,3.68353564453125,0.10236726701259613,-0.06820619851350784,-0.01676013134419918
1789550674767503600,3.693503662109375,0.16029228270053864,-0.09819651395082474,-0.008060961961746216
1789550674777472800,3.70347265625,0.20117686688899994,-0.08531267195940018,-0.0078513715416193
1789550674787441000,3.71344091796875,0.18703293800354004,-0.09406927973031998,0.02058703452348709
1789550674797409800,3.723409912109375,0.2384636402130127,-0.09350815415382385,0.031074829399585724
1789550674807378000,3.7333779296875,0.24868223071098328,-0.06144506856799126,0.010554930195212364
1789550674817346800,3.743346923828125,0.2871806025505066,-0.11910437047481537,0.029376821592450142
1789550674827315000,3.75331494140625,0.31992828845977783,-0.041509002447128296,-0.009742481634020805
1789550674837282800,3.76328271484375,0.37180694937705994,-0.07293989509344101,0.015874730423092842
1789550674847252000,3.773251953125,0.4342873692512512,-0.09018441289663315,0.044013142585754395
1789550674857219600,3.783219482421875,0.4101085066795349,-0.041864022612571716,0.055695630609989166
1789550674867189000,3.79318896484375,0.4393581748008728,-0.03202163800597191,0.0645923912525177
1789550674877156600,3.803156494140625,0.45733556151390076,0.018904391676187515,0.028949979692697525
1789550674887125800,3.813125732421875,0.4493556022644043,0.025757867842912674,0.026207104325294495
1789550674897094000,3.823093994140625,0.4299323558807373,0.008900856599211693,0.02335352823138237
1789550674907062800,3.833062744140625,0.38741806149482727,0.033010032027959824,-0.01383901759982109
1789550674917031000,3.843031005859375,0.3508155643939972,0.030860593542456627,-0.02852395363152027
1789550674926999800,3.852999755859375,0.2971639633178711,0.019847454503178596,-0.020519107580184937
1789550674936968000,3.862968017578125,0.257678359746933,0.06351424008607864,0.004066928289830685
1789550674946936800,3.872936767578125,0.3102792501449585,0.0557471327483654,0.009966408833861351
1789550674956904000,3.882904052734375,0.33233529329299927,0.0662570372223854,-0.07057823240756989
1789550674966872000,3.8928720703125,0.24743537604808807,0.10062798112630844,-0.0334894061088562
1789550674976841000,3.902841064453125,0.1744336038827896,0.06922665238380432,0.060304731130599976
1789550674986808800,3.912808837890625,0.15708477795124054,0.1016571894288063,0.0320296585559845
1789550674996778000,3.922778076171875,0.12747041881084442,0.13255730271339417,-0.06091625988483429
1789550675006745900,3.932745849609375,-0.019239725545048714,0.09292691946029663,0.018342100083827972
1789550675016714800,3.94271484375,-0.10849397629499435,0.08920994400978088,0.01633407734334469
1789550675026683000,3.952682861328125,-0.08008655160665512,0.07601260393857956,-0.02729971334338188
1789550675036651800,3.96265185546875,-0.12145769596099854,0.11356902867555618,-0.04655490070581436
1789550675046620000,3.972619873046875,-0.1900985985994339,0.11100632697343826,0.03767656162381172
1789550675056588800,3.9825888671875,-0.13654589653015137,0.11574249714612961,-0.018221590667963028
1789550675066557000,3.992556884765625,-0.10937666893005371,0.09205029159784317,-0.03424699604511261
1789550675076525800,4.00252587890625,-0.23869603872299194,0.10666785389184952,0.10823744535446167
1789550675086494000,4.012493896484375,-0.1684865802526474,0.02929634600877762,0.1306764781475067
1789550675096462000,4.022462158203125,-0.04975193366408348,0.11650368571281433,-0.010849222540855408
1789550675106431000,4.032430908203125,-0.13532720506191254,0.1345295011997223,-0.02543577551841736
1789550675116398800,4.04239892578125,-0.17243729531764984,0.10148473083972931,0.0538443997502327
1789550675126367700,4.05236767578125,-0.06764442473649979,0.044360578060150146,0.017620760947465897
1789550675136336000,4.0623359375,-0.06782711297273636,0.045010920614004135,-0.020169761031866074
1789550675146304800,4.0723046875,-0.16452667117118835,0.11099492758512497,0.0017686570063233376
1789550675156273000,4.08227294921875,-0.16184699535369873,0.07084430754184723,-0.0004779854789376259
1789550675166241800,4.09224169921875,-0.06702757626771927,-0.008150625042617321,-0.02199210226535797
1789550675176210000,4.1022099609375,-0.08752592653036118,0.03714308887720108,-0.01953001134097576
1789550675186178800,4.1121787109375,-0.061975788325071335,0.0012921062298119068,-0.02409970387816429
1789550675196147000,4.12214697265625,-0.029723845422267914,-0.015033338218927383,0.015997380018234253
1789550675206115000,4.132114990234375,-0.030108580365777016,0.007628174964338541,-0.02653009444475174
1789550675216084000,4.142083984375,-0.0211142860352993,0.015102602541446686,0.01672470010817051
1789550675226051800,4.1520517578125,-0.022374967113137245,-0.029850253835320473,0.019243918359279633
1789550675236020700,4.162020751953125,-0.0025919426698237658,0.0040094428695738316,-0.026236746460199356
1789550675245988900,4.17198876953125,-0.04260696843266487,-0.020325496792793274,-0.002048030961304903
1789550675255957800,4.181957763671875,-0.05494539439678192,-0.01572728343307972,0.048490773886442184
1789550675265926000,4.19192578125,-0.006898981519043446,-0.02574029192328453,-0.017884191125631332
1789550675275894800,4.201894775390625,0.021599771454930305,-0.013020236045122147,-0.0287027508020401
1789550675285863000,4.21186279296875,-0.0313161201775074,-0.03268345445394516,0.02919604256749153
1789550675295831800,4.221831787109375,-0.06582163274288177,0.0024239318445324898,-0.020139016211032867
1789550675305800000,4.231800048828125,-0.05394288897514343,0.08352330327033997,-0.052382227033376694
1789550675315768000,4.24176806640625,-0.1271345466375351,-0.00016226805746555328,0.061532359570264816
1789550675325737000,4.251737060546875,0.07310838252305984,-0.011076548136770725,0.01756289228796959
1789550675335704800,4.261704833984375,0.08921758085489273,0.03937091305851936,-0.023811710998415947
1789550675345673700,4.271673828125,-0.03319099172949791,0.09556694328784943,-0.028684820979833603
1789550675355641900,4.281641845703125,-0.07609505206346512,0.04701219126582146,0.012702033855021
1789550675365610800,4.29161083984375,-0.048035264015197754,0.0057457671500742435,0.024058176204562187
1789550675375579000,4.301578857421875,-0.162927508354187,0.04331577941775322,0.01720399782061577
1789550675385547800,4.3115478515625,-0.26980024576187134,0.03345470130443573,0.03826417773962021
1789550675395516000,4.321515869140625,-0.3331323266029358,0.02581968531012535,0.039601881057024
1789550675405484800,4.33148486328125,-0.29738813638687134,-0.06007954478263855,0.03125907480716705
1789550675415453000,4.341452880859375,-0.22071173787117004,-0.00869118981063366,-0.02533895894885063
1789550675425422000,4.351422119140625,-0.24303793907165527,-0.07107695192098618,0.020734937861561775
1789550675435390000,4.361389892578125,-0.2055981457233429,-0.09265627712011337,0.01697535440325737
1789550675445357800,4.37135791015625,-0.22382597625255585,-0.07194957882165909,0.025532539933919907
1789550675455326700,4.38132666015625,-0.29157331585884094,-0.03585335984826088,-0.01499970629811287
1789550675465294800,4.391294921875,-0.2602151334285736,-0.04914814606308937,0.0036000621039420366
1789550675475263700,4.401263671875,-0.16122543811798096,-0.15856412053108215,0.029156289994716644
1789550675485231900,4.41123193359375,-0.06302962452173233,-0.11565206944942474,0.011034809052944183
1789550675495200800,4.42120068359375,-0.05207578092813492,-0.06142371892929077,0.0005342308431863785
1789550675505169000,4.4311689453125,-0.0518643744289875,-0.07452616840600967,-0.006692866794764996
1789550675515137800,4.4411376953125,-0.08870121836662292,-0.12306627631187439,0.07498255372047424
1789550675525106000,4.45110595703125,-0.09666448831558228,-0.15595084428787231,0.0939079001545906
1789550675535075000,4.461074951171875,-0.03980173543095589,-0.12965212762355804,0.01064150407910347
1789550675545043000,4.47104296875,-0.07940040528774261,-0.04443535953760147,-0.039472904056310654
1789550675555010800,4.4810107421875,-0.03855443745851517,-0.14201438426971436,0.0026545787695795298
1789550675564979700,4.490979736328125,0.0819367989897728,-0.12782716751098633,0.000018543563783168793
1789550675574947800,4.50094775390625,0.13972552120685577,-0.22282879054546356,-0.027963289991021156
1789550675584916700,4.510916748046875,0.25052934885025024,-0.18149954080581665,-0.06959506124258041
1789550675594884900,4.520884765625,0.2648947238922119,-0.1415124386548996,0.01251898892223835
1789550675604853800,4.530853759765625,0.2016724944114685,-0.14919741451740265,0.04364055022597313
1789550675614822000,4.54082177734375,0.2447906732559204,-0.11304368078708649,-0.01544460840523243
1789550675624790800,4.550790771484375,0.24643605947494507,-0.19469258189201355,0.02284960076212883
1789550675634759000,4.560759033203125,0.2876562178134918,-0.0995684489607811,-0.005568725056946278
1789550675644727000,4.57072705078125,0.2830922603607178,-0.1481315791606903,0.023480452597141266
1789550675654696000,4.580696044921875,0.4737556576728821,-0.08279172331094742,0.005329943727701902
1789550675664663800,4.590663818359375,0.5188924074172974,-0.0983162671327591,-0.01330273225903511
1789550675674632700,4.6006328125,0.4805828332901001,-0.02559519000351429,-0.024804124608635902
1789550675684600800,4.610600830078125,0.47768834233283997,-0.05260004475712776,0.03812594339251518
1789550675694569700,4.62056982421875,0.42644354701042175,-0.0021416647359728813,-0.00900535099208355
1789550675704537900,4.630537841796875,0.39697936177253723,-0.00008857250213623047,-0.03128882497549057
1789550675714506800,4.6405068359375,0.3834038972854614,-0.016287516802549362,-0.03868815302848816
1789550675724475000,4.650474853515625,0.3287225067615509,-0.015798548236489296,0.000061013735830783844
1789550675734443800,4.66044384765625,0.34726718068122864,-0.011446144431829453,0.014154994860291481
1789550675744412000,4.670411865234375,0.28176218271255493,-0.021754935383796692,0.023887760937213898
1789550675754380000,4.680380126953125,0.23654673993587494,-0.003559684846550226,0.015104390680789948
1789550675764349000,4.690348876953125,0.23633386194705963,0.05336947366595268,-0.014254380017518997
1789550675774316800,4.70031689453125,0.18322643637657166,-0.0003837691619992256,0.011962843127548695
1789550675784285700,4.71028564453125,0.17978355288505554,-0.0019382904283702374,0.03224795311689377
1789550675794253800,4.72025390625,0.16644404828548431,-0.02508622035384178,0.01230939757078886
1789550675804222700,4.73022265625,0.14300453662872314,0.011152149178087711,-0.014958437532186508
1789550675814190800,4.74019091796875,0.08759507536888123,-0.012183799408376217,0.02196682244539261
1789550675824159700,4.75015966796875,0.10997477918863297,0.010044444352388382,0.013747591525316238
1789550675834128000,4.7601279296875,0.1069699302315712,-0.01866389811038971,-0.009741488844156265
1789550675844097000,4.770096923828125,0.10777691751718521,0.012327006086707115,-0.019181516021490097
1789550675854065000,4.78006494140625,0.12451434880495071,0.02324623242020607,-0.011410679668188095
1789550675864033000,4.790032958984375,0.08940291404724121,0.054587434977293015,0.01362537033855915
1789550675874002000,4.800001953125,0.057299837470054626,0.07164311408996582,0.018882984295487404
1789550675883969800,4.8099697265625,0.04084997996687889,0.020479299128055573,0.03033769316971302
1789550675893938700,4.819938720703125,0.03496545925736427,0.052574384957551956,0.039328526705503464
1789550675903906800,4.82990673828125,0.03474627062678337,0.05830686166882515,0.009351203218102455
1789550675913875700,4.839875732421875,0.12613371014595032,0.07520914822816849,-0.025309305638074875
1789550675923843800,4.84984375,0.13317298889160156,0.08272776007652283,-0.04430053383111954
1789550675933812700,4.859812744140625,0.11090044677257538,0.10645785927772522,-0.0033187465742230415
1789550675943780900,4.86978076171875,0.11925796419382095,0.05801442265510559,0.11081575602293015
1789550675953750000,4.87975,0.07648173719644547,0.09652560204267502,0.04718644917011261
1789550675963717000,4.889717041015625,0.006052467972040176,0.06347321718931198,0.00651506194844842
1789550675973685200,4.899685302734375,0.05865602567791939,0.08194570243358612,-0.037152525037527084
1789550675983654100,4.909654052734375,0.14909346401691437,0.04672330617904663,-0.00886578019708395
1789550675993622300,4.919622314453125,0.24912391602993011,0.050669047981500626,-0.04730451479554176
1789550676003591400,4.92959130859375,0.19962209463119507,0.10965121537446976,-0.07689627259969711
1789550676013559300,4.939559326171875,0.14796076714992523,0.07388336956501007,-0.009398454800248146
1789550676023528400,4.949528564453125,0.13627880811691284,0.08958511799573898,0.010253292508423328
1789550676033496300,4.959496337890625,0.1163727343082428,0.06605875492095947,-0.006348054390400648
1789550676043465500,4.969465576171875,0.06998810917139053,0.09019479155540466,-0.05483686178922653
1789550676053433300,4.979433349609375,-0.008065678179264069,0.0789559856057167,-0.03136402741074562
1789550676063402500,4.989402587890625,-0.03324727341532707,0.0614771693944931,-0.0007027005776762962
1789550676073370000,4.9993701171875,0.015497896820306778,0.03130968287587166,0.045624054968357086
1789550676083338200,5.009338134765625,0.026769833639264107,0.10743100196123123,-0.03540294989943504
1789550676093307100,5.01930712890625,0.015634624287486076,0.06254155188798904,0.00961645320057869
1789550676103275300,5.029275146484375,0.037498876452445984,0.08135975152254105,-0.021948151290416718
1789550676113244400,5.039244384765625,0.03900010138750076,0.07829445600509644,-0.010671261698007584
1789550676123212300,5.04921240234375,0.02040894329547882,0.11401905119419098,0.012219469994306564
1789550676133181400,5.059181396484375,-0.0454811230301857,0.12791594862937927,-0.007627470884472132
1789550676143149300,5.0691494140625,0.006951320916414261,0.0760938972234726,0.01709475740790367
1789550676153118500,5.079118408203125,0.018845796585083008,0.09394746273756027,-0.031043745577335358
1789550676163086300,5.08908642578125,-0.02611982636153698,0.08178216964006424,-0.006658490747213364
1789550676173054200,5.09905419921875,-0.07329399138689041,0.06515365839004517,0.00021938933059573174
1789550676183023000,5.109023193359375,-0.12178336083889008,0.03170182555913925,0.029048269614577293
1789550676192991200,5.1189912109375,-0.14824771881103516,0.015724722295999527,0.02005930244922638
1789550676202960100,5.128960205078125,-0.14827154576778412,-0.025812752544879913,0.0328037366271019
1789550676212928300,5.13892822265625,-0.10604898631572723,-0.004792422987520695,0.0022442303597927094
1789550676222897400,5.1488974609375,-0.10558674484491348,-0.034066878259181976,-0.0032166829332709312
1789550676232865300,5.158865234375,-0.07826723903417587,-0.02501772716641426,-0.006700895726680756
1789550676242834400,5.16883447265625,-0.018993644043803215,-0.08051439374685287,0.014244282618165016
1789550676252802300,5.17880224609375,0.02532615140080452,-0.04841398820281029,-0.02310735173523426
1789550676262771500,5.188771484375,0.028761278837919235,-0.03551732003688812,-0.04936336353421211
1789550676272739300,5.1987392578125,0.04631444066762924,-0.017644576728343964,-0.059910278767347336
1789550676282707200,5.208707275390625,0.1091991662979126,-0.05948740616440773,-0.04242287948727608
1789550676292676000,5.218676025390625,0.12065288424491882,-0.01537933386862278,-0.004602263681590557
1789550676302644200,5.228644287109375,0.10062913596630096,-0.0235480647534132,-0.004083704203367233
1789550676312613400,5.23861328125,0.053804367780685425,0.012134034186601639,0.05139686167240143
1789550676322581200,5.248581298828125,0.047519296407699585,0.049410320818424225,0.04556829109787941
1789550676332550400,5.25855029296875,0.13459986448287964,-0.006148810498416424,-0.03368951380252838
1789550676342518300,5.268518310546875,0.15587611496448517,-0.006312577985227108,-0.03951495513319969
1789550676352487400,5.2784873046875,0.14126068353652954,-0.028766753152012825,-0.043379999697208405
1789550676362455300,5.288455322265625,0.1651141196489334,-0.008430637419223785,0.003482804400846362
1789550676372423400,5.29842333984375,0.15436533093452454,0.029791848734021187,-0.07494595646858215
1789550676382392300,5.308392333984375,0.04474582150578499,0.01026484090834856,0.0061784787103533745
1789550676392360200,5.318360107421875,0.0006212394218891859,-0.03520091250538826,0.020638909190893173
1789550676402329000,5.3283291015625,-0.0075732567347586155,-0.012834683060646057,0.032978400588035583
1789550676412297200,5.338297119140625,0.03386233374476433,-0.06012469902634621,-0.0008107214234769344
1789550676422266400,5.348266357421875,0.06488500535488129,-0.0572354719042778,-0.003508953843265772
1789550676432234200,5.358234130859375,0.22024503350257874,-0.05470866337418556,-0.015110215172171593
1789550676442203400,5.368203369140625,0.28883180022239685,-0.05206438526511192,0.005001195706427097
1789550676452171300,5.378171142578125,0.3975372314453125,-0.023569894954562187,-0.0025086523965001106
1789550676462139400,5.388139404296875,0.4335782825946808,0.011733307503163815,-0.042474281042814255
1789550676472108300,5.3981083984375,0.30359628796577454,0.024764686822891235,-0.008105386048555374
1789550676482076400,5.408076416015625,0.27015799283981323,0.0295255184173584,0.017271628603339195
1789550676492045300,5.41804541015625,0.239166259765625,-0.01126425713300705,0.016108093783259392
1789550676502013200,5.42801318359375,0.17312487959861755,0.0015794336795806885,0.030868666246533394
1789550676511982000,5.437982177734375,0.19148923456668854,0.0112198106944561,0.03329746797680855
1789550676521950200,5.4479501953125,0.14670532941818237,0.014506610110402107,-0.0002657161094248295
1789550676531919400,5.45791943359375,0.14387331902980804,0.027381129562854767,-0.01963568665087223
1789550676541887200,5.46788720703125,0.12565892934799194,0.05068560689687729,-0.03395527973771095
1789550676551856400,5.4778564453125,0.1524498015642166,0.03469332307577133,-0.023089580237865448
1789550676561824300,5.48782421875,0.1313035935163498,0.04003845900297165,-0.00770415086299181
1789550676571792400,5.49779248046875,0.09069810807704926,0.059073932468891144,0.030975600704550743
1789550676581761300,5.50776123046875,0.15043924748897552,0.00981687381863594,-0.001996380276978016
1789550676591729400,5.5177294921875,0.07403448224067688,-0.005878466181457043,-0.0034499336034059525
1789550676601698300,5.5276982421875,-0.010570255108177662,0.05818905308842659,-0.020934181287884712
1789550676611666200,5.537666259765625,-0.00523274764418602,-0.0116060059517622,0.009458611719310284
1789550676621635000,5.547635009765625,0.027791088446974754,0.02412896789610386,-0.03676394745707512
1789550676631603200,5.557603271484375,-0.11557459831237793,0.0146590331569314,-0.021704038605093956
1789550676641572400,5.567572265625,-0.19280532002449036,0.03303311765193939,0.03988358750939369
1789550676651540200,5.577540283203125,-0.1332692950963974,0.010414622724056244,0.001775884535163641
1789550676661508400,5.58750830078125,-0.07437736541032791,0.07490535080432892,-0.04392703250050545
1789550676671477200,5.597477294921875,-0.06662863492965698,0.04924286529421806,-0.0009425478056073189
1789550676681445400,5.6074453125,-0.07460924237966537,0.11283692717552185,-0.012779949232935905
1789550676691414300,5.617414306640625,0.018548134714365005,0.04403442516922951,-0.08969630300998688
1789550676701382400,5.62738232421875,-0.08140671253204346,0.14942078292369843,-0.049469031393527985
1789550676711351300,5.637351318359375,-0.08775515854358673,0.036727793514728546,-0.025087522342801094
1789550676721319200,5.647319091796875,-0.0884956493973732,0.08034411072731018,0.014515114948153496
1789550676731288300,5.657288330078125,-0.2090495079755783,0.09203112870454788,-0.0006057810969650745
1789550676741256200,5.667256103515625,-0.2656799554824829,0.15091727674007416,0.011613970622420311
1789550676751224300,5.677224365234375,-0.12399470806121826,0.015187137760221958,0.013733580708503723
1789550676761193200,5.687193115234375,-0.02611214853823185,0.043863315135240555,-0.034197255969047546
1789550676771161300,5.697161376953125,-0.04873783141374588,0.03734762594103813,-0.05586393550038338
1789550676781130200,5.707130126953125,-0.015770388767123222,0.014456786215305328,-0.0593801885843277
1789550676791098400,5.717098388671875,0.03539266437292099,-0.02657639980316162,-0.0528959222137928
1789550676801067300,5.7270673828125,-0.034454844892024994,0.016432028263807297,-0.022825129330158234
1789550676811035400,5.737035400390625,-0.04621509835124016,-0.01699863187968731,-0.012346920557320118
1789550676821004300,5.74700439453125,-0.1112278401851654,0.04504549130797386,0.01597563363611698
1789550676830972200,5.75697216796875,-0.08616829663515091,-0.024067001417279243,0.05934387817978859
1789550676840940300,5.766940185546875,0.06598185002803802,-0.026893429458141327,-0.019829725846648216
1789550676850909200,5.7769091796875,0.06489261239767075,-0.020013952627778053,-0.03568485751748085
1789550676860877300,5.786877197265625,0.13005201518535614,-0.06168399006128311,0.006954091601073742
1789550676870846200,5.79684619140625,0.265507310628891,-0.08824209868907928,-0.004694041796028614
1789550676880814300,5.806814453125,0.2717858552932739,-0.02813096158206463,-0.008343000896275043
1789550676890783200,5.816783203125,0.30365562438964844,0.05839887261390686,0.013784138485789299
1789550676900751400,5.82675146484375,0.3650372326374054,-0.00429620873183012,0.019035298377275467
1789550676910720300,5.83672021484375,0.3700612783432007,0.005910355597734451,0.0631747916340828
1789550676920688400,5.8466884765625,0.332939088344574,0.05801361799240112,0.004204563330858946
1789550676930656300,5.85665625,0.27624812722206116,0.06452690809965134,0.044363703578710556
1789550676940625400,5.86662548828125,0.34931719303131104,0.06311045587062836,0.058269888162612915
1789550676950593300,5.87659326171875,0.36892789602279663,0.07346056401729584,0.019811179488897324
1789550676960562000,5.88656201171875,0.22868281602859497,0.14064209163188934,0.05561570078134537
1789550676970530000,5.896530029296875,0.21170330047607422,0.11792639642953873,0.014291430823504925
1789550676980499000,5.9064990234375,0.1607077270746231,0.10374190658330917,0.02588169276714325
1789550676990466800,5.916466796875,0.09388075768947601,0.11759273707866669,0.04578988626599312
1789550677000435700,5.926435791015625,0.050976622849702835,0.09047304093837738,0.043343402445316315
1789550677010403800,5.93640380859375,0.06645224988460541,0.11298181116580963,-0.01160054188221693
1789550677020372000,5.9463720703125,0.09771693497896194,0.08025187253952026,0.018423713743686676
1789550677030340900,5.9563408203125,0.06597152352333069,0.10281284153461456,0.05708801746368408
1789550677040309000,5.96630908203125,0.03700938820838928,0.15998290479183197,0.0012811915948987007
1789550677050278000,5.97627783203125,0.013693150132894516,0.0986471027135849,0.0444323904812336
1789550677060246000,5.98624609375,-0.044195372611284256,0.13489584624767303,0.05184753239154816
1789550677070215000,5.99621484375,-0.04801248013973236,0.11251357942819595,-0.027481909841299057
1789550677080183000,6.00618310546875,-0.012217050418257713,0.13773302733898163,-0.053144052624702454
1789550677090151000,6.01615087890625,-0.03456896170973778,0.0783969908952713,-0.041058626025915146
1789550677100119800,6.026119873046875,-0.0252748504281044,0.06799209117889404,0.01686779223382473
1789550677110088000,6.036087890625,-0.0633854866027832,0.03593215346336365,-0.025744648650288582
1789550677120056800,6.046056884765625,-0.20674224197864532,0.11659330129623413,-0.0025492128916084766
1789550677130025000,6.05602490234375,-0.3188876807689667,0.06908677518367767,-0.011107547208666801
1789550677139993900,6.065993896484375,-0.347157746553421,0.051034051924943924,0.020671024918556213
1789550677149962000,6.0759619140625,-0.27028346061706543,0.037577901035547256,-0.04157104715704918
1789550677159931000,6.085930908203125,-0.4163103699684143,0.06368745863437653,0.011209452524781227
1789550677169899000,6.09589892578125,-0.43248987197875977,0.035396166145801544,0.050778698176145554
1789550677179867100,6.1058671875,-0.29693299531936646,0.016466835513710976,-0.023998478427529335
1789550677189836000,6.1158359375,-0.30560293793678284,0.03315500169992447,-0.07754027098417282
1789550677199804000,6.125803955078125,-0.3308820426464081,0.03459962084889412,-0.06920462846755981
1789550677209772800,6.135772705078125,-0.1962035596370697,-0.06795338541269302,-0.053386520594358444
1789550677219741000,6.145740966796875,-0.16354073584079742,-0.029093312099575996,-0.014623831957578659
1789550677229709800,6.155709716796875,-0.01577736996114254,-0.048112545162439346,-0.03520341217517853
1789550677239678000,6.165677978515625,0.12335225194692612,-0.04225674644112587,-0.017946142703294754
1789550677249646800,6.175646728515625,0.18167974054813385,-0.05820295587182045,0.05716565251350403
1789550677259615000,6.185614990234375,0.28343382477760315,-0.03392161801457405,0.036362990736961365
1789550677269583000,6.1955830078125,0.3248606324195862,-0.026137197390198708,0.022634927183389664
1789550677279552000,6.205552001953125,0.282667875289917,-0.0007657618261873722,-0.017666775733232498
1789550677289520000,6.21552001953125,0.2759513854980469,-0.04310629516839981,0.03380333632230759
1789550677299489000,6.225489013671875,0.30502331256866455,-0.04217902943491936,0.0014311475679278374
1789550677309457000,6.235456787109375,0.2949610948562622,-0.009900186210870743,-0.00440250663086772
1789550677319425800,6.24542578125,0.2923022508621216,0.05255620926618576,0.014352068305015564
1789550677329394000,6.255393798828125,0.27976593375205994,0.0417160801589489,0.027170393615961075
1789550677339361800,6.26536181640625,0.2510112226009369,0.11462519317865372,-0.014967629685997963
1789550677349331000,6.2753310546875,0.2398270070552826,0.06589573621749878,0.01147196814417839
1789550677359299000,6.285299072265625,0.11598021537065506,0.07234267145395279,0.07733367383480072
1789550677369268000,6.29526806640625,0.005886205937713385,0.12481094151735306,0.07414080947637558
1789550677379236000,6.305236083984375,-0.00043406488839536905,0.08815445005893707,0.050787486135959625
1789550677389205000,6.315205078125,-0.08578278869390488,0.061516184359788895,0.053503911942243576
1789550677399173000,6.325173095703125,-0.21503376960754395,0.09116735309362411,0.027804143726825714
1789550677409142000,6.33514208984375,-0.3009489178657532,0.05400879681110382,0.03777928277850151
1789550677419110000,6.34510986328125,-0.3322891891002655,0.09146152436733246,0.020321208983659744
1789550677429077800,6.355077880859375,-0.29412662982940674,0.07876995950937271,-0.01942194253206253
1789550677439047000,6.365046875,-0.3096909821033478,0.04644453525543213,0.004394466057419777
1789550677449014800,6.375014892578125,-0.29103952646255493,0.03310662880539894,-0.0035034040920436382
1789550677458984000,6.38498388671875,-0.2571870982646942,0.014910402707755566,-0.056230414658784866
1789550677468952000,6.3949521484375,-0.3400697410106659,0.02983848750591278,-0.031195104122161865
1789550677478921000,6.4049208984375,-0.4279118776321411,0.032209157943725586,0.0023997153621166945
1789550677488889000,6.41488916015625,-0.3909243047237396,0.014775309711694717,0.0012231306172907352
1789550677498857000,6.42485693359375,-0.30146560072898865,-0.025321736931800842,-0.014440002851188183
1789550677508826000,6.434826171875,-0.26840296387672424,0.005705421790480614,0.019374152645468712
1789550677518793700,6.444793701171875,-0.15169377624988556,0.035002440214157104,-0.0821525976061821
1789550677528763000,6.454762939453125,-0.060152940452098846,0.06510414183139801,-0.10813786089420319
1789550677538730800,6.464730712890625,-0.0300439465790987,0.01860951818525791,-0.06877705454826355
1789550677548700000,6.474699951171875,-0.04302925243973732,0.035901159048080444,-0.0795958861708641
1789550677558667800,6.484667724609375,-0.080062136054039,-0.007424714043736458,-0.07037077844142914
1789550677568637000,6.494636962890625,-0.07804452627897263,0.040737755596637726,-0.030224692076444626
1789550677578605000,6.50460498046875,-0.0626433789730072,-0.0040359292179346085,-0.03866676241159439
1789550677588573000,6.514572998046875,-0.029340015724301338,0.01942705363035202,-0.06230764463543892
1789550677598542000,6.5245419921875,-0.09277990460395813,-0.014020192436873913,-0.059486713260412216
1789550677608510000,6.534510009765625,-0.12350878864526749,0.026303261518478394,0.01775374263525009
1789550677618479000,6.54447900390625,0.032853491604328156,-0.01718253642320633,-0.03661441430449486
1789550677628447000,6.554447021484375,0.10046236962080002,-0.0013481795322149992,-0.10745396465063095
1789550677638416100,6.564416015625,-0.06174556538462639,0.0392126739025116,-0.015516710467636585
1789550677648383700,6.5743837890625,-0.07651758939027786,0.017712444067001343,-0.004490690305829048
1789550677658351900,6.584351806640625,0.02433580905199051,-0.0573279932141304,0.01956142671406269
1789550677668320800,6.59432080078125,-0.0058593787252902985,-0.005042952485382557,0.031622618436813354
1789550677678289000,6.604288818359375,-0.05310151353478432,0.030150245875120163,-0.050367917865514755
1789550677688258000,6.614258056640625,-0.04204593598842621,-0.00041059311479330063,-0.05158524960279465
1789550677698226000,6.624225830078125,0.009880646131932735,-0.00856306217610836,-0.03518177568912506
1789550677708195000,6.634195068359375,0.033378515392541885,-0.050718504935503006,-0.019370052963495255
1789550677718163000,6.644162841796875,0.006182047538459301,0.004261390306055546,-0.05606468766927719
1789550677728130800,6.654130859375,0.07738538831472397,-0.04700525850057602,-0.045320697128772736
1789550677738100000,6.664099853515625,0.06320898234844208,-0.006346367299556732,-0.02242819219827652
1789550677748067800,6.67406787109375,0.07849659025669098,-0.028511056676506996,-0.0025391741655766964
1789550677758036700,6.68403662109375,0.10112986713647842,-0.006777403876185417,0.011292586103081703
1789550677768004900,6.6940048828125,0.09931758046150208,-0.021338503807783127,0.04328753426671028
1789550677777974000,6.70397412109375,0.1629256159067154,-0.00613988284021616,0.016181636601686478
1789550677787942000,6.71394189453125,0.15653403103351593,0.010533103719353676,-0.027748271822929382
1789550677797911000,6.7239111328125,0.10317537933588028,0.06907614320516586,0.0506090372800827
1789550677807879000,6.73387890625,0.23210300505161285,-0.008781641721725464,0.10637056827545166
1789550677817847000,6.743846923828125,0.3089350461959839,-0.021240288391709328,0.05510111525654793
1789550677827816000,6.75381591796875,0.18273982405662537,0.05400599539279938,0.037746891379356384
1789550677837784000,6.7637841796875,0.09793856739997864,0.011964614503085613,0.09304241836071014
1789550677847753000,6.7737529296875,0.14983318746089935,0.0011343369260430336,0.0063397446647286415
1789550677857720800,6.783720947265625,0.1845157891511917,0.01320168748497963,0.03806901350617409
1789550677867689700,6.793689697265625,0.1822209358215332,0.016779111698269844,0.07112123817205429
1789550677877657900,6.803657958984375,0.2001040130853653,0.0727611854672432,0.10761551558971405
1789550677887626000,6.8136259765625,0.25247320532798767,0.01712322235107422,0.14829449355602264
1789550677897595000,6.823594970703125,0.16737867891788483,0.08466140925884247,0.2150331735610962
1789550677907563000,6.83356298828125,0.173566535115242,0.04843948781490326,0.13040004670619965
1789550677917532000,6.843531982421875,0.15754544734954834,0.07765547186136246,0.08367779850959778
1789550677927500000,6.8535,0.12234590947628021,0.14622467756271362,-0.021107207983732224
1789550677937469000,6.863468994140625,0.0674496665596962,0.1286075860261917,-0.03681083023548126
1789550677947437000,6.87343701171875,0.034470412880182266,0.15132327377796173,0.03834064304828644
1789550677957405200,6.8834052734375,0.08283235132694244,0.14431437849998474,-0.02890869975090027
1789550677967374000,6.8933740234375,-0.054656002670526505,0.19052660465240479,0.012704258784651756
1789550677977342200,6.90334228515625,-0.10856833308935165,0.24185220897197723,0.005208711605519056
1789550677987311000,6.91331103515625,-0.06668666005134583,0.15971419215202332,-0.0316007025539875
1789550677997279200,6.923279296875,-0.15722501277923584,0.1797807663679123,0.02645391970872879
1789550678007248100,6.933248046875,-0.23777098953723907,0.17955705523490906,0.030036404728889465
1789550678017216300,6.94321630859375,-0.2495156228542328,0.19212782382965088,-0.05304718017578125
1789550678027184000,6.95318408203125,-0.3180009126663208,0.16350334882736206,-0.08875218033790588
1789550678037153300,6.9631533203125,-0.39803919196128845,0.13992415368556976,0.01669647917151451
1789550678047121200,6.97312109375,-0.3925062119960785,0.11541800945997238,0.010342443361878395
1789550678057090000,6.983090087890625,-0.398062139749527,0.11694936454296112,-0.005600730888545513
1789550678067058200,6.99305810546875,-0.45300501585006714,0.1535654366016388,-0.052270762622356415
1789550678077027000,7.003027099609375,-0.5105652213096619,0.1451498121023178,-0.025332871824502945
1789550678086995200,7.0129951171875,-0.4785529673099518,0.07639763504266739,-0.011088688857853413
1789550678096963000,7.022963134765625,-0.4233563542366028,0.07959724217653275,-0.10314926505088806
1789550678106932200,7.03293212890625,-0.4612661898136139,0.0933798998594284,-0.08402456343173981
1789550678116900000,7.042900146484375,-0.4670652151107788,0.029235536232590675,-0.0462188683450222
1789550678126869200,7.052869140625,-0.43676456809043884,0.047294165939092636,-0.06781576573848724
1789550678136837000,7.062837158203125,-0.4340786337852478,0.01465353649109602,-0.03821403533220291
1789550678146806300,7.07280615234375,-0.4308418333530426,0.031094294041395187,-0.08032633364200592
1789550678156774100,7.082774169921875,-0.4683676064014435,0.016536351293325424,-0.0485265776515007
1789550678166742000,7.092741943359375,-0.4491875171661377,-0.026769045740365982,-0.038124799728393555
1789550678176711200,7.102711181640625,-0.37178874015808105,-0.03428645059466362,-0.02069900743663311
1789550678186679000,7.112678955078125,-0.3064371645450592,-0.06760978698730469,0.029835006222128868
1789550678196648200,7.122648193359375,-0.27233001589775085,-0.055246394127607346,0.013511416502296925
1789550678206616000,7.132615966796875,-0.2542274594306946,-0.06811266392469406,0.00933344941586256
1789550678216585200,7.142585205078125,-0.19695788621902466,-0.14537830650806427,0.056913092732429504
1789550678226553000,7.152552978515625,-0.1417766511440277,-0.10784690827131271,0.048741184175014496
1789550678236521200,7.162521240234375,-0.06080636382102966,-0.1848786473274231,0.07329270988702774
1789550678246490400,7.172490478515625,-0.021950045600533485,-0.1333099901676178,0.04388581961393356
1789550678256458000,7.1824580078125,-0.010463358834385872,-0.12146499752998352,0.017080383375287056
1789550678266427100,7.19242724609375,0.07084774225950241,-0.17514659464359283,0.026773223653435707
1789550678276395000,7.20239501953125,0.14480510354042053,-0.15312549471855164,0.028627723455429077
1789550678286364200,7.2123642578125,0.10404115915298462,-0.1577090620994568,0.05191413685679436
1789550678296332000,7.22233203125,0.13630226254463196,-0.14437684416770935,0.06080103665590286
1789550678306300200,7.232300048828125,0.179520845413208,-0.15885326266288757,0.05549708381295204
1789550678316269000,7.24226904296875,0.1307992935180664,-0.1314987987279892,0.0620996356010437
1789550678326237200,7.2522373046875,0.14514175057411194,-0.14161428809165955,0.039614565670490265
1789550678336206000,7.2622060546875,0.11726892739534378,-0.16195958852767944,0.07110872864723206
1789550678346174200,7.27217431640625,0.13003239035606384,-0.13991713523864746,0.04463637247681618
1789550678356143400,7.282143310546875,0.19257162511348724,-0.13739188015460968,0.02842250093817711
1789550678366111000,7.292111083984375,0.10572142153978348,-0.1150495633482933,0.028866983950138092
1789550678376079000,7.3020791015625,0.05749049410223961,-0.06997154653072357,-0.0034167002886533737
1789550678386048000,7.312048095703125,0.06033235043287277,-0.145028218626976,-0.02438989281654358
1789550678396016000,7.32201611328125,-0.01781000755727291,-0.1889055073261261,0.0818016529083252
1789550678405985000,7.331985107421875,0.00202361773699522,-0.09735561162233353,-0.0016738022677600384
1789550678415953200,7.341953125,-0.009508095681667328,-0.16663779318332672,0.007194007746875286
1789550678425922000,7.351922119140625,-0.049206774681806564,-0.11597860604524612,0.007795083336532116
1789550678435890200,7.36189013671875,-0.036584533751010895,-0.1529863327741623,0.005949478596448898
1789550678445858300,7.3718583984375,0.015300501137971878,-0.19072440266609192,0.036972641944885254
1789550678455827200,7.3818271484375,0.033598434180021286,-0.18298007547855377,0.02081645093858242
1789550678465795000,7.391795166015625,0.04770040512084961,-0.11900535970926285,-0.008544367738068104
1789550678475764000,7.401763916015625,-0.018757294863462448,-0.13092397153377533,-0.025739990174770355
1789550678485732000,7.411732177734375,0.016866745427250862,-0.1368686705827713,-0.0022309357300400734
1789550678495701000,7.421700927734375,-0.008838802576065063,-0.12844569981098175,0.0014826091937720776
1789550678505669000,7.431669189453125,0.001264698221348226,-0.12535616755485535,0.02997497096657753
1789550678515637200,7.44163720703125,0.06805208325386047,-0.10962923616170883,0.016406241804361343
1789550678525606100,7.451606201171875,0.08129491657018661,-0.10849232971668243,-0.023370198905467987
1789550678535574300,7.46157421875,0.0760316401720047,-0.13502933084964752,0.009535443037748337
1789550678545543200,7.471543212890625,0.1339189112186432,-0.1390560269355774,0.0046980781480669975
1789550678555511300,7.48151123046875,0.19801943004131317,-0.11739397794008255,-0.0235768910497427
1789550678565480200,7.491480224609375,0.1888459026813507,-0.03602588176727295,-0.03192936256527901
1789550678575448000,7.501447998046875,0.2064218521118164,-0.0566633976995945,-0.05229661241173744
1789550678585416200,7.511416259765625,0.22728106379508972,-0.0810675397515297,-0.02426151931285858
1789550678595385000,7.521385009765625,0.21379634737968445,-0.048980917781591415,0.004221341107040644
1789550678605353200,7.531353271484375,0.19459575414657593,-0.062212295830249786,-0.009985292330384254
1789550678615322000,7.541322021484375,0.20794101059436798,-0.0038522069808095694,-0.048496589064598083
1789550678625290200,7.551290283203125,0.1919737607240677,-0.059035833925008774,-0.020939797163009644
1789550678635259100,7.561259033203125,0.22955222427845,-0.02627994678914547,-0.010158365592360497
1789550678645227300,7.571227294921875,0.23460237681865692,-0.006355507764965296,-0.05891259014606476
1789550678655195100,7.581195068359375,0.21590787172317505,-0.014331760816276073,0.014804397709667683
1789550678665164300,7.591164306640625,0.1574333757162094,0.015480728819966316,-0.0005234251730144024
1789550678675132200,7.601132080078125,0.19423644244670868,0.017233047634363174,-0.029179025441408157
1789550678685101000,7.61110107421875,0.2427254170179367,-0.0546288900077343,-0.01224584598094225
1789550678695069200,7.621069091796875,0.19998575747013092,0.01579192467033863,-0.045439597219228745
1789550678705037000,7.631037109375,0.14942723512649536,-0.013337197713553905,-0.028833456337451935
1789550678715006200,7.641006103515625,0.16129012405872345,0.06170419231057167,-0.015041131526231766
1789550678724974000,7.65097412109375,0.2313014268875122,0.013850648887455463,-0.01043333113193512
1789550678734943200,7.660943115234375,0.21315981447696686,-0.021763358265161514,0.012448434717953205
1789550678744911000,7.6709111328125,0.15684832632541656,-0.003600067226216197,0.07533339411020279
1789550678754880300,7.68088037109375,0.16701754927635193,0.015380064025521278,-0.0008689644746482372
1789550678764848000,7.69084814453125,0.2353273630142212,0.04860299825668335,-0.06602346897125244
1789550678774816000,7.70081591796875,0.18828099966049194,0.0642741397023201,-0.05537869781255722
1789550678784785200,7.71078515625,0.12643121182918549,0.06098061054944992,-0.001493099145591259
1789550678794753000,7.7207529296875,0.1702268421649933,0.05388680845499039,0.017810901626944542
1789550678804722200,7.73072216796875,0.23903173208236694,0.03410537913441658,-0.00118356104940176
1789550678814690000,7.74068994140625,0.15719862282276154,0.02730182558298111,0.05927620828151703
1789550678824659200,7.7506591796875,0.116897813975811,0.05190304294228554,0.06739378720521927
1789550678834627000,7.760626953125,0.15059195458889008,0.031731363385915756,0.08161541819572449
1789550678844595200,7.77059521484375,0.1618182510137558,0.11821938306093216,0.038690850138664246
1789550678854564000,7.780564208984375,0.14336276054382324,0.14120303094387054,0.05172688886523247
1789550678864532200,7.7905322265625,0.12515978515148163,0.08928631991147995,0.07099432498216629
1789550678874501000,7.800501220703125,0.14132313430309296,0.09962143003940582,0.0313449464738369
1789550678884469000,7.810468994140625,0.13504979014396667,0.055582329630851746,0.06417106837034225
1789550678894438100,7.820438232421875,0.11049550771713257,0.1364712417125702,0.05317099392414093
1789550678904406000,7.830406005859375,0.14019082486629486,0.11403465270996094,0.03945811092853546
1789550678914374100,7.8403740234375,0.09476786851882935,0.1651834100484848,0.04633742943406105
1789550678924343000,7.850343017578125,0.012834381312131882,0.10150722414255142,0.11372685432434082
1789550678934311200,7.860311279296875,0.025427334010601044,0.1395508199930191,0.05189972743391991
1789550678944280000,7.870280029296875,0.05851791054010391,0.13871830701828003,-0.021721765398979187
1789550678954248200,7.880248291015625,0.035146523267030716,0.15300379693508148,0.015395463444292545
1789550678964217600,7.890217529296875,0.011341061443090439,0.12237584590911865,0.004458926152437925
1789550678974185700,7.900185791015625,-0.0029155206866562366,0.13587155938148499,-0.05417083576321602
1789550678984153900,7.91015380859375,-0.04070284590125084,0.1487242430448532,-0.03384000062942505
1789550678994122800,7.920122802734375,-0.079431913793087,0.1395677924156189,0.004583938047289848
1789550679004091000,7.9300908203125,-0.025290915742516518,0.17174437642097473,-0.03254745155572891
1789550679014059800,7.940059814453125,-0.03660028800368309,0.1261390745639801,-0.06410284340381622
1789550679024027600,7.950027587890625,-0.13737855851650238,0.18098129332065582,0.004337465390563011
1789550679033995500,7.95999560546875,-0.15935346484184265,0.1639574021100998,0.0033269852865487337
1789550679043964700,7.969964599609375,-0.08636768162250519,0.16832126677036285,-0.02407161518931389
1789550679053932500,7.9799326171875,-0.16159388422966003,0.14045701920986176,-0.036132946610450745
1789550679063901700,7.989901611328125,-0.18421131372451782,0.1630033403635025,0.02394930087029934
1789550679073869800,7.999869873046875,-0.1405605524778366,0.1322699934244156,-0.036865249276161194
1789550679083838700,8.009838623046875,-0.15719465911388397,0.15671594440937042,-0.032966647297143936
1789550679093806800,8.019806884765625,-0.19180597364902496,0.10333669185638428,0.04159504920244217
1789550679103774700,8.029774658203126,-0.12251745909452438,0.1355138123035431,0.002632467309013009
1789550679113744000,8.039743896484374,-0.08014767616987228,0.09356561303138733,-0.029018601402640343
1789550679123711500,8.04971142578125,-0.13248226046562195,0.15559090673923492,0.0002748393453657627
1789550679133680600,8.0596806640625,-0.17952054738998413,0.0963650494813919,0.013561595231294632
1789550679143648500,8.0696484375,-0.17435242235660553,0.08995455503463745,0.01408916711807251
1789550679153616600,8.07961669921875,-0.16622711718082428,0.051783487200737,0.04549817740917206
1789550679163585500,8.08958544921875,-0.14083173871040344,0.07656951993703842,-0.03601638972759247
1789550679173553700,8.0995537109375,-0.14607231318950653,0.10604936629533768,-0.10212718695402145
1789550679183522800,8.109522705078126,-0.2237255573272705,0.0932917594909668,-0.060496654361486435
1789550679193490700,8.11949072265625,-0.2895486056804657,0.06736759096384048,-0.01913357898592949
1789550679203459800,8.1294599609375,-0.2347753643989563,-0.002548911841586232,-0.023517675697803497
1789550679213427700,8.139427734375,-0.23532283306121826,0.004161623306572437,-0.017292723059654236
1789550679223395600,8.1493955078125,-0.32700639963150024,0.04043281450867653,-0.006261111702769995
1789550679233364500,8.159364501953124,-0.3175155818462372,0.06027804687619209,0.039016880095005035
1789550679243332600,8.16933251953125,-0.26760023832321167,0.002661887090653181,0.04958537220954895
1789550679253301500,8.179301513671875,-0.31410229206085205,0.040821608155965805,0.06608522683382034
1789550679263269600,8.18926953125,-0.34885814785957336,0.03689850494265556,0.04583348333835602
1789550679273238800,8.19923876953125,-0.36134228110313416,0.00992818083614111,0.044205211102962494
1789550679283206700,8.20920654296875,-0.34388500452041626,-0.01206340454518795,0.0320364274084568
1789550679293174800,8.2191748046875,-0.33729931712150574,-0.0002647312358021736,-0.0003967238590121269
1789550679303143700,8.229143798828124,-0.4196791648864746,0.040909603238105774,0.04414011538028717
1789550679313111800,8.23911181640625,-0.35824596881866455,0.08785083144903183,-0.0011581508442759514
1789550679323080700,8.249080810546875,-0.3246512711048126,0.02058257721364498,0.07453261315822601
1789550679333048600,8.259048583984375,-0.3852022588253021,0.042861275374889374,0.0735510066151619
1789550679343016700,8.2690166015625,-0.414614737033844,0.028833875432610512,0.08325716108083725
1789550679352985600,8.278985595703125,-0.3986005187034607,-0.008501876145601273,0.028192657977342606
1789550679362953700,8.28895361328125,-0.447253555059433,-0.017606157809495926,0.013756194151937962
1789550679372922600,8.298922607421876,-0.46931272745132446,-0.042399972677230835,0.018930383026599884
1789550679382890800,8.308890869140624,-0.4636756181716919,-0.0876137912273407,0.01048177108168602
1789550679392859600,8.318859619140625,-0.41786739230155945,-0.1027596965432167,-0.025304686278104782
1789550679402827800,8.328827880859375,-0.42522040009498596,-0.0818576067686081,-0.014657103456556797
1789550679412796000,8.3387958984375,-0.40922823548316956,-0.10243067890405655,-0.016555530950427055
1789550679422764800,8.348764892578124,-0.3873692750930786,-0.07847022265195847,0.050783563405275345
1789550679432732700,8.358732666015625,-0.2953464686870575,-0.14164967834949493,0.04757252708077431
1789550679442701600,8.36870166015625,-0.268636018037796,-0.10363224148750305,0.030182350426912308
1789550679452669700,8.378669677734376,-0.2416505068540573,-0.12834979593753815,0.012629441916942596
1789550679462637600,8.388637451171874,-0.22041259706020355,-0.15115444362163544,-0.005161540117114782
1789550679472606700,8.398606689453125,-0.20729020237922668,-0.1620086282491684,0.02783837541937828
1789550679482574600,8.40857470703125,-0.12626272439956665,-0.14019493758678436,-0.009037882089614868
1789550679492543700,8.418543701171876,-0.10572674870491028,-0.16274826228618622,-0.009253837168216705
1789550679502511600,8.42851171875,-0.1384625881910324,-0.17179369926452637,0.05866555869579315
1789550679512480800,8.438480712890625,-0.03902290388941765,-0.22885769605636597,0.06527789682149887
1789550679522449000,8.448448974609375,0.05070485174655914,-0.17883740365505219,0.049898937344551086
1789550679532416500,8.45841650390625,0.0796048566699028,-0.19056081771850586,0.039228420704603195
1789550679542385700,8.4683857421875,0.03633914515376091,-0.15449336171150208,0.09593404084444046
1789550679552353500,8.478353515625,0.08535553514957428,-0.2220621109008789,0.028191158547997475
1789550679562322700,8.48832275390625,0.08733133226633072,-0.19103814661502838,-0.012141883373260498
1789550679572290600,8.49829052734375,0.09245593100786209,-0.20336556434631348,-0.009731447324156761
1789550679582258700,8.5082587890625,0.08456125855445862,-0.236503005027771,0.025276072323322296
1789550679592227600,8.5182275390625,0.12385010719299316,-0.22947202622890472,0.014381441287696362
1789550679602195700,8.52819580078125,0.1875278800725937,-0.22015255689620972,-0.04033293575048447
1789550679612164600,8.53816455078125,0.1403890997171402,-0.14815367758274078,-0.029139814898371696
1789550679622132700,8.5481328125,0.1680380403995514,-0.173876091837883,-0.021844882518053055
1789550679632102000,8.558101806640625,0.16357584297657013,-0.16316746175289154,-0.0005122278816998005
1789550679642069500,8.568069580078125,0.16320647299289703,-0.1735258251428604,-0.024969633668661118
1789550679652037600,8.57803759765625,0.16433897614479065,-0.17969757318496704,0.00873696431517601
1789550679662006500,8.588006591796875,0.1251034140586853,-0.21134471893310547,0.04742390662431717
1789550679671974700,8.597974609375,0.16453109681606293,-0.19905860722064972,0.017299074679613113
1789550679681943600,8.607943603515626,0.1574327051639557,-0.17741084098815918,0.0024508873466402292
1789550679691911700,8.61791162109375,0.1612742692232132,-0.12184151262044907,-0.010625479742884636
1789550679701880600,8.627880615234375,0.21685416996479034,-0.17413480579853058,-0.04957607388496399
1789550679711848700,8.6378486328125,0.21811717748641968,-0.1694781482219696,-0.03108525462448597
1789550679721816800,8.64781689453125,0.1935737580060959,-0.11909699440002441,-0.0060885571874678135
1789550679731785700,8.65778564453125,0.28226983547210693,-0.11777954548597336,-0.03787799924612045
1789550679741753600,8.667753662109375,0.31872954964637756,-0.13867338001728058,0.02021007053554058
1789550679751722500,8.677722412109375,0.2970854341983795,-0.11551657319068909,0.01816606894135475
1789550679761690600,8.687690673828126,0.26510220766067505,-0.11566890776157379,0.019934142008423805
1789550679771658800,8.69765869140625,0.24795003235340118,-0.06613299250602722,0.0815734714269638
1789550679781627600,8.707627685546875,0.34332478046417236,-0.08254551887512207,0.06558544933795929
1789550679791595800,8.717595703125,0.39769625663757324,-0.12037771940231323,0.014550803229212761
1789550679801564700,8.727564697265626,0.3107357919216156,-0.08717101812362671,-0.016844671219587326
1789550679811532800,8.73753271484375,0.25261712074279785,-0.043221183121204376,-0.060082532465457916
1789550679821500700,8.747500732421875,0.3214377462863922,-0.11230917274951935,-0.0400766059756279
1789550679831469800,8.7574697265625,0.361578106880188,-0.10568175464868546,-0.059566911309957504
1789550679841437700,8.767437744140626,0.3245663046836853,-0.058096397668123245,-0.030088646337389946
1789550679851406600,8.777406494140624,0.3238426744937897,-0.06595029681921005,-0.012246495112776756
1789550679861374700,8.787374755859375,0.3366982936859131,0.005303378216922283,0.007426009979099035
1789550679871343600,8.797343505859375,0.34223297238349915,-0.0034010091330856085,0.044276297092437744
1789550679881311700,8.807311767578126,0.33043304085731506,0.007447909563779831,0.04162139073014259
1789550679891279600,8.817279541015624,0.3235732614994049,-0.005124594084918499,0.016491886228322983
1789550679901248800,8.827248779296875,0.3045191466808319,0.0335085503757,-0.019834961742162704
1789550679911216600,8.837216552734375,0.22430793941020966,0.04571859911084175,-0.02320794016122818
1789550679921185800,8.847185791015624,0.202856183052063,0.06638366729021072,0.0019802385941147804
1789550679931153700,8.857153564453125,0.19847869873046875,0.029294660314917564,-0.030568929389119148
1789550679941121500,8.86712158203125,0.1777377426624298,0.036524344235658646,0.030289627611637115
1789550679951090700,8.877090576171875,0.2223900705575943,0.0502341128885746,0.019571706652641296
1789550679961058600,8.88705859375,0.17963701486587524,0.10395859181880951,0.019789818674325943
1789550679971027200,8.897027099609375,0.1334463357925415,0.09181006997823715,0.014973975718021393
1789550679980995000,8.9069951171875,0.10677797347307205,0.03445623070001602,0.07762377709150314
1789550679990964200,8.916964111328125,0.14517688751220703,0.03357887268066406,0.014226553961634636
1789550680000932000,8.92693212890625,0.10666756331920624,0.0629519447684288,-0.03408505395054817
1789550680010900200,8.936900146484374,0.0843479111790657,0.046650439500808716,0.02819000370800495
1789550680020869400,8.946869384765625,0.1027090772986412,0.06853417307138443,-0.06834745407104492
1789550680030837000,8.9568369140625,0.048798296600580215,0.12355494499206543,-0.03956090286374092
1789550680040806100,8.96680615234375,0.068898506462574,0.05034731328487396,0.006244933698326349
1789550680050774000,8.97677392578125,0.06540819257497787,0.05038032308220863,0.009970609098672867
1789550680060742100,8.9867421875,0.027793169021606445,0.04326595366001129,0.02052338421344757
1789550680070711000,8.9967109375,0.04110659658908844,0.0918278694152832,0.02716394141316414
1789550680080679200,9.00667919921875,0.021387221291661263,0.09873637557029724,0.004652240313589573
1789550680090648000,9.01664794921875,-0.044781845062971115,0.11131918430328369,0.03300672769546509
1789550680100616200,9.0266162109375,-0.04073650389909744,0.052180226892232895,0.03620199114084244
1789550680110584300,9.036584228515625,-0.04570711404085159,0.049230873584747314,0.01461645495146513
1789550680120553200,9.04655322265625,-0.04113393276929855,0.018240999430418015,0.03227081522345543
1789550680130521000,9.05652099609375,-0.03960135206580162,0.04289180785417557,-0.011174988932907581
1789550680140490000,9.066489990234375,-0.09608620405197144,0.10041928291320801,0.00578828202560544
1789550680150458000,9.0764580078125,-0.09302438050508499,0.081456258893013,0.007497452199459076
1789550680160427000,9.086427001953124,-0.07638281583786011,0.06366154551506042,0.04310045391321182
1789550680170395100,9.09639501953125,-0.08357488363981247,0.027571918442845345,0.08515042066574097
1789550680180363300,9.10636328125,-0.10374965518712997,0.08152622729539871,-0.005462841130793095
1789550680190332200,9.116332275390626,-0.16458222270011902,0.05060090497136116,-0.004002972971647978
1789550680200300300,9.12630029296875,-0.17822052538394928,0.0028733275830745697,0.033120427280664444
1789550680210269200,9.136269287109375,-0.16829930245876312,0.0007186763687059283,-0.006988502573221922
1789550680220237300,9.1462373046875,-0.18172882497310638,0.013571358285844326,-0.012279137969017029
1789550680230205200,9.156205078125,-0.1931173950433731,0.02729072980582714,-0.0015317630022764206
1789550680240174000,9.166174072265624,-0.1731165200471878,0.052836038172245026,-0.00040710996836423874
1789550680250142200,9.17614208984375,-0.15026190876960754,0.012111342512071133,0.019790759310126305
1789550680260111000,9.186111083984375,-0.1870145946741104,0.04552708938717842,0.024832123890519142
1789550680270079200,9.196079345703126,-0.18926502764225006,0.048252906650304794,0.007885517552495003
1789550680280047000,9.206047119140624,-0.16581057012081146,0.05731404572725296,0.004237520042806864
1789550680290016300,9.216016357421875,-0.17249895632266998,0.022523419931530952,-0.0015073111280798912
1789550680299984100,9.225984130859375,-0.20191915333271027,0.026790069416165352,0.056981831789016724
1789550680309953300,9.235953369140624,-0.1699497550725937,-0.007368180900812149,0.05432244762778282
1789550680319921200,9.245921142578124,-0.1355859339237213,0.050533466041088104,-0.01428564265370369
1789550680329890300,9.255890380859375,-0.15626060962677002,0.04325374588370323,-0.0002962886355817318
1789550680339858200,9.265858154296875,-0.16566476225852966,0.05804334208369255,0.007514229975640774
1789550680349826000,9.275825927734376,-0.15309491753578186,0.004639784339815378,0.004924648907035589
1789550680359795200,9.285795166015625,-0.15489867329597473,-0.030765343457460403,0.044325049966573715
1789550680369763000,9.29576318359375,-0.12499906122684479,-0.026466242969036102,-0.014092296361923218
1789550680379732200,9.305732177734376,-0.149247944355011,-0.011133624240756035,-0.030800171196460724
1789550680389700000,9.3157001953125,-0.14802688360214233,-0.05534929037094116,-0.04472663998603821
1789550680399668200,9.325668212890625,-0.15170736610889435,-0.0967252254486084,0.04571804031729698
1789550680409637000,9.33563720703125,-0.10460595786571503,-0.09102786332368851,-0.012503515928983688
1789550680419605200,9.345605224609375,-0.07113668322563171,-0.04362812638282776,-0.04694857820868492
1789550680429574100,9.35557421875,-0.05728922411799431,-0.01219731755554676,-0.08110865205526352
1789550680439542000,9.3655419921875,-0.05644180625677109,-0.019853906705975533,-0.13079629838466644
1789550680449511200,9.37551123046875,-0.09369669109582901,-0.056905485689640045,-0.07584954053163528
1789550680459479000,9.38547900390625,-0.06270361691713333,-0.08695552498102188,-0.0538204088807106
1789550680469447200,9.395447265625,-0.0357525534927845,-0.0682658702135086,-0.08740930259227753
1789550680479416000,9.405416015625,-0.04149246588349342,-0.07315996289253235,0.02593909204006195
1789550680489384200,9.41538427734375,-0.008100572973489761,-0.11435917019844055,0.05096587538719177
1789550680499353000,9.42535302734375,0.006119908764958382,-0.06846332550048828,0.047003891319036484
1789550680509321200,9.4353212890625,0.018915332853794098,-0.051149316132068634,-0.03094603307545185
1789550680519289300,9.445289306640625,-0.05044110491871834,-0.04715989902615547,-0.02485618181526661
1789550680529258200,9.45525830078125,-0.04916507378220558,-0.11907841265201569,-0.028020957484841347
1789550680539226000,9.46522607421875,0.005319473799318075,-0.11715534329414368,-0.05789390206336975
1789550680549195000,9.475195068359374,-0.014363867230713367,-0.09696707129478455,-0.07715904712677002
1789550680559163100,9.4851630859375,0.015420926734805107,-0.07089179009199142,-0.06876929104328156
1789550680569131000,9.495131103515625,0.0513891875743866,-0.08687515556812286,-0.061556026339530945
1789550680579100200,9.50510009765625,0.0780266597867012,-0.05670900270342827,-0.05520971491932869
1789550680589068300,9.515068359375,0.025073232129216194,-0.015513431280851364,0.011774223297834396
1789550680599037200,9.525037109375,0.11590540409088135,-0.09254483133554459,0.05632411316037178
1789550680609005300,9.53500537109375,0.12294846028089523,-0.09404104948043823,0.009555207565426826
1789550680618974200,9.54497412109375,0.08747036010026932,-0.051578279584646225,0.004155648406594992
1789550680628942300,9.5549423828125,0.04617652669548988,-0.04669678956270218,-0.0029487046413123608
1789550680638910000,9.564909912109375,0.07010290026664734,-0.032122109085321426,-0.017122048884630203
1789550680648879000,9.574879150390625,0.13201580941677094,-0.10350947082042694,-0.04958518221974373
1789550680658847000,9.584846923828126,0.10611975193023682,-0.05285721644759178,-0.06064475700259209
1789550680668816100,9.594816162109375,0.11357660591602325,-0.056670594960451126,-0.032481562346220016
1789550680678784300,9.6047841796875,0.17090702056884766,-0.09146212786436081,-0.021268855780363083
1789550680688752000,9.614752197265625,0.17524480819702148,-0.05822938680648804,-0.031204828992486
1789550680698721300,9.62472119140625,0.15818727016448975,-0.05137254670262337,0.012669418007135391
1789550680708689200,9.634689208984375,0.16354112327098846,-0.04409610107541084,0.021554114297032356
1789550680718658300,9.644658203125,0.24537287652492523,-0.0519777275621891,0.006076621823012829
1789550680728626200,9.654626220703125,0.23663897812366486,-0.04228481277823448,0.02382461354136467
1789550680738595300,9.66459521484375,0.19128534197807312,0.012366978451609612,-0.026253467425704002
1789550680748563000,9.67456298828125,0.17987343668937683,-0.049100108444690704,0.025163384154438972
1789550680758531000,9.684531005859375,0.2260153591632843,-0.06157861649990082,0.03561762347817421
1789550680768500000,9.6945,0.21978668868541718,-0.06978775560855865,0.02363799326121807
1789550680778468000,9.704468017578124,0.22116726636886597,-0.022187748923897743,-0.0004846528172492981
1789550680788437200,9.714437255859375,0.20743270218372345,-0.04208757355809212,0.006044628564268351
1789550680798405000,9.724405029296875,0.20869851112365723,-0.01785200834274292,0.010300093330442905
1789550680808373200,9.734373291015626,0.24084895849227905,-0.05293060466647148,0.007658006623387337
1789550680818342100,9.744342041015624,0.27798569202423096,-0.04258555546402931,0.05682315677404404
1789550680828310300,9.754310302734375,0.2875043451786041,0.0009605862433090806,0.022646136581897736
1789550680838279200,9.764279052734375,0.3305378258228302,0.01946662738919258,-0.03395668789744377
1789550680848247000,9.7742470703125,0.3031824231147766,0.011550873517990112,-0.038778722286224365
1789550680858215200,9.784215087890624,0.2281438559293747,-0.0015558735467493534,-0.03963518887758255
1789550680868184000,9.79418408203125,0.2475224733352661,0.015706343576312065,-0.03858812898397446
1789550680878152200,9.804152099609375,0.25765180587768555,-0.02843848057091236,0.002301780041307211
1789550680888121000,9.81412109375,0.24268804490566254,0.024570675566792488,0.0028205637354403734
1789550680898089200,9.824089111328124,0.19412262737751007,0.030993953347206116,0.01380903273820877
1789550680908058000,9.83405810546875,0.19398923218250275,0.03302779421210289,0.0018586779478937387
1789550680918026200,9.844026123046875,0.1720394492149353,0.029439451172947884,0.017204610630869865
1789550680927994400,9.853994384765626,0.16990689933300018,0.04487689957022667,0.005128851626068354
1789550680937963300,9.86396337890625,0.10976472496986389,0.01488171610981226,0.02873244881629944
1789550680947931100,9.87393115234375,0.09716376662254333,0.07674448937177658,0.021937455981969833
1789550680957900000,9.883900146484375,0.1807292401790619,-0.010177886113524437,0.027673371136188507
1789550680967868200,9.8938681640625,0.17688491940498352,0.04356714338064194,-0.0697593241930008
1789550680977836000,9.9038359375,0.082880400121212,0.069526307284832,-0.025532472878694534
1789550680987805200,9.91380517578125,0.09435871988534927,0.0454682894051075,0.0029511256143450737
1789550680997773000,9.92377294921875,0.1438051015138626,0.07043568789958954,-0.03285108134150505
1789550681007742200,9.9337421875,0.1345987170934677,0.08913462609052658,0.02889375016093254
1789550681017710300,9.94371044921875,0.08172006160020828,0.08138535916805267,0.04645223915576935
1789550681027679200,9.95367919921875,0.08254349231719971,0.07087308168411255,0.02718248963356018
1789550681037647400,9.9636474609375,0.036125123500823975,0.023667752742767334,0.060610219836235046
1789550681047615000,9.973614990234376,0.054625194519758224,0.022864388301968575,0.044454559683799744
1789550681057584000,9.983584228515625,0.04910552501678467,0.052043575793504715,-0.022207025438547134
1789550681067552000,9.993552001953125,0.005039756186306477,0.08929645270109177,-0.02126294933259487
1789550681077521200,10.003521240234376,0.030531268566846848,0.060026977211236954,-0.012136029079556465
1789550681087489000,10.013489013671874,0.08082782477140427,0.06625814735889435,-0.026814762502908707
1789550681097457200,10.02345703125,0.0720449835062027,0.05163605883717537,-0.04664865508675575
1789550681107426000,10.033426025390625,-0.020113570615649223,0.0919513925909996,0.00026030605658888817
1789550681117394200,10.043394287109376,-0.040035612881183624,0.05568260699510574,0.02687167562544346
1789550681127363300,10.05336328125,0.011222116649150848,0.09979613125324249,-0.007802189793437719
1789550681137331200,10.063331298828125,-0.002109401160851121,0.05663534626364708,-0.028018243610858917
1789550681147299000,10.073299072265625,-0.07474089413881302,0.08616570383310318,0.028544709086418152
1789550681157268000,10.08326806640625,-0.010883885435760021,0.034824758768081665,0.02275606244802475
1789550681167236000,10.093236083984374,0.023890212178230286,0.02630569599568844,-0.01448509469628334
1789550681177205000,10.103205078125,-0.07710457593202591,0.1123228669166565,-0.0039536235854029655
1789550681187173000,10.113173095703125,-0.09791263937950134,0.08873763680458069,-0.0005903979763388634
1789550681197142000,10.12314208984375,-0.020943021401762962,0.036954332143068314,0.0039052842184901237
1789550681207110100,10.133110107421874,-0.002757837763056159,0.0381321907043457,-0.025917798280715942
1789550681217078300,10.143078369140625,-0.0662691667675972,0.03887707740068436,-0.015499509871006012
1789550681227047200,10.153047119140625,-0.12085624784231186,0.057157814502716064,0.019555145874619484
1789550681237015300,10.163015380859376,-0.034987468272447586,0.002482109237462282,0.04264815151691437
1789550681246984200,10.172984130859374,-0.0490843690931797,0.04809645190834999,-0.009125513955950737
1789550681256952000,10.1829521484375,-0.07590027153491974,0.04431582987308502,0.03143363073468208
1789550681266920200,10.192920166015625,-0.09349782764911652,0.038914065808057785,0.05330348759889603
1789550681276889000,10.20288916015625,-0.050531454384326935,0.046689700335264206,0.019098378717899323
1789550681286857200,10.212857177734374,-0.06795168668031693,0.01916961744427681,-0.011164039373397827
1789550681296826000,10.222826171875,-0.153509721159935,0.0649900957942009,-0.005761816632002592
1789550681306794200,10.232794189453125,-0.13544528186321259,-0.0002799401991069317,0.05149320140480995
1789550681316763100,10.24276318359375,-0.0826108306646347,0.020633598789572716,0.013926917687058449
1789550681326731300,10.252731201171875,-0.09839606285095215,0.055342450737953186,-0.025149067863821983
1789550681336699100,10.26269921875,-0.13798633217811584,0.020552512258291245,0.003744898596778512
1789550681346668300,10.272668212890625,-0.19187845289707184,-0.02643859013915062,0.04650461673736572
1789550681356636200,10.28263623046875,-0.15459713339805603,-0.04329666495323181,0.07562894374132156
1789550681366605000,10.29260498046875,-0.12259890884160995,-0.034032925963401794,0.016431385651230812
1789550681376573200,10.3025732421875,-0.16037531197071075,0.04338543117046356,0.013665426522493362
1789550681386541000,10.312541015625,-0.1172514334321022,-0.006838968489319086,-0.009755618870258331
1789550681396510200,10.32251025390625,-0.03902614116668701,-0.015162678435444832,-0.001779184676706791
1789550681406478000,10.33247802734375,-0.031891729682683945,-0.0019050007686018944,-0.04126230254769325
1789550681416447200,10.342447265625,-0.10549484193325043,0.055038709193468094,-0.020586850121617317
1789550681426415000,10.3524150390625,-0.07064953446388245,-0.03258804976940155,-0.007182990666478872
1789550681436383200,10.36238330078125,-0.04209059849381447,-0.023229969665408134,0.035270459949970245
1789550681446352100,10.37235205078125,-0.024981960654258728,-0.0645427480340004,0.07614517211914062
1789550681456320000,10.382320068359375,0.03246135637164116,-0.016572821885347366,0.04458804801106453
1789550681466289200,10.3922890625,0.021592412143945694,-0.002086771884933114,0.020213793963193893
1789550681476257000,10.402257080078124,0.026274248957633972,0.010030876845121384,0.0175413116812706
1789550681486226200,10.41222607421875,0.024453891441226006,-0.010641024447977543,-0.029669497162103653
1789550681496194000,10.422194091796875,0.06576351821422577,-0.02100232057273388,-0.05353355035185814
1789550681506162200,10.432162109375,0.0791468694806099,-0.05115293338894844,-0.0817859098315239
1789550681516131000,10.442131103515624,0.0477340891957283,-0.043294742703437805,-0.047725409269332886
1789550681526099200,10.45209912109375,0.06806029379367828,-0.0422525517642498,-0.026120057329535484
1789550681536069000,10.462069091796875,0.1373206079006195,-0.008964632637798786,-0.01104976050555706
1789550681546037200,10.472037353515624,0.16956855356693268,-0.021071096882224083,0.02775915525853634
1789550681556005000,10.482005126953124,0.18115109205245972,0.038706567138433456,0.03610334172844887
1789550681565974300,10.491974365234375,0.17868810892105103,0.03803766146302223,0.033300865441560745
1789550681575942100,10.501942138671875,0.18165487051010132,0.03086523711681366,0.030492562800645828
1789550681585911000,10.5119111328125,0.19014638662338257,0.02839965745806694,0.03909241035580635
1789550681595879200,10.521879150390625,0.20372611284255981,-0.022716525942087173,0.022384271025657654
1789550681605847000,10.531846923828125,0.178914874792099,0.046471234411001205,0.016084641218185425
1789550681615816200,10.541816162109376,0.19701318442821503,0.047435835003852844,0.0017400570213794708
1789550681625784000,10.5517841796875,0.16900378465652466,0.07445266097784042,0.034796230494976044
1789550681635753200,10.561753173828125,0.19710174202919006,0.0688946470618248,0.004871355835348368
1789550681645721000,10.57172119140625,0.19146589934825897,0.04266149550676346,-0.022289486601948738
1789550681655689200,10.581689208984375,0.16731661558151245,0.04699525982141495,-0.018911799415946007
1789550681665658000,10.591658203125,0.1480589658021927,0.02305857092142105,0.01570824161171913
1789550681675626000,10.6016259765625,0.10743963718414307,0.04735911265015602,0.018559955060482025
1789550681685595100,10.61159521484375,0.15522250533103943,0.044875286519527435,0.0026214011013507843
1789550681695563000,10.62156298828125,0.18833518028259277,0.07535915821790695,0.004610516130924225
1789550681705532200,10.6315322265625,0.19382525980472565,0.10295193642377853,-0.0255899615585804
1789550681715500000,10.6415,0.15499398112297058,0.07535998523235321,-0.009387556463479996
1789550681725468200,10.65146826171875,0.14900368452072144,0.09629913419485092,-0.01926363632082939
1789550681735437000,10.66143701171875,0.1546437293291092,0.05326671153306961,-0.029517870396375656
1789550681745405200,10.6714052734375,0.11391948163509369,0.08403419703245163,0.01143679954111576
1789550681755374000,10.6813740234375,0.14372584223747253,0.081876240670681,-0.0027522556483745575
1789550681765342200,10.69134228515625,0.1478131264448166,0.08787275850772858,0.014936236664652824
1789550681775310000,10.70131005859375,0.11175978928804398,0.12254391610622406,-0.02161564864218235
1789550681785279000,10.711279052734374,0.08422180265188217,0.09470412135124207,0.028966616839170456
1789550681795247000,10.7212470703125,0.06305952370166779,0.07476503401994705,0.00913778692483902
1789550681805216000,10.731216064453125,0.03810583055019379,0.1127152293920517,0.007787877693772316
1789550681815184100,10.74118408203125,0.05052627995610237,0.07402162998914719,-0.014534205198287964
1789550681825153000,10.751153076171875,-0.003212117590010166,0.09915927052497864,-0.0001239529810845852
1789550681835121200,10.76112109375,-0.02401966229081154,0.10196437686681747,0.011403273791074753
1789550681845089300,10.77108935546875,0.03331207111477852,0.13653966784477234,-0.007752717472612858
1789550681855058200,10.78105810546875,0.016566116362810135,0.1521492451429367,0.03060106374323368
1789550681865026300,10.7910263671875,0.030503714457154274,0.17888398468494415,0.041515838354825974
1789550681874995200,10.8009951171875,-0.03291281312704086,0.14763551950454712,0.06882442533969879
1789550681884963000,10.810963134765625,-0.01799754984676838,0.1379656195640564,0.04750406742095947
1789550681894931200,10.82093115234375,-0.028519965708255768,0.09698436409235,0.003301984863355756
1789550681904900000,10.830900146484375,-0.11081402748823166,0.14333586394786835,0.021273985505104065
1789550681914868200,10.8408681640625,-0.0840252935886383,0.11525336652994156,-0.012869072146713734
1789550681924837000,10.850837158203126,-0.07286342233419418,0.164493590593338,-0.06382856518030167
1789550681934805200,10.86080517578125,-0.04870109632611275,0.17607887089252472,-0.0195644311606884
1789550681944774100,10.870774169921875,-0.042097222059965134,0.14880222082138062,-0.010210787877440453
1789550681958480100,10.884480224609375,-0.08583005517721176,0.18734614551067352,0.03691225126385689
1789550681968449800,10.89444970703125,-0.1133391335606575,0.1595275104045868,0.03370795398950577
1789550681978418000,10.90441796875,-0.10057806223630905,0.16475850343704224,0.026358425617218018
1789550681988385800,10.9143857421875,-0.13295984268188477,0.13543404638767242,0.03986801579594612
1789550681998355000,10.92435498046875,-0.15877465903759003,0.1340760886669159,0.07080089300870895
1789550682008322800,10.93432275390625,-0.13293470442295074,0.14194165170192719,0.03765740245580673
1789550682018291700,10.944291748046876,-0.09956663846969604,0.13217316567897797,0.018064793199300766
1789550682028259800,10.954259765625,-0.12553620338439941,0.15819358825683594,0.04145236313343048
1789550682038227700,10.964227783203125,-0.16259674727916718,0.15808546543121338,0.005479980725795031
1789550682048196900,10.97419677734375,-0.18408307433128357,0.1601339429616928,-0.004919796716421843
1789550682058164700,10.984164794921876,-0.16983570158481598,0.10448344796895981,-0.010004570707678795
1789550682068134000,10.9941337890625,-0.18313148617744446,0.10147268325090408,-0.0014004376716911793
1789550682078101800,11.004101806640625,-0.2059853971004486,0.03261372447013855,-0.014055512845516205
1789550682088071000,11.01407080078125,-0.2586889863014221,0.11598840355873108,0.030358415096998215
1789550682098038800,11.024038818359376,-0.23617033660411835,0.08460970222949982,-0.03284692019224167
1789550682108006700,11.034006591796874,-0.270183265209198,0.12224214524030685,-0.040413081645965576
1789550682117975800,11.043975830078125,-0.275706946849823,0.054559238255023956,0.015060294419527054
1789550682127943700,11.053943603515625,-0.23406367003917694,0.06540873646736145,-0.01005219854414463
1789550682137912800,11.063912841796874,-0.26780006289482117,0.06845885515213013,-0.02015117183327675
1789550682147880700,11.073880615234375,-0.3070985972881317,0.0752771869301796,-0.03768082335591316
1789550682157849900,11.083849853515625,-0.34635117650032043,0.03364478796720505,0.002663670340552926
1789550682167817700,11.093817626953125,-0.3044411242008209,0.044649068266153336,-0.007635119371116161
1789550682177785900,11.103785888671876,-0.28938573598861694,0.022852690890431404,-0.05770627409219742
1789550682187754800,11.113754638671875,-0.3682408332824707,0.02102493867278099,-0.011412842199206352
1789550682197723000,11.123722900390625,-0.36702749133110046,0.011346478946506977,0.0074367462657392025
1789550682207692000,11.133692138671876,-0.30151423811912537,-0.026619309559464455,-0.01102100033313036
1789550682217659600,11.14365966796875,-0.32829445600509644,-0.008331915363669395,0.008511688560247421
1789550682227628800,11.15362890625,-0.3378414511680603,0.0019165423000231385,-0.00814109481871128
1789550682237596700,11.1635966796875,-0.3318234980106354,-0.01359850075095892,0.011717565357685089
1789550682247564800,11.173564697265626,-0.29802635312080383,-0.019818872213363647,-0.009716379456222057
1789550682257533700,11.18353369140625,-0.27635887265205383,-0.0049104951322078705,-0.020330674946308136
1789550682267501800,11.193501708984375,-0.30331042408943176,-0.016780907288193703,-0.014065667986869812
1789550682277470700,11.203470703125,-0.3240777552127838,-0.0023487042635679245,0.03834107890725136
1789550682287438800,11.21343896484375,-0.2965608537197113,-0.06015772372484207,0.05433490499854088
1789550682297407700,11.22340771484375,-0.2766510546207428,-0.03669474273920059,0.05996003374457359
1789550682307375900,11.2333759765625,-0.2857567071914673,-0.051683489233255386,0.03838055953383446
1789550682317343700,11.24334375,-0.25488775968551636,-0.05793578922748566,0.032475534826517105
1789550682327312600,11.253312744140626,-0.2813153564929962,-0.04425331577658653,0.022971995174884796
1789550682337280800,11.26328076171875,-0.2654232084751129,-0.09188821166753769,0.03496527671813965
1789550682347249700,11.273249755859375,-0.24765856564044952,-0.09457243233919144,-0.03346806392073631
1789550682357217800,11.2832177734375,-0.22885984182357788,-0.10120955854654312,-0.04619371518492699
1789550682367186700,11.293186767578124,-0.2206137627363205,-0.13676394522190094,-0.02071955054998398
1789550682377154800,11.30315478515625,-0.2210313379764557,-0.12612195312976837,-0.0032438868656754494
1789550682387123000,11.313123046875,-0.16299279034137726,-0.09086359292268753,-0.027585387229919434
1789550682397091800,11.323091796875,-0.12782467901706696,-0.11315824836492538,-0.001120756845921278
1789550682407060000,11.33306005859375,-0.10950258374214172,-0.10752015560865402,0.008493942208588123
1789550682417028900,11.34302880859375,-0.04821792617440224,-0.1459149420261383,-0.012984984554350376
1789550682426996700,11.352996826171875,-0.07034820318222046,-0.10306234657764435,0.052619121968746185
1789550682436965600,11.362965576171876,-0.0653446614742279,-0.0848172977566719,0.022638052701950073
1789550682446933800,11.372933837890624,0.02769498899579048,-0.12283684313297272,0.008402345702052116
1789550682456902700,11.382902587890625,0.004525754600763321,-0.12104879319667816,0.00794428214430809
1789550682466870800,11.392870849609375,-0.031433336436748505,-0.14169251918792725,0.01594710908830166
1789550682476839000,11.4028388671875,-0.004431278444826603,-0.1206279844045639,0.0006845332682132721
1789550682486807800,11.412807861328124,0.009116259403526783,-0.11072637885808945,-0.010887612588703632
1789550682496776000,11.42277587890625,0.011871831491589546,-0.12184161692857742,0.0473456010222435
1789550682506744800,11.432744873046875,0.027221303433179855,-0.14033734798431396,0.007608344312757254
1789550682516713000,11.442712890625,0.06243175268173218,-0.14861419796943665,0.024438723921775818
1789550682526681900,11.452681884765624,0.05767860636115074,-0.11079124361276627,-0.03395801782608032
1789550682536649700,11.462649658203125,-0.0020595567766577005,-0.11945930123329163,-0.022118404507637024
1789550682546617900,11.472617919921875,-0.0355064682662487,-0.12967625260353088,0.04250939562916756
1789550682556586800,11.482586669921876,0.08864877372980118,-0.153018057346344,-0.009248072281479836
1789550682566555000,11.492554931640624,0.10824990272521973,-0.11653114855289459,-0.02071138098835945
1789550682576523800,11.502523681640625,0.10278882831335068,-0.12307959794998169,0.016441578045487404
1789550682586492000,11.512491943359375,0.08472730219364166,-0.08712322264909744,0.000811306294053793
1789550682596460800,11.522460693359376,0.08299757540225983,-0.10953851789236069,-0.03979683667421341
1789550682606429000,11.532428955078124,0.08503727614879608,-0.10440205037593842,-0.009569939225912094
1789550682616396800,11.542396728515625,0.06246432289481163,-0.17055657505989075,0.028580641373991966
1789550682626366000,11.552365966796875,0.07508186250925064,-0.12033550441265106,-0.00030482420697808266
1789550682636333800,11.562333740234376,0.14916621148586273,-0.12937401235103607,-0.020998651161789894
1789550682646302700,11.572302734375,0.12225900590419769,-0.11377590149641037,0.028615323826670647
1789550682656270800,11.582270751953125,0.11513744294643402,-0.12482428550720215,0.05998123809695244
1789550682666239700,11.59223974609375,0.14997592568397522,-0.12833788990974426,0.05788430571556091
1789550682676207900,11.602207763671874,0.14109748601913452,-0.1100398376584053,0.027922941371798515
1789550682686175700,11.61217578125,0.1594274491071701,-0.11544601619243622,0.008207540959119797
1789550682696145000,11.622144775390625,0.18838293850421906,-0.08283693343400955,-0.01765787973999977
1789550682706112800,11.63211279296875,0.19949938356876373,-0.07501433044672012,-0.024358849972486496
1789550682716082000,11.64208203125,0.19692091643810272,-0.05068741738796234,0.006525564473122358
1789550682726049800,11.6520498046875,0.2191762924194336,-0.07017975300550461,-0.035129301249980927
1789550682736019000,11.66201904296875,0.20737050473690033,-0.06167149171233177,0.0016502831131219864
1789550682745986800,11.67198681640625,0.1716136485338211,-0.11932422965765,0.07595788687467575
1789550682755954700,11.68195458984375,0.2503276467323303,-0.1274002641439438,0.027898212894797325
1789550682765923800,11.691923828125,0.20203812420368195,-0.09047871828079224,-0.020420093089342117
1789550682775891700,11.7018916015625,0.12637798488140106,-0.028310149908065796,-0.014526518993079662
1789550682785860900,11.71186083984375,0.20862255990505219,-0.05078459903597832,-0.03809860348701477
1789550682795828700,11.721828857421874,0.23796792328357697,-0.08412684500217438,-0.022596875205636024
1789550682805798000,11.7317978515625,0.22228209674358368,-0.012146320194005966,-0.025885451585054398
1789550682815765800,11.741765869140625,0.22926197946071625,0.00415195943787694,-0.039168234914541245
1789550682825734000,11.75173388671875,0.2016962766647339,-0.028709188103675842,0.003046162659302354
1789550682835702800,11.761702880859374,0.15199635922908783,-0.029213590547442436,0.03564884886145592
1789550682845670700,11.771670654296875,0.19044725596904755,-0.027320802211761475,0.0285288505256176
1789550682855639800,11.781639892578125,0.18524637818336487,-0.033711858093738556,0.018610438331961632
1789550682865607700,11.791607666015626,0.11016720533370972,-0.00913314800709486,0.0504976287484169
1789550682875576800,11.801576904296875,0.061349596828222275,0.012900249101221561,0.016157500445842743
1789550682885544700,11.811544677734375,0.06354726105928421,-0.017340758815407753,0.02244899421930313
1789550682895512800,11.821512939453125,0.10590457171201706,0.02041301131248474,-0.005250542890280485
1789550682905481700,11.831481689453126,0.09807945787906647,0.03679459169507027,-0.021316800266504288
1789550682915449900,11.841449951171874,0.06373559683561325,0.055424466729164124,0.025672547519207
1789550682925418800,11.851418701171875,0.04116516187787056,0.029080089181661606,0.010117342695593834
1789550682935387000,11.861386962890625,0.0393155962228775,0.03382318094372749,-0.010924559086561203
1789550682945355800,11.871355712890624,0.007619968615472317,-0.0035065999254584312,-0.0076110996305942535
1789550682955323600,11.88132373046875,-0.02066013775765896,0.000015164026990532875,0.04242277145385742
1789550682965291800,11.891291748046875,0.04049770161509514,0.05059104412794113,-0.045079439878463745
1789550682975260200,11.90126025390625,0.057568296790122986,0.04275549203157425,-0.07656120508909225
1789550682985228000,11.91122802734375,-0.0009082392789423466,0.042869389057159424,0.03349940851330757
1789550682995197200,11.921197265625,0.07680945843458176,-0.008772233501076698,-0.013600192964076996
1789550683005165000,11.9311650390625,0.08509373664855957,0.051951050758361816,-0.01775982789695263
1789550683015134200,11.94113427734375,0.043448556214571,0.023186780512332916,0.006581464316695929
1789550683025102000,11.95110205078125,0.007365687284618616,0.045418284833431244,-0.003423144109547138
1789550683035070200,11.9610703125,-0.006052383221685886,0.008291423320770264,0.02318662963807583
1789550683045039000,11.9710390625,0.003192382864654064,-0.007793407887220383,0.008885817602276802
1789550683055007200,11.98100732421875,-0.0015184826916083694,0.01114885788410902,0.0007802210748195648
1789550683064976100,11.99097607421875,-0.011164359748363495,0.015919290482997894,0.023465177044272423
1789550683074944300,12.0009443359375,0.05077837035059929,0.020055178552865982,0.006361291743814945
1789550683084913200,12.0109130859375,0.053015850484371185,0.013392585329711437,-0.03658556938171387
1789550683094881000,12.020881103515626,-0.005345728248357773,0.03438468649983406,0.021605828776955605
1789550683104849200,12.03084912109375,-0.029346711933612823,0.0016036208253353834,0.052974991500377655
1789550683114818000,12.040818115234375,0.016091076657176018,0.016176437959074974,0.025659479200839996
1789550683124786200,12.0507861328125,0.035190608352422714,0.04413655400276184,-0.04870633780956268
1789550683134755000,12.060755126953126,-0.025888988748192787,-0.0010024297516793013,0.0046857800334692
1789550683144723200,12.07072314453125,-0.03625456988811493,0.006342594511806965,0.008675755932927132
1789550683154692000,12.080692138671875,0.003932798281311989,0.004124180879443884,0.03422718867659569
1789550683164660200,12.09066015625,0.04642554745078087,0.04671676829457283,-0.01860811561346054
1789550683174628400,12.10062841796875,0.02723480761051178,0.05495845526456833,-0.009135252796113491
1789550683184597200,12.11059716796875,0.0018671051366254687,0.03384387120604515,0.0549335815012455
1789550683194565000,12.120565185546875,0.013316834345459938,-0.055132605135440826,0.06887736916542053
