time,seconds_elapsed,z,y,x
1789061912760446000,0.028446044921875,-1.055816650390625,-0.299224853515625,-0.1831817626953125
1789061912770455800,0.038455810546875,-1.0980377197265625,-0.3463592529296875,-0.1018829345703125
1789061912780464600,0.048464599609375,-1.1120147705078125,-0.2975921630859375,-0.0552520751953125
1789061912790474800,0.058474853515625,-0.8890228271484375,-0.3866119384765625,-0.01995849609375
1789061912800484600,0.068484619140625,-0.74261474609375,-0.446044921875,-0.0670166015625
1789061912810493700,0.07849365234375,-0.804107666015625,-0.35247802734375,-0.052032470703125
1789061912820503800,0.08850390625,-0.937286376953125,-0.334014892578125,-0.1077423095703125
1789061912830513700,0.098513671875,-1.0341339111328125,-0.2914581298828125,-0.060699462890625
1789061912840522800,0.108522705078125,-1.2258453369140625,-0.2585296630859375,-0.145111083984375
1789061912850532900,0.118532958984375,-0.8566741943359375,-0.2910614013671875,0.036285400390625
1789061912860542700,0.128542724609375,-0.6878662109375,-0.426849365234375,0.1645355224609375
1789061912870551800,0.1385517578125,-0.8295440673828125,-0.3824310302734375,0.0355377197265625
1789061912880562000,0.14856201171875,-0.9317779541015625,-0.182525634765625,-0.0272216796875
1789061912890571800,0.15857177734375,-1.171539306640625,-0.0899505615234375,-0.09674072265625
1789061912900580600,0.16858056640625,-1.034576416015625,-0.357757568359375,-0.1868743896484375
1789061912910590700,0.1785908203125,-1.000091552734375,-0.28759765625,-0.014862060546875
1789061912920600600,0.1886005859375,-1.0146026611328125,-0.2679901123046875,0.08660888671875
1789061912930610700,0.198610595703125,-0.81475830078125,-0.296478271484375,0.1292266845703125
1789061912940619800,0.208619873046875,-0.8464202880859375,-0.243011474609375,0.0074462890625
1789061912950629600,0.218629638671875,-0.777191162109375,-0.471038818359375,-0.061248779296875
1789061912960639700,0.2286396484375,-0.7907867431640625,-0.4871063232421875,-0.183807373046875
1789061912970648800,0.23864892578125,-1.1367645263671875,-0.3173675537109375,-0.192108154296875
1789061912980658700,0.24865869140625,-1.171112060546875,-0.29156494140625,0.0560150146484375
1789061912990668800,0.258668701171875,-1.2371978759765625,-0.1901702880859375,-0.0818634033203125
1789061913000678000,0.268677978515625,-0.860137939453125,-0.4526824951171875,-0.0873565673828125
1789061913010687700,0.278687744140625,-0.695159912109375,-0.4590606689453125,-0.039398193359375
1789061913020697900,0.28869775390625,-0.7614288330078125,-0.296112060546875,-0.0772247314453125
1789061913030706700,0.298706787109375,-0.9516754150390625,-0.1422271728515625,-0.08258056640625
1789061913040716500,0.308716552734375,-1.010467529296875,-0.2750701904296875,-0.0443878173828125
1789061913050726700,0.3187265625,-1.17071533203125,-0.226104736328125,-0.0016632080078125
1789061913060735700,0.32873583984375,-0.848358154296875,-0.5181884765625,0.1128692626953125
1789061913070745600,0.33874560546875,-0.915771484375,-0.2942657470703125,0.0318756103515625
1789061913080755700,0.348755615234375,-0.8161773681640625,-0.42724609375,-0.070220947265625
1789061913090764800,0.358764892578125,-0.876007080078125,-0.4477386474609375,-0.2099151611328125
1789061913100774700,0.368774658203125,-0.8214569091796875,-0.4380950927734375,-0.192138671875
1789061913110784800,0.37878466796875,-0.936553955078125,-0.321319580078125,0.127166748046875
1789061913120793900,0.3887939453125,-1.0299530029296875,-0.3224029541015625,0.225311279296875
1789061913130803700,0.3988037109375,-0.97686767578125,-0.2652740478515625,0.1676788330078125
1789061913140813800,0.408813720703125,-1.0712890625,-0.2933349609375,-0.0108489990234375
1789061913150822700,0.41882275390625,-1.1943359375,-0.25750732421875,-0.113494873046875
1789061913160832800,0.428832763671875,-0.93743896484375,-0.4144744873046875,-0.0348052978515625
1789061913170842600,0.438842529296875,-0.9043121337890625,-0.3573455810546875,0.0331573486328125
1789061913180851700,0.448851806640625,-0.7754364013671875,-0.3960113525390625,-0.0253448486328125
1789061913190861800,0.45886181640625,-0.8642120361328125,-0.28204345703125,-0.06658935546875
1789061913200871700,0.46887158203125,-1.0369415283203125,-0.195556640625,-0.1091461181640625
1789061913210881800,0.4788818359375,-1.0466461181640625,-0.3569793701171875,-0.089263916015625
1789061913220891000,0.488890869140625,-1.0873260498046875,-0.4627532958984375,-0.1195220947265625
1789061913230900700,0.498900634765625,-0.8058624267578125,-0.4564666748046875,-0.1782684326171875
1789061913240910800,0.508910888671875,-0.9033355712890625,-0.3479156494140625,-0.168914794921875
1789061913250920000,0.518919921875,-0.843536376953125,-0.2385711669921875,-0.107513427734375
1789061913260929800,0.5289296875,-0.7772369384765625,-0.3237762451171875,-0.0718536376953125
1789061913270940000,0.53893994140625,-0.823150634765625,-0.448822021484375,-0.0697784423828125
1789061913280948700,0.54894873046875,-1.034149169921875,-0.2605743408203125,-0.097259521484375
1789061913290958800,0.558958740234375,-0.968170166015625,-0.3157958984375,-0.1083984375
1789061913300969000,0.568968994140625,-1.0988006591796875,-0.4393157958984375,-0.18426513671875
1789061913310978000,0.57897802734375,-1.0999298095703125,-0.24981689453125,-0.1173248291015625
1789061913320988000,0.58898779296875,-0.9463958740234375,-0.367279052734375,-0.1045074462890625
1789061913330998000,0.598998046875,-0.786712646484375,-0.45147705078125,0.0097198486328125
1789061913341006800,0.6090068359375,-0.6918487548828125,-0.3436126708984375,-0.072174072265625
1789061913351016700,0.6190166015625,-0.671142578125,-0.4580230712890625,-0.00927734375
1789061913361026800,0.62902685546875,-0.9775543212890625,-0.29815673828125,0.0547943115234375
1789061913371036000,0.639035888671875,-1.238922119140625,-0.229736328125,0.05712890625
1789061913381045800,0.649045654296875,-1.2163543701171875,-0.3878936767578125,-0.013397216796875
1789061913391056000,0.659055908203125,-1.0348358154296875,-0.368377685546875,-0.1277923583984375
1789061913401065000,0.66906494140625,-0.653594970703125,-0.4629364013671875,-0.083709716796875
1789061913411074800,0.67907470703125,-0.6939697265625,-0.4873809814453125,0.0020751953125
1789061913421085000,0.6890849609375,-1.0312957763671875,-0.227783203125,0.146575927734375
1789061913431094800,0.6990947265625,-1.2738800048828125,-0.2240753173828125,-0.01593017578125
1789061913441104000,0.709103759765625,-1.195892333984375,-0.49188232421875,-0.1140289306640625
1789061913451114000,0.719114013671875,-0.8926544189453125,-0.4068756103515625,0.002593994140625
1789061913461123800,0.729123779296875,-0.721771240234375,-0.4049072265625,-0.1089935302734375
1789061913471132700,0.739132568359375,-0.5529327392578125,-0.463836669921875,-0.1173553466796875
1789061913481142800,0.749142822265625,-0.8035888671875,-0.32171630859375,-0.0354461669921875
1789061913491152600,0.759152587890625,-1.0654754638671875,-0.2695770263671875,-0.1376190185546875
1789061913501161700,0.76916162109375,-1.0550537109375,-0.339996337890625,-0.0205078125
1789061913511171800,0.779171875,-1.2098846435546875,-0.2960662841796875,-0.07745361328125
1789061913521181700,0.789181640625,-0.948638916015625,-0.2303924560546875,-0.075592041015625
1789061913531190800,0.799190673828125,-0.78680419921875,-0.37713623046875,-0.2151641845703125
1789061913541201000,0.809200927734375,-0.937164306640625,-0.2574920654296875,-0.1771697998046875
1789061913551211000,0.8192109375,-0.8629150390625,-0.4144744873046875,-0.08984375
1789061913561219800,0.8292197265625,-0.9933319091796875,-0.3484344482421875,-0.0313262939453125
1789061913571230000,0.83922998046875,-0.955169677734375,-0.3141021728515625,0.0157470703125
1789061913581240000,0.849239990234375,-0.7969207763671875,-0.4063873291015625,-0.0387115478515625
1789061913591250000,0.85925,-0.89654541015625,-0.2928619384765625,-0.0731048583984375
1789061913601258800,0.8692587890625,-1.1241607666015625,-0.14898681640625,-0.044891357421875
1789061913611268900,0.879268798828125,-0.8980865478515625,-0.373443603515625,-0.0648345947265625
1789061913621278700,0.88927880859375,-1.2222747802734375,-0.2201080322265625,-0.0733489990234375
1789061913631287800,0.899287841796875,-1.2202911376953125,-0.2736053466796875,-0.01171875
1789061913641298000,0.9092978515625,-1.0442962646484375,-0.27197265625,-0.0362548828125
1789061913651307800,0.919307861328125,-0.7487030029296875,-0.45196533203125,-0.0693206787109375
1789061913661316900,0.92931689453125,-0.547943115234375,-0.4335174560546875,0.0206451416015625
1789061913671327000,0.939326904296875,-0.7101287841796875,-0.2036895751953125,-0.0166015625
1789061913681336800,0.9493369140625,-0.809783935546875,-0.1921539306640625,-0.003997802734375
1789061913691346000,0.959345947265625,-1.06298828125,-0.2889862060546875,-0.047119140625
1789061913701356000,0.96935595703125,-1.233367919921875,-0.2845611572265625,-0.01513671875
1789061913711366000,0.979365966796875,-1.2749786376953125,-0.2871856689453125,-0.197601318359375
1789061913721374700,0.989374755859375,-1.019317626953125,-0.4791259765625,-0.1735687255859375
1789061913731384800,0.999384765625,-0.7046356201171875,-0.4625396728515625,-0.04803466796875
1789061913741394700,1.009394775390625,-0.65618896484375,-0.23553466796875,-0.127716064453125
1789061913751403800,1.01940380859375,-0.735260009765625,-0.2532806396484375,-0.096282958984375
1789061913761414000,1.029413818359375,-0.90704345703125,-0.30438232421875,-0.0139312744140625
1789061913771423700,1.039423828125,-1.14971923828125,-0.2972564697265625,0.0472869873046875
1789061913781433900,1.049433837890625,-0.931365966796875,-0.470062255859375,0.058380126953125
1789061913791443000,1.05944287109375,-0.966827392578125,-0.3726348876953125,-0.0374755859375
1789061913801452800,1.069452880859375,-1.1027984619140625,-0.232452392578125,-0.0231170654296875
1789061913811463000,1.079462890625,-0.972991943359375,-0.2833709716796875,-0.08111572265625
1789061913821472000,1.089471923828125,-0.9141998291015625,-0.39447021484375,-0.1268310546875
1789061913831481900,1.09948193359375,-0.8433837890625,-0.4391937255859375,-0.0683441162109375
1789061913841492000,1.109491943359375,-0.749603271484375,-0.4278411865234375,-0.1033477783203125
1789061913851500800,1.119500732421875,-0.9764556884765625,-0.2143707275390625,-0.0491790771484375
1789061913861510700,1.1295107421875,-1.30413818359375,-0.110565185546875,-0.076141357421875
1789061913871520800,1.139520751953125,-0.9645843505859375,-0.532012939453125,-0.072845458984375
1789061913881529900,1.14952978515625,-0.8363494873046875,-0.5687713623046875,-0.0673675537109375
1789061913891539700,1.159539794921875,-1.05780029296875,-0.194244384765625,-0.0355224609375
1789061913901549800,1.1695498046875,-1.02142333984375,-0.1443634033203125,0.044952392578125
1789061913911559000,1.179558837890625,-1.0733642578125,-0.183319091796875,-0.079376220703125
1789061913921568800,1.18956884765625,-0.8095550537109375,-0.49908447265625,-0.0735321044921875
1789061913931579000,1.199578857421875,-0.884765625,-0.3725128173828125,-0.141204833984375
1789061913941589000,1.209589111328125,-0.88751220703125,-0.24951171875,-0.1096038818359375
1789061913951597800,1.219597900390625,-0.7189483642578125,-0.5576171875,-0.0426788330078125
1789061913961608000,1.22960791015625,-0.8902435302734375,-0.3282318115234375,-0.0711212158203125
1789061913971618000,1.2396181640625,-1.0860595703125,-0.142822265625,-0.094512939453125
1789061913981626600,1.249626708984375,-0.90423583984375,-0.61395263671875,0.0390167236328125
1789061913991636700,1.25963671875,-1.0091400146484375,-0.23712158203125,-0.05523681640625
1789061914001646800,1.269646728515625,-0.8781890869140625,-0.3787994384765625,-0.12823486328125
1789061914011655700,1.27965576171875,-0.7498321533203125,-0.4628143310546875,-0.0503997802734375
1789061914021665800,1.289665771484375,-0.947021484375,-0.1421661376953125,-0.07037353515625
1789061914031676000,1.299676025390625,-1.068023681640625,-0.3491973876953125,-0.0826263427734375
1789061914041685000,1.30968505859375,-0.981170654296875,-0.5977020263671875,-0.0838470458984375
1789061914051694800,1.31969482421875,-1.1726837158203125,-0.244049072265625,-0.209747314453125
1789061914061705000,1.329705078125,-0.849212646484375,-0.465362548828125,-0.193023681640625
1789061914071714000,1.339714111328125,-0.623443603515625,-0.322052001953125,0.1195220947265625
1789061914081724000,1.349723876953125,-0.7816314697265625,-0.2033843994140625,0.2272491455078125
1789061914091734000,1.359734130859375,-1.1890869140625,-0.095062255859375,0.0319061279296875
1789061914101743900,1.369743896484375,-1.008087158203125,-0.546844482421875,-0.1758880615234375
1789061914111752700,1.379752685546875,-1.128814697265625,-0.5881195068359375,-0.1954803466796875
1789061914121762800,1.3897626953125,-1.0370025634765625,-0.3365631103515625,-0.0418548583984375
1789061914131772700,1.399772705078125,-0.8444976806640625,-0.388275146484375,0.1512603759765625
1789061914141781800,1.40978173828125,-0.9448089599609375,-0.20562744140625,0.0577850341796875
1789061914151791900,1.4197919921875,-0.7570648193359375,-0.4173126220703125,0.040069580078125
1789061914161801700,1.4298017578125,-0.780181884765625,-0.4310455322265625,-0.1480255126953125
1789061914171810800,1.439810791015625,-0.8242034912109375,-0.4367523193359375,-0.11370849609375
1789061914181821000,1.449821044921875,-0.988677978515625,-0.423492431640625,0.0287017822265625
1789061914191830800,1.459830810546875,-1.0834808349609375,-0.3647613525390625,-0.0382843017578125
1789061914201839900,1.46983984375,-0.948486328125,-0.393890380859375,-0.0549468994140625
1789061914211850000,1.47985009765625,-0.95184326171875,-0.4372711181640625,-0.0836029052734375
1789061914221859800,1.48985986328125,-1.08709716796875,-0.2429046630859375,-0.12994384765625
1789061914231870000,1.499869873046875,-0.90313720703125,-0.4443206787109375,-0.0727386474609375
1789061914241878800,1.509878662109375,-1.0228424072265625,-0.26177978515625,-0.08154296875
1789061914251888600,1.519888671875,-1.0138092041015625,-0.3261566162109375,-0.160797119140625
1789061914261898800,1.529898681640625,-0.73895263671875,-0.4297027587890625,-0.2443695068359375
1789061914271907800,1.539907958984375,-0.6980743408203125,-0.3853759765625,-0.167877197265625
1789061914281917700,1.549917724609375,-0.657440185546875,-0.337188720703125,-0.0609893798828125
1789061914291927300,1.55992724609375,-0.9115447998046875,-0.34759521484375,0.011505126953125
1789061914301936400,1.569936279296875,-1.30657958984375,-0.1733551025390625,0.0845489501953125
1789061914311946500,1.579946533203125,-1.5515899658203125,-0.25299072265625,-0.0714111328125
1789061914321956400,1.589956298828125,-1.4014434814453125,-0.348968505859375,-0.236083984375
1789061914332590300,1.60059033203125,-0.9683380126953125,-0.4615631103515625,-0.0512237548828125
1789061914342600400,1.610600341796875,-0.6711883544921875,-0.3687286376953125,-0.0570220947265625
1789061914352609300,1.620609375,-0.4722900390625,-0.3654937744140625,-0.0171661376953125
1789061914362619400,1.630619384765625,-0.7017364501953125,-0.233551025390625,-0.0764312744140625
1789061914372629500,1.64062939453125,-1.005218505859375,-0.3152313232421875,-0.095245361328125
1789061914382639400,1.650639404296875,-1.2505645751953125,-0.3453369140625,-0.041748046875
1789061914392648400,1.6606484375,-0.95843505859375,-0.5316009521484375,-0.10906982421875
1789061914402658600,1.670658447265625,-0.758331298828125,-0.456146240234375,-0.063934326171875
1789061914412668400,1.68066845703125,-0.8816375732421875,-0.16583251953125,-0.03179931640625
1789061914422677200,1.69067724609375,-1.002655029296875,-0.20904541015625,-0.114105224609375
1789061914432687400,1.700687255859375,-0.9032745361328125,-0.4533843994140625,-0.1894073486328125
1789061914442697200,1.710697265625,-0.9720458984375,-0.5254974365234375,-0.231903076171875
1789061914452706300,1.720706298828125,-1.043487548828125,-0.2730712890625,0.051422119140625
1789061914462716400,1.73071630859375,-1.0385284423828125,-0.284881591796875,0.0338287353515625
1789061914472726300,1.740726318359375,-0.95123291015625,-0.295928955078125,-0.0436248779296875
1789061914482736400,1.750736328125,-0.8695068359375,-0.4364013671875,-0.17926025390625
1789061914492745500,1.760745361328125,-0.7512054443359375,-0.488677978515625,-0.3040008544921875
1789061914502755300,1.77075537109375,-0.6956024169921875,-0.381439208984375,-0.1198883056640625
1789061914512765400,1.780765380859375,-0.8614959716796875,-0.2285614013671875,-0.0515289306640625
1789061914522774500,1.7907744140625,-0.99365234375,-0.1650238037109375,-0.0709991455078125
1789061914532784400,1.800784423828125,-1.1230316162109375,-0.2875213623046875,-0.0948333740234375
1789061914542794500,1.81079443359375,-1.075592041015625,-0.3439788818359375,-0.1927032470703125
1789061914552803300,1.82080322265625,-0.834136962890625,-0.5977630615234375,-0.233001708984375
1789061914562813200,1.830813232421875,-1.0119476318359375,-0.1633453369140625,-0.200469970703125
1789061914572823300,1.8408232421875,-1.030029296875,-0.2633819580078125,-0.1185760498046875
1789061914582832400,1.850832275390625,-1.20306396484375,-0.252685546875,-0.1761322021484375
1789061914592842200,1.86084228515625,-0.9089508056640625,-0.4153289794921875,-0.0876617431640625
1789061914602852400,1.870852294921875,-0.6449737548828125,-0.575775146484375,-0.0776214599609375
1789061914612862500,1.880862548828125,-0.441131591796875,-0.4098052978515625,-0.0623321533203125
1789061914622871300,1.890871337890625,-0.7991485595703125,-0.200958251953125,0.0367431640625
1789061914632881400,1.90088134765625,-1.250244140625,-0.1784515380859375,-0.077789306640625
1789061914642891500,1.9108916015625,-1.262298583984375,-0.2649383544921875,-0.05938720703125
1789061914652900400,1.920900390625,-1.0932159423828125,-0.5406341552734375,-0.1299896240234375
1789061914662910500,1.930910400390625,-0.7849578857421875,-0.542877197265625,-0.0837554931640625
1789061914672920600,1.940920654296875,-0.6313629150390625,-0.46478271484375,-0.0845947265625
1789061914682929200,1.95092919921875,-0.675048828125,-0.3680267333984375,-0.0665283203125
1789061914692939300,1.960939208984375,-0.8601226806640625,-0.3099365234375,-0.006805419921875
1789061914702949400,1.970949462890625,-1.1193389892578125,-0.2364501953125,-0.047821044921875
1789061914712959200,1.980959228515625,-1.3165435791015625,-0.135589599609375,-0.08160400390625
1789061914722968300,1.99096826171875,-0.89154052734375,-0.3788604736328125,-0.0698394775390625
1789061914732978400,2.000978515625,-0.7771759033203125,-0.4527130126953125,-0.19488525390625
1789061914742988300,2.01098828125,-0.87677001953125,-0.2278594970703125,-0.190521240234375
1789061914752997400,2.020997314453125,-0.8126983642578125,-0.2868499755859375,-0.113983154296875
1789061914763007500,2.031007568359375,-1.003326416015625,-0.2714691162109375,-0.1184539794921875
1789061914773017300,2.041017333984375,-1.226409912109375,-0.1914520263671875,-0.103057861328125
1789061914783026400,2.0510263671875,-1.23651123046875,-0.12799072265625,-0.0307769775390625
1789061914793036500,2.06103662109375,-0.9777984619140625,-0.44708251953125,-0.0884857177734375
1789061914803046400,2.07104638671875,-0.827117919921875,-0.3471527099609375,0.0023345947265625
1789061914813056500,2.081056396484375,-0.858489990234375,-0.259368896484375,-0.007720947265625
1789061914823065300,2.0910654296875,-0.8799591064453125,-0.36383056640625,-0.096710205078125
1789061914833075200,2.1010751953125,-0.8448028564453125,-0.4707489013671875,0.0562744140625
1789061914843085300,2.111085205078125,-0.7278289794921875,-0.54998779296875,0.103179931640625
1789061914853094400,2.121094482421875,-0.813720703125,-0.3230133056640625,0.0658721923828125
1789061914863104300,2.131104248046875,-0.81878662109375,-0.38763427734375,-0.0431060791015625
1789061914873114400,2.1411142578125,-1.1064910888671875,-0.267791748046875,0.0939483642578125
1789061914883123500,2.15112353515625,-1.2856597900390625,-0.189300537109375,0.0926666259765625
1789061914893133300,2.16113330078125,-0.9297332763671875,-0.5782470703125,0.022247314453125
1789061914903143400,2.171143310546875,-0.7569580078125,-0.486328125,-0.066741943359375
1789061914913152500,2.181152587890625,-0.739593505859375,-0.51568603515625,-0.0331268310546875
1789061914923162400,2.191162353515625,-0.9725189208984375,-0.15557861328125,0.0020904541015625
1789061914933172500,2.20117236328125,-1.0602264404296875,-0.3084259033203125,-0.0689239501953125
1789061914943182600,2.2111826171875,-0.8633880615234375,-0.404632568359375,-0.1602783203125
1789061914953191200,2.221191162109375,-0.8220062255859375,-0.564208984375,-0.1644134521484375
1789061914963201300,2.231201171875,-1.0587615966796875,-0.4482421875,-0.050018310546875
1789061914973211400,2.24121142578125,-1.220001220703125,-0.1377410888671875,-0.0247650146484375
1789061914983220200,2.25122021484375,-0.9788818359375,-0.329833984375,-0.1635589599609375
1789061914993230300,2.261230224609375,-0.657073974609375,-0.43560791015625,-0.135589599609375
1789061915003240400,2.271240478515625,-0.6047821044921875,-0.441619873046875,-0.077484130859375
1789061915013250300,2.281250244140625,-0.7429656982421875,-0.215362548828125,-0.1175384521484375
1789061915023259400,2.29125927734375,-0.95599365234375,-0.2195281982421875,-0.0823211669921875
1789061915033269500,2.30126953125,-1.16644287109375,-0.2588958740234375,-0.2104644775390625
1789061915043279400,2.311279296875,-1.425445556640625,-0.09228515625,-0.2218780517578125
1789061915053288400,2.321288330078125,-1.0800018310546875,-0.2914276123046875,-0.1738739013671875
1789061915063298600,2.331298583984375,-0.7305450439453125,-0.3885345458984375,0.01983642578125
1789061915073308400,2.341308349609375,-0.7322235107421875,-0.3665771484375,0.0804443359375
1789061915083317200,2.351317138671875,-0.8705596923828125,-0.349700927734375,0.041778564453125
1789061915093327400,2.361327392578125,-1.241302490234375,-0.1899261474609375,0.0035247802734375
1789061915103337200,2.371337158203125,-1.22369384765625,-0.408782958984375,-0.101593017578125
1789061915113347300,2.381347412109375,-1.0629730224609375,-0.30242919921875,0.0279083251953125
1789061915123356400,2.3913564453125,-0.75579833984375,-0.5040740966796875,0.0841064453125
1789061915133366300,2.4013662109375,-0.7707672119140625,-0.272613525390625,0.0430145263671875
1789061915143376400,2.41137646484375,-0.6350555419921875,-0.4144287109375,0.0055999755859375
1789061915153385500,2.421385498046875,-0.6720733642578125,-0.5680084228515625,-0.0179901123046875
1789061915163395300,2.431395263671875,-1.0162353515625,-0.3367156982421875,-0.0856781005859375
1789061915173405400,2.441405517578125,-1.1569061279296875,-0.240264892578125,-0.0560760498046875
1789061915183414500,2.45141455078125,-0.835662841796875,-0.4463958740234375,-0.099761962890625
1789061915193424400,2.46142431640625,-1.00201416015625,-0.2649383544921875,-0.1699066162109375
1789061915203434500,2.4714345703125,-0.903106689453125,-0.2845306396484375,-0.1029052734375
1789061915213444400,2.4814443359375,-1.07366943359375,-0.2701416015625,-0.089569091796875
1789061915223453200,2.491453125,-0.9539031982421875,-0.35736083984375,-0.059478759765625
1789061915233463300,2.50146337890625,-1.008758544921875,-0.1926727294921875,-0.1237335205078125
1789061915243473400,2.511473388671875,-0.9933929443359375,-0.2313079833984375,-0.097198486328125
1789061915253482200,2.521482177734375,-0.6432952880859375,-0.4703369140625,-0.0957794189453125
1789061915263492400,2.531492431640625,-0.6614227294921875,-0.4164886474609375,-0.03875732421875
1789061915273502500,2.54150244140625,-0.85955810546875,-0.29595947265625,-0.1348419189453125
1789061915283511300,2.55151123046875,-1.1978302001953125,-0.0738677978515625,-0.1276702880859375
1789061915293521400,2.561521484375,-1.2351226806640625,-0.2053375244140625,0.0032501220703125
1789061915303531500,2.571531494140625,-1.23638916015625,-0.427001953125,-0.0973358154296875
1789061915313541400,2.581541259765625,-0.952178955078125,-0.465972900390625,-0.049102783203125
1789061915323550500,2.591550537109375,-0.783477783203125,-0.4168243408203125,-0.1515350341796875
1789061915333560600,2.601560546875,-0.6721038818359375,-0.4394989013671875,-0.106597900390625
1789061915343570400,2.6115703125,-0.7195892333984375,-0.267669677734375,-0.0529632568359375
1789061915353579500,2.62157958984375,-1.0924072265625,-0.04852294921875,-0.0737762451171875
1789061915363589600,2.631589599609375,-2.1140594482421875,0.2230682373046875,0.0211944580078125
1789061915373599500,2.641599609375,-2.0522918701171875,-0.1486358642578125,0.0146026611328125
1789061915383609600,2.651609619140625,-0.9856719970703125,-0.58526611328125,-0.26470947265625
1789061915393618400,2.661618408203125,0.2081451416015625,-1.034271240234375,-0.33642578125
1789061915403628300,2.671628173828125,0.7210693359375,-0.9163970947265625,-0.0767364501953125
1789061915413638400,2.681638427734375,0.601348876953125,-0.486083984375,0.0265350341796875
1789061915423647500,2.6916474609375,0.00457763671875,-0.027374267578125,0.085052490234375
1789061915433657300,2.7016572265625,-1.626129150390625,0.349365234375,0.14434814453125
1789061915443667500,2.71166748046875,-3.0791778564453125,0.091033935546875,-0.02728271484375
1789061915453676500,2.721676513671875,-2.7146148681640625,-0.6154632568359375,-0.2252197265625
1789061915463686400,2.731686279296875,-1.2249298095703125,-0.9703521728515625,-0.2199554443359375
1789061915473696500,2.741696533203125,-0.181060791015625,-0.4073638916015625,-0.22589111328125
1789061915483706400,2.751706298828125,0.1150970458984375,0.011138916015625,0.0137786865234375
1789061915493715500,2.761715576171875,-0.051361083984375,-0.0492401123046875,0.145904541015625
1789061915503725600,2.7717255859375,-0.8112945556640625,-0.286041259765625,0.117889404296875
1789061915513735400,2.7817353515625,-1.703643798828125,-0.3347625732421875,-0.057769775390625
1789061915523744300,2.791744140625,-2.0074005126953125,-0.2379913330078125,-0.1367340087890625
1789061915533754400,2.80175439453125,-1.282806396484375,-0.44952392578125,-0.163604736328125
1789061915543764500,2.811764404296875,-0.6104888916015625,-0.4806365966796875,-0.08685302734375
1789061915553773300,2.821773193359375,-0.394775390625,-0.34429931640625,0.0262603759765625
1789061915563783400,2.831783447265625,-0.38494873046875,-0.3739776611328125,0.0298004150390625
1789061915573793500,2.84179345703125,-0.8004150390625,-0.1764984130859375,0.0633087158203125
1789061915583803400,2.851803466796875,-1.182159423828125,-0.309051513671875,0.026153564453125
1789061915593812500,2.8618125,-1.2514495849609375,-0.517425537109375,-0.1051177978515625
1789061915603822600,2.871822509765625,-1.0785980224609375,-0.545623779296875,-0.0731201171875
1789061915613832400,2.88183251953125,-1.0916290283203125,-0.2407073974609375,-0.0642852783203125
1789061915623841500,2.891841552734375,-0.910919189453125,-0.0370025634765625,-0.01348876953125
1789061915633851600,2.9018515625,-1.567413330078125,-0.0229339599609375,-0.1238555908203125
1789061915643861500,2.911861572265625,-1.178375244140625,-0.4590911865234375,0.117950439453125
1789061915653871600,2.92187158203125,-0.69476318359375,-0.9269866943359375,0.2006378173828125
1789061915663880400,2.93188037109375,-0.27166748046875,-0.7462005615234375,-0.042999267578125
1789061915673890300,2.941890380859375,0.00872802734375,-0.6060791015625,-0.2692108154296875
1789061915683900400,2.951900390625,0.146392822265625,-0.2687835693359375,-0.1028289794921875
1789061915693909500,2.961909423828125,-0.513519287109375,-0.072113037109375,0.064971923828125
1789061915703919400,2.97191943359375,-1.7864227294921875,0.068695068359375,0.0043182373046875
1789061915713929500,2.981929443359375,-2.416534423828125,-0.2687530517578125,-0.1212615966796875
1789061915723938600,2.9919384765625,-1.7071380615234375,-0.6336517333984375,-0.0499420166015625
1789061915733948400,3.001948486328125,-0.7405242919921875,-0.9671630859375,-0.175506591796875
1789061915743958500,3.01195849609375,-0.308685302734375,-0.6031646728515625,0.174560546875
1789061915753968400,3.021968505859375,-0.5342254638671875,0.0422210693359375,0.11468505859375
1789061915763977500,3.0319775390625,-0.707061767578125,-0.077850341796875,-0.0311126708984375
1789061915773987600,3.041987548828125,-1.2643585205078125,0.100128173828125,-0.14068603515625
1789061915783997400,3.05199755859375,-1.148895263671875,-0.2306365966796875,-0.11798095703125
1789061915794006300,3.06200634765625,-1.322540283203125,-0.1304473876953125,-0.2103424072265625
1789061915804016400,3.072016357421875,-0.81842041015625,-0.3599090576171875,0.0012664794921875
1789061915814026200,3.082026123046875,-0.6127777099609375,-0.603271484375,0.1493988037109375
1789061915824035300,3.092035400390625,-0.661865234375,-0.47772216796875,0.128814697265625
1789061915834045400,3.10204541015625,-0.76397705078125,-0.6826934814453125,-0.033721923828125
1789061915844055300,3.11205517578125,-1.13592529296875,-0.364898681640625,0.0066680908203125
1789061915854065400,3.1220654296875,-1.1866607666015625,-0.3914031982421875,0.0086212158203125
1789061915864074500,3.132074462890625,-0.992401123046875,-0.2661590576171875,0.027862548828125
1789061915874084400,3.14208447265625,-0.84490966796875,-0.322662353515625,0.040863037109375
1789061915884094500,3.152094482421875,-0.7978515625,-0.4031829833984375,0.0493011474609375
1789061915894103600,3.162103515625,-1.001922607421875,-0.2865753173828125,-0.037353515625
1789061915904113400,3.172113525390625,-0.8057708740234375,-0.549041748046875,-0.005950927734375
1789061915914123500,3.18212353515625,-0.9610137939453125,-0.3050384521484375,-0.0280914306640625
1789061915924133600,3.192133544921875,-1.0494384765625,-0.280914306640625,0.0316314697265625
1789061915934142500,3.202142578125,-0.9718170166015625,-0.5989532470703125,-0.071533203125
1789061915944152300,3.21215234375,-1.5087738037109375,-0.0690460205078125,-0.2734832763671875
1789061915954162400,3.222162353515625,-1.045379638671875,-0.4305419921875,-0.1426849365234375
1789061915964171500,3.232171630859375,-0.768402099609375,-0.640228271484375,-0.1699981689453125
1789061915974181400,3.242181396484375,-0.779510498046875,-0.15576171875,0.0476226806640625
1789061915984191500,3.25219140625,-0.75213623046875,-0.438385009765625,-0.015228271484375
1789061915994201300,3.262201416015625,-0.882965087890625,-0.3017120361328125,0.146881103515625
1789061916004210400,3.27221044921875,-1.099456787109375,0.0118560791015625,0.104339599609375
1789061916014220500,3.282220458984375,-0.9847564697265625,0.040496826171875,0.05035400390625
1789061916024230400,3.29223046875,-0.88287353515625,0.0057373046875,0.1184234619140625
1789061916034239500,3.302239501953125,-0.7118377685546875,-0.6591949462890625,-0.059844970703125
1789061916044249600,3.31224951171875,-0.82012939453125,-0.654876708984375,-0.0760498046875
1789061916054259500,3.322259521484375,-0.92694091796875,-0.7233734130859375,0.04095458984375
1789061916064268300,3.332268310546875,-1.3728179931640625,-0.261993408203125,0.019561767578125
1789061916074278400,3.3422783203125,-1.3103179931640625,-0.0715789794921875,0.0784912109375
1789061916084288300,3.352288330078125,-0.8168792724609375,-0.2778472900390625,0.0350341796875
1789061916094298400,3.36229833984375,-0.58831787109375,-0.530517578125,-0.10015869140625
1789061916104307500,3.372307373046875,-0.467498779296875,-0.4662322998046875,0.04046630859375
1789061916114317300,3.3823173828125,-0.3956298828125,-0.606292724609375,0.06396484375
1789061916124327400,3.392327392578125,-0.973236083984375,-0.1575775146484375,0.0799560546875
1789061916134336500,3.40233642578125,-1.6515655517578125,-0.03729248046875,-0.106414794921875
1789061916144346400,3.412346435546875,-1.439727783203125,-0.5948333740234375,-0.09869384765625
1789061916154356500,3.4223564453125,-1.1659088134765625,-0.4653167724609375,-0.206787109375
1789061916164366600,3.43236669921875,-0.795989990234375,-0.4771728515625,-0.1466064453125
1789061916174375400,3.44237548828125,-0.7287139892578125,-0.2101593017578125,-0.159820556640625
1789061916184385500,3.452385498046875,-0.90533447265625,0.0360107421875,-0.2212982177734375
1789061916194395600,3.462395751953125,-0.8671112060546875,-0.4672698974609375,-0.1141204833984375
1789061916204404500,3.472404541015625,-1.00604248046875,-0.4918212890625,-0.140472412109375
1789061916214414300,3.482414306640625,-0.8784637451171875,-0.4882354736328125,-0.1813812255859375
1789061916224424400,3.492424560546875,-0.8093414306640625,-0.34521484375,-0.1717529296875
1789061916234434300,3.502434326171875,-0.9796142578125,-0.100677490234375,-0.1472320556640625
1789061916244443400,3.512443359375,-1.006988525390625,-0.3479766845703125,-0.0621337890625
1789061916254453500,3.52245361328125,-1.2293701171875,-0.1985626220703125,0.0276031494140625
1789061916264463400,3.53246337890625,-1.162567138671875,-0.2584686279296875,-0.007080078125
1789061916274472400,3.542472412109375,-0.8534698486328125,-0.35174560546875,0.01885986328125
1789061916284482600,3.552482666015625,-0.576141357421875,-0.530670166015625,-0.0081939697265625
1789061916294492400,3.562492431640625,-0.6444854736328125,-0.4280548095703125,0.03021240234375
1789061916304501500,3.57250146484375,-0.93560791015625,-0.20806884765625,-0.0077972412109375
1789061916314511600,3.58251171875,-1.0406494140625,-0.1944580078125,0.041351318359375
1789061916324521500,3.592521484375,-1.1195068359375,-0.1715087890625,0.170166015625
1789061916334531600,3.602531494140625,-1.0396728515625,-0.3534698486328125,0.03790283203125
1789061916344540400,3.61254052734375,-0.71356201171875,-0.5421905517578125,0.0979156494140625
1789061916354550300,3.62255029296875,-0.7108154296875,-0.3303680419921875,0.083892822265625
1789061916364560400,3.632560302734375,-1.12469482421875,-0.112335205078125,0.0166473388671875
1789061916374569500,3.642569580078125,-1.49884033203125,-0.061553955078125,0.073455810546875
1789061916384579300,3.652579345703125,-1.2523956298828125,-0.567962646484375,0.03662109375
1789061916394589400,3.66258935546875,-0.800689697265625,-0.7379150390625,0.0908355712890625
1789061916404599600,3.672599609375,-0.3307342529296875,-0.585235595703125,0.093536376953125
1789061916414608400,3.6826083984375,-0.337249755859375,-0.26654052734375,0.0352325439453125
1789061916424618500,3.692618408203125,-0.6703338623046875,-0.2480316162109375,-0.00506591796875
1789061916434628600,3.702628662109375,-0.6644744873046875,-0.54974365234375,-0.0765380859375
1789061916444637400,3.712637451171875,-0.1482696533203125,-0.84405517578125,-0.1781463623046875
1789061916454647600,3.7226474609375,-1.0210113525390625,0.170166015625,-0.0720672607421875
1789061916464657700,3.73265771484375,-3.1456298828125,0.7050933837890625,-0.0060882568359375
1789061916474666200,3.742666259765625,-2.416778564453125,-0.114837646484375,0.0543060302734375
1789061916484676400,3.75267626953125,-0.25323486328125,-1.4800567626953125,-0.433441162109375
1789061916494686500,3.7626865234375,0.4627227783203125,-1.2684478759765625,-0.2453155517578125
1789061916504696300,3.7726962890625,0.4313812255859375,-0.117919921875,0.09246826171875
1789061916514705400,3.782705322265625,-0.38458251953125,0.5260009765625,0.179595947265625
1789061916524715500,3.792715576171875,-1.7774505615234375,0.0276031494140625,0.1522216796875
1789061916534725400,3.802725341796875,-2.9411163330078125,-0.4283905029296875,-0.0150146484375
1789061916544734500,3.812734375,-2.7787933349609375,-0.6071929931640625,-0.16302490234375
1789061916554744600,3.82274462890625,-1.24285888671875,-0.4347076416015625,-0.2032623291015625
1789061916564754400,3.83275439453125,-0.18792724609375,0.09808349609375,-0.0334930419921875
1789061916574764500,3.8427646484375,0.355743408203125,-0.3615264892578125,-0.0687408447265625
1789061916584773600,3.852773681640625,0.2749786376953125,-0.8531341552734375,-0.0516510009765625
1789061916594783500,3.862783447265625,-0.502197265625,-0.630126953125,0.12298583984375
1789061916604793600,3.872793701171875,-1.4863128662109375,-0.002227783203125,0.3004913330078125
1789061916614802400,3.882802490234375,-2.115814208984375,0.3075408935546875,0.1051788330078125
1789061916624812300,3.892812255859375,-1.2897491455078125,-0.463653564453125,-0.10260009765625
1789061916634822400,3.902822509765625,-0.3470916748046875,-0.8808746337890625,-0.0845947265625
1789061916644832300,3.912832275390625,-0.391632080078125,-0.5219268798828125,-0.0616302490234375
1789061916654841300,3.92284130859375,-1.1507110595703125,0.2678680419921875,0.271209716796875
1789061916664851500,3.9328515625,-1.46148681640625,0.210693359375,0.173797607421875
1789061916674861300,3.942861328125,-0.9155426025390625,-0.558013916015625,-0.021514892578125
1789061916684870400,3.952870361328125,-0.6262969970703125,-0.7830657958984375,-0.066253662109375
1789061916694880500,3.962880615234375,0.3480072021484375,-0.9577789306640625,0.0104217529296875
1789061916704890400,3.972890380859375,0.2345733642578125,-0.274810791015625,0.0153656005859375
1789061916714900500,3.982900390625,-1.583221435546875,0.5085906982421875,0.20245361328125
1789061916724909600,3.99290966796875,-3.1380767822265625,0.6048583984375,0.1982574462890625
1789061916734919400,4.00291943359375,-1.90216064453125,-0.90313720703125,-0.3879852294921875
1789061916744929500,4.012929443359375,-0.9048919677734375,-1.2344818115234375,-0.675994873046875
1789061916754938400,4.0229384765625,0.1287994384765625,-0.9611968994140625,-0.349029541015625
1789061916764948500,4.032948486328125,-0.016845703125,0.0225677490234375,0.0572357177734375
1789061916774958300,4.042958251953125,-0.0129852294921875,-0.376922607421875,0.0105133056640625
1789061916784968400,4.052968505859375,-0.736663818359375,-0.158050537109375,0.03741455078125
1789061916794977500,4.0629775390625,-1.96697998046875,-0.2356109619140625,0.391632080078125
1789061916804987400,4.0729873046875,-2.721771240234375,0.0360260009765625,0.2250823974609375
1789061916814997500,4.08299755859375,-1.099029541015625,-0.7646942138671875,-0.1850433349609375
1789061916825006600,4.093006591796875,0.0680084228515625,-0.5249481201171875,-0.427764892578125
1789061916835016400,4.103016357421875,-0.93359375,0.12835693359375,-0.066070556640625
1789061916845026600,4.113026611328125,-1.7367706298828125,0.52783203125,0.056610107421875
1789061916855036400,4.123036376953125,-0.879730224609375,-0.8236541748046875,-0.3214569091796875
1789061916865045500,4.13304541015625,-0.2726898193359375,-1.556365966796875,-0.5455780029296875
1789061916875055600,4.1430556640625,-0.091949462890625,-1.0723114013671875,-0.2607879638671875
1789061916885065500,4.1530654296875,-0.5329132080078125,0.338226318359375,-0.07806396484375
1789061916895074300,4.16307421875,-1.6016387939453125,0.8024444580078125,0.0706939697265625
1789061916905084400,4.17308447265625,-2.0543670654296875,0.00323486328125,-0.1175079345703125
1789061916915094300,4.18309423828125,-1.672515869140625,-0.7183380126953125,-0.445281982421875
1789061916925104400,4.1931044921875,-1.05291748046875,-0.659698486328125,-0.2381744384765625
1789061916935113500,4.203113525390625,-0.6131744384765625,-0.11993408203125,0.0013885498046875
1789061916945123300,4.213123291015625,-0.6484527587890625,0.2983551025390625,-0.1014556884765625
1789061916955133400,4.223133544921875,-0.192413330078125,-0.478485107421875,-0.2542724609375
1789061916965142500,4.233142578125,-0.736663818359375,-0.260650634765625,-0.1338348388671875
1789061916975152400,4.24315234375,-1.04974365234375,-0.2839202880859375,0.115325927734375
1789061916985162500,4.25316259765625,-0.964813232421875,-0.440185546875,0.112701416015625
1789061916995172600,4.263172607421875,-0.7071380615234375,-0.6761932373046875,-0.1651611328125
1789061917005181400,4.273181396484375,-0.9136810302734375,-0.5954437255859375,-0.4106903076171875
1789061917015191600,4.283191650390625,-1.0024871826171875,-0.1827850341796875,-0.0892486572265625
1789061917025201700,4.29320166015625,-0.912078857421875,0.2758941650390625,0.1212615966796875
1789061917035210500,4.30321044921875,-0.5833892822265625,-0.0291900634765625,-0.0106964111328125
1789061917045220400,4.313220458984375,-0.2526092529296875,-0.773193359375,0.01934814453125
1789061917055230500,4.32323046875,-0.5359954833984375,-1.1870880126953125,0.0634307861328125
1789061917065239600,4.333239501953125,-1.3173675537109375,-0.60870361328125,-0.0419921875
1789061917075249400,4.34324951171875,-2.0845489501953125,0.6197357177734375,-0.075775146484375
1789061917085259500,4.353259521484375,-0.9518280029296875,-0.1088409423828125,-0.1270751953125
1789061917095269400,4.363269287109375,-0.0559539794921875,-0.28399658203125,-0.3061370849609375
1789061917105278500,4.373278564453125,0.5047607421875,-0.83538818359375,-0.261016845703125
1789061917115288600,4.38328857421875,-0.196014404296875,-0.8784942626953125,-0.14935302734375
1789061917125298400,4.39329833984375,-2.496429443359375,0.3312530517578125,0.2857513427734375
1789061917135307500,4.4033076171875,-3.351959228515625,-0.174041748046875,0.12908935546875
1789061917145317600,4.413317626953125,-2.5153656005859375,-0.1468505859375,-0.2477874755859375
1789061917155327500,4.423327392578125,-0.569183349609375,-0.6899871826171875,-0.3567657470703125
1789061917165337600,4.433337646484375,0.5520477294921875,-0.6107025146484375,0.0644073486328125
1789061917175346400,4.443346435546875,0.6785125732421875,-0.5283203125,0.065673828125
1789061917185356300,4.453356201171875,-0.2775421142578125,-0.3511962890625,-0.0858306884765625
1789061917195366400,4.463366455078125,-1.6646881103515625,-0.2661590576171875,-0.242462158203125
1789061917205375500,4.47337548828125,-2.6388092041015625,0.4099578857421875,-0.139739990234375
1789061917215385300,4.48338525390625,-1.2910003662109375,-0.5008392333984375,-0.024078369140625
1789061917225395500,4.4933955078125,-0.1348724365234375,-0.9696502685546875,0.3094635009765625
1789061917235405600,4.503405517578125,0.0307464599609375,-0.6989898681640625,0.195068359375
1789061917245414400,4.513414306640625,0.0084075927734375,-0.5629425048828125,-0.02362060546875
1789061917255424500,4.523424560546875,-0.7008056640625,0.024444580078125,0.004913330078125
1789061917265434600,4.5334345703125,-1.422760009765625,-0.0218353271484375,0.0765838623046875
1789061917275443500,4.543443359375,-2.110809326171875,0.0047607421875,0.0115814208984375
1789061917285453600,4.55345361328125,-1.7597808837890625,-0.601806640625,0.001708984375
1789061917295463700,4.563463623046875,-1.5972442626953125,-0.2079010009765625,0.0370330810546875
1789061917305473500,4.5734736328125,-0.3315277099609375,-0.57379150390625,0.093505859375
1789061917315482600,4.583482666015625,-0.073638916015625,-0.1823272705078125,-0.058319091796875
1789061917325492700,4.59349267578125,-0.39483642578125,-0.1967620849609375,-0.1483917236328125
1789061917335502600,4.603502685546875,-1.5461578369140625,0.0952911376953125,0.081634521484375
1789061917345511700,4.61351171875,-1.194183349609375,-0.4584197998046875,0.0316619873046875
1789061917355521800,4.623521728515625,-1.034027099609375,-0.5615386962890625,-0.1537322998046875
1789061917365531600,4.63353173828125,-0.5330047607421875,-0.7437286376953125,-0.0203704833984375
1789061917375541800,4.643541748046875,-0.98553466796875,0.1119842529296875,0.1356048583984375
1789061917385550600,4.653550537109375,-1.1561737060546875,-0.239898681640625,0.001190185546875
1789061917395560400,4.663560546875,-1.363494873046875,-0.2468719482421875,-0.0706024169921875
1789061917405570600,4.673570556640625,-0.5991668701171875,-0.919921875,-0.2172698974609375
1789061917415579600,4.68357958984375,-0.673248291015625,-0.4398040771484375,-0.086761474609375
1789061917425589500,4.693589599609375,-0.990570068359375,0.1064300537109375,0.169189453125
1789061917435599600,4.703599609375,-0.9778594970703125,0.2491455078125,0.0065765380859375
1789061917445609500,4.713609375,-0.8098602294921875,-0.609375,-0.247833251953125
1789061917455618600,4.72361865234375,-0.3610382080078125,-1.61090087890625,-0.4108123779296875
1789061917465628700,4.733628662109375,-0.7120513916015625,-1.135986328125,-0.12738037109375
1789061917475638500,4.743638427734375,-0.938720703125,-0.238555908203125,0.1493377685546875
1789061917485647600,4.753647705078125,-2.22265625,0.7785797119140625,0.0160064697265625
1789061917495657700,4.76365771484375,-2.1384124755859375,0.0413665771484375,-0.20166015625
1789061917505667600,4.77366748046875,-1.82513427734375,-0.0652313232421875,-0.410003662109375
1789061917515677700,4.783677734375,-0.5738525390625,-0.864654541015625,-0.371063232421875
1789061917525686500,4.7936865234375,0.232635498046875,-0.65869140625,-0.1565093994140625
1789061917535696400,4.8036962890625,0.113800048828125,-0.2067718505859375,-0.0378265380859375
1789061917545706500,4.81370654296875,-0.9288482666015625,0.25579833984375,0.0509490966796875
1789061917555716600,4.823716552734375,-1.272491455078125,-0.2472076416015625,-0.3625335693359375
1789061917565725400,4.833725341796875,-0.754364013671875,-0.571533203125,-0.4224395751953125
1789061917575735600,4.843735595703125,-0.4472808837890625,-0.5320281982421875,-0.1020355224609375
1789061917585745700,4.85374560546875,-0.8909912109375,0.226165771484375,0.2016754150390625
1789061917595754500,4.86375439453125,-0.8197479248046875,-0.3147735595703125,-0.0725250244140625
1789061917605764600,4.8737646484375,-0.8722991943359375,-0.7117462158203125,-0.220458984375
1789061917615774700,4.883774658203125,-1.0519256591796875,-0.862396240234375,-0.0498046875
1789061917625783800,4.89378369140625,-1.6971435546875,-0.0254669189453125,0.0823974609375
1789061917635793700,4.903793701171875,-1.5496826171875,0.3041229248046875,-0.0367889404296875
1789061917645803800,4.9138037109375,-0.32769775390625,-0.4308929443359375,-0.3042144775390625
1789061917655813600,4.923813720703125,0.3385772705078125,-0.950531005859375,-0.1863555908203125
1789061917665822500,4.933822509765625,0.0792236328125,-0.605377197265625,0.0849151611328125
1789061917675832600,4.94383251953125,-1.2561798095703125,0.35626220703125,0.2856292724609375
1789061917685842400,4.953842529296875,-3.63092041015625,0.9759674072265625,0.1841888427734375
1789061917695852500,4.9638525390625,-2.6585693359375,-0.61749267578125,-0.1667633056640625
1789061917705861600,4.973861572265625,-0.753204345703125,-1.3028564453125,-0.5787353515625
1789061917715871500,4.98387158203125,0.429351806640625,-0.931915283203125,-0.1872406005859375
1789061917725881600,4.993881591796875,0.5576629638671875,0.021728515625,0.1605072021484375
1789061917735890700,5.003890625,0.311737060546875,-0.0055389404296875,0.2329254150390625
1789061917745900500,5.013900634765625,-1.052337646484375,0.034454345703125,-0.06304931640625
1789061917755910700,5.02391064453125,-2.651092529296875,-0.261688232421875,-0.335235595703125
1789061917765920500,5.03392041015625,-2.29254150390625,-0.6736907958984375,-0.0688018798828125
1789061917775929600,5.0439296875,-0.7844696044921875,-0.8912506103515625,-0.1275787353515625
1789061917785939700,5.053939697265625,-0.0464935302734375,-0.2833404541015625,-0.229400634765625
1789061917795949800,5.06394970703125,-0.0725250244140625,-0.127655029296875,-0.055938720703125
1789061917805958400,5.07395849609375,-0.1699676513671875,-0.7393951416015625,0.1584014892578125
1789061917815968500,5.083968505859375,-0.230499267578125,-1.174285888671875,0.2350311279296875
1789061917825978600,5.093978515625,-1.772613525390625,0.089630126953125,0.2696533203125
1789061917835988500,5.103988525390625,-3.054229736328125,0.383544921875,0.0003509521484375
1789061917845997600,5.11399755859375,-2.46856689453125,0.400634765625,-0.313873291015625
1789061917856007700,5.124007568359375,-0.3380889892578125,-0.84356689453125,-0.6513519287109375
1789061917866017500,5.134017578125,0.8045806884765625,-1.4424591064453125,-0.236114501953125
1789061917876026600,5.144026611328125,0.711456298828125,-0.4090423583984375,-0.1455230712890625
1789061917886036700,5.15403662109375,-0.06170654296875,0.273468017578125,0.138763427734375
1789061917896046600,5.164046630859375,-1.5235443115234375,0.8989410400390625,0.2347412109375
1789061917906056700,5.174056640625,-1.76104736328125,-0.0530853271484375,-0.0339202880859375
1789061917916065800,5.184065673828125,-0.8505401611328125,-1.3255462646484375,-0.177215576171875
1789061917926075600,5.19407568359375,-1.0277099609375,-0.64971923828125,-0.2267913818359375
1789061917936085800,5.204085693359375,-0.913909912109375,-0.0594940185546875,-0.0671844482421875
1789061917946094600,5.214094482421875,-1.574005126953125,0.5006561279296875,0.1223907470703125
1789061917956104400,5.2241044921875,-1.746826171875,-0.2371368408203125,-0.08203125
1789061917966114600,5.234114501953125,-1.0626373291015625,-0.7245941162109375,-0.2492218017578125
1789061917976124400,5.24412451171875,-0.6553802490234375,-0.328857421875,0.0893402099609375
1789061917986133500,5.254133544921875,0.002532958984375,-0.228179931640625,0.1442718505859375
1789061917996143600,5.2641435546875,-0.5513763427734375,0.2537384033203125,0.007720947265625
1789061918006153500,5.274153564453125,-0.0495758056640625,-1.3219757080078125,-0.137939453125
1789061918016162600,5.28416259765625,-0.7678375244140625,-1.0755767822265625,-0.074676513671875
1789061918026172700,5.294172607421875,-3.011444091796875,0.17156982421875,0.2804107666015625
1789061918036182500,5.3041826171875,-2.4284820556640625,0.6718902587890625,0.2681884765625
1789061918046192600,5.314192626953125,-0.5403900146484375,-0.4257049560546875,-0.27301025390625
1789061918056201700,5.32420166015625,-0.089874267578125,-0.3782806396484375,-0.232696533203125
1789061918066211600,5.334211669921875,-0.6377105712890625,-0.687530517578125,0.1856536865234375
1789061918076847600,5.34484765625,-1.39141845703125,-0.1247711181640625,0.280242919921875
1789061918086857500,5.354857421875,-1.659698486328125,-0.3959503173828125,0.2474365234375
1789061918096867600,5.36486767578125,-1.250885009765625,-0.37750244140625,-0.0052642822265625
1789061918106877400,5.37487744140625,-0.8616485595703125,-0.3443450927734375,-0.323760986328125
1789061918116886500,5.384886474609375,-0.187164306640625,-0.3978118896484375,-0.2538604736328125
1789061918126896600,5.394896728515625,-0.0399627685546875,-0.363311767578125,-0.0816192626953125
1789061918136906500,5.404906494140625,-0.6817169189453125,0.0012054443359375,-0.017791748046875
1789061918146915600,5.41491552734375,-0.6916046142578125,-0.61669921875,0.030853271484375
1789061918156925700,5.42492578125,-0.9449005126953125,-0.75897216796875,0.1077880859375
1789061918166935800,5.434935791015625,-2.015350341796875,-0.227874755859375,0.0535888671875
1789061918176945700,5.444945556640625,-1.71087646484375,-0.0281829833984375,-0.151031494140625
1789061918186954500,5.45495458984375,-0.634063720703125,-0.1619415283203125,-0.3791961669921875
1789061918196964600,5.464964599609375,-0.1357421875,-0.2384033203125,-0.3972930908203125
1789061918206974500,5.474974365234375,-0.8399200439453125,0.1709747314453125,-0.0195770263671875
1789061918216983600,5.484983642578125,-1.165283203125,-0.159027099609375,0.068023681640625
1789061918226993700,5.49499365234375,-0.8897705078125,-0.75909423828125,-0.1313323974609375
1789061918237003500,5.50500341796875,-1.7064971923828125,-0.3179168701171875,-0.180419921875
1789061918247013600,5.515013671875,-1.1486358642578125,-0.23516845703125,-0.1566619873046875
1789061918257022700,5.525022705078125,-0.4207916259765625,-0.33001708984375,-0.4508209228515625
1789061918267032600,5.535032470703125,-0.365814208984375,-0.7353515625,-0.3413848876953125
1789061918277042700,5.545042724609375,-0.7879638671875,-0.5986328125,-0.1291961669921875
1789061918287051800,5.5550517578125,-0.58245849609375,-0.4527740478515625,-0.1600341796875
1789061918297060900,5.565060791015625,-1.4261016845703125,0.030364990234375,0.010162353515625
1789061918307071000,5.575071044921875,-1.992584228515625,0.4011993408203125,0.0334014892578125
1789061918317081000,5.5850810546875,-1.08306884765625,-0.6024322509765625,-0.318023681640625
1789061918327090000,5.59508984375,0.2734832763671875,-0.79461669921875,-0.385528564453125
1789061918337100000,5.60510009765625,0.2211456298828125,-0.9880523681640625,0.11279296875
1789061918347110100,5.615110107421875,-1.5291748046875,0.521759033203125,0.4968109130859375
1789061918357118700,5.62511865234375,-3.1417083740234375,0.67083740234375,0.0729217529296875
1789061918367128800,5.63512890625,-1.713836669921875,-0.636199951171875,-0.3392333984375
1789061918377139000,5.645138916015625,-0.48016357421875,-1.3371734619140625,-0.351959228515625
1789061918387148800,5.655148681640625,0.316497802734375,-0.887420654296875,-0.079315185546875
1789061918397158000,5.665157958984375,-0.2057037353515625,-0.142822265625,0.267822265625
1789061918407793200,5.675793212890625,-0.894744873046875,0.1722412109375,0.14788818359375
1789061918417803000,5.685802978515625,-1.735687255859375,-0.3351287841796875,-0.1757659912109375
1789061918427811800,5.695811767578125,-1.794158935546875,-0.5785675048828125,-0.0387725830078125
1789061918437822000,5.705822021484375,-1.6454010009765625,0.0904083251953125,-0.001678466796875
1789061918447831800,5.715831787109375,-0.7761077880859375,-0.19708251953125,-0.1587677001953125
1789061918457842000,5.725842041015625,-0.0342254638671875,-0.4098052978515625,-0.174346923828125
1789061918467851000,5.73585107421875,-0.2745819091796875,-0.2586212158203125,-0.1392822265625
1789061918477860900,5.74586083984375,-0.4874420166015625,-0.653533935546875,-0.047210693359375
1789061918487871000,5.75587109375,-0.815032958984375,-0.43365478515625,0.0450286865234375
1789061918497880000,5.765880126953125,-0.9573822021484375,-0.3465728759765625,0.04290771484375
1789061918507890000,5.775889892578125,-1.829010009765625,0.2632904052734375,-0.1772308349609375
1789061918517900000,5.785900146484375,-1.7862701416015625,-0.1631622314453125,-0.0265350341796875
1789061918527910000,5.795909912109375,-1.0370025634765625,-0.717559814453125,0.0162506103515625
1789061918537919000,5.8059189453125,-0.5880279541015625,-0.7775115966796875,-0.31787109375
1789061918547929000,5.81592919921875,-0.3091888427734375,-0.4187774658203125,-0.235565185546875
1789061918557939000,5.82593896484375,-0.19671630859375,-0.39825439453125,0.0010528564453125
1789061918567947800,5.83594775390625,-0.1390838623046875,-0.243011474609375,-0.1144256591796875
1789061918577958000,5.8459580078125,-1.273193359375,0.0458221435546875,-0.12054443359375
1789061918587968000,5.855968017578125,-2.386199951171875,-0.0084381103515625,-0.1181488037109375
1789061918597977900,5.865977783203125,-2.021636962890625,-0.2992095947265625,0.029083251953125
1789061918607987000,5.875987060546875,-0.52178955078125,-0.8466796875,-0.1993560791015625
1789061918617997000,5.8859970703125,-0.1473388671875,-0.70654296875,-0.0818328857421875
1789061918628007000,5.8960068359375,-0.14971923828125,-0.199371337890625,-0.0103759765625
1789061918638017000,5.90601708984375,-0.270355224609375,-0.30657958984375,-0.12628173828125
1789061918648026000,5.916026123046875,-1.189056396484375,0.4175262451171875,-0.001220703125
1789061918658036000,5.926035888671875,-1.25286865234375,-0.3907623291015625,0.0633087158203125
1789061918668046000,5.936046142578125,-1.123321533203125,-1.0043182373046875,0.039581298828125
1789061918678055200,5.94605517578125,-1.240814208984375,-0.9231719970703125,0.0478515625
1789061918688065000,5.95606494140625,-1.8976898193359375,0.0401153564453125,0.0269012451171875
1789061918698075100,5.9660751953125,-1.1803131103515625,-0.0657806396484375,-0.049407958984375
1789061918708085000,5.9760849609375,-0.471893310546875,-0.164520263671875,0.02264404296875
1789061918718093800,5.98609375,-0.200408935546875,-0.5160675048828125,0.1118011474609375
1789061918728104000,5.99610400390625,-0.875335693359375,-0.0683135986328125,0.0884857177734375
1789061918738113800,6.00611376953125,-0.706268310546875,-0.7390594482421875,0.081512451171875
1789061918748123000,6.016122802734375,-1.3644561767578125,-0.2558135986328125,0.13629150390625
1789061918758133000,6.026133056640625,-1.16571044921875,-0.5520172119140625,0.0592041015625
1789061918768142800,6.036142822265625,-0.97760009765625,-0.2473907470703125,0.0253143310546875
1789061918778153000,6.046153076171875,-0.5717315673828125,-0.4223785400390625,-0.1028289794921875
1789061918788162000,6.056162109375,-1.254302978515625,-0.017547607421875,-0.04437255859375
1789061918798172000,6.066171875,-1.897674560546875,0.2939605712890625,0.032470703125
1789061918808182000,6.07618212890625,-1.188995361328125,-0.36468505859375,-0.140533447265625
1789061918818192100,6.086192138671875,-0.156829833984375,-0.729400634765625,-0.1258697509765625
1789061918828201000,6.096200927734375,0.205078125,-1.0103302001953125,-0.0400238037109375
1789061918838211000,6.106211181640625,-0.3341217041015625,-0.192779541015625,0.2012786865234375
1789061918848221200,6.11622119140625,-1.558990478515625,0.123565673828125,-0.0183258056640625
1789061918858229800,6.126229736328125,-2.6372528076171875,0.226226806640625,-0.169158935546875
1789061918868240000,6.136239990234375,-1.7303314208984375,-0.57830810546875,-0.0238189697265625
1789061918878250000,6.14625,-0.55621337890625,-0.5799713134765625,0.0963287353515625
1789061918888259800,6.156259765625,0.0617218017578125,-0.3479461669921875,-0.0479278564453125
1789061918898269000,6.16626904296875,0.3704071044921875,-0.651275634765625,-0.1712188720703125
1789061918908279000,6.176279052734375,-0.5825042724609375,-0.18621826171875,-0.1810760498046875
1789061918918289000,6.186288818359375,-1.494384765625,-0.281829833984375,-0.24493408203125
1789061918928298000,6.196298095703125,-1.796295166015625,-0.0029296875,-0.008544921875
1789061918938308000,6.20630810546875,-0.869415283203125,-0.62725830078125,0.1165924072265625
1789061918948318000,6.21631787109375,-0.6576995849609375,-0.1448822021484375,-0.0783538818359375
1789061918958328000,6.226328125,-0.52923583984375,-0.365264892578125,-0.2681732177734375
1789061918968337200,6.236337158203125,-0.552703857421875,-0.2957305908203125,-0.0412445068359375
1789061918978347000,6.246346923828125,-1.3350067138671875,-0.153961181640625,-0.0192718505859375
1789061918988357000,6.256357177734375,-1.51763916015625,-0.389862060546875,-0.0442352294921875
1789061918998367000,6.266366943359375,-1.4008636474609375,-0.3719482421875,0.033416748046875
1789061919008375800,6.276375732421875,-0.78240966796875,-0.7998504638671875,-0.0790252685546875
1789061919018386000,6.286385986328125,-0.7238922119140625,-0.4005279541015625,-0.16656494140625
1789061919028395800,6.296395751953125,-0.50469970703125,-0.14532470703125,-0.0877532958984375
1789061919038404900,6.30640478515625,-0.7194976806640625,-0.2372589111328125,-0.0843658447265625
1789061919048415000,6.3164150390625,-0.98822021484375,0.0335693359375,-0.0780792236328125
1789061919058424800,6.3264248046875,-1.12646484375,-0.656524658203125,-0.106048583984375
1789061919068435000,6.33643505859375,-1.2632293701171875,-0.192474365234375,-0.026885986328125
1789061919078444000,6.346444091796875,-1.7428741455078125,0.005706787109375,-0.114898681640625
1789061919088454000,6.356453857421875,-1.1006927490234375,-0.186676025390625,-0.1921844482421875
1789061919098464000,6.366464111328125,-0.5975189208984375,-0.416595458984375,-0.14984130859375
1789061919108473000,6.37647314453125,-0.42822265625,-0.68963623046875,-0.1129913330078125
1789061919118483000,6.38648291015625,-0.6541290283203125,-0.3889617919921875,-0.0222930908203125
1789061919128493000,6.3964931640625,-0.9626922607421875,-0.2136688232421875,0.0337982177734375
1789061919138503200,6.406503173828125,-1.249237060546875,0.113983154296875,-0.0258331298828125
1789061919148512000,6.416511962890625,-0.4726715087890625,-0.402313232421875,0.02685546875
1789061919158521900,6.42652197265625,-0.313385009765625,-0.3862457275390625,-0.141204833984375
1789061919168532000,6.436531982421875,-0.8808441162109375,-0.43310546875,0.027099609375
1789061919178541800,6.446541748046875,-2.0375823974609375,-0.1385650634765625,-0.027008056640625
1789061919188551000,6.456551025390625,-1.2589569091796875,-0.5103302001953125,-0.035919189453125
1789061919198561000,6.46656103515625,-0.58001708984375,-0.5941619873046875,-0.0272979736328125
1789061919208571000,6.47657080078125,-0.0608062744140625,-0.49859619140625,0.098114013671875
1789061919218580000,6.486580078125,-0.5649871826171875,0.3149566650390625,-0.0324554443359375
1789061919228590000,6.496590087890625,-1.287872314453125,0.1221160888671875,0.0576019287109375
1789061919238600000,6.506599853515625,-1.5068511962890625,-0.4454345703125,-0.1539764404296875
1789061919248610000,6.516610107421875,-1.4749298095703125,-0.7677764892578125,-0.0143890380859375
1789061919258619100,6.526619140625,-1.34521484375,-0.364410400390625,0.13568115234375
1789061919268629000,6.53662890625,-1.0561370849609375,0.0932159423828125,-0.0276641845703125
1789061919278639000,6.54663916015625,-0.4986114501953125,-0.22064208984375,-0.2183380126953125
1789061919288649200,6.556649169921875,-0.5445556640625,-0.3563385009765625,-0.242584228515625
1789061919298658000,6.566657958984375,-0.4430084228515625,-1.1527862548828125,-0.1701812744140625
1789061919308668200,6.576668212890625,-1.27667236328125,-0.23931884765625,0.0037994384765625
1789061919318678000,6.586677978515625,-1.1446380615234375,-0.443939208984375,0.13427734375
1789061919328687000,6.59668701171875,-1.1309051513671875,0.052520751953125,-0.0479583740234375
1789061919338697200,6.606697265625,-1.00372314453125,-0.537994384765625,-0.298065185546875
1789061919348707000,6.61670703125,-0.96832275390625,-0.2874908447265625,-0.299530029296875
1789061919358717200,6.62671728515625,-0.7038116455078125,-0.4040679931640625,-0.1561279296875
1789061919368726300,6.636726318359375,-1.5529632568359375,0.2161865234375,-0.0696868896484375
1789061919378736400,6.646736328125,-1.2848968505859375,-0.345367431640625,-0.0603485107421875
1789061919388746200,6.656746337890625,-1.266510009765625,-0.368927001953125,-0.0662078857421875
1789061919398755300,6.66675537109375,-0.6909637451171875,-0.9202117919921875,-0.153656005859375
1789061919408765400,6.676765380859375,-0.5166168212890625,-0.5069122314453125,-0.202117919921875
1789061919418775300,6.686775390625,-0.7722930908203125,-0.035186767578125,-0.1562042236328125
1789061919428785400,6.696785400390625,-0.9300537109375,-0.038238525390625,-0.040679931640625
1789061919438794200,6.706794189453125,-1.0619964599609375,-0.2518310546875,-0.0688018798828125
1789061919448804000,6.71680419921875,-0.7225494384765625,-0.517578125,-0.1340179443359375
1789061919458814200,6.726814208984375,-0.619384765625,-0.3623199462890625,-0.1558380126953125
1789061919468824000,6.736823974609375,-0.4520263671875,0.006072998046875,-0.02178955078125
1789061919478833200,6.746833251953125,-0.786712646484375,0.200164794921875,0.0078277587890625
1789061919488843300,6.75684326171875,-1.1747589111328125,-0.3416290283203125,0.0743560791015625
1789061919498853000,6.76685302734375,-1.2765350341796875,-0.7447509765625,-0.037750244140625
1789061919508862200,6.7768623046875,-1.8944244384765625,-0.2541046142578125,-0.1023101806640625
1789061919518872300,6.786872314453125,-1.050048828125,-0.1556549072265625,-0.0019683837890625
1789061919528882200,6.796882080078125,-0.3986968994140625,-0.080169677734375,-0.010162353515625
1789061919538892300,6.806892333984375,0.026153564453125,-0.432586669921875,-0.029541015625
1789061919548901400,6.8169013671875,-0.3719940185546875,-0.647613525390625,0.0291748046875
1789061919558911200,6.8269111328125,-1.30596923828125,-0.279083251953125,0.030548095703125
1789061919568921300,6.83692138671875,-1.5187225341796875,-0.385284423828125,0.0312042236328125
1789061919578931200,6.84693115234375,-1.7531890869140625,-0.283966064453125,-0.0138092041015625
1789061919588940000,6.85693994140625,-1.2091064453125,-0.2158050537109375,-0.09765625
1789061919598950100,6.8669501953125,-0.9131927490234375,-0.618560791015625,-0.208892822265625
1789061919608960300,6.876960205078125,-0.76055908203125,-0.1389923095703125,-0.0019989013671875
1789061919618969000,6.886968994140625,-0.384185791015625,-0.568817138671875,0.004058837890625
1789061919628979200,6.896979248046875,-0.9680938720703125,0.0264739990234375,0.0678558349609375
1789061919638989300,6.9069892578125,-1.5083770751953125,-0.087982177734375,-0.0441741943359375
1789061919648999200,6.916999267578125,-1.1680908203125,-0.4761199951171875,-0.1416778564453125
1789061919659008300,6.92700830078125,-1.0018768310546875,-0.46148681640625,-0.1547698974609375
1789061919669018400,6.937018310546875,-0.860809326171875,-0.145416259765625,-0.1468658447265625
1789061919679028200,6.9470283203125,-0.46307373046875,-0.5458221435546875,0.0096588134765625
1789061919689037300,6.957037353515625,-0.39373779296875,-0.6044158935546875,0.0009765625
1789061919699047400,6.96704736328125,-1.076141357421875,-0.30145263671875,0.04046630859375
1789061919709057000,6.97705712890625,-1.5439910888671875,-0.06103515625,0.0895843505859375
1789061919719067100,6.987067138671875,-1.5915374755859375,0.1068572998046875,-0.0171966552734375
1789061919729076200,6.997076171875,-0.952545166015625,-0.264068603515625,0.0174407958984375
1789061919739086000,7.007086181640625,-1.0757293701171875,-0.36090087890625,0.0851898193359375
1789061919749096200,7.01709619140625,-1.34814453125,-0.1920166015625,-0.0207977294921875
1789061919759106000,7.02710595703125,-0.5710601806640625,-0.58929443359375,-0.1185455322265625
1789061919769115100,7.037115234375,-0.2040252685546875,-0.3247833251953125,-0.04583740234375
1789061919779125200,7.047125244140625,-0.1180419921875,-0.3436279296875,-0.00927734375
1789061919789135000,7.057135009765625,-0.81524658203125,0.1568145751953125,0.115081787109375
1789061919799144200,7.067144287109375,-1.9657135009765625,-0.1697540283203125,-0.0513458251953125
1789061919809154300,7.077154296875,-1.972320556640625,-0.5947723388671875,-0.0324859619140625
1789061919819164200,7.0871640625,-1.31231689453125,-0.824188232421875,-0.1380462646484375
1789061919829174300,7.09717431640625,-0.3872833251953125,-0.7108612060546875,-0.13916015625
1789061919839183000,7.10718310546875,-0.1997528076171875,-0.08135986328125,-0.1449737548828125
1789061919849193200,7.117193115234375,-0.07855224609375,-0.250732421875,-0.1108856201171875
1789061919859203000,7.127203125,-0.62646484375,-0.1733856201171875,0.010009765625
1789061919869213200,7.137213134765625,-1.1533966064453125,-0.7492218017578125,-0.02471923828125
1789061919879222300,7.14722216796875,-1.509765625,-0.6144561767578125,-0.1488494873046875
1789061919889232100,7.157232177734375,-1.332733154296875,-0.4425201416015625,-0.061309814453125
1789061919899242200,7.1672421875,-1.0277099609375,-0.3042144775390625,-0.2093505859375
1789061919909251300,7.177251220703125,-0.570037841796875,-0.4176025390625,-0.3187103271484375
1789061919919261200,7.18726123046875,-0.405303955078125,-0.5200653076171875,-0.1573333740234375
1789061919929271300,7.197271240234375,-0.752288818359375,-0.33056640625,-0.0999298095703125
1789061919939281200,7.20728125,-1.2816619873046875,-0.15380859375,-0.1090087890625
1789061919949290200,7.217290283203125,-1.5959320068359375,-0.286590576171875,-0.22760009765625
1789061919959300400,7.22730029296875,-1.1406097412109375,-0.6307220458984375,-0.1671295166015625
1789061919969310200,7.237310302734375,-0.81036376953125,-0.3431549072265625,-0.1888275146484375
1789061919979320300,7.2473203125,-0.5099945068359375,-0.4641876220703125,-0.1602325439453125
1789061919989329200,7.2573291015625,-0.6713409423828125,0.072967529296875,-0.0231170654296875
1789061919999339000,7.267339111328125,-1.3652496337890625,0.07977294921875,-0.0174407958984375
1789061920009349000,7.27734912109375,-1.3681640625,-0.144256591796875,0.0333709716796875
1789061920019358200,7.287358154296875,-1.0275726318359375,-0.6732635498046875,-0.0257415771484375
1789061920029368000,7.2973681640625,-1.1619415283203125,-0.35595703125,-0.010498046875
1789061920039378200,7.307378173828125,-1.0695343017578125,-0.17071533203125,-0.0197601318359375
1789061920049388300,7.31738818359375,-0.7265167236328125,-0.321533203125,0.0301055908203125
1789061920059397000,7.327397216796875,-0.284454345703125,-0.9873046875,0.0417633056640625
1789061920069407200,7.3374072265625,-0.9458465576171875,-0.359161376953125,0.0159149169921875
1789061920079417300,7.347417236328125,-1.2702789306640625,0.045623779296875,-0.00823974609375
1789061920089426200,7.35742626953125,-0.7651519775390625,0.0453338623046875,0.0760955810546875
1789061920099436300,7.367436279296875,-0.639678955078125,-0.2319183349609375,0.0850067138671875
1789061920109446400,7.3774462890625,-0.812652587890625,-0.7422027587890625,0.01654052734375
1789061920119456300,7.387456298828125,-0.6960296630859375,-0.9250946044921875,0.03765869140625
1789061920129465000,7.397465087890625,-0.3870086669921875,-0.6014251708984375,0.0629425048828125
1789061920139475200,7.40747509765625,-1.0585479736328125,0.0507965087890625,0.0029296875
1789061920149485000,7.417485107421875,-2.0149993896484375,0.8184051513671875,0.1618499755859375
1789061920159495200,7.4274951171875,-1.2918243408203125,-0.3796234130859375,-0.045257568359375
1789061920169504300,7.437504150390625,-0.5784912109375,-0.8184356689453125,-0.060760498046875
1789061920179514000,7.44751416015625,-0.10772705078125,-0.9360504150390625,0.08197021484375
1789061920189524200,7.457524169921875,-0.0965576171875,-0.1951446533203125,-0.0674896240234375
1789061920199533300,7.467533203125,-0.5118865966796875,0.33160400390625,-0.067962646484375
1789061920209543200,7.477543212890625,-1.4581146240234375,0.185455322265625,-0.05169677734375
1789061920219553300,7.48755322265625,-2.353515625,-0.04779052734375,0.009368896484375
1789061920229563100,7.497563232421875,-2.08697509765625,-0.597381591796875,0.1601715087890625
1789061920239572200,7.507572265625,-1.586395263671875,-0.312255859375,0.1920166015625
1789061920249582300,7.517582275390625,-0.509613037109375,-0.470306396484375,-0.0599212646484375
1789061920259592200,7.52759228515625,0.0613861083984375,-0.4878692626953125,-0.2716217041015625
1789061920269602300,7.537602294921875,-0.0986328125,-0.5689849853515625,-0.3013153076171875
1789061920279611100,7.547611083984375,-0.7347412109375,-0.0556182861328125,0.0192413330078125
1789061920289622000,7.5576220703125,-1.1523590087890625,-0.056396484375,0.1781463623046875
1789061920299632000,7.567632080078125,-1.33734130859375,-0.355499267578125,0.1704254150390625
1789061920309641200,7.57764111328125,-1.16888427734375,-0.417694091796875,-0.0079803466796875
1789061920319651000,7.587651123046875,-0.5752105712890625,-1.1699066162109375,-0.1632537841796875
1789061920329661200,7.5976611328125,-1.0244598388671875,-0.0813140869140625,-0.1007080078125
1789061920339671000,7.607671142578125,-0.8603668212890625,-0.4717254638671875,-0.0694580078125
1789061920349680000,7.61768017578125,-0.761016845703125,-0.2074127197265625,-0.118255615234375
1789061920359690200,7.627690185546875,-1.272369384765625,-0.2133636474609375,-0.069091796875
1789061920369700000,7.6377001953125,-2.0086517333984375,0.245758056640625,0.0326995849609375
1789061920379710200,7.647710205078125,-1.191925048828125,-0.447174072265625,0.053192138671875
1789061920389719000,7.657718994140625,-0.1953125,-0.6984100341796875,-0.15814208984375
1789061920399729000,7.66772900390625,-0.3520050048828125,-0.47320556640625,-0.1886138916015625
1789061920409739000,7.677739013671875,-0.92303466796875,0.10699462890625,-0.008392333984375
1789061920419748000,7.687748046875,-0.6519622802734375,-0.304473876953125,-0.070526123046875
1789061920429758000,7.697758056640625,-0.7791290283203125,-0.3143157958984375,-0.15008544921875
1789061920439768000,7.70776806640625,-1.445526123046875,-0.1209716796875,0.022674560546875
1789061920449778200,7.717778076171875,-1.6854705810546875,0.00054931640625,-0.036285400390625
1789061920459787000,7.727787109375,-0.9242095947265625,-0.17913818359375,-0.17486572265625
1789061920469797000,7.737797119140625,-0.278411865234375,-0.578887939453125,0.0388336181640625
1789061920479807200,7.74780712890625,-0.2546539306640625,-0.880218505859375,-0.030303955078125
1789061920489817000,7.757817138671875,-0.6695098876953125,-0.320068359375,-0.1190338134765625
1789061920499826200,7.767826171875,-1.48779296875,0.250518798828125,-0.0435333251953125
1789061920509836300,7.777836181640625,-1.8069305419921875,0.1962127685546875,0.0256805419921875
1789061920519846100,7.78784619140625,-0.9716949462890625,-0.3912200927734375,0.0394134521484375
1789061920529855000,7.79785498046875,-0.0512237548828125,-1.1761474609375,-0.075469970703125
1789061920539865000,7.807864990234375,-0.4514617919921875,-0.6735382080078125,-0.170562744140625
1789061920549875000,7.817875,-1.324676513671875,-0.1571807861328125,0.0353546142578125
1789061920559885000,7.827885009765625,-1.9584503173828125,-0.030426025390625,0.14849853515625
1789061920569894100,7.83789404296875,-1.316436767578125,-0.6697845458984375,0.0251312255859375
1789061920579904000,7.847904052734375,-1.063690185546875,-0.59857177734375,-0.0853271484375
1789061920589914000,7.8579140625,-0.27081298828125,-0.6343994140625,-0.090911865234375
1789061920599924000,7.867924072265625,-0.2537384033203125,-0.0143280029296875,-0.1834564208984375
1789061920609933000,7.87793310546875,-0.172210693359375,-0.463592529296875,-0.2432098388671875
1789061920619943200,7.887943115234375,-0.9899139404296875,-0.347869873046875,-0.1153411865234375
1789061920629953000,7.897953125,-1.81280517578125,-0.0559844970703125,0.0658416748046875
1789061920639962000,7.907962158203125,-1.3476715087890625,-0.56524658203125,0.011016845703125
1789061920649972200,7.91797216796875,-0.570770263671875,-0.2886199951171875,-0.147918701171875
1789061920659982000,7.927982177734375,-0.4105987548828125,-0.5840301513671875,-0.2416839599609375
1789061920669992200,7.9379921875,-1.0986328125,0.252532958984375,-0.0128326416015625
1789061920680001000,7.9480009765625,-1.3225860595703125,-0.3609619140625,-0.104095458984375
1789061920690011100,7.95801123046875,-1.443206787109375,-0.6064300537109375,-0.04339599609375
1789061920700021000,7.96802099609375,-1.22760009765625,-0.4951629638671875,0.0195770263671875
1789061920710030000,7.978030029296875,-1.273834228515625,0.1149444580078125,-0.180877685546875
1789061920720040200,7.988040283203125,-0.478729248046875,-0.3591461181640625,-0.198486328125
1789061920730050000,7.998050048828125,-0.50543212890625,-0.1685943603515625,-0.0744171142578125
1789061920740060200,8.00806005859375,-1.073638916015625,-0.1160430908203125,-0.19610595703125
1789061920750069200,8.0180693359375,-1.5633697509765625,-0.0664215087890625,-0.119293212890625
1789061920760079000,8.0280791015625,-1.139923095703125,-0.505767822265625,-0.136474609375
1789061920770089200,8.038089111328125,-0.641632080078125,-0.7067718505859375,-0.275604248046875
1789061920780099000,8.04809912109375,-0.6288909912109375,-0.185333251953125,-0.2915802001953125
1789061920790108200,8.058108154296875,-0.9202423095703125,-0.025543212890625,-0.1695404052734375
1789061920800118300,8.0681181640625,-0.907379150390625,-0.08392333984375,0.012176513671875
1789061920810128100,8.078128173828125,-0.8480072021484375,-0.4627685546875,0.0080108642578125
1789061920820137000,8.088136962890625,-1.02154541015625,-0.3896026611328125,-0.039093017578125
1789061920830147000,8.09814697265625,-1.0560760498046875,-0.54437255859375,0.0454254150390625
1789061920840157000,8.108156982421875,-0.95904541015625,-0.206634521484375,-0.0725860595703125
1789061920850167000,8.1181669921875,-0.4870758056640625,-0.277374267578125,-0.1351776123046875
1789061920860176100,8.128176025390625,-0.5735931396484375,-0.3153533935546875,-0.0108795166015625
1789061920870186000,8.13818603515625,-0.7581634521484375,-0.751922607421875,0.1193389892578125
1789061920880196000,8.148196044921875,-0.879302978515625,-0.5934906005859375,0.1710052490234375
1789061920890206200,8.158206298828125,-1.4828948974609375,-0.24761962890625,0.152557373046875
1789061920900215000,8.168215087890625,-1.879302978515625,0.1260986328125,0.138458251953125
1789061920910225200,8.17822509765625,-1.190032958984375,-0.1821746826171875,-0.033782958984375
1789061920920235300,8.1882353515625,-0.317596435546875,-0.4279937744140625,-0.170440673828125
1789061920930244000,8.198244140625,-0.3242645263671875,-0.359832763671875,-0.0991058349609375
1789061920940254200,8.208254150390625,0.0023345947265625,-0.6696624755859375,-0.0294952392578125
1789061920950264300,8.218264404296875,-0.19964599609375,-0.394378662109375,0.0518341064453125
1789061920960274200,8.228274169921875,-1.932830810546875,0.309814453125,0.2420654296875
1789061920970283000,8.238282958984374,-2.6765899658203125,0.4716339111328125,0.1370849609375
1789061920980293000,8.248293212890625,-1.3513946533203125,-1.00762939453125,-0.225616455078125
1789061920990303000,8.258302978515625,-0.544219970703125,-1.028076171875,-0.274017333984375
1789061921000313000,8.26831298828125,-0.16693115234375,-0.58349609375,-0.212432861328125
1789061921010322200,8.278322265625,-0.6127777099609375,0.18603515625,-0.1222076416015625
1789061921020332000,8.28833203125,-0.7794342041015625,0.023681640625,0.114837646484375
1789061921030342100,8.298342041015625,-0.8949127197265625,-0.5939788818359375,0.0700531005859375
1789061921040351200,8.308351318359374,-1.272491455078125,-0.27545166015625,-0.0022430419921875
1789061921050361000,8.318361083984374,-1.4413909912109375,-0.5097503662109375,-0.180084228515625
1789061921060371200,8.32837109375,-0.881011962890625,-0.38226318359375,-0.0953369140625
1789061921070381000,8.338381103515625,-0.8419189453125,-0.3772125244140625,-0.180389404296875
1789061921080390100,8.34839013671875,-1.0614471435546875,-0.1205596923828125,-0.04449462890625
1789061921090400300,8.358400146484374,-1.402069091796875,0.02264404296875,0.019622802734375
1789061921100410000,8.36841015625,-1.2562103271484375,-0.2419586181640625,-0.0360107421875
1789061921110420200,8.378420166015625,-0.621734619140625,-0.5928497314453125,-0.149627685546875
1789061921120429000,8.388428955078124,-0.6193695068359375,-0.4691162109375,-0.223114013671875
1789061921130439200,8.398439208984374,-1.0218658447265625,-0.2055511474609375,-0.075927734375
1789061921140449000,8.408448974609374,-1.3344879150390625,0.085906982421875,0.019500732421875
1789061921150458000,8.4184580078125,-1.0975494384765625,-0.401123046875,-0.06280517578125
1789061921160468200,8.42846826171875,-0.7790069580078125,-0.43426513671875,-0.1733856201171875
1789061921170478000,8.43847802734375,-0.641265869140625,-0.5251922607421875,-0.1591033935546875
1789061921180488200,8.44848828125,-0.8039093017578125,-0.200042724609375,-0.051727294921875
1789061921190497300,8.458497314453124,-1.05560302734375,-0.0984954833984375,-0.046600341796875
1789061921200507100,8.468507080078124,-0.9965972900390625,-0.1990966796875,-0.0253753662109375
1789061921210517200,8.478517333984374,-0.6922149658203125,-0.833953857421875,-0.087554931640625
1789061921220527000,8.488527099609374,-0.906951904296875,-0.659088134765625,0.0752105712890625
1789061921230536200,8.4985361328125,-1.0028228759765625,-0.189849853515625,-0.008636474609375
1789061921240546300,8.50854638671875,-0.574859619140625,-0.1936187744140625,-0.1435699462890625
1789061921250556200,8.51855615234375,-0.57635498046875,-0.26513671875,-0.0834808349609375
1789061921260565000,8.52856494140625,-1.4124603271484375,0.2409210205078125,0.0064697265625
1789061921270575000,8.5385751953125,-1.2227783203125,-0.548553466796875,0.057952880859375
1789061921280585000,8.5485849609375,-0.611541748046875,-0.976104736328125,-0.0214996337890625
1789061921290594600,8.558594482421874,-0.6695556640625,-0.9172821044921875,-0.2665863037109375
1789061921300603600,8.568603759765624,-0.9540252685546875,-0.0045318603515625,-0.15185546875
1789061921310613800,8.57861376953125,-1.3581695556640625,0.213104248046875,-0.0697021484375
1789061921320623600,8.58862353515625,-1.0146026611328125,-0.330474853515625,0.074462890625
1789061921330633700,8.5986337890625,-0.8142547607421875,-0.697113037109375,-0.0464324951171875
1789061921340642800,8.608642822265624,-0.8863983154296875,-0.4983062744140625,-0.2023162841796875
1789061921350652700,8.618652587890624,-0.9792327880859375,-0.19970703125,-0.096588134765625
1789061921360662800,8.628662841796874,-1.267059326171875,0.083709716796875,0.01153564453125
1789061921370671600,8.638671630859376,-0.7995758056640625,-0.5281829833984375,-0.0341033935546875
1789061921380681500,8.648681396484376,-0.6352386474609375,-0.560272216796875,-0.133819580078125
1789061921390691600,8.658691650390624,-0.717529296875,-0.5140380859375,-0.043853759765625
1789061921400701400,8.668701416015624,-0.9160308837890625,-0.153106689453125,0.066497802734375
1789061921410710500,8.67871044921875,-1.0761566162109375,-0.209930419921875,-0.0420074462890625
1789061921420720600,8.688720703125,-1.0132904052734375,-0.5576934814453125,-0.1330413818359375
1789061921430730500,8.69873046875,-1.4642181396484375,-0.223663330078125,-0.0498504638671875
1789061921440740600,8.70874072265625,-0.74481201171875,-0.5738525390625,-0.0675201416015625
1789061921450749700,8.718749755859376,-0.9955291748046875,-0.030303955078125,0.0355682373046875
1789061921460759600,8.728759521484376,-1.5824432373046875,-0.0855712890625,0.0303192138671875
1789061921470769700,8.738769775390624,-1.2864990234375,-0.154266357421875,0.033233642578125
1789061921480778800,8.74877880859375,-0.389373779296875,-0.734130859375,-0.2366790771484375
1789061921490788600,8.75878857421875,-0.1314697265625,-0.5377349853515625,-0.107940673828125
1789061921500798700,8.768798828125,-0.7129058837890625,0.0628662109375,0.0780487060546875
1789061921510808800,8.778808837890624,-0.9276123046875,-0.175994873046875,0.059112548828125
1789061921520817400,8.7888173828125,-1.5909881591796875,-0.1968841552734375,-0.146942138671875
1789061921530827500,8.79882763671875,-1.5572357177734375,-0.4708251953125,0.0291748046875
1789061921540837600,8.808837646484376,-1.1248626708984375,-0.2911224365234375,-0.0185394287109375
1789061921550847500,8.818847412109376,-0.650634765625,-0.133056640625,-0.1511383056640625
1789061921560856600,8.828856689453126,-0.398681640625,-0.02392578125,-0.102508544921875
1789061921570866700,8.83886669921875,-0.31903076171875,-0.498565673828125,-0.1055908203125
1789061921580876500,8.84887646484375,-0.4859161376953125,-0.7052764892578125,-0.0551605224609375
1789061921590885600,8.8588857421875,-0.477996826171875,-0.5677337646484375,-0.037872314453125
1789061921600895700,8.868895751953126,-0.7793731689453125,-0.07769775390625,-0.0595703125
1789061921610905600,8.878905517578126,-2.0025787353515625,0.5290679931640625,0.1996612548828125
1789061921620915700,8.888915771484376,-2.5611724853515625,0.0225372314453125,0.005218505859375
1789061921630924800,8.8989248046875,-0.94598388671875,-1.0430450439453125,-0.298919677734375
1789061921640934700,8.9089345703125,0.4773712158203125,-1.3365936279296875,-0.13604736328125
1789061921650944800,8.91894482421875,-0.1900177001953125,-0.1621551513671875,0.074371337890625
1789061921660954600,8.92895458984375,-1.306304931640625,0.76861572265625,0.05706787109375
1789061921670963500,8.93896337890625,-1.4544525146484375,-0.1454315185546875,0.0027618408203125
1789061921680973600,8.9489736328125,-1.4579315185546875,-0.8652191162109375,0.00177001953125
1789061921690983400,8.9589833984375,-1.7996826171875,-0.631500244140625,0.1100311279296875
1789061921700992500,8.968992431640626,-1.2877655029296875,-0.06878662109375,0.0589599609375
1789061921711002600,8.979002685546876,-0.4276885986328125,-0.22052001953125,-0.022369384765625
1789061921721012500,8.989012451171876,-0.6687774658203125,-0.276763916015625,-0.1257171630859375
1789061921731022600,8.999022705078126,-0.811370849609375,-0.5850982666015625,-0.278076171875
1789061921741031700,9.00903173828125,-0.63409423828125,-0.62103271484375,0.0554962158203125
1789061921751041500,9.01904150390625,-0.2566375732421875,-0.540771484375,0.11798095703125
1789061921761051600,9.0290517578125,-0.4215087890625,0.01922607421875,-0.1244049072265625
1789061921771060700,9.039060791015626,-1.266998291015625,-0.207489013671875,-0.085723876953125
1789061921781070600,9.049070556640626,-2.3646392822265625,0.0675811767578125,-0.1757659912109375
1789061921791080700,9.059080810546876,-1.6581878662109375,-0.4880523681640625,-0.2219390869140625
1789061921801090800,9.0690908203125,-0.493896484375,-0.3119659423828125,-0.1365203857421875
1789061921811099600,9.079099609375,-0.244293212890625,-0.1800689697265625,-0.0994415283203125
1789061921821109500,9.089109619140626,-0.267730712890625,-0.3295440673828125,0.1288909912109375
1789061921831119600,9.09911962890625,-0.4439239501953125,-0.1761627197265625,-0.0588531494140625
1789061921841129500,9.10912939453125,-1.152923583984375,-0.393707275390625,-0.1505889892578125
1789061921851138600,9.119138671875,-2.165283203125,-0.0594024658203125,0.1309814453125
1789061921861148700,9.129148681640626,-1.5886688232421875,-0.2638397216796875,0.115509033203125
1789061921871158500,9.139158447265626,-0.8052825927734375,-0.4434661865234375,-0.157684326171875
1789061921881167600,9.149167724609375,-0.3487548828125,-0.3737945556640625,-0.062408447265625
1789061921891177700,9.159177734375,-0.4150390625,-0.4474334716796875,-0.05169677734375
1789061921901187600,9.1691875,-0.95318603515625,0.1034698486328125,0.019287109375
1789061921911197700,9.17919775390625,-1.104766845703125,-0.1627044677734375,0.02301025390625
1789061921921206800,9.189206787109375,-1.11297607421875,-0.074005126953125,0.0323944091796875
1789061921931216600,9.199216552734375,-0.76055908203125,-0.94671630859375,-0.13818359375
1789061921941226800,9.209226806640626,-0.8683624267578125,-0.7225341796875,-0.1708984375
1789061921951236600,9.219236572265626,-1.43743896484375,-0.0291900634765625,-0.10205078125
1789061921961245400,9.229245361328125,-1.09051513671875,0.22637939453125,-0.2018280029296875
1789061921971255600,9.239255615234375,-0.2286224365234375,-0.9561767578125,-0.213409423828125
1789061921981265700,9.249265625,-0.335479736328125,-0.6620635986328125,-0.084930419921875
1789061921991274500,9.2592744140625,-0.7905731201171875,-0.7666473388671875,-0.1648712158203125
1789061922001284600,9.26928466796875,-1.343414306640625,-0.2441558837890625,0.132080078125
1789061922011294700,9.279294677734375,-1.3976898193359375,-0.35321044921875,0.29266357421875
1789061922021304600,9.2893046875,-1.811004638671875,-0.1371612548828125,-0.126556396484375
1789061922031313700,9.299313720703125,-1.143585205078125,-0.166778564453125,-0.36181640625
1789061922041323800,9.30932373046875,-0.5927276611328125,-0.692535400390625,-0.38153076171875
1789061922051333600,9.319333740234375,-0.2138824462890625,-0.7450103759765625,-0.125457763671875
1789061922061343700,9.32934375,-0.5088653564453125,-0.1155853271484375,0.0016937255859375
1789061922072605700,9.340605712890625,-1.0886077880859375,0.3619537353515625,0.032989501953125
1789061922083240400,9.351240478515624,-1.3012847900390625,0.022552490234375,0.160675048828125
1789061922093249500,9.36124951171875,-1.3822479248046875,-0.626678466796875,-0.264862060546875
1789061922103259600,9.371259765625,-0.879364013671875,-0.6430511474609375,-0.37994384765625
1789061922113269500,9.38126953125,-0.984710693359375,-0.1499481201171875,-0.35540771484375
1789061922123279600,9.391279541015624,-0.858428955078125,0.1522369384765625,-0.03912353515625
1789061922133288700,9.401288818359374,-0.5973052978515625,-0.2722930908203125,-0.112274169921875
1789061922143298600,9.411298583984374,-0.7677001953125,-0.2419586181640625,-0.1976776123046875
1789061922153308700,9.42130859375,-0.7799530029296875,-0.2729949951171875,-0.0630950927734375
1789061922163317800,9.43131787109375,-0.7403564453125,-0.6851043701171875,-0.0218963623046875
1789061922173327600,9.44132763671875,-1.8489837646484375,-0.0122833251953125,0.0881805419921875
1789061922183337700,9.451337646484374,-1.9460601806640625,0.0654754638671875,0.13128662109375
1789061922193347600,9.46134765625,-1.04937744140625,-0.5947265625,-0.2100982666015625
1789061922203356700,9.471356689453126,0.0264892578125,-0.9262847900390625,-0.3038330078125
1789061922213366500,9.481366455078126,-0.03961181640625,-0.319366455078125,-0.1167144775390625
1789061922223376600,9.491376708984374,-0.54486083984375,0.13238525390625,0.216766357421875
1789061922233385500,9.501385498046876,-1.256317138671875,0.1049041748046875,0.0830841064453125
1789061922243395600,9.5113955078125,-1.7325439453125,-0.15606689453125,0.0641937255859375
1789061922253405700,9.52140576171875,-1.6622772216796875,-0.602508544921875,-0.134765625
1789061922263415600,9.53141552734375,-1.387664794921875,-0.449920654296875,-0.1980743408203125
1789061922273424600,9.541424560546876,-0.74835205078125,-0.2863922119140625,-0.2285919189453125
1789061922283434800,9.551434814453126,-0.4749755859375,-0.3360595703125,-0.210784912109375
1789061922293444400,9.5614443359375,-0.7437896728515625,-0.0843048095703125,0.0407562255859375
1789061922303454500,9.571454345703126,-1.17755126953125,0.0074310302734375,0.09320068359375
1789061922313463600,9.581463623046876,-1.0894775390625,-0.488372802734375,-0.034210205078125
1789061922323473400,9.591473388671876,-0.8041534423828125,-0.5566558837890625,-0.1579742431640625
1789061922333483300,9.601483154296876,-0.6118621826171875,-0.7279510498046875,-0.1344451904296875
1789061922343492400,9.611492431640626,-0.9503021240234375,-0.2421875,0.0198974609375
1789061922353502200,9.621502197265626,-1.5361785888671875,0.12420654296875,-0.0038909912109375
1789061922363512300,9.63151220703125,-1.5677490234375,-0.181427001953125,-0.028839111328125
1789061922373522200,9.641522216796876,-1.123931884765625,-0.4107666015625,-0.0760650634765625
1789061922383531300,9.65153125,-0.36688232421875,-0.7010650634765625,-0.2190704345703125
1789061922393541400,9.661541259765626,-0.24774169921875,-0.357208251953125,-0.1429443359375
1789061922404176100,9.672176025390625,-0.8337554931640625,-0.0143280029296875,-0.0082244873046875
1789061922414186200,9.682186279296875,-0.8186187744140625,-0.482269287109375,-0.089141845703125
1789061922424196400,9.6921962890625,-0.719146728515625,-0.542633056640625,-0.200103759765625
1789061922434205200,9.702205078125,-1.0286865234375,-0.4462738037109375,-0.08782958984375
1789061922444215300,9.71221533203125,-1.8723602294921875,0.28704833984375,0.0625152587890625
1789061922454225400,9.722225341796875,-1.576080322265625,0.0733489990234375,-0.0483551025390625
1789061922464235300,9.7322353515625,-1.50836181640625,-0.4171600341796875,-0.302947998046875
1789061922474244400,9.742244384765625,-0.5673980712890625,-0.5957794189453125,-0.1199798583984375
1789061922484254500,9.75225439453125,0.097412109375,-0.76947021484375,-0.19061279296875
1789061922494264300,9.762264404296875,0.4533233642578125,-0.96246337890625,-0.0140838623046875
1789061922504274400,9.7722744140625,-0.0976715087890625,-0.3167572021484375,-0.005584716796875
1789061922514283500,9.782283447265625,-0.8439178466796875,-0.171142578125,0.0651702880859375
1789061922524293400,9.79229345703125,-2.0122833251953125,0.357452392578125,-0.0230255126953125
1789061922534303500,9.802303466796875,-1.547943115234375,-0.3720245361328125,-0.1546630859375
1789061922544312300,9.812312255859375,-1.6482696533203125,-0.410552978515625,-0.230194091796875
1789061922554322200,9.822322265625,-0.585845947265625,-0.7169647216796875,-0.238983154296875
1789061922564332300,9.832332275390625,0.031646728515625,-0.7401885986328125,-0.2497100830078125
1789061922574342100,9.842342041015625,0.08660888671875,-0.4572601318359375,-0.1019744873046875
1789061922584351200,9.852351318359375,-1.2287445068359375,0.1949310302734375,0.22747802734375
1789061922594361300,9.862361328125,-2.6287994384765625,0.30548095703125,0.07269287109375
1789061922604371200,9.87237109375,-1.8063507080078125,-0.87158203125,-0.1929168701171875
1789061922614381300,9.88238134765625,-1.134063720703125,-1.089111328125,-0.3960113525390625
1789061922624390400,9.892390380859375,-0.9503326416015625,-0.293182373046875,-0.226043701171875
1789061922634400300,9.902400146484375,-0.3509674072265625,-0.041107177734375,-0.0325927734375
1789061922644410400,9.912410400390625,-0.126922607421875,-0.1638641357421875,-0.0674285888671875
1789061922654420500,9.92242041015625,0.132232666015625,-0.8813018798828125,-0.118682861328125
1789061922664429300,9.93242919921875,0.0836944580078125,-0.7768707275390625,-0.046295166015625
1789061922674439400,9.942439453125,-1.0945892333984375,0.00933837890625,0.0788421630859375
1789061922684449500,9.952449462890625,-2.61090087890625,0.5053558349609375,-0.0759735107421875
1789061922694458400,9.962458251953125,-2.6920928955078125,-0.0761871337890625,-0.2249755859375
1789061922704468200,9.97246826171875,-1.597625732421875,-0.5631561279296875,-0.2705078125
1789061922714478300,9.982478271484375,-0.09161376953125,-0.789154052734375,-0.0064544677734375
1789061922724488200,9.99248828125,-0.067596435546875,-0.08319091796875,-0.0052947998046875
1789061922734497300,10.002497314453125,-0.6065826416015625,0.15399169921875,0.0799713134765625
1789061922744507400,10.01250732421875,-1.2621612548828125,0.1580963134765625,0.084136962890625
1789061922754517200,10.022517333984375,-1.1259765625,-0.656280517578125,-0.071624755859375
1789061922764527400,10.03252734375,-0.832733154296875,-0.9496002197265625,-0.1618499755859375
1789061922774536400,10.042536376953125,-0.540130615234375,-0.7056121826171875,-0.035308837890625
1789061922784546300,10.05254638671875,-0.88629150390625,-0.282867431640625,-0.0115966796875
1789061922794556400,10.062556396484375,-1.2113037109375,0.14984130859375,-0.00238037109375
1789061922804565500,10.0725654296875,-0.987091064453125,-0.4271392822265625,0.10186767578125
1789061922814575400,10.082575439453125,-1.483428955078125,0.39501953125,0.1931304931640625
1789061922824585500,10.09258544921875,-1.6259918212890625,-0.0501861572265625,0.1160125732421875
1789061922834595300,10.10259521484375,-1.460906982421875,0.0200347900390625,0.0030059814453125
1789061922844604200,10.112604248046875,-0.2564697265625,-0.942138671875,-0.02557373046875
1789061922854614300,10.1226142578125,0.18170166015625,-0.8692779541015625,-0.1386566162109375
1789061922864624400,10.132624267578125,-0.2491455078125,-0.628326416015625,0.08941650390625
1789061922874634200,10.14263427734375,-1.392181396484375,0.3064117431640625,0.081024169921875
1789061922884643300,10.152643310546875,-1.2769927978515625,-0.0682220458984375,-0.003570556640625
1789061922894653400,10.1626533203125,-0.8499298095703125,-0.3171539306640625,0.0802764892578125
1789061922904663300,10.172663330078125,-0.1428375244140625,-1.3178558349609375,0.14483642578125
1789061922914672400,10.18267236328125,-0.587493896484375,-0.754852294921875,-0.0414581298828125
1789061922924682500,10.1926826171875,-1.0219573974609375,-0.17852783203125,-0.0490875244140625
1789061922934692400,10.2026923828125,-1.8183441162109375,-0.0569610595703125,-0.105682373046875
1789061922944702500,10.212702392578125,-2.69073486328125,0.2607421875,-0.0250244140625
1789061922954711600,10.222711669921875,-1.85400390625,-0.2972564697265625,0.070587158203125
1789061922964721400,10.232721435546875,-0.757293701171875,-0.2850189208984375,0.003814697265625
1789061922974731500,10.2427314453125,0.1128082275390625,0.000335693359375,-0.09942626953125
1789061922984741400,10.252741455078125,1.183868408203125,-0.8543853759765625,-0.2314910888671875
1789061922994750200,10.262750244140625,0.32562255859375,-0.1366729736328125,0.0772705078125
1789061923004760300,10.27276025390625,-1.47265625,-0.3143463134765625,0.0410919189453125
1789061923014770200,10.282770263671875,-2.423431396484375,-0.5073089599609375,-0.21905517578125
1789061923024780300,10.2927802734375,-1.844573974609375,-0.7783355712890625,0.000335693359375
1789061923034789400,10.302789306640625,-0.976837158203125,-0.6176910400390625,-0.1295166015625
1789061923044799200,10.31279931640625,-0.3961639404296875,-0.0381622314453125,-0.0321044921875
1789061923054809300,10.322809326171875,-0.5358734130859375,0.0064849853515625,-0.047943115234375
1789061923064818400,10.332818359375,-0.40728759765625,-0.6515655517578125,0.0755157470703125
1789061923074828300,10.342828369140625,-0.3019561767578125,-0.6365203857421875,-0.073089599609375
1789061923084838400,10.35283837890625,-1.1615753173828125,0.031341552734375,0.177520751953125
1789061923094848500,10.3628486328125,-1.9729461669921875,0.6762542724609375,0.1821136474609375
1789061923104857300,10.372857421875,-1.695068359375,-0.3373260498046875,-0.0070037841796875
1789061923114867500,10.382867431640625,-1.1611480712890625,-0.936553955078125,-0.302703857421875
1789061923124877600,10.392877685546875,-0.9299163818359375,-0.6003570556640625,-0.1790924072265625
1789061923134887200,10.40288720703125,-0.4014892578125,-0.360198974609375,-0.0327606201171875
1789061923144896300,10.412896240234375,-0.24627685546875,-0.4914398193359375,0.027313232421875
1789061923154906400,10.42290625,-1.0832366943359375,-0.177093505859375,-0.0491180419921875
1789061923164916200,10.432916259765625,-1.60302734375,-0.1599884033203125,-0.1095428466796875
1789061923174925300,10.44292529296875,-1.484954833984375,-0.14971923828125,-0.13006591796875
1789061923184935400,10.452935302734375,-0.517425537109375,-0.4699554443359375,0.0224609375
1789061923194945300,10.4629453125,-0.7749786376953125,-0.1639556884765625,-0.090911865234375
1789061923204955400,10.472955322265625,-0.8524932861328125,-0.243621826171875,-0.154937744140625
1789061923214964500,10.482964599609375,-0.9150543212890625,-0.269927978515625,-0.1200714111328125
1789061923224974300,10.492974365234375,-0.8174285888671875,-0.380828857421875,-0.014984130859375
1789061923234984400,10.502984375,-1.242431640625,0.085723876953125,-0.008636474609375
1789061923244994300,10.512994384765625,-1.0492706298828125,-0.4150543212890625,-0.102752685546875
1789061923255003400,10.52300341796875,-0.661590576171875,-0.8630828857421875,-0.0642547607421875
1789061923265013200,10.53301318359375,-0.730194091796875,-0.994537353515625,-0.0421905517578125
1789061923275023000,10.543023193359375,-1.35980224609375,-0.1840972900390625,-0.03973388671875
1789061923285033200,10.553033203125,-0.88525390625,-0.1181488037109375,-0.100311279296875
1789061923295042300,10.563042236328124,-0.8034210205078125,-0.029205322265625,-0.09967041015625
1789061923305052200,10.57305224609375,-0.643524169921875,-0.122650146484375,0.028411865234375
1789061923315062300,10.583062255859375,-0.6458892822265625,-0.492431640625,-0.028350830078125
1789061923325071000,10.593071044921874,-0.8137054443359375,-0.5281219482421875,-0.0484771728515625
1789061923335081200,10.603081298828124,-0.7644805908203125,-0.6302642822265625,-0.1442718505859375
1789061923345091000,10.613091064453124,-1.2089080810546875,0.1418609619140625,-0.0733489990234375
1789061923355101200,10.62310107421875,-0.79473876953125,-0.282806396484375,-0.0375213623046875
1789061923365110300,10.6331103515625,-1.04510498046875,-0.319732666015625,-0.1413726806640625
1789061923375120100,10.6431201171875,-0.9004974365234375,-0.7324371337890625,-0.037689208984375
1789061923385130200,10.653130126953124,-1.1183319091796875,-0.1200408935546875,0.0786895751953125
1789061923395140000,10.66314013671875,-1.344329833984375,-0.0705413818359375,0.0047607421875
1789061923405149200,10.673149169921874,-0.984649658203125,-0.346954345703125,0.1055145263671875
1789061923415159300,10.6831591796875,-1.247650146484375,-0.46331787109375,-0.0759124755859375
1789061923425169200,10.693169189453124,-0.863525390625,-1.07110595703125,-0.1792755126953125
1789061923435178200,10.70317822265625,-0.983306884765625,-0.3490142822265625,-0.029388427734375
1789061923445188400,10.713188232421874,-0.97900390625,-0.2221221923828125,0.033172607421875
1789061923455198200,10.7231982421875,-1.27886962890625,0.2178192138671875,-0.0711212158203125
1789061923465208300,10.733208251953124,-0.7857818603515625,-0.4936981201171875,-0.1112060546875
1789061923475217200,10.743217041015624,-0.8245086669921875,-0.6490020751953125,-0.0530548095703125
1789061923485227000,10.75322705078125,-0.7020263671875,-0.6254119873046875,-0.0149078369140625
1789061923495237000,10.763237060546874,-0.56011962890625,0.0293731689453125,-0.052337646484375
1789061923505247200,10.773247314453124,-0.4482879638671875,-0.1618499755859375,-0.1318359375
1789061923515256000,10.783256103515624,-0.853485107421875,-0.329193115234375,-0.120513916015625
1789061923525266200,10.79326611328125,-1.2549591064453125,-0.3589935302734375,-0.0762481689453125
1789061923535276300,10.8032763671875,-0.9329681396484375,-0.40625,-0.1166229248046875
1789061923545286100,10.8132861328125,-0.5026092529296875,-0.2671966552734375,-0.090576171875
1789061923555295200,10.823295166015624,-0.4507293701171875,-0.272705078125,-0.1090850830078125
1789061923565305300,10.833305419921874,-1.15625,0.24725341796875,-0.0164337158203125
1789061923575315200,10.843315185546874,-2.44952392578125,0.2039642333984375,0.13262939453125
1789061923585324300,10.85332421875,-2.133544921875,-0.35302734375,0.2201385498046875
1789061923595334400,10.86333447265625,-0.9772796630859375,-0.719940185546875,-0.1677703857421875
1789061923605344300,10.87334423828125,-0.056396484375,-0.66412353515625,-0.3329315185546875
1789061923615354400,10.883354248046874,0.29339599609375,-0.220611572265625,-0.0464630126953125
1789061923625363200,10.89336328125,-0.0298919677734375,-0.24322509765625,0.109222412109375
1789061923635373000,10.903373046875,-1.3536834716796875,0.18157958984375,0.2561798095703125
1789061923645383200,10.913383056640624,-2.6139068603515625,0.1067352294921875,0.13330078125
1789061923655393000,10.92339306640625,-2.291717529296875,-0.407440185546875,-0.075836181640625
1789061923665402000,10.933402099609374,-0.69952392578125,-0.857666015625,-0.2378997802734375
1789061923675412200,10.943412109375,-0.0894622802734375,-0.5613861083984375,-0.1927337646484375
1789061923685422000,10.953422119140624,-0.0305023193359375,-0.2784271240234375,-0.0619964599609375
1789061923695432200,10.96343212890625,-0.676544189453125,-0.043609619140625,0.062103271484375
1789061923705441300,10.973441162109374,-0.8240509033203125,-0.71234130859375,0.0471343994140625
1789061923715451100,10.983451171875,-1.1022491455078125,-0.513427734375,-0.07568359375
1789061923725461200,10.993461181640624,-1.01861572265625,-0.694244384765625,-0.124481201171875
1789061923735470300,11.00347021484375,-0.931304931640625,-0.22900390625,-0.1762847900390625
1789061923745480200,11.013480224609374,-0.8519134521484375,-0.134521484375,-0.1456298828125
1789061923755490300,11.023490234375,-0.8017578125,-0.3157806396484375,-0.097320556640625
1789061923765500400,11.03350048828125,-0.816802978515625,-0.44720458984375,-0.05792236328125
1789061923775509000,11.043509033203126,-1.401519775390625,-0.1729278564453125,-0.001861572265625
1789061923785519000,11.05351904296875,-1.5263824462890625,-0.1527252197265625,0.00091552734375
1789061923795529200,11.063529296875,-1.3328399658203125,-0.232635498046875,-0.1064605712890625
1789061923805539000,11.0735390625,-0.5559844970703125,-0.374359130859375,-0.154052734375
1789061923815548200,11.083548095703126,-0.292327880859375,-0.397491455078125,-0.2036285400390625
1789061923825558300,11.093558349609374,-0.810577392578125,0.05908203125,0.029541015625
1789061923835568000,11.103568115234374,-0.956146240234375,-0.239044189453125,-0.0061798095703125
1789061923845577200,11.1135771484375,-0.69708251953125,-0.6121978759765625,-0.04638671875
1789061923855587300,11.12358740234375,-1.477142333984375,-0.0431976318359375,-0.0121002197265625
1789061923865597200,11.13359716796875,-2.110687255859375,0.209442138671875,0.0876007080078125
1789061923875607300,11.143607177734374,-0.86212158203125,-0.4559326171875,-0.04248046875
1789061923885616400,11.153616455078126,-0.10809326171875,-1.1007080078125,-0.2873687744140625
1789061923895626200,11.163626220703126,-0.1695709228515625,-1.24456787109375,-0.151702880859375
1789061923905636400,11.17363623046875,-0.8553466796875,-0.2535247802734375,0.0986175537109375
1789061923915646200,11.183646240234374,-1.6580963134765625,0.31512451171875,-0.00677490234375
1789061923925655000,11.193655029296876,-2.0420989990234375,0.2906494140625,0.026123046875
1789061923935665200,11.2036650390625,-0.9329681396484375,-0.6050262451171875,-0.1491851806640625
1789061923945675000,11.213675048828126,0.0792083740234375,-1.300262451171875,-0.292724609375
1789061923955685000,11.22368505859375,0.3287811279296875,-0.9378662109375,-0.1173858642578125
1789061923965694200,11.233694091796876,-0.59417724609375,-0.178131103515625,0.053131103515625
1789061923975704300,11.243704345703126,-2.154449462890625,0.6593780517578125,0.08831787109375
1789061923985714200,11.253714111328126,-2.1867523193359375,-0.365325927734375,-0.0606536865234375
1789061923995723300,11.26372314453125,-1.2644195556640625,-0.6871337890625,-0.204833984375
1789061924005733400,11.2737333984375,-0.2155914306640625,-0.9669189453125,-0.16778564453125
1789061924015743200,11.2837431640625,-0.013580322265625,-0.1641998291015625,-0.0643157958984375
1789061924025753300,11.29375341796875,-0.426055908203125,0.1707763671875,-0.009521484375
1789061924035762400,11.303762451171876,-0.930633544921875,-0.0324249267578125,-0.0375518798828125
1789061924045772300,11.313772216796876,-1.12103271484375,-0.33721923828125,-0.069000244140625
1789061924055782400,11.323782470703126,-1.049713134765625,-0.5756378173828125,0.010650634765625
1789061924065792300,11.333792236328126,-1.162017822265625,-0.2038421630859375,0.020294189453125
1789061924075801000,11.343801025390626,-0.89263916015625,-0.149505615234375,-0.0269775390625
1789061924085811200,11.353811279296876,-0.9258880615234375,-0.341705322265625,-0.06854248046875
1789061924095821000,11.363821044921876,-1.3579559326171875,-0.2977294921875,0.051605224609375
1789061924105831200,11.3738310546875,-1.480010986328125,-0.606719970703125,0.024810791015625
1789061924115840300,11.38384033203125,-1.4510345458984375,-0.0567474365234375,0.0651702880859375
1789061924125850000,11.39385009765625,-0.96112060546875,-0.2785491943359375,-0.010223388671875
1789061924135860200,11.403860107421876,-0.680816650390625,-0.2060699462890625,-0.018951416015625
1789061924145869300,11.413869384765626,-0.56549072265625,-0.549591064453125,-0.0986480712890625
1789061924155879200,11.423879150390626,-0.4332122802734375,-0.510650634765625,-0.0912628173828125
1789061924165889300,11.43388916015625,-0.3946380615234375,-0.9072723388671875,-0.0351104736328125
1789061924175899400,11.4438994140625,-1.03594970703125,-0.4549407958984375,0.05914306640625
1789061924185908200,11.453908203125,-1.88214111328125,0.068328857421875,-0.0565032958984375
1789061924195918300,11.46391845703125,-1.1524200439453125,-0.3941802978515625,-0.139190673828125
1789061924205928400,11.473928466796876,-0.4419097900390625,-0.516571044921875,-0.1515655517578125
1789061924215938000,11.48393798828125,-0.0724029541015625,-0.51373291015625,-0.1674346923828125
1789061924225947100,11.493947021484376,-0.5599365234375,-0.030426025390625,0.0106048583984375
1789061924235957200,11.503957275390626,-1.2524261474609375,-0.0650634765625,0.0380706787109375
1789061924245967000,11.513967041015626,-1.303741455078125,-0.4632415771484375,-0.167510986328125
1789061924255977200,11.523977294921876,-1.4973602294921875,-0.304473876953125,-0.21136474609375
1789061924265986300,11.533986328125,-1.196380615234375,0.1559906005859375,0.0460205078125
1789061924275996200,11.54399609375,-0.4081573486328125,-0.319305419921875,-0.08843994140625
1789061924286006300,11.55400634765625,0.07769775390625,-0.744964599609375,-0.249847412109375
1789061924296015000,11.56401513671875,-0.9603118896484375,-0.3917083740234375,-0.0413360595703125
1789061924306025000,11.57402490234375,-2.1176605224609375,0.1063690185546875,0.060546875
1789061924316035000,11.58403515625,-1.84942626953125,-0.0474700927734375,0.1254730224609375
1789061924326045000,11.594044921875,-0.6508636474609375,-0.581756591796875,-0.1281280517578125
1789061924336053800,11.6040537109375,0.2652435302734375,-0.786529541015625,-0.17388916015625
1789061924346064000,11.61406396484375,-0.876129150390625,0.1953125,-0.0057830810546875
1789061924356074000,11.624073974609376,-2.2989044189453125,0.300140380859375,0.1309967041015625
1789061924366083800,11.634083740234376,-1.8949432373046875,-0.27862548828125,0.067047119140625
1789061924376093000,11.644093017578125,-0.69061279296875,-1.006134033203125,-0.2978057861328125
1789061924386103000,11.65410302734375,-0.248931884765625,-0.8613433837890625,-0.2548980712890625
1789061924396113000,11.66411279296875,-0.524017333984375,-0.30279541015625,0.0683135986328125
1789061924406123000,11.674123046875,-0.8692169189453125,-0.16351318359375,0.04937744140625
1789061924416132000,11.684132080078125,-1.0888671875,-0.5987091064453125,-0.2407073974609375
1789061924426142000,11.694141845703125,-1.1604156494140625,-0.6917724609375,-0.1573028564453125
1789061924436152000,11.704152099609376,-1.7852020263671875,-0.2160491943359375,-0.0272369384765625
1789061924446162000,11.714161865234376,-0.922576904296875,-0.2516021728515625,-0.0633392333984375
1789061924456171000,11.7241708984375,-0.6330108642578125,-0.2589874267578125,-0.3125457763671875
1789061924466181000,11.73418115234375,-0.378814697265625,-0.451568603515625,-0.376129150390625
1789061924476191000,11.74419091796875,-0.2545623779296875,-0.5788726806640625,-0.256317138671875
1789061924486199800,11.75419970703125,-0.136871337890625,-0.317291259765625,-0.0679779052734375
1789061924496210000,11.7642099609375,-0.8867645263671875,-0.04803466796875,0.093719482421875
1789061924506219800,11.7742197265625,-2.28692626953125,0.30712890625,0.0745086669921875
1789061924516230000,11.78422998046875,-1.3974609375,-0.360107421875,-0.08905029296875
1789061924526239000,11.794239013671875,-0.021453857421875,-0.868682861328125,-0.3898162841796875
1789061924536248800,11.804248779296875,0.059722900390625,-0.5948028564453125,-0.2034912109375
1789061924546259000,11.814259033203125,-0.87738037109375,0.30706787109375,0.1780242919921875
1789061924556269000,11.82426904296875,-1.95001220703125,0.2097015380859375,0.0469207763671875
1789061924566278000,11.83427783203125,-1.967620849609375,-0.546844482421875,-0.088470458984375
1789061924576288000,11.8442880859375,-1.41363525390625,-0.7737579345703125,-0.17254638671875
1789061924586298000,11.854298095703125,-0.5365142822265625,-0.4772186279296875,0.0401153564453125
1789061924596308000,11.864307861328125,-0.1877899169921875,-0.1298065185546875,-0.112823486328125
1789061924606317000,11.874317138671875,-0.1252899169921875,-0.460662841796875,-0.1107025146484375
1789061924616327200,11.8843271484375,-0.909576416015625,-0.4095458984375,-0.1371002197265625
1789061924626337000,11.8943369140625,-1.51788330078125,-0.5729522705078125,-0.0271453857421875
1789061924636345900,11.904345947265625,-1.633392333984375,-0.100494384765625,0.1971435546875
1789061924646356000,11.91435595703125,-0.61529541015625,-0.8487701416015625,0.0175933837890625
1789061924656365800,11.92436572265625,-0.88836669921875,-0.36578369140625,-0.470977783203125
1789061924666376000,11.9343759765625,-1.88055419921875,-0.3408660888671875,-0.128265380859375
1789061924676385000,11.944385009765625,-1.7687530517578125,-0.0856170654296875,0.10223388671875
1789061924686395000,11.954394775390625,-1.554779052734375,-0.212127685546875,-0.5663604736328125
1789061924696405000,11.964405029296875,-0.018829345703125,-0.9764556884765625,-0.7302703857421875
1789061924706414800,11.974414794921875,0.4647674560546875,-0.6085357666015625,-0.2947998046875
1789061924716424000,11.984423828125,-0.0211334228515625,-0.36474609375,0.459686279296875
1789061924726434000,11.99443408203125,-0.8722686767578125,-0.1661224365234375,0.5642242431640625
1789061924736444000,12.00444384765625,-1.529083251953125,-0.1482086181640625,0.2534027099609375
1789061924746454000,12.0144541015625,-1.6827239990234375,-0.1847991943359375,-0.2230682373046875
1789061924756463000,12.024463134765625,-1.2824554443359375,-0.3403778076171875,-0.291595458984375
1789061924766473000,12.034472900390625,-0.6424102783203125,-0.081329345703125,-0.149383544921875
1789061924776483000,12.044483154296875,-0.2613067626953125,-0.33685302734375,-0.267669677734375
1789061924786493200,12.0544931640625,-0.528564453125,0.0851593017578125,-0.0956878662109375
1789061924796501800,12.064501708984375,-0.5319976806640625,-0.425689697265625,0.2578582763671875
1789061924806511900,12.074511962890625,-0.90338134765625,-0.3069000244140625,0.0655364990234375
1789061924816522000,12.08452197265625,-1.15789794921875,-0.4890289306640625,-0.0553741455078125
1789061924826530800,12.09453076171875,-1.63629150390625,-0.0119476318359375,-0.0289306640625
1789061924836541000,12.104541015625,-1.41900634765625,-0.1438140869140625,-0.1651153564453125
1789061924846551000,12.114551025390625,-0.8525238037109375,-0.46173095703125,-0.220245361328125
1789061924856561000,12.124560791015625,-0.401702880859375,-0.7147674560546875,-0.105804443359375
1789061924866570000,12.134570068359375,-0.6443328857421875,-0.60418701171875,-0.0303192138671875
1789061924876580000,12.144580078125,-1.1563262939453125,-0.331024169921875,0.0014190673828125
1789061924886590000,12.15458984375,-1.4522552490234375,-0.1048126220703125,-0.0005950927734375
1789061924896600000,12.16460009765625,-1.090911865234375,-0.3209381103515625,-0.082550048828125
1789061924906609200,12.174609130859375,-0.6449432373046875,-0.6514739990234375,-0.018585205078125
1789061924916619000,12.184618896484375,-0.7130126953125,-0.409881591796875,0.056243896484375
1789061924926629000,12.194629150390625,-0.71466064453125,-0.4080352783203125,-0.0523834228515625
1789061924936639000,12.204638916015625,-0.8168182373046875,-0.536590576171875,0.070068359375
1789061924946647800,12.214647705078125,-1.3323822021484375,0.1398468017578125,0.1421356201171875
1789061924956658000,12.224657958984375,-1.2652435302734375,-0.279541015625,-0.0959320068359375
1789061924966667800,12.234667724609375,-0.9317779541015625,-0.563232421875,-0.292755126953125
1789061924976676900,12.2446767578125,-0.879669189453125,-0.4485931396484375,-0.3007354736328125
1789061924986687000,12.25468701171875,-0.8641204833984375,-0.6700592041015625,-0.520965576171875
1789061924996696800,12.26469677734375,-1.3194580078125,0.202606201171875,-0.47998046875
1789061925006707000,12.27470703125,-1.25701904296875,0.3014678955078125,-0.1904296875
1789061925016716000,12.284716064453125,-0.7860260009765625,-0.3046875,-0.1826171875
1789061925026726000,12.294725830078125,-0.5291900634765625,-0.490020751953125,-0.223602294921875
1789061925036736000,12.304736083984375,-0.4472808837890625,-0.6314544677734375,-0.0933990478515625
1789061925046746000,12.31474609375,-0.881103515625,-0.172637939453125,0.0349578857421875
1789061925056755000,12.3247548828125,-1.1763153076171875,-0.1643218994140625,0.025665283203125
1789061925066765000,12.33476513671875,-1.4707489013671875,-0.1587982177734375,-0.0353851318359375
1789061925076775200,12.344775146484375,-1.073822021484375,-0.44464111328125,-0.158416748046875
1789061925086785000,12.354784912109375,-0.71453857421875,-0.418212890625,-0.10638427734375
1789061925096793900,12.3647939453125,-0.414093017578125,-0.4425811767578125,0.0178070068359375
1789061925106804000,12.374803955078125,-0.5802459716796875,-0.1786956787109375,0.1349945068359375
1789061925116813800,12.384813720703125,-0.8745574951171875,-0.2721710205078125,0.039154052734375
1789061925126823000,12.394822998046875,-1.171539306640625,-0.47686767578125,-0.042022705078125
1789061925136833000,12.4048330078125,-1.026519775390625,-0.68304443359375,-0.13543701171875
1789061925146843000,12.4148427734375,-1.222900390625,-0.3373565673828125,-0.1106414794921875
1789061925156853000,12.42485302734375,-0.9952545166015625,-0.369964599609375,-0.0292205810546875
1789061925166862000,12.434862060546875,-0.8829345703125,-0.3238677978515625,-0.0668487548828125
1789061925176872000,12.444871826171875,-0.608062744140625,-0.519989013671875,-0.131317138671875
1789061925186882000,12.454882080078125,-0.6650848388671875,-0.505889892578125,-0.2490997314453125
1789061925196892000,12.464891845703125,-0.8305816650390625,-0.248016357421875,-0.1389923095703125
1789061925206901000,12.47490087890625,-0.84130859375,-0.354827880859375,-0.19573974609375
1789061925216911000,12.4849111328125,-1.1029052734375,-0.23992919921875,-0.2922821044921875
1789061925226921000,12.4949208984375,-1.5734405517578125,-0.121734619140625,-0.269073486328125
1789061925236930800,12.504930908203125,-1.4540863037109375,-0.1674041748046875,-0.23980712890625
1789061925246940000,12.51493994140625,-0.7613677978515625,-0.536651611328125,-0.2259063720703125
1789061925256950000,12.524949951171875,-0.5714111328125,-0.5351409912109375,-0.173126220703125
1789061925266960000,12.5349599609375,-0.659698486328125,-0.2315521240234375,-0.0984649658203125
1789061925276970000,12.544969970703125,-0.5529327392578125,-0.3915863037109375,0.0859222412109375
1789061925286979000,12.55497900390625,-0.683929443359375,-0.436676025390625,0.0214691162109375
1789061925296989700,12.56498974609375,-0.871063232421875,-0.500579833984375,-0.0581207275390625
1789061925306999800,12.574999755859375,-1.250274658203125,-0.2213897705078125,-0.007537841796875
1789061925317008400,12.58500830078125,-1.3310089111328125,-0.2427978515625,0.04400634765625
1789061925327018500,12.5950185546875,-1.334869384765625,-0.060791015625,0.1635589599609375
1789061925337028600,12.605028564453125,-1.1212005615234375,-0.291534423828125,0.1508636474609375
1789061925347038500,12.61503857421875,-0.9256591796875,-0.5493316650390625,0.0926513671875
1789061925357047600,12.625047607421875,-0.1909942626953125,-0.80206298828125,0.1387786865234375
1789061925367057700,12.6350576171875,0.7488250732421875,-0.9864959716796875,0.0968475341796875
1789061925377067500,12.645067626953125,-0.355133056640625,0.1314239501953125,0.34527587890625
1789061925387077600,12.65507763671875,-3.9570465087890625,1.5662384033203125,0.0603790283203125
1789061925397086700,12.665086669921875,-4.8426666259765625,0.4112396240234375,0.0008087158203125
1789061925407096600,12.6750966796875,-2.1237640380859375,-1.217010498046875,0.292510986328125
1789061925417106700,12.685106689453125,0.430145263671875,-1.56597900390625,0.1541595458984375
1789061925427116500,12.695116455078125,1.4633636474609375,-0.83184814453125,-0.0927276611328125
1789061925437125600,12.705125732421875,1.3708343505859375,-0.3271331787109375,0.053009033203125
1789061925447135700,12.7151357421875,0.6847076416015625,-0.2232666015625,0.2041168212890625
1789061925457145600,12.7251455078125,-0.67919921875,-0.3324127197265625,-0.240570068359375
1789061925467154400,12.735154541015625,-1.5443267822265625,-0.444580078125,-0.34100341796875
1789061925477164500,12.74516455078125,-1.7993011474609375,-0.341522216796875,-0.1724853515625
1789061925487174400,12.75517431640625,-1.22076416015625,-0.3307342529296875,0.0528564453125
1789061925497184500,12.7651845703125,-0.0701446533203125,-0.547821044921875,0.108306884765625
1789061925507193600,12.775193603515625,0.1292724609375,-0.570556640625,-0.0716705322265625
1789061925517203500,12.785203369140625,-0.3249359130859375,-0.139129638671875,-0.0942535400390625
1789061925527213600,12.795213623046875,-2.7263641357421875,0.80804443359375,-0.076202392578125
1789061925537223700,12.8052236328125,-3.218475341796875,-0.0364837646484375,-0.119415283203125
1789061925547232500,12.815232421875,-1.1906585693359375,-1.1531829833984375,-0.00994873046875
1789061925557242600,12.82524267578125,0.00811767578125,-1.0400238037109375,-0.1508636474609375
1789061925567252700,12.835252685546875,-0.08441162109375,0.01336669921875,-0.0998992919921875
