time,seconds_elapsed,z,y,x
1789061912765450800,0.03345068359375,-0.2082807719707489,-0.0172002911567688,0.00737189594656229
1789061912775459800,0.0434599609375,-0.23866955935955048,0.02117985300719738,0.02804894559085369
1789061912785469700,0.0534697265625,-0.2433583289384842,0.015617309138178825,0.037217408418655396
1789061912795479800,0.063479736328125,-0.23763732612133026,0.0069503178820014,0.0026106967125087976
1789061912805489700,0.07348974609375,-0.21350854635238647,-0.03818999603390694,-0.011423363350331783
1789061912815498800,0.083498779296875,-0.24463210999965668,-0.05453674495220184,-0.032583244144916534
1789061912825508900,0.0935087890625,-0.2329842448234558,-0.09216774255037308,-0.02941674366593361
1789061912835518700,0.103518798828125,-0.26266518235206604,0.05535726621747017,0.04060974344611168
1789061912845527600,0.113527587890625,-0.22916634380817413,-0.020444288849830627,0.004259459674358368
1789061912855537700,0.12353759765625,-0.19681425392627716,-0.054238736629486084,-0.0015574166318401694
1789061912865547800,0.1335478515625,-0.1398492455482483,-0.08629653602838516,-0.0417192168533802
1789061912875556600,0.143556640625,-0.07722528278827667,-0.09821391850709915,-0.045583728700876236
1789061912885566700,0.153566650390625,-0.07987139374017715,-0.12326068431138992,-0.006317550782114267
1789061912895576800,0.163576904296875,-0.11278434097766876,-0.015667909756302834,0.019299928098917007
1789061912905585700,0.173585693359375,-0.1266399621963501,-0.017074057832360268,0.03189428150653839
1789061912915595800,0.183595703125,-0.07942957431077957,-0.08086768537759781,0.01350595522671938
1789061912925606000,0.19360595703125,-0.004975317511707544,-0.10836375504732132,-0.012862268835306168
1789061912935614700,0.20361474609375,0.0005635248962789774,-0.10095378011465073,0.014969095587730408
1789061912945624800,0.213624755859375,0.05392421782016754,-0.1241440549492836,-0.029646042734384537
1789061912955635000,0.223635009765625,0.033009614795446396,-0.0933656319975853,-0.045942991971969604
1789061912965643500,0.2336435546875,0.0017624800093472004,0.011239871382713318,0.0033848776947706938
1789061912975653600,0.243653564453125,0.05295482650399208,-0.0737389326095581,-0.021503960713744164
1789061912985663700,0.253663818359375,0.07763274013996124,0.005617405753582716,0.08288343250751495
1789061912995672600,0.263672607421875,0.10268723219633102,-0.0484255887567997,0.045391716063022614
1789061913005682700,0.2736826171875,0.13403290510177612,-0.058522697538137436,0.013411679305136204
1789061913015692800,0.28369287109375,0.1666073501110077,-0.06870662420988083,-0.0421820729970932
1789061913025702000,0.293701904296875,0.1594620943069458,-0.012301673181355,0.005452822428196669
1789061913035711700,0.303711669921875,0.18707002699375153,-0.08204586803913116,-0.03081676922738552
1789061913045721900,0.313721923828125,0.12859366834163666,0.018316956236958504,0.06282556802034378
1789061913055731700,0.323731689453125,0.17911408841609955,-0.11712822318077087,-0.025018533691763878
1789061913065740800,0.33374072265625,0.17430682480335236,-0.0635499507188797,0.013613812625408173
1789061913075751000,0.3437509765625,0.13524144887924194,0.008538627065718174,0.03659183159470558
1789061913085760800,0.3537607421875,0.07150214910507202,-0.07343240827322006,0.002653839997947216
1789061913095769600,0.36376953125,-0.013234845362603664,-0.08383817225694656,-0.050754524767398834
1789061913105779700,0.37377978515625,-0.05319903790950775,-0.058041200041770935,-0.036176647990942
1789061913115789600,0.38378955078125,-0.017482321709394455,0.029320072382688522,0.006370014976710081
1789061913125798700,0.393798583984375,-0.044978395104408264,-0.13356098532676697,-0.033307623118162155
1789061913135808800,0.403808837890625,-0.0929938554763794,-0.0854850709438324,-0.015301991254091263
1789061913145818600,0.413818603515625,-0.18451125919818878,-0.10787586867809296,0.002927612978965044
1789061913155827700,0.42382763671875,-0.2575537860393524,-0.1298578679561615,-0.030118221417069435
1789061913165837800,0.433837890625,-0.259156733751297,-0.0366850420832634,-0.0021587584633380175
1789061913175847700,0.44384765625,-0.27594104409217834,-0.06559126079082489,-0.019660785794258118
1789061913185856800,0.453856689453125,-0.2617828845977783,-0.11191188544034958,-0.019276758655905724
1789061913195867000,0.463866943359375,-0.2589053213596344,-0.21121956408023834,-0.02785719744861126
1789061913205876700,0.473876708984375,-0.25871971249580383,-0.11140375584363937,0.022053103893995285
1789061913215885600,0.483885498046875,-0.21725615859031677,-0.053755905479192734,0.03638197481632233
1789061913225895700,0.493895751953125,-0.14067961275577545,-0.1374840885400772,-0.02358974888920784
1789061913235905500,0.503905517578125,-0.11368662118911743,-0.10001102089881897,0.016570720821619034
1789061913245914600,0.51391455078125,0.00911679957062006,-0.18453815579414368,-0.04435175284743309
1789061913255924700,0.5239248046875,0.07438421994447708,-0.11591701209545135,0.0010894992155954242
1789061913265934600,0.5339345703125,0.18123289942741394,-0.04836034029722214,-0.01411448698490858
1789061913275943700,0.543943603515625,0.2636401653289795,-0.1080377846956253,-0.022040853276848793
1789061913285953800,0.553953857421875,0.38333672285079956,-0.148294135928154,-0.015157381072640419
1789061913295963600,0.563963623046875,0.4158989489078522,0.015801599249243736,0.017736386507749557
1789061913305973800,0.573973876953125,0.4537310004234314,-0.089296855032444,-0.00195129809435457
1789061913315982800,0.58398291015625,0.48704367876052856,0.0564291886985302,0.07204436510801315
1789061913325992700,0.59399267578125,0.5343893766403198,-0.004994758404791355,0.03562111034989357
1789061913336002800,0.6040029296875,0.5324982404708862,-0.008254467509686947,0.028206070885062218
1789061913346012000,0.614011962890625,0.5086789727210999,0.00950748473405838,-0.017164872959256172
1789061913356021800,0.624021728515625,0.4908091425895691,-0.008046475239098072,-0.025320271030068398
1789061913366032000,0.634031982421875,0.4992915689945221,-0.040287502110004425,0.008810802362859249
1789061913376041000,0.644041015625,0.47019946575164795,0.01829112321138382,0.040051013231277466
1789061913386050800,0.65405078125,0.42179492115974426,0.11460061371326447,0.09298267215490341
1789061913396061000,0.66406103515625,0.39235633611679077,-0.004175037611275911,0.0036157737486064434
1789061913406069800,0.67406982421875,0.36553242802619934,0.0500732883810997,-0.021984927356243134
1789061913416080000,0.684079833984375,0.4123913049697876,0.016749951988458633,-0.0026730147656053305
1789061913426089700,0.69408984375,0.37242069840431213,-0.027188478037714958,0.02437085285782814
1789061913436098800,0.704098876953125,0.27730831503868103,0.17111608386039734,0.09241781383752823
1789061913446109000,0.71410888671875,0.2679153382778168,0.05476684123277664,0.06331399083137512
1789061913456118800,0.724118896484375,0.20436911284923553,0.02509789541363716,0.038115162402391434
1789061913466128000,0.7341279296875,0.13710565865039825,0.0625094473361969,0.016292687505483627
1789061913476138000,0.744137939453125,0.11109509319067001,0.026983147487044334,-0.0211257915943861
1789061913486147800,0.75414794921875,0.0498834028840065,0.05648697912693024,-0.003984355367720127
1789061913496157000,0.764156982421875,-0.005481318105012178,0.03746854513883591,-0.001490304945036769
1789061913506167000,0.7741669921875,-0.06009955704212189,0.12357999384403229,0.06377578526735306
1789061913516177000,0.784177001953125,-0.05594182759523392,-0.02454422414302826,0.02582467347383499
1789061913526187000,0.79418701171875,-0.12068380415439606,0.04839496314525604,0.024044083431363106
1789061913536195800,0.80419580078125,-0.16159555315971375,0.11612793803215027,0.05410664528608322
1789061913546205700,0.814205810546875,-0.18461617827415466,0.0535561703145504,0.029622340574860573
1789061913556215800,0.8242158203125,-0.18513044714927673,-0.013636982999742031,-0.006097307428717613
1789061913566225000,0.834224853515625,-0.2014652043581009,0.019045596942305565,0.004000866785645485
1789061913576234800,0.84423486328125,-0.19575539231300354,0.023424899205565453,-0.014247112907469273
1789061913586244900,0.854244873046875,-0.2333294004201889,-0.011724567040801048,-0.052446696907281876
1789061913596254000,0.86425390625,-0.26093384623527527,0.04179991036653519,0.01757286861538887
1789061913606263800,0.874263916015625,-0.26464179158210754,-0.058456651866436005,-0.05517670139670372
1789061913616274000,0.88427392578125,-0.31788742542266846,0.0007749798824079335,-0.004797152243554592
1789061913626283000,0.894282958984375,-0.28837186098098755,-0.06162527948617935,-0.012225506827235222
1789061913636292900,0.90429296875,-0.2732536494731903,0.024894963949918747,0.03916258364915848
1789061913646303000,0.914302978515625,-0.26424363255500793,0.026747457683086395,0.011827364563941956
1789061913656311800,0.924311767578125,-0.2228408008813858,-0.025663018226623535,-0.0448489636182785
1789061913666321700,0.93432177734375,-0.18782183527946472,-0.037828605622053146,-0.05331169068813324
1789061913676331800,0.944331787109375,-0.19300593435764313,-0.06437073647975922,-0.04346838220953941
1789061913686340900,0.9543408203125,-0.15069469809532166,-0.11227993667125702,-0.05548296496272087
1789061913696350700,0.964350830078125,-0.11226102709770203,-0.07408514618873596,-0.02726011723279953
1789061913706360800,0.97436083984375,-0.12667112052440643,-0.06723123788833618,0.020005665719509125
1789061913716371000,0.984370849609375,-0.112317755818367,-0.03722885996103287,0.025107484310865402
1789061913726379800,0.9943798828125,-0.06190731003880501,-0.0564531572163105,-0.013478790409862995
1789061913736390000,1.004389892578125,-0.05468827858567238,-0.08031294494867325,-0.03548369184136391
1789061913746400000,1.01439990234375,-0.029768282547593117,-0.06256138533353806,-0.04238021373748779
1789061913756408800,1.024408935546875,-0.0031212246976792812,-0.08057314157485962,-0.04493285343050957
1789061913766419000,1.0344189453125,0.01902029663324356,-0.014568289741873741,0.009817477315664291
1789061913776429000,1.044428955078125,0.07568011432886124,-0.13994058966636658,-0.031977906823158264
1789061913786437600,1.054437744140625,0.08570824563503265,-0.07108350098133087,-0.009209743700921535
1789061913796447700,1.06444775390625,0.10177189856767654,-0.10758291929960251,0.0017600831342861056
1789061913806457900,1.074457763671875,0.1370161771774292,-0.1611286997795105,-0.00926487147808075
1789061913816466700,1.084466796875,0.09350491315126419,-0.039872050285339355,0.030912907794117928
1789061913826476800,1.094476806640625,0.08396733552217484,-0.0690792053937912,0.015729160979390144
1789061913836487000,1.10448681640625,0.11213159561157227,-0.1301438808441162,-0.06859264522790909
1789061913846495700,1.114495849609375,0.12498268485069275,-0.06729701161384583,-0.04881680756807327
1789061913856505900,1.124505859375,0.1505809873342514,0.04417651519179344,0.07151466608047485
1789061913866516000,1.134515869140625,0.1717965304851532,-0.15442712604999542,-0.016149409115314484
1789061913876525800,1.14452587890625,0.154756560921669,-0.09476086497306824,-0.040413204580545425
1789061913886535000,1.154534912109375,0.18010345101356506,-0.009808954782783985,0.006428338121622801
1789061913896545000,1.164544921875,0.19916796684265137,-0.1276722103357315,-0.017839450389146805
1789061913906555000,1.174554931640625,0.16645102202892303,-0.004991828929632902,0.08266878128051758
1789061913916563700,1.184563720703125,0.16318918764591217,-0.1106221154332161,0.016709737479686737
1789061913926573800,1.19457373046875,0.1117401123046875,-0.06563307344913483,0.022578811272978783
1789061913936583700,1.204583740234375,0.1277526319026947,0.017233315855264664,0.08240778744220734
1789061913946592800,1.2145927734375,0.1260378211736679,-0.08133640140295029,-0.02522279880940914
1789061913956603000,1.224602783203125,0.14439819753170013,-0.08070363104343414,-0.04295439273118973
1789061913966612700,1.23461279296875,0.13459882140159607,-0.0461384654045105,0.028745362535119057
1789061913976621800,1.244621826171875,0.1279020458459854,-0.10149572789669037,-0.032889507710933685
1789061913986632000,1.2546318359375,0.1603396087884903,-0.01649295724928379,0.031495608389377594
1789061913996641800,1.264641845703125,0.16344484686851501,-0.08084185421466827,-0.002347842790186405
1789061914006651000,1.27465087890625,0.10771927237510681,-0.10638369619846344,-0.042877692729234695
1789061914016661000,1.284660888671875,0.14109107851982117,-0.05397588387131691,0.0012756541837006807
1789061914026670800,1.2946708984375,0.11628586053848267,-0.0422838069498539,0.045288652181625366
1789061914036681000,1.304680908203125,0.18786604702472687,-0.1312941014766693,-0.05817382410168648
1789061914046689800,1.314689697265625,0.19790323078632355,0.03822221979498863,0.04181695356965065
1789061914056699600,1.32469970703125,0.17439283430576324,0.04140949249267578,0.018162759020924568
1789061914066709800,1.334709716796875,0.23299117386341095,-0.007529821712523699,-0.008443818427622318
1789061914076718800,1.34471875,0.3720281422138214,-0.07007389515638351,-0.024715732783079147
1789061914086728700,1.354728759765625,0.4511978030204773,-0.11745472252368927,0.05037422478199005
1789061914096738800,1.36473876953125,0.4964747428894043,-0.17869144678115845,-0.0031851406674832106
1789061914106748000,1.374747802734375,0.40526652336120605,0.08431807905435562,0.05841617286205292
1789061914116757800,1.3847578125,0.3879075050354004,-0.011973305605351925,0.037582796066999435
1789061914126767900,1.394767822265625,0.43332186341285706,-0.10374290496110916,-0.02178012952208519
1789061914136777000,1.40477685546875,0.4190044403076172,0.0268891379237175,0.06501361727714539
1789061914146786800,1.414786865234375,0.4601987600326538,-0.019716979935765266,0.05427122861146927
1789061914156797000,1.424796875,0.430038183927536,0.0028751487843692303,0.06627888977527618
1789061914166807000,1.43480712890625,0.4132744073867798,-0.01594541035592556,0.01384204626083374
1789061914176815900,1.44481591796875,0.4001556634902954,0.022048311308026314,0.015384282916784286
1789061914186825700,1.45482568359375,0.42097944021224976,0.038493331521749496,0.05113402381539345
1789061914196835800,1.4648359375,0.39796096086502075,-0.04610064998269081,0.027527764439582825
1789061914206845000,1.474844970703125,0.39646610617637634,0.03231559693813324,0.035651735961437225
1789061914216854800,1.484854736328125,0.3788287937641144,0.024207601323723793,0.059123773127794266
1789061914226865000,1.494864990234375,0.3726191222667694,0.013980530202388763,0.020187826827168465
1789061914236874000,1.5048740234375,0.3791465163230896,0.009956493973731995,0.03215048089623451
1789061914246883800,1.5148837890625,0.38392317295074463,0.12951618432998657,0.09483090788125992
1789061914256894000,1.52489404296875,0.361520379781723,0.03686986863613129,0.022539131343364716
1789061914266903000,1.534903076171875,0.38135454058647156,0.1194763332605362,0.008882706984877586
1789061914276913000,1.544912841796875,0.37186890840530396,0.1440517157316208,0.006989200133830309
1789061914286922500,1.554922607421875,0.3913789391517639,0.127637580037117,-0.00014647385978605598
1789061914296932400,1.564932373046875,0.4571843147277832,-0.05242885276675224,-0.04206036776304245
1789061914306941200,1.574941162109375,0.4358135163784027,0.16432049870491028,0.08777352422475815
1789061914316951300,1.584951416015625,0.40577253699302673,0.08889845013618469,0.0857018530368805
1789061914330714400,1.59871435546875,0.34268730878829956,0.04917899891734123,0.055919989943504333
1789061914341349400,1.609349365234375,0.3592625558376312,0.11477451771497726,0.06584612280130386
1789061914351358500,1.6193583984375,0.3207327425479889,0.0817292183637619,0.023355921730399132
1789061914361368300,1.629368408203125,0.25952982902526855,0.08774716407060623,0.02797357738018036
1789061914371378400,1.63937841796875,0.23881949484348297,0.054968442767858505,0.01799125038087368
1789061914381388500,1.649388427734375,0.1619287133216858,0.21649795770645142,0.09993857890367508
1789061914391397400,1.6593974609375,0.1397845298051834,0.17492307722568512,0.0663185715675354
1789061914401407500,1.669407470703125,0.13485954701900482,0.12755635380744934,0.03482962027192116
1789061914411417600,1.67941748046875,0.12358958274126053,0.10216977447271347,0.0522293820977211
1789061914421426200,1.68942626953125,0.10874298959970474,0.1439627707004547,0.08636072278022766
1789061914431436300,1.699436279296875,0.03924114629626274,0.13800553977489471,0.05637405812740326
1789061914441446400,1.7094462890625,-0.00621182331815362,0.19613808393478394,0.059776779264211655
1789061914451455200,1.719455322265625,-0.0008546083699911833,0.219558984041214,0.08862067759037018
1789061914461465300,1.72946533203125,0.019101789221167564,0.1010051742196083,0.06677477061748505
1789061914471475500,1.739475341796875,0.05806942656636238,0.0720779225230217,0.06650925427675247
1789061914481485300,1.7494853515625,-0.034206971526145935,0.1713254153728485,0.07423880696296692
1789061914491494400,1.759494384765625,-0.07719944417476654,0.19903267920017242,0.04754355177283287
1789061914501504500,1.76950439453125,-0.06652043759822845,0.2062583565711975,0.025674736127257347
1789061914511514400,1.779514404296875,-0.040172185748815536,0.17644187808036804,0.01563941314816475
1789061914521523500,1.7895234375,-0.022899722680449486,0.17104019224643707,0.05645501986145973
1789061914531533600,1.799533447265625,-0.02118278294801712,0.08303949236869812,0.04482739418745041
1789061914541543400,1.80954345703125,0.0033878071699291468,0.2350391447544098,0.1001761332154274
1789061914551552300,1.81955224609375,-0.014450578019022942,0.15494404733181,0.01980486325919628
1789061914561562400,1.829562255859375,-0.054961252957582474,0.22325119376182556,0.07942931354045868
1789061914571572200,1.839572265625,-0.03977111354470253,0.07518396526575089,0.02046772465109825
1789061914581581300,1.849581298828125,-0.09763334691524506,0.27393433451652527,0.1315990388393402
1789061914591591400,1.85959130859375,-0.11562113463878632,0.18731103837490082,0.08210578560829163
1789061914601601300,1.869601318359375,-0.14447729289531708,0.19499532878398895,0.03387807309627533
1789061914611611400,1.879611328125,-0.15615977346897125,0.18383480608463287,0.007211307529360056
1789061914621620500,1.889620361328125,-0.15874943137168884,0.08919964730739594,-0.020666662603616714
1789061914631630300,1.89963037109375,-0.22689493000507355,0.15000814199447632,0.03267485648393631
1789061914641640400,1.909640380859375,-0.3224733769893646,0.14042262732982635,0.09061192721128464
1789061914651649500,1.9196494140625,-0.3984485864639282,0.1361679583787918,0.053580936044454575
1789061914661659400,1.929659423828125,-0.3921792209148407,0.1383426934480667,0.014128335751593113
1789061914671669500,1.93966943359375,-0.4116402864456177,0.16617006063461304,-0.020918598398566246
1789061914681678300,1.94967822265625,-0.4657394587993622,0.14369511604309082,-0.04080255702137947
1789061914691688200,1.959688232421875,-0.45013654232025146,0.05684597045183182,-0.06452280282974243
1789061914701698300,1.9696982421875,-0.4722343981266022,0.055216383188962936,-0.03737826272845268
1789061914711708400,1.97970849609375,-0.49985164403915405,0.1787833273410797,0.06366792321205139
1789061914721717200,1.98971728515625,-0.4743182957172394,-0.006623281631618738,-0.020426977425813675
1789061914731727400,1.999727294921875,-0.49750325083732605,0.013728861697018147,-0.04805887117981911
1789061914741737500,2.009737548828125,-0.5072101950645447,0.09177732467651367,0.00669332267716527
1789061914751746300,2.019746337890625,-0.3964003324508667,0.004125769250094891,-0.07042676210403442
1789061914761756400,2.02975634765625,-0.35058972239494324,0.05339265242218971,-0.03178589418530464
1789061914771766500,2.0397666015625,-0.2674658000469208,0.0021904499735683203,-0.014658837579190731
1789061914781775400,2.049775390625,-0.2006039321422577,0.08766380697488785,0.06720167398452759
1789061914791785500,2.059785400390625,-0.12022308260202408,0.043604735285043716,0.023500531911849976
1789061914801795600,2.069795654296875,-0.05756928771734238,-0.012820190750062466,0.00660543842241168
1789061914811805400,2.079805419921875,-0.03135792165994644,0.023925039917230606,0.02346218191087246
1789061914821814300,2.089814208984375,-0.06279600411653519,0.035600338131189346,0.027292074635624886
1789061914831824400,2.099824462890625,-0.04547347500920296,0.021345768123865128,-0.006833671126514673
1789061914841834200,2.109834228515625,0.015255119651556015,-0.02155402861535549,-0.052800897508859634
1789061914851843300,2.11984326171875,0.0026706180069595575,-0.01782267354428768,-0.04319141432642937
1789061914861853400,2.129853515625,-0.024983646348118782,-0.013395700603723526,-0.0664336159825325
1789061914871863300,2.13986328125,-0.00812130980193615,-0.0029984530992805958,-0.01948395185172558
1789061914881872400,2.149872314453125,-0.023514913395047188,0.05577218532562256,0.06254806369543076
1789061914891882500,2.159882568359375,-0.002671150490641594,-0.07107017934322357,-0.006238987669348717
1789061914901892400,2.169892333984375,-0.04904637113213539,-0.02359587326645851,-0.017131581902503967
1789061914911901400,2.1799013671875,-0.07089600712060928,-0.019390475004911423,-0.04869962856173515
1789061914921911600,2.18991162109375,-0.07401084154844284,-0.03364025056362152,-0.00631888210773468
1789061914931921400,2.19992138671875,-0.1058201715350151,0.00833649281412363,0.0031284152064472437
1789061914941931500,2.209931640625,-0.16180354356765747,0.0450630821287632,0.03423307090997696
1789061914951940400,2.2199404296875,-0.1843583881855011,0.019225358963012695,-0.04362737014889717
1789061914961950200,2.2299501953125,-0.1540132611989975,-0.0002407497668173164,-0.04579944536089897
1789061914971960300,2.239960205078125,-0.12895718216896057,0.036204610019922256,0.013732856139540672
1789061914981969400,2.249969482421875,-0.14951598644256592,0.0016338493442162871,0.004983573220670223
1789061914991979300,2.259979248046875,-0.1407936066389084,0.046359773725271225,-0.0031180288642644882
1789061915001989400,2.2699892578125,-0.07715444266796112,0.0063196811825037,-0.06954498589038849
1789061915011999500,2.27999951171875,-0.021283185109496117,0.042265698313713074,-0.05144934356212616
1789061915022008300,2.29000830078125,0.039019569754600525,0.0027332021854817867,-0.053767889738082886
1789061915032018400,2.300018310546875,0.06821953505277634,-0.046779755502939224,-0.05072709172964096
1789061915042028500,2.310028564453125,0.05278198793530464,0.1120770052075386,0.06759422272443771
1789061915052037400,2.320037353515625,0.08086875081062317,0.07850279659032822,0.046720366925001144
1789061915062047500,2.330047607421875,0.13912566006183624,0.05573436990380287,0.015509983524680138
1789061915072057600,2.3400576171875,0.13226082921028137,0.06036373972892761,0.028361599892377853
1789061915082066200,2.350066162109375,0.14456917345523834,-0.057853180915117264,-0.043843355029821396
1789061915092076300,2.360076171875,0.09344978630542755,0.08327624946832657,0.04613287374377251
1789061915102086400,2.37008642578125,-0.0010548781137913465,0.06648874282836914,0.04047418758273125
1789061915112096300,2.38009619140625,-0.04378156736493111,0.1516696810722351,0.10410882532596588
1789061915122105300,2.390105224609375,-0.027690749615430832,0.033132653683423996,0.02725532278418541
1789061915132115500,2.400115478515625,-0.07220708578824997,0.07342761009931564,0.055755142122507095
1789061915142125300,2.410125244140625,-0.06727730482816696,0.06611564010381699,0.020982779562473297
1789061915152134400,2.420134521484375,-0.07391976565122604,0.013019129633903503,-0.05356602370738983
1789061915162144500,2.43014453125,-0.08506190031766891,-0.010102967731654644,-0.052136171609163284
1789061915172154400,2.440154296875,-0.10247843712568283,0.13222648203372955,0.019391540437936783
1789061915182163500,2.45016357421875,-0.10061981528997421,-0.013965883292257786,-0.06520350277423859
1789061915192173600,2.460173583984375,-0.16969822347164154,0.11499476432800293,-0.01501064095646143
1789061915202183400,2.470183349609375,-0.17814204096794128,0.007668039761483669,-0.039618782699108124
1789061915212193500,2.480193603515625,-0.21305660903453827,0.09820432960987091,-0.01518987212330103
1789061915222202400,2.490202392578125,-0.2517089247703552,0.08642356842756271,0.005246427375823259
1789061915232212200,2.500212158203125,-0.23527775704860687,-0.05354365333914757,-0.040076844394207
1789061915242222300,2.510222412109375,-0.31919848918914795,0.1455441564321518,0.05330183729529381
1789061915252231400,2.5202314453125,-0.28384795784950256,0.05331195890903473,-0.019297530874609947
1789061915262241300,2.5302412109375,-0.28733697533607483,0.023810258135199547,-0.06089584156870842
1789061915272251400,2.54025146484375,-0.29466038942337036,-0.025289110839366913,-0.07396183907985687
1789061915282260500,2.550260498046875,-0.3078662157058716,0.07976619899272919,0.005399825517088175
1789061915292270300,2.560270263671875,-0.2892230153083801,-0.013943511992692947,0.018382469192147255
1789061915302280400,2.570280517578125,-0.30006447434425354,0.028321120887994766,0.02027224749326706
1789061915312290300,2.580290283203125,-0.28314462304115295,0.04547986760735512,0.024568991735577583
1789061915322299400,2.59029931640625,-0.25072914361953735,-0.0038128476589918137,-0.026812706142663956
1789061915332309500,2.6003095703125,-0.2402821034193039,-0.005720470100641251,-0.07631607353687286
1789061915342319600,2.610319580078125,-0.2442781776189804,-0.037288516759872437,-0.09471479058265686
1789061915352328400,2.620328369140625,-0.22597427666187286,-0.15861600637435913,-0.07737281918525696
1789061915362338600,2.630338623046875,-0.250714510679245,0.07999390363693237,0.16902391612529755
1789061915372348700,2.6403486328125,-0.19123706221580505,-0.06136482208967209,0.23229795694351196
1789061915382358500,2.650358642578125,-0.27535781264305115,0.12181644886732101,0.2602406442165375
1789061915392367400,2.660367431640625,-0.34614595770835876,0.11163491755723953,0.08156570047140121
1789061915402377500,2.67037744140625,-0.2956063449382782,0.08259447664022446,-0.11942226439714432
1789061915412387300,2.68038720703125,-0.26694807410240173,0.05669363960623741,-0.2647797167301178
1789061915422396400,2.690396484375,-0.2576935887336731,-0.09918037801980972,-0.3267192542552948
1789061915432406500,2.700406494140625,-0.23799632489681244,-0.2743940055370331,-0.23798513412475586
1789061915442416400,2.71041650390625,-0.25066977739334106,0.01896410435438156,0.059478241950273514
1789061915452425500,2.720425537109375,-0.2501794695854187,0.15467239916324615,0.1708095520734787
1789061915462435600,2.730435546875,-0.2579018473625183,0.14839106798171997,0.10438765585422516
1789061915472445400,2.740445556640625,-0.29292213916778564,0.0781954675912857,-0.018738800659775734
1789061915482455600,2.75045556640625,-0.3158136308193207,0.06965044885873795,-0.05071297660470009
1789061915492464600,2.760464599609375,-0.2180044949054718,-0.011726963333785534,-0.0840190052986145
1789061915502474500,2.770474609375,-0.16792508959770203,-0.17467033863067627,-0.12022653967142105
1789061915512484600,2.780484619140625,-0.1446589082479477,-0.10171198099851608,-0.04211442917585373
1789061915522493400,2.790493408203125,-0.17126601934432983,0.08605126291513443,0.1015188992023468
1789061915532503300,2.80050341796875,-0.17543147504329681,0.0833233892917633,0.07954276353120804
1789061915542513400,2.810513427734375,-0.17504878342151642,0.008801480755209923,0.039870716631412506
1789061915552522500,2.8205224609375,-0.15585485100746155,0.012047075666487217,0.01630200818181038
1789061915562532400,2.830532470703125,-0.1278865933418274,-0.005689577199518681,-0.02767077647149563
1789061915572542500,2.84054248046875,-0.097926564514637,-0.048765409737825394,-0.03494866192340851
1789061915582552300,2.85055224609375,-0.06891168653964996,-0.05440598353743553,0.004337756894528866
1789061915592561400,2.8605615234375,-0.10690248012542725,-0.034202978014945984,-0.0067604342475533485
1789061915602571500,2.870571533203125,-0.13043789565563202,0.022494923323392868,0.004062652122229338
1789061915612581400,2.880581298828125,-0.16084641218185425,0.05349305272102356,0.028124578297138214
1789061915622590500,2.890590576171875,-0.17545810341835022,-0.19516949355602264,0.017666611820459366
1789061915632600600,2.9006005859375,-0.2725348472595215,0.10466675460338593,0.17704401910305023
1789061915642610400,2.9106103515625,-0.23524634540081024,0.06836414337158203,0.17810529470443726
1789061915652620500,2.92062060546875,-0.13740846514701843,-0.10233595967292786,0.05314790830016136
1789061915662629400,2.93062939453125,-0.12326627224683762,-0.047216515988111496,-0.0020999026019126177
1789061915672639500,2.940639404296875,-0.25516384840011597,-0.00800040178000927,-0.1280122995376587
1789061915682649300,2.9506494140625,-0.28456515073776245,-0.024454742670059204,-0.17323437333106995
1789061915692658400,2.960658447265625,-0.21312905848026276,-0.17163459956645966,-0.20187506079673767
1789061915702668500,2.97066845703125,-0.17341919243335724,-0.17149879038333893,-0.06462612748146057
1789061915712678400,2.980678466796875,-0.1687954068183899,0.05313432589173317,0.09580589085817337
1789061915722687500,2.9906875,-0.18618611991405487,0.10637224465608597,0.13816027343273163
1789061915732697600,3.000697509765625,-0.20798541605472565,-0.05910539627075195,-0.079022116959095
1789061915742707500,3.01070751953125,-0.1801902800798416,-0.11318168044090271,-0.15079404413700104
1789061915752717600,3.020717529296875,-0.12257145345211029,-0.12059032917022705,-0.1253235638141632
1789061915762726700,3.0307265625,-0.10435596853494644,-0.20035333931446075,-0.11610423773527145
1789061915772736500,3.040736572265625,-0.15007072687149048,0.04824556037783623,0.06636624038219452
1789061915782746600,3.05074658203125,-0.09651322662830353,-0.22425654530525208,0.0028567728586494923
1789061915792755500,3.06075537109375,-0.11416731774806976,0.12272938340902328,0.1963527351617813
1789061915802765300,3.070765380859375,0.001178182428702712,-0.023147396743297577,0.13944683969020844
1789061915812775400,3.080775390625,0.07347927987575531,-0.0614796057343483,0.07943037897348404
1789061915822784500,3.090784423828125,0.12354164570569992,-0.08773411065340042,0.03929813578724861
1789061915832794400,3.10079443359375,0.1268269270658493,-0.13189278542995453,-0.0554848313331604
1789061915842804500,3.110804443359375,0.10160811990499496,-0.05974748730659485,0.00481472909450531
1789061915852814300,3.120814453125,0.05501904338598251,-0.014545919373631477,-0.00558118661865592
1789061915862823400,3.130823486328125,0.02207627333700657,-0.01942536234855652,0.03843660652637482
1789061915872833500,3.14083349609375,0.0075841499492526054,-0.07150959968566895,-0.00782463327050209
1789061915882843400,3.150843505859375,0.009338107891380787,-0.07999256998300552,0.00965555664151907
1789061915892852500,3.1608525390625,0.008694687858223915,-0.00974450632929802,0.026855316013097763
1789061915902862600,3.170862548828125,0.0019917781464755535,0.004344680812209845,0.0038693067617714405
1789061915912872400,3.18087255859375,0.0012365056900307536,-0.07627133280038834,-0.010508034378290176
1789061915922882600,3.190882568359375,0.011683288030326366,-0.027770644053816795,0.017897507175803185
1789061915932891400,3.200891357421875,0.019941218197345734,-0.1993916630744934,-0.09296056628227234
1789061915942901200,3.2109013671875,-0.04418983310461044,0.15546709299087524,0.10679435729980469
1789061915952911400,3.220911376953125,-0.018754512071609497,0.008216651156544685,0.01549373846501112
1789061915962920400,3.23092041015625,0.010527209378778934,0.04502313584089279,-0.03594575077295303
1789061915972930300,3.240930419921875,-0.005474127363413572,0.004487959202378988,-0.021348698064684868
1789061915982940400,3.2509404296875,0.038770563900470734,-0.006551376078277826,-0.08181390911340714
1789061915992950500,3.260950439453125,0.02528085559606552,-0.05566086620092392,-0.05826543644070625
1789061916002959600,3.270959716796875,-0.0183531753718853,-0.013745373114943504,0.023362314328551292
1789061916012969500,3.280969482421875,-0.02118970826268196,-0.02677169255912304,0.0891818106174469
1789061916022979600,3.2909794921875,-0.10352160036563873,0.016706274822354317,0.1721789538860321
1789061916032988700,3.30098876953125,-0.04659226909279823,-0.010517355985939503,0.0682927742600441
1789061916042998500,3.31099853515625,-0.05691494792699814,0.04157087951898575,0.0326538160443306
1789061916053008600,3.321008544921875,-0.04580637067556381,-0.11629971116781235,-0.05079127475619316
1789061916063017500,3.331017578125,-0.0438833013176918,-0.008800415322184563,0.020109528675675392
1789061916073027300,3.34102734375,-0.07101159542798996,0.06818118691444397,0.11113264411687851
1789061916083037400,3.351037353515625,-0.09924110025167465,-0.11700784415006638,0.04945623129606247
1789061916093047300,3.36104736328125,-0.1799663007259369,-0.09001750499010086,0.01769457384943962
1789061916103056400,3.371056396484375,-0.2525467574596405,-0.05823534354567528,0.004769188817590475
1789061916113066500,3.38106640625,-0.2568610906600952,-0.08719748258590698,-0.09539549797773361
1789061916123076400,3.391076416015625,-0.3208099603652954,-0.15586203336715698,-0.06752178817987442
1789061916133085400,3.40108544921875,-0.4112573266029358,-0.012412994168698788,0.056901365518569946
1789061916143095600,3.411095458984375,-0.4528076946735382,-0.12155652791261673,0.0026788737159222364
1789061916153105400,3.42110546875,-0.51988285779953,0.07399832457304001,0.09773348271846771
1789061916163115500,3.431115478515625,-0.49775198101997375,-0.09139303117990494,-0.021941518411040306
1789061916173124600,3.44112451171875,-0.5102787017822266,-0.10816694796085358,-0.014652978628873825
1789061916183134500,3.451134521484375,-0.5015912055969238,-0.05086211487650871,0.05733253061771393
1789061916193144600,3.46114453125,-0.4356635808944702,-0.12574167549610138,0.006425941362977028
1789061916203153400,3.4711533203125,-0.3990906774997711,-0.054486945271492004,0.04151788353919983
1789061916213163300,3.481163330078125,-0.35476768016815186,-0.1378345638513565,-0.029938990250229836
1789061916223173400,3.49117333984375,-0.33201467990875244,-0.13709314167499542,-0.042085401713848114
1789061916233183500,3.50118359375,-0.3158562183380127,-0.05387281998991966,0.01732226461172104
1789061916243192300,3.5111923828125,-0.26315200328826904,-0.18963225185871124,-0.05127996578812599
1789061916253202400,3.521202392578125,-0.2322944849729538,-0.08420409262180328,0.0482167974114418
1789061916263212500,3.531212646484375,-0.21503934264183044,-0.10478287190198898,0.04451846703886986
1789061916273221400,3.541221435546875,-0.1769273728132248,-0.06591963022947311,0.055689629167318344
1789061916283231500,3.5512314453125,-0.14886963367462158,-0.12825757265090942,-0.0459003783762455
1789061916293241600,3.56124169921875,-0.10571284592151642,-0.1734548807144165,-0.08896076679229736
1789061916303250400,3.57125048828125,-0.10613575577735901,-0.0830347016453743,-0.04964105784893036
1789061916313260500,3.581260498046875,-0.08531010150909424,-0.14435690641403198,-0.02907239831984043
1789061916323270700,3.591270751953125,-0.04623007774353027,-0.2378583699464798,-0.028805281966924667
1789061916333280500,3.601280517578125,-0.06365327537059784,-0.037703704088926315,0.03429938480257988
1789061916343289300,3.611289306640625,-0.04844050481915474,-0.18596374988555908,-0.041243042796850204
1789061916353299500,3.621299560546875,-0.056162070482969284,-0.23382900655269623,-0.04923945292830467
1789061916363309300,3.631309326171875,-0.10508646816015244,-0.2359323650598526,-0.01426575519144535
1789061916373318400,3.641318359375,-0.1379176527261734,-0.11470741033554077,0.10667052119970322
1789061916383328500,3.65132861328125,-0.12710309028625488,-0.2614121735095978,0.05169861391186714
1789061916393338400,3.66133837890625,-0.17830049991607666,-0.1526060551404953,0.03531857579946518
1789061916403348500,3.671348388671875,-0.16641108691692352,-0.17583493888378143,-0.009584716521203518
1789061916413357600,3.681357666015625,-0.14593030512332916,-0.231023371219635,-0.06776998937129974
1789061916423367400,3.691367431640625,-0.09674971550703049,-0.2689558267593384,-0.09724240005016327
1789061916433377500,3.70137744140625,-0.06309827417135239,-0.2195824235677719,-0.11537772417068481
1789061916443386600,3.71138671875,-0.10485557466745377,-0.22764088213443756,-0.2289615422487259
1789061916453396500,3.721396484375,-0.14800837635993958,-0.6551759839057922,-0.2241947501897812
1789061916463406600,3.731406494140625,-0.041606832295656204,-0.19959966838359833,0.12169554084539413
1789061916473415400,3.74141552734375,-0.09509482234716415,0.14020051062107086,0.3707045614719391
1789061916483425300,3.75142529296875,-0.15008804202079773,-0.2477666586637497,0.07641594111919403
1789061916493435400,3.761435302734375,-0.18736723065376282,-0.20451559126377106,-0.13249891996383667
1789061916503445500,3.771445556640625,-0.03112170100212097,-0.21552084386348724,-0.2105385959148407
1789061916513454300,3.781454345703125,0.20010459423065186,-0.4173727333545685,-0.19770881533622742
1789061916523464400,3.79146435546875,0.27350130677223206,-0.4387595057487488,-0.11042823642492294
1789061916533474600,3.801474609375,0.3005984425544739,-0.37656325101852417,0.09352542459964752
1789061916543483400,3.8114833984375,0.2527949810028076,-0.06398963183164597,0.25223278999328613
1789061916553493500,3.821493408203125,0.29510462284088135,-0.05275855213403702,0.23011043667793274
1789061916563503600,3.831503662109375,0.3415197730064392,-0.15436001121997833,0.1982015073299408
1789061916573513500,3.841513427734375,0.43803754448890686,-0.13545610010623932,0.1043892577290535
1789061916583522600,3.8515224609375,0.4786374270915985,-0.1400119662284851,-0.021322332322597504
1789061916593532700,3.86153271484375,0.6174112558364868,-0.22251829504966736,-0.11099869012832642
1789061916603542500,3.87154248046875,0.7395340204238892,-0.4183429181575775,-0.11102292686700821
1789061916613551400,3.88155126953125,0.749870240688324,0.06892766803503036,0.1891068071126938
1789061916623561500,3.8915615234375,0.6812938451766968,-0.21268883347511292,0.10766974091529846
1789061916633571300,3.9015712890625,0.6391131281852722,-0.20894736051559448,-0.00515774404630065
1789061916643581400,3.91158154296875,0.59003746509552,-0.08725181221961975,-0.04113784804940224
1789061916653590500,3.921590576171875,0.6905049085617065,-0.18655656278133392,0.019647205248475075
1789061916663600400,3.931600341796875,0.6924088001251221,-0.0322149284183979,0.17189639806747437
1789061916673610500,3.941610595703125,0.656316876411438,-0.1361628919839859,0.15100549161434174
1789061916683619600,3.95161962890625,0.6065455675125122,-0.0857228934764862,0.10570086538791656
1789061916693629400,3.96162939453125,0.6542020440101624,-0.10872647911310196,-0.12104013562202454
1789061916703639600,3.9716396484375,0.6087815761566162,-0.20289133489131927,-0.2537963092327118
1789061916713649400,3.9816494140625,0.6877834796905518,-0.34278982877731323,-0.11639957875013351
1789061916723658500,3.991658447265625,0.6248127222061157,0.1523274928331375,0.38851311802864075
1789061916733668600,4.001668701171875,0.531612753868103,-0.26710253953933716,0.23425936698913574
1789061916743678500,4.011678466796875,0.3228856325149536,0.3304293155670166,0.26027125120162964
1789061916753687300,4.021687255859375,0.310302734375,0.19877088069915771,0.04886713996529579
1789061916763697400,4.031697509765625,0.34863361716270447,0.09391557425260544,-0.05062323063611984
1789061916773707300,4.041707275390625,0.25295290350914,0.10144060105085373,-0.07986234128475189
1789061916783717400,4.05171728515625,0.1652592569589615,0.0033398703671991825,-0.09880780428647995
1789061916793726500,4.0617265625,0.21291333436965942,-0.2296164184808731,-0.08508000522851944
1789061916803736600,4.071736572265625,0.17153313755989075,0.18732860684394836,0.22825926542282104
1789061916813746400,4.081746337890625,0.10510298609733582,0.018643192946910858,0.11008868366479874
1789061916823755500,4.091755615234375,-0.07085366547107697,0.023264575749635696,0.05921671912074089
1789061916833765600,4.101765625,-0.055686697363853455,-0.14479100704193115,0.0030652983114123344
1789061916843775500,4.111775390625,-0.03405756875872612,0.1673959195613861,0.29919949173927307
1789061916853785600,4.12178564453125,0.021690381690859795,-0.10555358976125717,0.048164598643779755
1789061916863794700,4.131794677734375,-0.13809795677661896,0.12450038641691208,-0.02418869361281395
1789061916873804500,4.141804443359375,-0.07911452651023865,0.08667044341564178,-0.26659974455833435
1789061916883814700,4.151814697265625,0.01744530349969864,-0.04237914830446243,-0.256428599357605
1789061916893823500,4.161823486328125,0.03297366201877594,0.011390073224902153,-0.0841660127043724
1789061916903833300,4.171833251953125,-0.07148190587759018,-0.0023760723415762186,0.061828214675188065
1789061916913843500,4.181843505859375,-0.17739155888557434,0.11935808509588242,0.0987129956483841
1789061916923853300,4.191853271484375,-0.28256192803382874,0.2761026918888092,0.11066499352455139
1789061916933862400,4.2018623046875,-0.15197435021400452,-0.16791097819805145,-0.054736215621232986
1789061916943872500,4.21187255859375,-0.20729991793632507,0.05928888916969299,0.05595700815320015
1789061916953882400,4.22188232421875,-0.2517147958278656,0.09221674501895905,0.026866234838962555
1789061916963891500,4.231891357421875,-0.29983091354370117,0.09697075188159943,0.06283994764089584
1789061916973901600,4.241901611328125,-0.16924335062503815,0.010424677282571793,0.049978744238615036
1789061916983911400,4.251911376953125,-0.024090155959129333,-0.04825381562113762,-0.01661146804690361
1789061916993921500,4.261921630859375,-0.023696009069681168,-0.050511643290519714,-0.08486002683639526
1789061917003930600,4.2719306640625,-0.19388584792613983,0.07909402251243591,-0.05734371766448021
1789061917013940500,4.2819404296875,-0.16384565830230713,0.04751984775066376,-0.04003343731164932
1789061917023950600,4.29195068359375,-0.15568839013576508,0.080854631960392,0.0966663584113121
1789061917033959400,4.30195947265625,-0.14214196801185608,0.018575815483927727,0.08371859788894653
1789061917043969300,4.31196923828125,-0.14659956097602844,0.003564907470718026,-0.06443704664707184
1789061917053979400,4.3219794921875,-0.13171781599521637,-0.09284897893667221,-0.22774474322795868
1789061917063988500,4.331988525390625,-0.12091470509767532,-0.2734070420265198,-0.28509271144866943
1789061917073998300,4.341998291015625,-0.16530907154083252,0.24556155502796173,0.1326264888048172
1789061917084008400,4.352008544921875,-0.16692879796028137,-0.18826045095920563,-0.028079571202397346
1789061917094018600,4.3620185546875,-0.26234933733940125,-0.019144665449857712,0.01637524552643299
1789061917104027400,4.37202734375,-0.22079309821128845,-0.0017979000695049763,-0.139049232006073
1789061917114037500,4.38203759765625,-0.06339628249406815,-0.1916906088590622,-0.36070919036865234
1789061917124047600,4.392047607421875,0.022764701396226883,-0.1753007173538208,-0.13815467059612274
1789061917134056400,4.402056396484375,0.1385112702846527,-0.2997632920742035,-0.019027752801775932
1789061917144066600,4.412066650390625,-0.009879528544843197,0.36930719017982483,0.40416932106018066
1789061917154076700,4.42207666015625,0.07184995710849762,-0.17148201167583466,0.09620189666748047
1789061917164086300,4.432086181640625,0.1456775665283203,-0.069196917116642,-0.00410552928224206
1789061917174095400,4.442095458984375,0.2191973328590393,-0.0988919585943222,-0.14599955081939697
1789061917184105500,4.45210546875,0.24721138179302216,-0.17090995609760284,-0.18258285522460938
1789061917194115300,4.462115234375,0.26351234316825867,-0.3300892412662506,-0.16261181235313416
1789061917204124400,4.47212451171875,0.20584210753440857,0.3303645849227905,0.2798212766647339
1789061917214134500,4.482134521484375,0.2979579269886017,0.014695589430630207,0.10965059697628021
1789061917224144400,4.492144287109375,0.39853939414024353,-0.017012804746627808,-0.013247095979750156
1789061917234154500,4.502154541015625,0.4788004159927368,-0.050814446061849594,-0.10640553385019302
1789061917244163600,4.51216357421875,0.4618541896343231,-0.04000760242342949,-0.20749646425247192
1789061917254173400,4.52217333984375,0.4329407811164856,-0.04928445816040039,-0.17921103537082672
1789061917264183600,4.53218359375,0.47482430934906006,-0.14254969358444214,-0.19148021936416626
1789061917274192600,4.542192626953125,0.4519232511520386,0.14740675687789917,0.06103033199906349
1789061917284202500,4.552202392578125,0.5381311178207397,-0.2517821788787842,-0.05420012027025223
1789061917294212600,4.562212646484375,0.5022250413894653,0.4256855249404907,0.23807968199253082
1789061917304222500,4.572222412109375,0.5929996967315674,-0.001198688754811883,0.008046475239098072
1789061917314231600,4.5822314453125,0.552825391292572,-0.007845939137041569,-0.043361589312553406
1789061917324241700,4.59224169921875,0.5193845629692078,-0.15366625785827637,-0.07251814007759094
1789061917334251500,4.60225146484375,0.5210165977478027,0.23962537944316864,0.14483681321144104
1789061917344260600,4.612260498046875,0.5492625832557678,-0.09732761979103088,0.05173616483807564
1789061917354270700,4.622270751953125,0.42613667249679565,0.08073718845844269,0.08160777390003204
1789061917364280600,4.632280517578125,0.4665360152721405,0.0532405860722065,0.009740511886775494
1789061917374290400,4.64229052734375,0.4724799394607544,0.07264038175344467,0.08651918172836304
1789061917384299500,4.652299560546875,0.45579230785369873,-0.08065063506364822,0.08533939719200134
1789061917394309600,4.6623095703125,0.3755089044570923,0.15944664180278778,0.18029733002185822
1789061917404319500,4.672319580078125,0.24215324223041534,0.19562995433807373,0.126626655459404
1789061917414328600,4.68232861328125,0.23721441626548767,0.044975198805332184,0.05988543853163719
1789061917424338700,4.692338623046875,0.2644055485725403,0.06057865917682648,0.16722947359085083
1789061917434348500,4.7023486328125,0.24557088315486908,0.03387514129281044,0.26503458619117737
1789061917444358700,4.712358642578125,0.11774420738220215,0.07036204636096954,0.19814051687717438
1789061917454367700,4.72236767578125,0.07887617498636246,0.12649855017662048,-0.05895226448774338
1789061917464377600,4.732377685546875,0.04904370754957199,0.1978084146976471,-0.09501413255929947
1789061917474387700,4.7423876953125,0.12261566519737244,-0.21426595747470856,-0.26969194412231445
1789061917484396800,4.752396728515625,0.014282266609370708,0.2500969171524048,0.14494280517101288
1789061917494406700,4.76240673828125,-0.00643899105489254,-0.21952304244041443,0.02346271462738514
1789061917504416800,4.772416748046875,-0.23854120075702667,0.6847043037414551,0.4901182949542999
1789061917514426400,4.78242626953125,-0.196639284491539,0.084086112678051,0.14191453158855438
1789061917524435500,4.792435546875,-0.13209572434425354,0.1241547018289566,0.04402871057391167
1789061917534445600,4.802445556640625,-0.010943727567791939,0.07756536453962326,-0.05931072682142258
1789061917544455400,4.812455322265625,0.009706955403089523,0.03737054020166397,0.03777214512228966
1789061917554465500,4.822465576171875,-0.014002367854118347,0.24848145246505737,0.12680907547473907
1789061917564474600,4.832474609375,-0.08639587461948395,0.21565213799476624,0.07942558079957962
1789061917574484500,4.842484375,-0.08129005879163742,0.13625237345695496,-0.026825755834579468
1789061917584494600,4.85249462890625,0.004603007808327675,0.18668971955776215,0.11999085545539856
1789061917594503700,4.862503662109375,0.11300511658191681,0.05468295142054558,-0.014407169073820114
1789061917604513500,4.872513427734375,-0.060393836349248886,0.17904537916183472,-0.00047111319145187736
1789061917614523600,4.882523681640625,-0.10341693460941315,0.05320463329553604,-0.12640880048274994
1789061917624532700,4.89253271484375,-0.03200054168701172,0.09567219763994217,0.010721353814005852
1789061917634542600,4.90254248046875,-0.08080562949180603,0.2902584671974182,0.15257489681243896
1789061917644552400,4.912552490234375,-0.1939745396375656,0.25772687792778015,0.09984670579433441
1789061917654562600,4.9225625,-0.20770259201526642,0.20522825419902802,-0.13836853206157684
1789061917664571600,4.932571533203125,-0.22930802404880524,0.14538942277431488,-0.23440077900886536
1789061917674581500,4.94258154296875,-0.0226211566478014,-0.48002731800079346,-0.3126620352268219
1789061917684591600,4.952591552734375,-0.12455018609762192,0.3035534918308258,0.29280710220336914
1789061917694601500,4.9626015625,-0.23500825464725494,0.1938304603099823,0.26426440477371216
1789061917704610600,4.972610595703125,-0.40335705876350403,0.2588781714439392,0.2095596194267273
1789061917714620700,4.98262060546875,-0.4238141179084778,0.14440937340259552,-0.03701740503311157
1789061917724630500,4.992630615234375,-0.371864378452301,0.14697054028511047,-0.0682608112692833
1789061917734639600,5.0026396484375,-0.21623216569423676,-0.014007162302732468,-0.17165164649486542
1789061917744649700,5.012649658203125,-0.25734126567840576,-0.33111828565597534,-0.18747775256633759
1789061917754659600,5.02265966796875,-0.45178502798080444,0.20465300977230072,0.1369093805551529
1789061917764669700,5.032669677734375,-0.41438573598861694,0.19275134801864624,0.18443481624126434
1789061917774678500,5.042678466796875,-0.3720659613609314,-0.0014474280178546906,0.022649120539426804
1789061917784688400,5.0526884765625,-0.54124915599823,0.060336578637361526,-0.005943110212683678
1789061917794698500,5.062698486328125,-0.48394671082496643,0.03873914107680321,-0.020495953038334846
1789061917804707600,5.07270751953125,-0.430631548166275,-0.005977198481559753,-0.1937478929758072
1789061917814717400,5.082717529296875,-0.31019434332847595,-0.19711600244045258,-0.396526038646698
1789061917824727600,5.0927275390625,-0.30778393149375916,-0.4166070818901062,-0.26851508021354675
1789061917834737700,5.102737548828125,-0.2524378299713135,-0.33153584599494934,-0.047621313482522964
1789061917844746500,5.11274658203125,-0.4500739574432373,0.30681851506233215,0.3520427346229553
1789061917854756600,5.122756591796875,-0.48374882340431213,-0.05181446298956871,0.0809750109910965
1789061917864766700,5.1327666015625,-0.5120574235916138,-0.06414729356765747,-0.1852167248725891
1789061917874775600,5.142775634765625,-0.32875579595565796,-0.0248494241386652,-0.2829701900482178
1789061917884785700,5.15278564453125,-0.11450660228729248,-0.20507219433784485,-0.29366758465766907
1789061917894795800,5.162795654296875,0.1276431828737259,-0.18076525628566742,-0.033602967858314514
1789061917904805600,5.1728056640625,0.1760629117488861,-0.00027803401462733746,0.09668073803186417
1789061917914814500,5.182814453125,0.15045662224292755,-0.3022408187389374,-0.1281513124704361
1789061917924824600,5.192824462890625,0.12990154325962067,-0.04008590057492256,-0.09392436593770981
1789061917934834400,5.20283447265625,0.1871163547039032,-0.14394386112689972,-0.0999729335308075
1789061917944843500,5.212843505859375,0.3249003291130066,-0.24325446784496307,-0.017125191166996956
1789061917954853600,5.222853515625,0.21998456120491028,0.15552833676338196,0.16970939934253693
1789061917964863500,5.232863525390625,0.2534692883491516,-0.1969492882490158,0.037815820425748825
1789061917974873600,5.24287353515625,0.34086838364601135,0.05223151296377182,0.13054628670215607
1789061917984882700,5.252882568359375,0.4846223294734955,-0.10792886465787888,0.02605104073882103
1789061917994892500,5.262892578125,0.577046275138855,-0.0014684670604765415,0.06436380743980408
1789061918004902700,5.272902587890625,0.6298764944076538,-0.055332232266664505,-0.22882306575775146
1789061918014911700,5.282911865234375,0.5463943481445312,-0.4485383629798889,-0.43105071783065796
1789061918024921600,5.292921630859375,0.5775091648101807,0.3005755543708801,0.03255527839064598
1789061918034931700,5.302931640625,0.6763268113136292,-0.05432236194610596,0.16688326001167297
1789061918044941600,5.312941650390625,0.45365989208221436,-0.05644143745303154,0.04077592492103577
1789061918054950400,5.322950439453125,0.2907857596874237,0.16525979340076447,0.13791659474372864
1789061918064960500,5.33296044921875,0.3919062614440918,-0.08426960557699203,-0.09161487221717834
1789061918075596500,5.343596435546875,0.3244401216506958,0.026314161717891693,0.06542321294546127
1789061918085606700,5.353606689453125,0.36469459533691406,-0.12799951434135437,0.023978836834430695
1789061918095616500,5.363616455078125,0.2712160646915436,-0.01570945419371128,0.11870188266038895
1789061918105625600,5.37362548828125,0.12027581036090851,0.06503172963857651,0.12968076765537262
1789061918115635700,5.3836357421875,0.06453292071819305,0.12004677951335907,0.08206264674663544
1789061918125645600,5.3936455078125,0.055273108184337616,0.06167588010430336,-0.00885101594030857
1789061918135654700,5.403654541015625,0.0057798586785793304,0.09678220003843307,0.04465242102742195
1789061918145664800,5.413664794921875,0.04212108626961708,0.049184590578079224,-0.03568369522690773
1789061918155674600,5.423674560546875,0.08349968492984772,-0.2653837203979492,-0.20765092968940735
1789061918165684700,5.433684814453125,0.026321087032556534,0.028176777064800262,-0.037688255310058594
1789061918175693600,5.443693603515625,-0.03236672654747963,0.029834328219294548,0.0734153613448143
1789061918185703400,5.453703369140625,-0.1607622504234314,-0.010243848897516727,0.04671051353216171
1789061918195713500,5.463713623046875,-0.2835478186607361,0.10291759669780731,0.050747066736221313
1789061918205722600,5.47372265625,-0.20712575316429138,-0.05263391509652138,0.05489680543541908
1789061918215732500,5.483732421875,-0.07289737462997437,0.06322024762630463,0.12460637837648392
1789061918225742600,5.49374267578125,-0.04912040755152702,-0.18002143502235413,0.05163922533392906
1789061918235752700,5.503752685546875,-0.004346545320004225,-0.017898039892315865,0.16345150768756866
1789061918245761500,5.513761474609375,0.10117961466312408,-0.014103568159043789,0.18880000710487366
1789061918255771600,5.523771728515625,0.1208031177520752,-0.026691531762480736,0.09125028550624847
1789061918265781800,5.53378173828125,0.056952230632305145,0.06872952729463577,0.030054571107029915
1789061918275791600,5.54379150390625,0.16825371980667114,0.1417858898639679,-0.019599001854658127
1789061918285800700,5.55380078125,0.21038466691970825,0.020386232063174248,-0.041546378284692764
1789061918295810000,5.56381005859375,0.23518002033233643,0.051486626267433167,-0.021471470594406128
1789061918305820000,5.57381982421875,0.3217647075653076,0.0896420031785965,0.22920522093772888
1789061918315829000,5.5838291015625,0.2884911894798279,-0.017587516456842422,0.039629168808460236
1789061918325839000,5.593839111328125,0.09184443950653076,0.34053680300712585,0.1592666208744049
1789061918335849000,5.603848876953125,0.17155630886554718,0.14137177169322968,-0.15367291867733002
1789061918345859000,5.613859130859375,0.3570641279220581,-0.47784993052482605,-0.17907440662384033
1789061918355868000,5.623867919921875,0.20273233950138092,0.3970711827278137,0.32069918513298035
1789061918365877800,5.633877685546875,0.05078142136335373,0.18211548030376434,0.3480442464351654
1789061918375888000,5.643887939453125,0.009150088764727116,0.021152157336473465,0.06296218931674957
1789061918385897000,5.65389697265625,-0.025253424420952797,0.1792568415403366,-0.05259183794260025
1789061918395906800,5.66390673828125,0.05950700119137764,0.12774571776390076,-0.1255592554807663
1789061918406542000,5.6745419921875,0.07234716415405273,-0.13477405905723572,-0.11318913847208023
1789061918416552200,5.68455224609375,-0.13998693227767944,0.14629489183425903,0.029710492119193077
1789061918426562000,5.69456201171875,-0.15338130295276642,0.10834511369466782,0.01606551930308342
1789061918436571000,5.70457080078125,-0.1399531066417694,0.09990076720714569,0.14489006996154785
1789061918446581000,5.7145810546875,-0.284033864736557,0.12768898904323578,0.10323131084442139
1789061918456590800,5.7245908203125,-0.36019840836524963,0.11396624892950058,0.10150744765996933
1789061918466600000,5.734599853515625,-0.38963964581489563,0.11530022323131561,0.031917985528707504
1789061918476610000,5.744610107421875,-0.4495626389980316,0.08250472694635391,-0.05633384734392166
1789061918486620000,5.754619873046875,-0.3847367465496063,0.08266079425811768,-0.079584039747715
1789061918496630000,5.764630126953125,-0.36650794744491577,-0.15935450792312622,-0.12762853503227234
1789061918506639000,5.77463916015625,-0.49673333764076233,0.10759197175502777,0.14959535002708435
1789061918516649000,5.78464892578125,-0.43652406334877014,-0.0008290420519188046,0.12334803491830826
1789061918526659000,5.7946591796875,-0.424874871969223,0.13604891300201416,0.1470472365617752
1789061918536668200,5.804668212890625,-0.4759273827075958,-0.026145050302147865,0.045533664524555206
1789061918546678000,5.814677978515625,-0.49334660172462463,-0.017303090542554855,-0.015045794658362865
1789061918556688100,5.824688232421875,-0.3589850664138794,-0.02684120088815689,-0.08039284497499466
1789061918566698000,5.834697998046875,-0.30240753293037415,-0.0730515718460083,-0.16220861673355103
1789061918576706800,5.844706787109375,-0.2430320829153061,-0.20665277540683746,-0.07111332565546036
1789061918586717000,5.854717041015625,-0.11944250762462616,-0.08310180902481079,0.07417063415050507
1789061918596726800,5.864726806640625,-0.011272894218564034,0.32369816303253174,0.3217255771160126
1789061918606736000,5.87473583984375,0.05229010060429573,-0.0904308333992958,0.08572874963283539
1789061918616746000,5.88474609375,0.12234482169151306,-0.13930675387382507,-0.07644230872392654
1789061918626755800,5.894755859375,0.17148520052433014,-0.03909626975655556,-0.06881342083215714
1789061918636766000,5.904765869140625,0.1648898869752884,-0.03861556947231293,-0.07260043174028397
1789061918646775000,5.914775146484375,0.18944209814071655,0.015188540332019329,0.10706759989261627
1789061918656785000,5.924784912109375,0.2760970890522003,-0.08968407660722733,0.015216236934065819
1789061918666795000,5.934794921875,0.27963829040527344,0.19155558943748474,0.010280068032443523
1789061918676805000,5.94480517578125,0.41314148902893066,-0.33414149284362793,-0.20300424098968506
1789061918686814000,5.95481396484375,0.3393852710723877,0.26948925852775574,0.1101699098944664
1789061918696824000,5.964823974609375,0.3460756540298462,-0.05360596999526024,0.048838380724191666
1789061918706834200,5.974834228515625,0.3109149932861328,-0.04235118627548218,-0.011305651627480984
1789061918716843000,5.984843017578125,0.2732224762439728,-0.021263742819428444,-0.013676930218935013
1789061918726852900,5.994852783203125,0.2731039822101593,0.17261917889118195,0.08243335783481598
1789061918736863000,6.004863037109375,0.31816092133522034,-0.07644763588905334,-0.06813590973615646
1789061918746872800,6.014872802734375,0.2698383927345276,0.042637743055820465,-0.017103619873523712
1789061918756882000,6.0248818359375,0.2636635899543762,0.011494736187160015,-0.047618649899959564
1789061918766892000,6.03489208984375,0.20028142631053925,0.08687923848628998,0.01661466248333454
1789061918776902000,6.04490185546875,0.20765705406665802,-0.07012902200222015,-0.08281072974205017
1789061918786911000,6.054910888671875,0.1826065629720688,-0.06428151577711105,-0.03773273155093193
1789061918796921000,6.064921142578125,0.18180495500564575,0.14299550652503967,0.1883571296930313
1789061918806931000,6.074930908203125,0.12196105718612671,0.000474575295811519,0.15946316719055176
1789061918816941000,6.084941162109375,0.07385824620723724,0.07133303582668304,0.11338887363672256
1789061918826950100,6.0949501953125,0.10393571853637695,0.023009179159998894,-0.14244316518306732
1789061918836960000,6.1049599609375,0.1971905678510666,-0.09211474657058716,-0.17527781426906586
1789061918846969900,6.114969970703125,0.1283441185951233,-0.19900843501091003,-0.16231220960617065
1789061918856980000,6.12497998046875,0.00384374032728374,0.24292317032814026,0.2282875031232834
1789061918866988800,6.13498876953125,0.02948652021586895,0.06511242687702179,0.14654603600502014
1789061918876999000,6.1449990234375,0.07284118235111237,0.15485216677188873,0.20353049039840698
1789061918887009000,6.155009033203125,0.09617633372545242,0.025415077805519104,0.006864031311124563
1789061918897017900,6.165017822265625,0.11656762659549713,0.025484321638941765,-0.11429914832115173
1789061918907028000,6.175028076171875,0.060381852090358734,-0.04294320568442345,-0.16613250970840454
1789061918917038000,6.1850380859375,-0.03253450617194176,0.03335342928767204,-0.07319538295269012
1789061918927048000,6.1950478515625,-0.014660702086985111,0.23116157948970795,0.1024472787976265
1789061918937057000,6.20505712890625,0.07153117656707764,-0.017315341159701347,-0.0659308135509491
1789061918947067100,6.215067138671875,-0.024933844804763794,0.07717334479093552,0.05404006689786911
1789061918957077000,6.225076904296875,-0.08828991651535034,0.031680166721343994,-0.06805441528558731
1789061918967087000,6.235087158203125,-0.08040855824947357,-0.0062696137465536594,-0.04837978258728981
1789061918977096000,6.245095947265625,-0.12369024753570557,0.007709318771958351,-0.026935743167996407
1789061918987105800,6.255105712890625,-0.1599867343902588,0.03472176194190979,0.010936803184449673
1789061918997116000,6.265115966796875,-0.20208439230918884,0.17021460831165314,0.10918747633695602
1789061919007125000,6.275125,-0.18858163058757782,-0.08730561286211014,-0.0890963226556778
1789061919017134800,6.285134765625,-0.24063338339328766,0.09685171395540237,-0.03244609013199806
1789061919027145000,6.29514501953125,-0.24722842872142792,0.04581489413976669,-0.058345332741737366
1789061919037154800,6.30515478515625,-0.23366069793701172,-0.0019148128340020776,-0.09199383854866028
1789061919047164000,6.315163818359375,-0.20152272284030914,-0.07315037399530411,-0.028189826756715775
1789061919057174000,6.325174072265625,-0.21398232877254486,0.052323125302791595,-0.10467500984668732
1789061919067183900,6.335183837890625,-0.14761582016944885,-0.06025188788771629,-0.005666940473020077
1789061919077193000,6.34519287109375,-0.14098535478115082,-0.02846306748688221,0.02449335902929306
1789061919087203000,6.355203125,-0.15008270740509033,0.22348634898662567,0.1732226461172104
1789061919097213000,6.365212890625,-0.11009055376052856,-0.05498495325446129,-0.0038370825350284576
1789061919107223000,6.37522314453125,-0.10383106023073196,-0.01637418009340763,-0.09157226234674454
1789061919117231900,6.38523193359375,0.004447478801012039,-0.008051002398133278,-0.11705870926380157
1789061919127241700,6.39524169921875,0.05768726393580437,-0.10998695343732834,-0.13462892174720764
1789061919137251800,6.405251953125,0.027572771534323692,0.26325932145118713,0.07647719979286194
1789061919147262000,6.415261962890625,0.08091215789318085,0.00923291314393282,-0.03460298478603363
1789061919157270800,6.425270751953125,0.03407115116715431,0.05813467502593994,-0.08259474486112595
1789061919167281000,6.435281005859375,0.15908925235271454,-0.2612031102180481,-0.19661346077919006
1789061919177291000,6.445291015625,0.10378418862819672,0.2889396548271179,0.02611895278096199
1789061919187299800,6.4552998046875,0.11055260896682739,-0.008856608532369137,-0.03621632605791092
1789061919197310000,6.46531005859375,0.07829240709543228,-0.015331552363932133,-0.12859658896923065
1789061919207320000,6.475320068359375,0.08018697798252106,-0.006272276863455772,-0.1766543984413147
1789061919217330000,6.485329833984375,0.02624385431408882,-0.06161462888121605,-0.1269398331642151
1789061919227339000,6.495339111328125,0.008052600547671318,0.0350077860057354,-0.027515247464179993
1789061919237349000,6.50534912109375,-0.05379345640540123,0.03057841584086418,0.011258513666689396
1789061919247359000,6.51535888671875,-0.10181531310081482,0.02857571840286255,-0.0003683151735458523
1789061919257367800,6.525367919921875,-0.08510610461235046,0.07793235033750534,0.0827939510345459
1789061919267378000,6.5353779296875,-0.08070682734251022,-0.09854868054389954,0.0864504724740982
1789061919277387800,6.5453876953125,-0.1343759149312973,-0.0034591800067573786,0.0888688862323761
1789061919287398100,6.555398193359375,-0.18185794353485107,0.13704094290733337,0.13788169622421265
1789061919297407200,6.5654072265625,-0.19235000014305115,-0.046367764472961426,-0.09164469689130783
1789061919307417000,6.5754169921875,-0.22651436924934387,0.0805550292134285,0.027235349640250206
1789061919317427200,6.58542724609375,-0.11652874201536179,-0.1250857412815094,-0.09951434284448624
1789061919327437000,6.59543701171875,-0.14483867585659027,-0.0190232265740633,0.07101266086101532
1789061919337446100,6.605446044921875,-0.20355498790740967,-0.14606426656246185,-0.09953457862138748
1789061919347456300,6.615456298828125,-0.32367900013923645,0.275372177362442,0.14818175137043
1789061919357466000,6.625466064453125,-0.26555097103118896,-0.24986256659030914,-0.1320379227399826
1789061919367475200,6.63547509765625,-0.36315688490867615,0.2445831149816513,0.21659807860851288
1789061919377485300,6.6454853515625,-0.2802351117134094,-0.2576778829097748,0.0015515576815232635
1789061919387495200,6.6554951171875,-0.3572574555873871,0.2834263741970062,0.25666773319244385
1789061919397505300,6.66550537109375,-0.33980655670166016,-0.013363475911319256,0.016275376081466675
1789061919407514000,6.67551416015625,-0.38582465052604675,-0.08229593932628632,-0.055625710636377335
1789061919417524200,6.685524169921875,-0.39685386419296265,-0.027163177728652954,-0.04177967086434364
1789061919427534000,6.6955341796875,-0.3421376347541809,-0.0331486314535141,0.00809015054255724
1789061919437543200,6.705543212890625,-0.30469757318496704,-0.028558939695358276,0.011362376622855663
1789061919447553300,6.71555322265625,-0.27933043241500854,0.027831364423036575,0.03111770562827587
1789061919457563100,6.725563232421875,-0.2557617425918579,-0.048350755125284195,-0.055090416222810745
1789061919467573200,6.7355732421875,-0.2142249494791031,-0.06503599137067795,-0.008467254228889942
1789061919477582300,6.745582275390625,-0.14869360625743866,-0.11682595312595367,0.010792460292577744
1789061919487592200,6.75559228515625,-0.11004048585891724,-0.010379137471318245,0.05218703672289848
1789061919497602300,6.765602294921875,-0.049011219292879105,-0.38940101861953735,-0.09640403091907501
1789061919507612200,6.775612060546875,-0.11267967522144318,0.22811679542064667,0.1944855898618698
1789061919517621200,6.785621337890625,-0.07964769005775452,-0.10116390138864517,0.12666234374046326
1789061919527631400,6.79563134765625,-0.0848054364323616,-0.1432144194841385,0.08466881513595581
1789061919537641200,6.80564111328125,-0.08304242044687271,-0.09505461156368256,0.02882552333176136
1789061919547650000,6.815650146484375,-0.051586493849754333,-0.2261684238910675,-0.11496653407812119
1789061919557660200,6.82566015625,-0.029320871457457542,0.010337059386074543,0.015331286005675793
1789061919567670000,6.835669921875,0.03075738064944744,-0.3061220943927765,-0.05753945931792259
1789061919577680100,6.84568017578125,0.025406289845705032,0.05849340185523033,0.07116179168224335
1789061919587689200,6.855689208984375,0.046421293169260025,-0.027577565982937813,0.11220110952854156
1789061919597699000,6.865698974609375,0.06851115077733994,-0.25279125571250916,-0.05856424197554588
1789061919607709200,6.875709228515625,0.07493069767951965,0.09464874118566513,0.1272229254245758
1789061919617719300,6.88571923828125,0.18082010746002197,-0.08901988714933395,-0.048581916838884354
1789061919627728100,6.89572802734375,0.2964521646499634,-0.26315438747406006,-0.06276191771030426
1789061919637738200,6.90573828125,0.3137983977794647,0.07536958903074265,0.11273879557847977
1789061919647748400,6.915748291015625,0.38301557302474976,-0.14453907310962677,0.042027078568935394
1789061919657757200,6.925757080078125,0.3901493549346924,0.022953519597649574,0.054487209767103195
1789061919667767300,6.935767333984375,0.38473543524742126,0.10251971334218979,0.11190895736217499
1789061919677777400,6.94577734375,0.41490212082862854,0.0035566515289247036,-0.06943180412054062
1789061919687787300,6.955787353515625,0.4249110817909241,-0.019062640145421028,-0.11231748759746552
1789061919697796000,6.965796142578125,0.40686124563217163,-0.0536017082631588,-0.16258704662322998
1789061919707806200,6.97580615234375,0.41987425088882446,0.01738698035478592,-0.01786288619041443
1789061919717816000,6.985816162109375,0.3723176419734955,0.04571369290351868,0.043835632503032684
1789061919727825200,6.9958251953125,0.3248286843299866,0.19000056385993958,0.1116303876042366
1789061919737835300,7.005835205078125,0.37850603461265564,-0.14077602326869965,0.001261539408005774
1789061919747845000,7.01584521484375,0.26007550954818726,0.20988266170024872,0.15965783596038818
1789061919757855200,7.025855224609375,0.19232283532619476,0.0926247388124466,0.06588687002658844
1789061919767864300,7.0358642578125,0.10732192546129227,0.10533787310123444,0.037809696048498154
1789061919777874200,7.045874267578125,0.08413458615541458,0.09028888493776321,-0.009909622371196747
1789061919787884300,7.05588427734375,0.06985977292060852,-0.19186557829380035,-0.02749340981245041
1789061919797894100,7.06589404296875,0.0035206989850848913,0.16195960342884064,0.14250655472278595
1789061919807903200,7.0759033203125,-0.010931743308901787,0.06793350726366043,0.17863552272319794
1789061919817913300,7.085913330078125,-0.06591563671827316,0.15238447487354279,0.19045570492744446
1789061919827923200,7.095923095703125,-0.09571134299039841,0.052508480846881866,0.06784562766551971
1789061919837932000,7.10593212890625,-0.17531242966651917,0.07419167459011078,0.056167930364608765
1789061919847942100,7.115942138671875,-0.2360498160123825,0.08130843937397003,0.028325913473963737
1789061919857952000,7.125951904296875,-0.2957648038864136,0.04397864267230034,0.071149542927742
1789061919867962000,7.135962158203125,-0.30260807275772095,-0.1153460368514061,-0.04308222234249115
1789061919877971200,7.14597119140625,-0.3205313980579376,0.1787519007921219,0.06165856868028641
1789061919887981000,7.15598095703125,-0.25190892815589905,-0.06433824449777603,0.006383064668625593
1789061919897991200,7.1659912109375,-0.3457523286342621,0.13057158887386322,0.08328636735677719
1789061919908001300,7.176001220703125,-0.378071665763855,0.08994133770465851,0.021201690658926964
1789061919918010000,7.186010009765625,-0.3527522087097168,0.06437099725008011,-0.03153076022863388
1789061919928020200,7.196020263671875,-0.2866511940956116,-0.029859628528356552,-0.0596231147646904
1789061919938030300,7.2060302734375,-0.27227067947387695,-0.050338003784418106,-0.023686420172452927
1789061919948039200,7.2160390625,-0.27394792437553406,0.13128691911697388,0.07844340801239014
1789061919958049300,7.22604931640625,-0.23795850574970245,0.01757020503282547,-0.02340785413980484
1789061919968059400,7.236059326171875,-0.27060139179229736,0.1237054318189621,0.06805441528558731
1789061919978069200,7.2460693359375,-0.23366069793701172,-0.05439266934990883,-0.14079999923706055
1789061919988078000,7.256078125,-0.2048407644033432,-0.0016652746126055717,-0.003010703483596444
1789061919998088200,7.266088134765625,-0.19367891550064087,-0.025897111743688583,0.001202150946483016
1789061920008098000,7.27609814453125,-0.18862929940223694,0.0832458883523941,0.1531035304069519
1789061920018108200,7.286108154296875,-0.1429009586572647,-0.16808807849884033,-0.011290204711258411
1789061920028117200,7.2961171875,-0.19394443929195404,0.16948837041854858,0.1404748260974884
1789061920038127000,7.306127197265625,-0.11705418676137924,-0.11331803351640701,0.05414605885744095
1789061920048137200,7.31613720703125,-0.14779771864414215,0.012031362392008305,0.06781259924173355
1789061920058146300,7.326146240234375,-0.12457921355962753,-0.07083556056022644,-0.1048387959599495
1789061920068156200,7.33615625,-0.11177899688482285,-0.052316468209028244,-0.07254397124052048
1789061920078166300,7.346166259765625,-0.11739587038755417,0.09185109287500381,0.04001559317111969
1789061920088176000,7.356176025390625,-0.06634147465229034,-0.02852139063179493,0.053645651787519455
1789061920098185200,7.366185302734375,-0.06897187978029251,-0.04715685918927193,0.044556550681591034
1789061920108195300,7.3761953125,-0.03111957013607025,-0.03635081648826599,-0.04521328583359718
1789061920118205200,7.386205078125,0.012203935533761978,-0.05986706167459488,-0.1515708863735199
1789061920128215300,7.39621533203125,-0.019059179350733757,-0.14417794346809387,-0.2636074125766754
1789061920138224000,7.40622412109375,-0.014455904252827168,-0.20811724662780762,-0.21164727210998535
1789061920148234200,7.416234130859375,-0.03886590525507927,0.07225821912288666,0.09623731672763824
1789061920158244000,7.426244140625,-0.09372010082006454,-0.1369170993566513,0.014104367233812809
1789061920168253200,7.436253173828125,-0.12502875924110413,-0.022529277950525284,0.027100592851638794
1789061920178263300,7.44626318359375,-0.06892021000385284,-0.09161780029535294,-0.1788421869277954
1789061920188273200,7.456273193359375,-0.027055319398641586,-0.06366206705570221,-0.22497186064720154
1789061920198283300,7.466283203125,-0.04085129126906395,-0.11883211135864258,-0.18578797578811646
1789061920208292400,7.476292236328125,-0.012922190129756927,-0.20972712337970734,-0.12734730541706085
1789061920218302200,7.48630224609375,0.007607585750520229,0.02996775321662426,0.10853366553783417
1789061920228312300,7.496312255859375,0.14846749603748322,-0.2248842418193817,0.03403865918517113
1789061920238321400,7.5063212890625,0.16164135932922363,0.1967918872833252,0.26147180795669556
1789061920248331300,7.516331298828125,0.17836467921733856,-0.21787826716899872,0.035479430109262466
1789061920258341400,7.52634130859375,0.08077473938465118,-0.14573056995868683,-0.031805332750082016
1789061920268351200,7.536351318359375,0.0026730147656053305,-0.08313456922769547,-0.12595686316490173
1789061920278360000,7.546360107421875,0.030894799157977104,-0.035524170845746994,-0.032647691667079926
1789061920288371200,7.55637109375,0.10339110344648361,-0.14351855218410492,-0.04283428192138672
1789061920298381000,7.566381103515625,0.13584944605827332,-0.13419082760810852,0.01709216833114624
1789061920308391200,7.57639111328125,0.11596628278493881,0.030041787773370743,0.06686318665742874
1789061920318400300,7.586400146484375,0.14280588924884796,-0.1367727667093277,-0.1418474167585373
1789061920328410000,7.59641015625,0.05648724362254143,-0.012191684916615486,-0.05186745896935463
1789061920338420200,7.606420166015625,0.12177277356386185,-0.10349337011575699,-0.15026220679283142
1789061920348430000,7.61643017578125,0.07022356241941452,-0.2199435532093048,-0.20351557433605194
1789061920358439200,7.626439208984375,-0.0030953921377658844,-0.10927882045507431,-0.12360316514968872
1789061920368449300,7.63644921875,-0.03552337363362312,0.09567885845899582,0.14310123026371002
1789061920378459100,7.646459228515625,0.06663495302200317,-0.28124871850013733,-0.03027508221566677
1789061920388468000,7.656468017578125,-0.014297978952527046,-0.09709033370018005,-0.058765046298503876
1789061920398478000,7.66647802734375,-0.017074590548872948,-0.03815510869026184,-0.07793235033750534
1789061920408488000,7.676488037109375,0.044730186462402344,0.0231721643358469,0.003157177474349737
1789061920418498000,7.686498046875,0.14434120059013367,-0.10791634768247604,-0.10318337380886078
1789061920428507100,7.696507080078125,0.1440141648054123,-0.07501298934221268,-0.09078449755907059
1789061920438517000,7.70651708984375,0.1938757300376892,-0.09609004855155945,-0.007488009985536337
1789061920448527000,7.716527099609375,0.2706035375595093,-0.08086396008729935,0.09497418254613876
1789061920458536200,7.7265361328125,0.21812407672405243,0.04195437580347061,0.11408715695142746
1789061920468546000,7.736546142578125,0.21711286902427673,0.057228934019804,0.08444111794233322
1789061920478556200,7.74655615234375,0.21406994760036469,-0.023839551955461502,-0.13429149985313416
1789061920488566300,7.756566162109375,0.2145724892616272,-0.09912685304880142,-0.09555288404226303
1789061920498575000,7.7665751953125,0.1752711534500122,-0.14458514750003815,-0.038535140454769135
1789061920508585200,7.776585205078125,0.1264205276966095,0.21305981278419495,0.2422613650560379
1789061920518595300,7.78659521484375,0.08033984899520874,-0.013895309530198574,0.15537786483764648
1789061920528605200,7.796605224609375,0.09178318083286285,-0.005717540625482798,0.015393337234854698
1789061920538614000,7.806614013671875,0.10153514891862869,-0.02171408385038376,-0.0913781151175499
1789061920548624100,7.8166240234375,0.09886426478624344,-0.15147101879119873,-0.08956796675920486
1789061920558634000,7.826634033203125,0.07319671660661697,0.10455463826656342,0.08696606010198593
1789061920568643000,7.83664306640625,0.053397711366415024,-0.13412904739379883,0.030349383130669594
1789061920578653200,7.846653076171875,-0.04349634423851967,0.055631835013628006,0.07705830037593842
1789061920588663000,7.8566630859375,-0.012891030870378017,0.0029353362042456865,-0.02371731400489807
1789061920598673200,7.866673095703125,-0.03752953186631203,0.0370112806558609,-0.03567437455058098
1789061920608682200,7.87668212890625,-0.07347128540277481,0.030411168932914734,-0.10623829066753387
1789061920618692000,7.886692138671875,-0.07150108367204666,-0.0933334082365036,-0.14105938374996185
1789061920628702200,7.8967021484375,-0.02997094765305519,0.10024351626634598,0.06348256766796112
1789061920638712000,7.906712158203125,0.013824469409883022,0.002734001260250807,-0.016347547993063927
1789061920648721200,7.91672119140625,-0.030337665230035782,0.12973615527153015,0.0707964077591896
1789061920658731300,7.926731201171875,-0.12464845180511475,-0.06977428495883942,-0.17213022708892822
1789061920668741000,7.9367412109375,-0.1586144119501114,-0.02647554874420166,0.052986785769462585
1789061920678750000,7.94675,-0.23148782551288605,-0.20178718864917755,-0.12808392941951752
1789061920688760000,7.956760009765625,-0.3003512918949127,0.2971019744873047,0.07855606079101562
1789061920698770000,7.96677001953125,-0.2560104727745056,-0.2627895474433899,-0.11991282552480698
1789061920708780000,7.976780029296875,-0.3779374361038208,0.20022417604923248,0.13750086724758148
1789061920718789000,7.9867890625,-0.364995539188385,0.040233440697193146,-0.016637565568089485
1789061920728799200,7.99679931640625,-0.33270952105522156,-0.04579465091228485,-0.014584269374608994
1789061920738809000,8.00680908203125,-0.3273509740829468,-0.15385587513446808,-0.031269773840904236
1789061920748819200,8.016819091796876,-0.2821970582008362,0.10596904158592224,0.16616953909397125
1789061920758828300,8.026828369140626,-0.21207177639007568,-0.11094222962856293,0.029927005991339684
1789061920768838100,8.036838134765626,-0.2019275277853012,0.03428953140974045,0.019113773480057716
1789061920778848300,8.04684814453125,-0.18459035456180573,-0.05089913308620453,-0.0036248285323381424
1789061920788857300,8.056857421875,-0.17812366783618927,0.01782267354428768,0.037816088646650314
1789061920798867200,8.0668671875,-0.1255778968334198,-0.058455053716897964,0.07177858054637909
1789061920808877300,8.076877197265626,-0.08626697957515717,-0.12327080219984055,-0.023877369239926338
1789061920818887200,8.08688720703125,-0.08396094292402267,0.060201287269592285,0.11266050487756729
1789061920828896000,8.09689599609375,0.014993064105510712,-0.2102789431810379,-0.04934011772274971
1789061920838906000,8.106906005859376,-0.030289994552731514,0.07117591053247452,0.12003453075885773
1789061920848916000,8.116916015625,-0.05339344963431358,-0.01696300506591797,0.04922107607126236
1789061920858926000,8.126926025390626,-0.0315328910946846,-0.044260673224925995,0.015277756378054619
1789061920868935200,8.13693505859375,0.026325613260269165,-0.0834789127111435,-0.1169215589761734
1789061920878945000,8.146945068359376,0.08755834400653839,-0.14884141087532043,-0.12908075749874115
1789061920888955100,8.156955078125,0.11735059320926666,-0.1302751749753952,-0.08784809708595276
1789061920898964200,8.166964111328125,0.17430496215820312,-0.09102071821689606,0.06570843607187271
1789061920908974000,8.17697412109375,0.18269310891628265,-0.13060221076011658,0.06858598440885544
1789061920918984200,8.186984130859376,0.08991071581840515,0.03311614319682121,0.12504419684410095
1789061920928994300,8.196994384765626,0.12155013531446457,0.0023086944129318,0.052023254334926605
1789061920939003100,8.207003173828125,0.15878884494304657,-0.00782596506178379,-0.1013583093881607
1789061920949013200,8.21701318359375,0.16229330003261566,-0.20637021958827972,-0.1882961392402649
1789061920959023400,8.2270234375,0.244026780128479,-0.23570546507835388,-0.055459264665842056
1789061920969033200,8.237033203125,0.31269586086273193,0.11990643292665482,0.32790544629096985
1789061920979042000,8.2470419921875,0.27994218468666077,-0.3015172481536865,0.05495459586381912
1789061920989052200,8.25705224609375,0.20204444229602814,0.12554460763931274,0.09017356485128403
1789061920999062000,8.26706201171875,0.15734142065048218,0.007980694994330406,-0.06993167847394943
1789061921009071000,8.277071044921875,0.11193639039993286,0.01461729221045971,-0.020074641332030296
1789061921019081200,8.287081298828125,0.15846340358257294,-0.061461761593818665,-0.045333925634622574
1789061921029091000,8.297091064453125,0.17016561329364777,-0.06018158048391342,-0.06939239054918289
1789061921039101200,8.30710107421875,0.19265493750572205,-0.180011585354805,-0.02911287732422352
1789061921049110300,8.3171103515625,0.16972112655639648,0.08779696375131607,-0.01025769766420126
1789061921059120000,8.3271201171875,0.14578969776630402,-0.035468779504299164,-0.01781494915485382
1789061921069130200,8.337130126953125,0.11056432873010635,-0.16137264668941498,-0.19802333414554596
1789061921079140000,8.34714013671875,0.09203778207302094,0.06719128787517548,0.025178857147693634
1789061921089149200,8.357149169921875,0.14112943410873413,-0.12146011739969254,-0.020009927451610565
1789061921099159300,8.3671591796875,0.13344967365264893,0.21321241557598114,0.14462003111839294
1789061921109169200,8.377169189453125,0.14968137443065643,-0.06273528933525085,-0.02532932534813881
1789061921119178000,8.387177978515625,0.106462262570858,-0.05916531756520271,-0.05176705867052078
1789061921129188000,8.39718798828125,0.11780306696891785,-0.01131124421954155,-0.019898872822523117
1789061921139198000,8.407197998046875,0.11484136432409286,0.04716005548834801,0.08448159694671631
1789061921149208000,8.4172080078125,0.10832194238901138,-0.0862046629190445,0.010042513720691204
1789061921159217200,8.427217041015625,0.06477686762809753,0.1355903148651123,0.12024039030075073
1789061921169227000,8.43722705078125,0.027697674930095673,0.048947300761938095,0.006573480553925037
1789061921179237000,8.447237060546875,0.01775289885699749,-0.004210191313177347,0.02672002837061882
1789061921189246200,8.45724609375,0.03455930948257446,-0.008018777705729008,0.013078517280519009
1789061921199256000,8.467256103515625,-0.04368329793214798,0.17159518599510193,0.17136669158935547
1789061921209266200,8.47726611328125,-0.03447195515036583,-0.049725212156772614,-0.04896993935108185
1789061921219276300,8.4872763671875,-0.031734492629766464,0.027882764115929604,-0.0335150845348835
1789061921229285000,8.49728515625,-0.0041127195581793785,0.007787881884723902,-0.0021755362395197153
1789061921239295200,8.507295166015625,-0.09844934195280075,-0.0014791196445003152,-0.02684945799410343
1789061921249305000,8.51730517578125,-0.15091601014137268,-0.03574787825345993,-0.011002050712704659
1789061921259315000,8.52731494140625,-0.13308508694171906,-0.02677195891737938,0.13818024098873138
1789061921269324000,8.537323974609375,-0.05528056621551514,-0.03001861833035946,0.05224163457751274
1789061921279334100,8.547334228515625,-0.06418538093566895,0.02004801109433174,0.05079101026058197
1789061921289343500,8.557343505859375,-0.07477384060621262,-0.07599250227212906,-0.1790885329246521
1789061921299352600,8.5673525390625,-0.12368226051330566,-0.052027780562639236,-0.01793132908642292
1789061921309362700,8.57736279296875,-0.10055430233478546,0.01170326117426157,0.0020820593927055597
1789061921319372500,8.58737255859375,-0.07477570325136185,0.0986032709479332,0.11811438947916031
1789061921329382700,8.597382568359375,0.0018293253378942609,-0.1702934354543686,-0.061775483191013336
1789061921339391700,8.607391845703125,-0.06296458095312119,0.05693652108311653,0.047379765659570694
1789061921349401600,8.617401611328125,-0.008155664429068565,-0.1532960832118988,-0.05253484845161438
1789061921359411700,8.62741162109375,0.02232261560857296,0.12738831341266632,0.13151541352272034
1789061921369421800,8.637421875,0.07168617099523544,-0.03133368864655495,0.024597488343715668
1789061921379430700,8.6474306640625,0.018320949748158455,-0.03459899127483368,0.01859099417924881
1789061921389440500,8.6574404296875,0.056539975106716156,-0.04644233360886574,-0.055391352623701096
1789061921399450600,8.66745068359375,0.11033236980438232,-0.07806417346000671,-0.04027019068598747
1789061921409459700,8.677459716796875,0.13157667219638824,-0.013714746572077274,-0.03842781484127045
1789061921419469600,8.687469482421875,0.08139126002788544,-0.062300391495227814,-0.05059739574790001
1789061921429479700,8.697479736328125,0.05439053848385811,0.0638093426823616,0.05572371557354927
1789061921439489500,8.707489501953125,0.09270783513784409,-0.013665478676557541,-0.07814806699752808
1789061921449498600,8.71749853515625,0.07417222857475281,-0.08686912059783936,-0.021132981404662132
1789061921459508700,8.7275087890625,0.1244998499751091,-0.04872945696115494,0.00689199473708868
1789061921469518600,8.7375185546875,0.12347958981990814,0.1721739023923874,0.20077064633369446
1789061921479528700,8.74752880859375,0.05362274870276451,-0.0454857274889946,-0.03068414330482483
1789061921489537800,8.757537841796875,0.03133209049701691,-0.0314125157892704,-0.075138159096241
1789061921499547600,8.767547607421875,0.11411911249160767,-0.014819160103797913,-0.08904945105314255
1789061921509557800,8.777557861328125,0.14173530042171478,-0.16641481220722198,-0.0903160497546196
1789061921519566600,8.787566650390625,0.11632980406284332,0.05132683739066124,0.01570119895040989
1789061921529576400,8.797576416015625,0.15442685782909393,0.04908791929483414,0.046912647783756256
1789061921539586600,8.807586669921875,0.18429714441299438,-0.02371118776500225,0.045105427503585815
1789061921549596700,8.8175966796875,0.1706835925579071,-0.03891624137759209,0.03319230675697327
1789061921559605500,8.82760546875,0.15834863483905792,0.0146476523950696,0.0685039609670639
1789061921569615600,8.83761572265625,0.17611803114414215,0.013682522810995579,-0.03891837224364281
1789061921579625700,8.847625732421875,0.15197168290615082,0.05216972902417183,-0.09970209002494812
1789061921589635600,8.857635498046875,0.14421576261520386,0.04736005887389183,-0.144225612282753
1789061921599644700,8.867644775390625,0.16223178803920746,-0.09596115350723267,-0.17675958573818207
1789061921609654800,8.87765478515625,0.2303655594587326,-0.18088403344154358,-0.0032415995374321938
1789061921619664600,8.88766455078125,0.18321803212165833,0.2139572948217392,0.2155647724866867
1789061921629673700,8.897673828125,0.08344376087188721,0.16095027327537537,0.14086417853832245
1789061921639683800,8.907683837890625,0.007766842842102051,0.07082836329936981,-0.12286387383937836
1789061921649693700,8.917693603515625,0.006797718815505505,-0.003947603516280651,-0.15142041444778442
1789061921659703800,8.927703857421875,0.031003989279270172,-0.06053338572382927,-0.04091094806790352
1789061921669712600,8.937712646484375,-0.06476274877786636,0.0371905118227005,0.009473130106925964
1789061921679722500,8.947722412109375,-0.11933305114507675,0.02605450339615345,0.06761020421981812
1789061921689732600,8.957732666015625,-0.07063901424407959,-0.15882453322410583,0.03931518271565437
1789061921699742500,8.967742431640625,-0.07800158858299255,0.31043750047683716,0.2201606035232544
1789061921709751600,8.97775146484375,-0.05525819584727287,-0.16717514395713806,0.04583007097244263
1789061921719761700,8.98776171875,-0.1446557193994522,-0.09811671078205109,0.011559717357158661
1789061921729771500,8.997771484375,-0.2524991035461426,0.09358134865760803,0.11246156692504883
1789061921739780600,9.007780517578125,-0.12179461121559143,-0.08650320023298264,-0.0726504996418953
1789061921749790700,9.017790771484375,0.00866086594760418,-0.09962859004735947,-0.12531264126300812
1789061921759800600,9.027800537109375,0.016451144590973854,-0.10147975385189056,-0.14956951141357422
1789061921769810700,9.037810791015625,0.06316246092319489,-0.2784651815891266,-0.1793481856584549
1789061921779819800,9.04781982421875,0.0546930730342865,0.03996659070253372,0.06600324809551239
1789061921789829600,9.05782958984375,0.025299496948719025,0.11730212718248367,0.10399537533521652
1789061921799839700,9.06783984375,0.09522851556539536,-0.039451003074645996,0.054305847734212875
1789061921809849900,9.077849853515625,0.11335691809654236,-0.039615318179130554,-0.04692090302705765
1789061921819858400,9.0878583984375,0.1573299616575241,-0.05444592982530594,-0.09095307439565659
1789061921829868500,9.09786865234375,0.17361120879650116,-0.04960350692272186,-0.09421251714229584
1789061921839878700,9.107878662109375,0.13290612399578094,-0.21624600887298584,-0.13912034034729004
1789061921849887500,9.117887451171875,0.2451908439397812,0.05599748715758324,0.042869970202445984
1789061921859897600,9.127897705078125,0.28840941190719604,0.01360289379954338,0.06822273135185242
1789061921869907700,9.13790771484375,0.23344524204730988,-0.002579005202278495,0.06792152673006058
1789061921879917600,9.14791748046875,0.2871907651424408,-0.0038067223504185677,0.03492069989442825
1789061921889926700,9.1579267578125,0.30816182494163513,-0.04838217794895172,-0.06119731068611145
1789061921899936800,9.167936767578125,0.3360954523086548,-0.009736250154674053,0.04754994064569473
1789061921909946600,9.177946533203125,0.34670522809028625,-0.08461395651102066,0.05840711668133736
1789061921919955700,9.187955810546875,0.3406673073768616,0.0782892107963562,0.22969365119934082
1789061921929965800,9.1979658203125,0.34919634461402893,-0.03287379443645477,0.009485913440585136
1789061921939975700,9.2079755859375,0.34673959016799927,-0.08905211091041565,-0.04260258749127388
1789061921949985800,9.21798583984375,0.2940819561481476,0.043838828802108765,0.09573744237422943
1789061921959994600,9.22799462890625,0.17371372878551483,0.3163246810436249,0.3299272954463959
1789061921970004500,9.23800439453125,0.1657106727361679,-0.01245427317917347,0.0084275733679533
1789061921980014600,9.2480146484375,0.15387292206287384,-0.014335796236991882,-0.07244810461997986
1789061921990024400,9.2580244140625,0.06834869831800461,0.09985415637493134,-0.12122256308794022
1789061922000033500,9.268033447265625,-0.01356640923768282,0.14132064580917358,-0.004803543444722891
1789061922010043600,9.278043701171875,0.07739359140396118,-0.3334919512271881,-0.1455550640821457
1789061922020053500,9.288053466796875,-0.128999263048172,0.29936566948890686,0.14049586653709412
1789061922030063600,9.298063720703125,-0.1945793330669403,-0.11095501482486725,0.04506760835647583
1789061922040072700,9.30807275390625,-0.3016916811466217,0.07530167698860168,-0.028173847123980522
1789061922050082600,9.31808251953125,-0.3038349747657776,0.12587137520313263,-0.07415678352117538
1789061922060092700,9.3280927734375,-0.19827154278755188,-0.004545483272522688,-0.13147227466106415
1789061922070101800,9.338101806640625,-0.09088916331529617,0.09574063867330551,0.010935472324490547
1789061922080737500,9.348737548828124,0.0015433018561452627,-0.26209738850593567,-0.01679575815796852
1789061922090747600,9.35874755859375,-0.047923583537340164,0.1291380077600479,0.06486368179321289
1789061922100757500,9.368757568359374,-0.07496292144060135,-0.060016732662916183,-0.027231087908148766
1789061922110766600,9.3787666015625,-0.08983933925628662,0.020858943462371826,-0.03050437942147255
1789061922120776700,9.388776611328124,-0.06190704181790352,0.16312873363494873,0.09132298827171326
1789061922130786600,9.39878662109375,-0.03259655833244324,-0.047321442514657974,-0.0472940132021904
1789061922140796700,9.408796630859374,-0.07256421446800232,0.07650169730186462,0.033917754888534546
1789061922150805800,9.4188056640625,-0.07043635100126266,0.10007067769765854,0.06654626876115799
1789061922160815600,9.428815673828124,-0.03207830712199211,-0.11925262212753296,-0.1283627599477768
1789061922170825700,9.43882568359375,-0.027220435440540314,0.07627080380916595,0.0036669063847512007
1789061922180834600,9.44883447265625,0.055679772049188614,-0.028717398643493652,0.12985093891620636
1789061922190844400,9.458844482421876,-0.048706285655498505,0.0199273694306612,0.13070714473724365
1789061922200854500,9.4688544921875,-0.11996102333068848,0.08508959412574768,-0.015973107889294624
1789061922210864600,9.47886474609375,-0.11955036222934723,0.1110152006149292,-0.0836714580655098
1789061922220873500,9.48887353515625,0.018510300666093826,-0.04349314793944359,-0.13608486950397491
1789061922230883600,9.498883544921876,0.06487034261226654,-0.013642042875289917,-0.0258686151355505
1789061922240893700,9.508893798828124,0.1349942982196808,-0.11671276390552521,0.060809820890426636
1789061922250903600,9.518903564453124,0.1735084056854248,-0.055984970182180405,0.06368950009346008
1789061922260912600,9.52891259765625,0.1811058670282364,0.16766595840454102,0.14058400690555573
1789061922270922800,9.5389228515625,0.2053358405828476,-0.08246158808469772,0.031242074444890022
1789061922280932600,9.5489326171875,0.2170470952987671,0.010312292724847794,0.009606022387742996
1789061922290941700,9.558941650390626,0.2553052604198456,0.10362999141216278,0.08002665638923645
1789061922300951300,9.568951416015626,0.35909557342529297,-0.006115150637924671,0.11542300134897232
1789061922310961200,9.578961181640626,0.3851165175437927,-0.0592566654086113,0.06596516817808151
1789061922320971300,9.58897119140625,0.3304564654827118,0.07461138814687729,0.1012382060289383
1789061922330980400,9.59898046875,0.29962798953056335,0.1194228008389473,0.025108816102147102
1789061922340990200,9.608990234375,0.31441012024879456,-0.06439577043056488,-0.05501211807131767
1789061922351000300,9.619000244140626,0.2834881842136383,0.1508166790008545,0.08930511027574539
1789061922361010400,9.629010498046876,0.26713502407073975,0.11981801688671112,0.16951791942119598
1789061922371019300,9.639019287109376,0.2721654772758484,0.017966749146580696,0.16291354596614838
1789061922381029400,9.649029296875,0.23993003368377686,0.1491663157939911,0.10916004329919815
1789061922391039500,9.65903955078125,0.17403438687324524,0.16133002936840057,0.048661813139915466
1789061922401673200,9.669673095703125,0.19928061962127686,0.19788458943367004,0.09275071322917938
1789061922411683300,9.679683349609375,0.21337752044200897,0.098421111702919,0.024995630607008934
1789061922421693400,9.689693359375,0.12366947531700134,0.14238403737545013,0.01167316734790802
1789061922431702300,9.699702392578125,0.11191748082637787,0.014595188200473785,-0.060927797108888626
1789061922441712400,9.70971240234375,0.1578170657157898,0.33348503708839417,0.17503812909126282
1789061922451722500,9.719722412109375,0.19314974546432495,-0.20857398211956024,0.10608915239572525
1789061922461732400,9.729732421875,0.10330002009868622,0.4416482448577881,0.33232760429382324
1789061922471741400,9.739741455078125,0.05609922111034393,0.39184314012527466,0.3346024751663208
1789061922481751600,9.74975146484375,0.07889348268508911,0.2230466604232788,0.09858623147010803
1789061922491761400,9.759761474609375,0.046365901827812195,0.23701733350753784,-0.11122851818799973
1789061922501771500,9.769771484375,-0.02990037389099598,0.22243520617485046,-0.1502009481191635
1789061922511780400,9.7797802734375,0.003562244353815913,-0.10819358378648758,-0.2503264844417572
1789061922521790200,9.789790283203125,-0.08508346974849701,0.3933768570423126,0.11606482416391373
1789061922531800300,9.79980029296875,-0.08294840902090073,-0.08170098811388016,-0.03953222930431366
1789061922541809400,9.809809326171875,-0.1888178586959839,0.5622143149375916,0.22724993526935577
1789061922551819300,9.8198193359375,-0.17852367460727692,0.28822165727615356,0.08153427392244339
1789061922561829400,9.829829345703125,-0.261957585811615,0.23645780980587006,-0.07405691593885422
1789061922571839200,9.839839111328125,-0.32887962460517883,0.21159639954566956,-0.16707368195056915
1789061922581848300,9.849848388671875,-0.2619951367378235,-0.10385102778673172,-0.19919753074645996
1789061922591858400,9.8598583984375,-0.27262353897094727,0.2998051047325134,0.16705504059791565
1789061922601868300,9.869868408203125,-0.4008970856666565,0.11524350196123123,0.10357246547937393
1789061922611878400,9.87987841796875,-0.5694842338562012,0.23608683049678802,0.05116172134876251
1789061922621887500,9.889887451171875,-0.6057870984077454,0.21458446979522705,0.02238466776907444
1789061922631897300,9.8998974609375,-0.6210672855377197,0.1951596438884735,0.01894812472164631
1789061922641907500,9.909907470703125,-0.6319867372512817,0.18228325247764587,0.019708989188075066
1789061922651917300,9.919917236328125,-0.6746056079864502,0.18133170902729034,-0.11265837401151657
1789061922661926100,9.929926025390625,-0.6657657623291016,0.13789235055446625,-0.24398577213287354
1789061922671936300,9.939936279296875,-0.5126281380653381,-0.18689505755901337,-0.33476388454437256
1789061922681946400,9.9499462890625,-0.46626409888267517,-0.0820503979921341,-0.11453963071107864
1789061922691955200,9.959955078125,-0.5666564702987671,0.14070439338684082,0.09433875232934952
1789061922701965300,9.96996533203125,-0.6707208156585693,0.37586575746536255,0.23301513493061066
1789061922711975400,9.979975341796875,-0.5661798119544983,-0.07106778770685196,-0.051647480577230453
1789061922721985300,9.9899853515625,-0.57846599817276,-0.006820089183747768,-0.060266535729169846
1789061922731994400,9.999994384765625,-0.5357859134674072,-0.09796704351902008,-0.05970780551433563
1789061922742004500,10.01000439453125,-0.4822603762149811,0.01654036156833172,0.13074789941310883
1789061922752014300,10.020014404296875,-0.4448656141757965,-0.12367160618305206,0.06985551118850708
1789061922762024400,10.0300244140625,-0.38142484426498413,0.029619676992297173,0.006898652296513319
1789061922772033500,10.040033447265625,-0.2969379425048828,-0.004463990684598684,-0.10482201725244522
1789061922782043100,10.050043212890625,-0.2407982349395752,-0.1041378527879715,-0.1825658231973648
1789061922792053200,10.06005322265625,-0.20578831434249878,0.08420169353485107,0.015086807310581207
1789061922802062300,10.070062255859375,-0.11112093180418015,-0.27097851037979126,-0.1533418893814087
1789061922812072200,10.080072265625,-0.07017935067415237,-0.09810206294059753,0.11511193960905075
1789061922822082300,10.090082275390625,-0.006214486435055733,-0.15908952057361603,0.14480724930763245
1789061922832092200,10.100092041015625,-0.04908738657832146,0.07256314903497696,0.37868553400039673
1789061922842101200,10.110101318359375,-0.006856574676930904,-0.18970096111297607,0.14934873580932617
1789061922852111400,10.120111328125,-0.014307034201920033,-0.09101459383964539,0.07422149926424026
1789061922862121200,10.130121337890625,0.016755010932683945,-0.23021402955055237,-0.12689189612865448
1789061922872131300,10.14013134765625,0.09193338453769684,-0.023321833461523056,0.08938048034906387
1789061922882140400,10.150140380859375,0.1519612967967987,-0.1778717339038849,0.10985619574785233
1789061922892150500,10.160150634765625,0.1297265738248825,0.018847191706299782,0.2616470456123352
1789061922902160400,10.170160400390625,0.20849834382534027,-0.1263616681098938,-0.03843766823410988
1789061922912169200,10.180169189453125,0.19268742203712463,-0.11630211025476456,-0.1554202139377594
1789061922922179300,10.190179443359375,0.15493018925189972,-0.23243138194084167,-0.16993869841098785
1789061922932189200,10.200189208984375,0.14775031805038452,-0.2469000667333603,-0.1266666054725647
1789061922942199300,10.21019921875,0.11050733923912048,0.2131759226322174,0.20700325071811676
1789061922952208400,10.22020849609375,0.1607084572315216,-0.0793619304895401,0.17152248322963715
1789061922962218200,10.23021826171875,0.18864767253398895,-0.09469934552907944,0.20545248687267303
1789061922972228400,10.240228271484375,0.15296371281147003,0.03690102696418762,0.3010346591472626
1789061922982238200,10.25023828125,0.11601501703262329,-0.02821832150220871,0.026163427159190178
1789061922992247300,10.260247314453125,0.20036078989505768,-0.13303741812705994,-0.07288859039545059
1789061923002257400,10.27025732421875,0.2980828285217285,-0.27315378189086914,-0.17332011461257935
1789061923012267300,10.280267333984375,0.22001758217811584,0.06849490851163864,0.044979993253946304
1789061923022277400,10.29027734375,0.20578086376190186,-0.004073038697242737,0.04664100334048271
1789061923032286500,10.300286376953125,0.13858051598072052,0.22246529161930084,0.07085899263620377
1789061923042296300,10.31029638671875,0.11606881767511368,-0.05493248999118805,-0.09547272324562073
1789061923052306400,10.320306396484375,0.09964244067668915,0.04698481783270836,-0.03538648784160614
1789061923062315300,10.330315185546874,0.1057373508810997,0.03883661329746246,-0.07532591372728348
1789061923072325000,10.3403251953125,0.018749186769127846,0.014251373708248138,-0.16824279725551605
1789061923082335200,10.350335205078125,0.06462027132511139,-0.1447681039571762,-0.18491418659687042
1789061923092345300,10.360345458984375,0.15353603661060333,-0.1398412585258484,0.019747072830796242
1789061923102354200,10.370354248046874,0.038185469806194305,0.05742814019322395,0.11968192458152771
1789061923112364300,10.3803642578125,-0.0951872318983078,0.08850802481174469,0.10827481001615524
1789061923122374400,10.39037451171875,-0.13839596509933472,-0.11568798124790192,0.0010929612908512354
1789061923132384300,10.40038427734375,-0.16091085970401764,0.005380117800086737,-0.054906658828258514
1789061923142393300,10.410393310546874,-0.17929039895534515,-0.03410524129867554,-0.17525731027126312
1789061923152403500,10.420403564453125,-0.16287760436534882,-0.057368483394384384,-0.14063115417957306
1789061923162413300,10.430413330078125,-0.19956503808498383,-0.1771252453327179,-0.05976772680878639
1789061923172422400,10.44042236328125,-0.2729814648628235,0.2351699024438858,0.10645400732755661
1789061923182432500,10.4504326171875,-0.22800733149051666,-0.023505859076976776,-0.0253415759652853
1789061923192442400,10.4604423828125,-0.1901499629020691,-0.09178584814071655,-0.04928792268037796
1789061923202452500,10.470452392578125,-0.24582068622112274,-0.1342981457710266,-0.01212563831359148
1789061923212461300,10.48046142578125,-0.2654162347316742,-0.025836125016212463,0.032649822533130646
1789061923222471200,10.49047119140625,-0.24715599417686462,-0.03825550898909569,-0.0011520835105329752
1789061923232481300,10.500481201171874,-0.25272679328918457,-0.11155954748392105,0.05446111038327217
1789061923242491100,10.5104912109375,-0.24756371974945068,-0.06286071985960007,0.0908404216170311
1789061923252500200,10.520500244140624,-0.2221537083387375,-0.018811505287885666,0.030659908428788185
1789061923262510300,10.53051025390625,-0.19899486005306244,-0.20337256789207458,-0.2058248072862625
1789061923272520200,10.540520263671874,-0.19004930555820465,0.032469525933265686,-0.07610515505075455
1789061923282530300,10.5505302734375,-0.1596999168395996,-0.25327593088150024,-0.15399223566055298
1789061923292539100,10.5605390625,-0.20370039343833923,0.05561399459838867,0.04517413675785065
1789061923302549200,10.57054931640625,-0.12889540195465088,-0.05452795699238777,0.06409110128879547
1789061923312559000,10.58055908203125,-0.04523858428001404,-0.1670888513326645,-0.08890190720558167
1789061923322568200,10.590568115234374,-0.00854315422475338,0.003582217963412404,-0.011927233077585697
1789061923332578300,10.600578369140624,0.010817760601639748,-0.15390753746032715,-0.1252117156982422
1789061923342588200,10.610588134765624,-0.011799934320151806,0.06909465044736862,0.0848749428987503
1789061923352598300,10.620598388671874,0.08529146015644073,-0.20264418423175812,-0.08360301703214645
1789061923362607400,10.630607421875,0.04325399547815323,-0.010053965263068676,0.01641865447163582
1789061923372617200,10.6406171875,0.032639969140291214,-0.09144842624664307,-0.07724285870790482
1789061923382627300,10.65062744140625,0.04135196655988693,-0.1572522073984146,0.042515769600868225
1789061923392637200,10.66063720703125,0.021853100508451462,-0.04873131960630417,0.10100917518138885
1789061923402646300,10.670646240234374,0.06133126839995384,-0.18400312960147858,0.03741235285997391
1789061923412656400,10.680656494140624,0.036253344267606735,0.025672340765595436,0.1396052986383438
1789061923422666200,10.690666259765624,-0.05234869197010994,-0.16213244199752808,-0.025369271636009216
1789061923432675000,10.700675048828124,-0.06000847741961479,-0.10101769119501114,0.01341407559812069
1789061923442685200,10.710685302734374,-0.03579102084040642,-0.17204099893569946,-0.053033389151096344
1789061923452695000,10.720695068359374,-0.0920039564371109,0.011914449743926525,0.1036454364657402
1789061923462705200,10.730705078125,-0.10507102310657501,-0.11769520491361618,0.04276184365153313
1789061923472714200,10.74071435546875,-0.1455651819705963,-0.08945637941360474,0.03567730262875557
1789061923482724000,10.75072412109375,-0.1189945638179779,-0.13447844982147217,-0.07202678918838501
1789061923492734200,10.760734130859374,-0.060144297778606415,-0.1332872211933136,-0.047213051468133926
1789061923502744300,10.770744384765624,-0.058106180280447006,-0.13177374005317688,-0.09301196783781052
1789061923512753200,10.780753173828124,-0.060928598046302795,-0.1540454924106598,-0.11088816821575165
1789061923522763300,10.79076318359375,-0.028423918411135674,-0.04885595664381981,-0.05385790392756462
1789061923532773400,10.8007734375,0.0049734534695744514,-0.10720395296812057,-0.09521946310997009
1789061923542783200,10.810783203125,0.023445405066013336,-0.1114245280623436,-0.12044252455234528
1789061923552792300,10.820792236328124,0.005028580781072378,-0.11082664877176285,-0.20447297394275665
1789061923562802400,10.830802490234374,0.0234637800604105,-0.36688318848609924,-0.1820419728755951
1789061923572812300,10.840812255859374,0.051665060222148895,-0.0825263038277626,0.04737390577793121
1789061923582821000,10.850821044921876,0.10579061508178711,-0.07575281709432602,0.17459391057491302
1789061923592831200,10.860831298828124,0.07734432071447372,-0.10124752670526505,0.1287153661251068
1789061923602841000,10.870841064453124,-0.01648496650159359,-0.06417366117238998,0.026126408949494362
1789061923612851200,10.880851318359374,0.02821778878569603,-0.09840700030326843,-0.06727410852909088
1789061923622860300,10.8908603515625,0.1091936007142067,-0.15132267773151398,-0.17645758390426636
1789061923632870100,10.9008701171875,0.21513228118419647,-0.3560982048511505,-0.10150665044784546
1789061923642880300,10.91088037109375,0.31292569637298584,-0.3243972659111023,0.09144043177366257
1789061923652890000,10.92089013671875,0.2597615420818329,0.13143472373485565,0.35830622911453247
1789061923662899200,10.930899169921876,0.2346908003091812,-0.14803580939769745,0.17443838715553284
1789061923672909300,10.940909423828124,0.19221071898937225,-0.1444743573665619,0.07061664760112762
1789061923682919200,10.950919189453124,0.2377539724111557,-0.123994380235672,0.011640943586826324
1789061923692929300,10.96092919921875,0.24682097136974335,-0.08531223237514496,0.06447938829660416
1789061923702938400,10.9709384765625,0.32890012860298157,-0.15548519790172577,-0.038661640137434006
1789061923712948200,10.9809482421875,0.3375559449195862,-0.11695031821727753,-0.01396029070019722
1789061923722958300,10.990958251953124,0.3398321270942688,-0.12079645693302155,-0.10413146018981934
1789061923732967200,11.00096728515625,0.3353676199913025,-0.08192096650600433,-0.07397782057523727
1789061923742977000,11.01097705078125,0.3210030496120453,-0.08138034492731094,-0.09281861782073975
1789061923752987100,11.020987060546876,0.2814849317073822,0.057983409613370895,-0.03194195404648781
1789061923762997200,11.030997314453124,0.31837213039398193,-0.16228078305721283,-0.17842966318130493
1789061923773006000,11.041006103515626,0.3309084177017212,0.10024005174636841,-0.025915220379829407
1789061923783016200,11.05101611328125,0.3825777471065521,-0.14819373190402985,-0.056842245161533356
1789061923793026300,11.0610263671875,0.30262964963912964,0.016146479174494743,0.034143853932619095
1789061923803036200,11.0710361328125,0.21342092752456665,0.09206894040107727,0.0500091053545475
1789061923813045200,11.081045166015626,0.16547417640686035,0.028568794950842857,-0.0433698445558548
1789061923823055400,11.091055419921876,0.17835775017738342,0.02081739716231823,0.009909888729453087
1789061923833065200,11.101065185546876,0.17951756715774536,0.032347019761800766,0.023517843335866928
1789061923843074300,11.11107421875,0.13787850737571716,-0.020353741943836212,-0.02387950010597706
1789061923853084400,11.12108447265625,0.10969293862581253,-0.18148191273212433,0.02961035631597042
1789061923863094000,11.131093994140626,0.1517557054758072,0.04753822460770607,0.26351338624954224
1789061923873104100,11.141104248046876,0.15154212713241577,-0.04855342209339142,0.22460781037807465
1789061923883113200,11.15111328125,0.055690690875053406,0.0308694988489151,0.10018359124660492
1789061923893123000,11.161123046875,0.01149606704711914,-0.00740225613117218,-0.1342906951904297
1789061923903133200,11.17113330078125,0.0527670755982399,-0.1214958056807518,-0.14377820491790771
1789061923913143000,11.18114306640625,0.05666647478938103,-0.12985973060131073,-0.03482003137469292
1789061923923152100,11.191152099609376,0.02532506361603737,0.04279327020049095,0.22334787249565125
1789061923933162200,11.201162353515626,0.026621757075190544,-0.050646133720874786,0.1646411418914795
1789061923943172000,11.211172119140626,-0.028292890638113022,0.05505313351750374,0.028312863782048225
1789061923953182200,11.22118212890625,0.008644620887935162,-0.015302257612347603,-0.20173712074756622
1789061923963191300,11.23119140625,0.007849667221307755,-0.07754858583211899,-0.24978533387184143
1789061923973201200,11.241201171875,0.14283359050750732,-0.19563475251197815,-0.042271289974451065
1789061923983211300,11.251211181640626,0.13295325636863708,-0.00216514989733696,0.05625288560986519
1789061923993220400,11.261220458984376,0.04863597825169563,0.19863799214363098,0.17896921932697296
1789061924003230200,11.271230224609376,0.10705774277448654,-0.15403270721435547,-0.14010384678840637
1789061924013240000,11.281239990234376,0.07833022624254227,-0.00894076470285654,-0.09767968952655792
1789061924023250200,11.291250244140626,0.15433365106582642,-0.03970133885741234,-0.10923061519861221
1789061924033259300,11.30125927734375,0.16500546038150787,-0.014738998375833035,-0.04391605779528618
1789061924043269000,11.31126904296875,0.16644996404647827,0.010235327295958996,0.0020905814599245787
1789061924053279200,11.321279296875,0.22791199386119843,-0.10165925323963165,-0.06449244171380997
1789061924063289000,11.3312890625,0.2789514660835266,0.04989378899335861,0.029215943068265915
1789061924073298200,11.341298095703126,0.3075498342514038,-0.06207855045795441,-0.004299141000956297
1789061924083308300,11.351308349609376,0.27153801918029785,-0.0311637781560421,0.0056949034333229065
1789061924093318100,11.361318115234376,0.26024329662323,-0.11966248601675034,0.034805119037628174
1789061924103328300,11.371328369140626,0.28984886407852173,-0.10152289271354675,-0.008735435083508492
1789061924113337300,11.38133740234375,0.2710283100605011,0.07782795280218124,0.19645819067955017
1789061924123347200,11.39134716796875,0.30873093008995056,-0.12316400557756424,0.09834494441747665
1789061924133357300,11.401357421875,0.2658010423183441,-0.03964701294898987,0.18251414597034454
1789061924143366100,11.4113662109375,0.30923134088516235,-0.04760906472802162,0.0981510654091835
1789061924153376000,11.4213759765625,0.27750644087791443,-0.007236873731017113,0.09935055673122406
1789061924163386000,11.43138623046875,0.2966516315937042,0.005825664848089218,-0.04355306923389435
1789061924173396200,11.441396240234376,0.33439183235168457,-0.2350766956806183,-0.14325062930583954
1789061924183405000,11.451405029296875,0.3377327620983124,0.14140985906124115,0.08623555302619934
1789061924193415200,11.461415283203126,0.32368698716163635,-0.032349150627851486,0.04771692305803299
1789061924203425300,11.47142529296875,0.30814316868782043,-0.023506125435233116,-0.002323341788724065
1789061924213435100,11.48143505859375,0.2866019308567047,0.05217798426747322,-0.08427093923091888
1789061924223444200,11.4914443359375,0.358233779668808,-0.007741542998701334,-0.11087431758642197
1789061924233454300,11.501454345703126,0.42001378536224365,0.05993177741765976,-0.06161382794380188
1789061924243464200,11.511464111328126,0.41490238904953003,-0.07147977501153946,-0.10162782669067383
1789061924253474300,11.521474365234376,0.3402204215526581,0.2387467920780182,0.0355641208589077
1789061924263483400,11.5314833984375,0.38114815950393677,0.009161007590591908,0.08961563557386398
1789061924273493200,11.5414931640625,0.4713209271430969,-0.02178066223859787,-0.022955117747187614
1789061924283503400,11.55150341796875,0.34670016169548035,0.10893847048282623,-0.09605782479047775
1789061924293512000,11.561511962890625,0.3381466269493103,-0.08583607524633408,-0.18698719143867493
1789061924303521800,11.571521728515625,0.3225522041320801,0.13446779549121857,0.020307136699557304
1789061924313532000,11.581531982421875,0.29564788937568665,0.14364024996757507,0.15790361166000366
1789061924323541800,11.591541748046875,0.27487924695014954,0.10404863953590393,0.09040047228336334
1789061924333550800,11.60155078125,0.21858586370944977,0.08247596770524979,-0.05187518149614334
1789061924343561000,11.61156103515625,0.17875562608242035,-0.14717213809490204,-0.050994738936424255
1789061924353570800,11.62157080078125,0.21832434833049774,0.12166544795036316,0.17443491518497467
1789061924363581000,11.631580810546875,0.1901393085718155,0.1904493123292923,0.32730570435523987
1789061924373590000,11.641590087890625,0.06702590733766556,0.01236212719231844,0.19574207067489624
1789061924383599900,11.651599853515625,-0.009733321145176888,0.09612733125686646,0.11683420836925507
1789061924393610000,11.66160986328125,0.04174957796931267,0.10794830322265625,0.055632367730140686
1789061924403620000,11.6716201171875,0.08086315542459488,0.0028035095892846584,0.03756388649344444
1789061924413629000,11.68162890625,0.018520154058933258,0.20847171545028687,0.08670533448457718
1789061924423639000,11.69163916015625,-0.03632205352187157,-0.1762266904115677,-0.06291185319423676
1789061924433649200,11.701649169921875,-0.026065155863761902,0.4092514216899872,0.17071208357810974
1789061924443659000,11.711658935546875,0.0644727349281311,-0.004129497334361076,0.04946715012192726
1789061924453667800,11.721667724609375,0.08063226193189621,0.016954747959971428,0.0137802604585886
1789061924463678000,11.731677978515625,-0.03865205496549606,0.23932071030139923,0.08793678134679794
1789061924473687800,11.741687744140625,-0.0441616028547287,0.16343845427036285,-0.07321669161319733
1789061924483697000,11.75169677734375,0.02478204481303692,0.14674337208271027,-0.10776934027671814
1789061924493707000,11.76170703125,0.12534460425376892,-0.16518868505954742,-0.21291840076446533
1789061924503716900,11.771716796875,0.12833400070667267,0.25445252656936646,0.12531504034996033
1789061924513727000,11.78172705078125,0.13702097535133362,0.16995415091514587,0.1581912338733673
1789061924523736000,11.791736083984375,0.02056785859167576,0.21168722212314606,0.07706841826438904
1789061924533746000,11.801745849609375,-0.0447714664041996,0.16014759242534637,-0.08719801902770996
1789061924543756000,11.811756103515625,0.10231997817754745,-0.06601203978061676,-0.10431282222270966
1789061924553766000,11.821765869140625,0.10164619982242584,0.12709856033325195,0.11300085484981537
1789061924563775000,11.83177490234375,-0.015548866242170334,0.08759909123182297,0.17351773381233215
1789061924573785000,11.84178515625,-0.07618078589439392,0.2504172921180725,0.24868731200695038
1789061924583795000,11.851794921875,-0.027897944673895836,0.02473783679306507,0.1157444417476654
1789061924593805000,11.86180517578125,-0.05802974849939346,0.09569403529167175,0.11807417869567871
1789061924603814000,11.87181396484375,-0.04072346165776253,0.06827599555253983,0.017302557826042175
1789061924613824000,11.881823974609375,-0.10515544563531876,0.03533029183745384,0.03176139295101166
1789061924623833900,11.891833740234375,-0.1229243278503418,0.07070452719926834,0.04472219571471214
1789061924633843000,11.901843017578125,-0.01744077540934086,0.13406911492347717,0.22545096278190613
1789061924643853000,11.91185302734375,0.09394833445549011,-0.20363327860832214,-0.03906990587711334
1789061924653863000,11.92186279296875,-0.05488348752260208,-0.0997292548418045,0.005677859298884869
1789061924663873000,11.931873046875,-0.06005055457353592,0.07508276402950287,0.062186408787965775
1789061924673882000,11.941882080078125,0.027339478954672813,-0.34685543179512024,0.07757628709077835
1789061924683892000,11.95189208984375,-0.1728263646364212,0.3107227087020874,0.32238391041755676
1789061924693902000,11.961902099609375,-0.35088664293289185,0.2617301344871521,0.1348571479320526
1789061924703912000,11.971911865234375,-0.356963187456131,0.2669081389904022,-0.018765432760119438
1789061924713921000,11.981921142578125,-0.15991349518299103,0.13916881382465363,-0.12711161375045776
1789061924723931100,11.99193115234375,0.0593314990401268,-0.08187568932771683,-0.16941113770008087
1789061924733941000,12.00194091796875,0.18856751918792725,-0.07288059592247009,-0.11586401611566544
1789061924743950800,12.011950927734375,0.12034505605697632,0.018939869478344917,0.015479623340070248
1789061924753960000,12.0219599609375,0.13463477790355682,0.05252073332667351,0.0018972359830513597
1789061924763969800,12.0319697265625,0.15204864740371704,0.19098380208015442,0.09749273210763931
1789061924773980000,12.04197998046875,0.21584974229335785,0.06121062487363815,-0.06594199687242508
1789061924783990000,12.051989990234375,0.15087926387786865,0.17637263238430023,0.046059105545282364
1789061924793998800,12.061998779296875,0.1547648161649704,0.0441320426762104,-0.048587508499622345
1789061924804009000,12.072009033203125,0.15741439163684845,0.06677982956171036,-0.010998588986694813
1789061924814019000,12.08201904296875,0.2016391158103943,-0.08609786629676819,-0.0975654348731041
1789061924824028000,12.09202783203125,0.15108032524585724,0.08295080810785294,0.08357292413711548
1789061924834038000,12.1020380859375,0.03482269495725632,0.15250751376152039,0.17231345176696777
1789061924844048100,12.112048095703125,0.0015941682504490018,0.14713352918624878,0.16119341552257538
1789061924854058000,12.12205810546875,0.023846210911870003,0.09242021292448044,0.030054837465286255
1789061924864067000,12.132067138671875,0.03947789967060089,0.049318015575408936,-0.03510472550988197
1789061924874077000,12.142076904296875,0.06017066165804863,-0.0035057852510362864,-0.036921799182891846
1789061924884086800,12.152086669921875,0.07333892583847046,0.16547417640686035,0.089810311794281
1789061924894097000,12.162096923828125,0.12537629902362823,0.12232670933008194,0.09144096821546555
1789061924904106000,12.17210595703125,0.15942774713039398,0.02648087590932846,-0.01786688156425953
1789061924914115800,12.18211572265625,0.20143350958824158,0.05584089457988739,-0.007656321860849857
