time,seconds_elapsed,z,y,x
1789061912781716700,0.049716796875,-0.26338985562324524,0.04655059427022934,0.05443570390343666
1789061912791725600,0.0597255859375,-0.22490613162517548,-0.0426730215549469,-0.010700155049562454
1789061912801735700,0.069735595703125,-0.2110740840435028,-0.06846721470355988,-0.02968967705965042
1789061912811745500,0.07974560546875,-0.2252492904663086,-0.07596587389707565,-0.047453492879867554
1789061912821754600,0.089754638671875,-0.243123397231102,0.0021712544839829206,-0.01715058460831642
1789061912831764700,0.0997646484375,-0.2530982494354248,-0.05294393002986908,-0.013330280780792236
1789061912841774600,0.109774658203125,-0.2627063989639282,0.08205597847700119,0.04608188569545746
1789061912851783700,0.11978369140625,-0.2258671373128891,0.02134309895336628,0.04373377561569214
1789061912861793800,0.129793701171875,-0.15121090412139893,-0.06319910287857056,-0.03023301251232624
1789061912871803600,0.1398037109375,-0.10159381479024887,-0.06485665589570999,-0.040379658341407776
1789061912881812700,0.149812744140625,-0.07288431376218796,-0.15091529488563538,-0.04497506096959114
1789061912891822800,0.15982275390625,-0.10581030696630478,0.03224121779203415,0.038702525198459625
1789061912901832700,0.169832763671875,-0.11572486162185669,-0.06884027272462845,-0.012206480838358402
1789061912911841800,0.179841796875,-0.09345737099647522,-0.05892292782664299,0.011470085941255093
1789061912921851600,0.1898515625,-0.04179868847131729,-0.0024657570756971836,0.020952405408024788
1789061912931861800,0.19986181640625,0.0048947823233902454,-0.08535797894001007,0.009366058744490147
1789061912941870600,0.20987060546875,0.0315934419631958,-0.05539507046341896,-0.0046780966222286224
1789061912951880700,0.219880615234375,0.025481754913926125,-0.022388918325304985,0.010029476135969162
1789061912961890800,0.229890869140625,0.012705257162451744,-0.10350506007671356,-0.03520577400922775
1789061912971899600,0.239899658203125,0.0341077521443367,-0.011815084144473076,-0.0007774955593049526
1789061912981909800,0.24990966796875,0.07386716455221176,-0.09085153788328171,0.022056348621845245
1789061912991919900,0.259919921875,0.0897984653711319,0.019574036821722984,0.06808775663375854
1789061913001928700,0.2699287109375,0.12339218705892563,-0.02601415291428566,0.03048270009458065
1789061913011938800,0.279938720703125,0.15322865545749664,-0.03667318820953369,-0.025684963911771774
1789061913021949000,0.289948974609375,0.15647846460342407,-0.04083840921521187,-0.01372391264885664
1789061913031958800,0.299958740234375,0.1838400512933731,-0.04553915560245514,-0.0336611345410347
1789061913041967900,0.3099677734375,0.14061428606510162,-0.008361158892512321,0.021670565009117126
1789061913051977700,0.319977783203125,0.14755894243717194,0.010922985151410103,0.024693509563803673
1789061913061987600,0.329987548828125,0.17363277077674866,-0.01962173357605934,0.014939267188310623
1789061913071996700,0.33999658203125,0.15312430262565613,-0.037938691675662994,0.02948225848376751
1789061913082006800,0.3500068359375,0.1449042707681656,-0.11911468207836151,-0.03979254141449928
1789061913092016600,0.3600166015625,0.00986363086849451,0.10474611073732376,0.0037717120721936226
1789061913102025700,0.370025634765625,-0.06839235872030258,0.10278462618589401,-0.002604436594992876
1789061913112035800,0.380035888671875,-0.014544576406478882,-0.008865740150213242,-0.020375177264213562
1789061913122045700,0.390045654296875,-0.022633524611592293,-0.12197643518447876,-0.05263642966747284
1789061913132054800,0.4000546875,-0.08153359591960907,-0.08089398592710495,-0.0011095874942839146
1789061913142065000,0.41006494140625,-0.1275758296251297,-0.1964351385831833,-0.04813527315855026
1789061913152074800,0.42007470703125,-0.2724241018295288,0.06849319487810135,0.052149515599012375
1789061913162083800,0.430083740234375,-0.2617935836315155,-0.05050937458872795,-0.005588483531028032
1789061913172094000,0.440093994140625,-0.27140066027641296,-0.09342355281114578,-0.020149849355220795
1789061913182103600,0.450103515625,-0.2537808120250702,-0.16416950523853302,-0.05957700312137604
1789061913192112600,0.460112548828125,-0.25837182998657227,-0.15815794467926025,-0.042357005178928375
1789061913202122800,0.470122802734375,-0.2880193293094635,-0.015125535428524017,0.05112180486321449
1789061913212132600,0.480132568359375,-0.23060448467731476,-0.1983901560306549,-0.0099151860922575
1789061913222141700,0.4901416015625,-0.17493419349193573,-0.10380203276872635,0.011250831186771393
1789061913232151800,0.50015185546875,-0.1092182993888855,-0.1506371796131134,-0.015399155206978321
1789061913242161700,0.51016162109375,-0.04040353000164032,-0.1344800442457199,-0.04513001814484596
1789061913252170800,0.520170654296875,0.036464087665081024,0.016687115654349327,0.05178001895546913
1789061913262180900,0.530180908203125,0.1442284733057022,-0.11119697242975235,-0.03183220699429512
1789061913272190700,0.540190673828125,0.21893706917762756,-0.18404880166053772,-0.058445706963539124
1789061913282200800,0.550200927734375,0.3373185396194458,-0.019380005076527596,0.02429444156587124
1789061913292210000,0.5602099609375,0.4195769429206848,-0.06944743543863297,-0.003643183736130595
1789061913302219800,0.5702197265625,0.43913230299949646,-0.07986244559288025,-0.013195769861340523
1789061913312230000,0.58022998046875,0.475479394197464,0.077249675989151,0.08113633096218109
1789061913322239000,0.590239013671875,0.5155941247940063,-0.030645545572042465,0.013890688307583332
1789061913332248800,0.600248779296875,0.532799243927002,-0.0059306141920387745,0.031040377914905548
1789061913342259000,0.610259033203125,0.5197375416755676,0.009468617849051952,-0.007420189678668976
1789061913352267800,0.620267822265625,0.4965216815471649,-0.001845289021730423,-0.025760846212506294
1789061913362277600,0.630277587890625,0.508695125579834,-0.029344435781240463,-0.019351433962583542
1789061913372287700,0.640287841796875,0.4665732681751251,0.0655871331691742,0.057358257472515106
1789061913382296800,0.650296875,0.455375611782074,-0.0028703431598842144,0.04343457147479057
1789061913392306700,0.660306640625,0.403108686208725,0.03464960306882858,0.02277270331978798
1789061913402316800,0.67031689453125,0.3591313660144806,0.11760524660348892,0.029364993795752525
1789061913412326000,0.680325927734375,0.39929822087287903,0.01498858816921711,-0.03860447183251381
1789061913422335700,0.690335693359375,0.3900754749774933,0.010051904246211052,0.01017811894416809
1789061913432345900,0.700345947265625,0.30592969059944153,0.10211312025785446,0.07956678420305252
1789061913442355000,0.71035498046875,0.2772507071495056,0.005470785312354565,0.04278210923075676
1789061913452364800,0.72036474609375,0.23091650009155273,0.06573759019374847,0.05686197429895401
1789061913462375000,0.730375,0.15245813131332397,0.09460864216089249,0.05216595157980919
1789061913472383700,0.7403837890625,0.12278332561254501,0.05786953866481781,-0.02587985061109066
1789061913482393900,0.750393798828125,0.0800364762544632,0.057760126888751984,-0.011043833568692207
1789061913492403700,0.76040380859375,0.0073798527009785175,0.11042600125074387,0.013072154484689236
1789061913502413800,0.770413818359375,-0.034119486808776855,0.012059662491083145,0.015286327339708805
1789061913512423000,0.7804228515625,-0.056200820952653885,0.05433201789855957,0.03508852794766426
1789061913522432800,0.790432861328125,-0.10735325515270233,0.1364222913980484,0.07549183815717697
1789061913532443000,0.80044287109375,-0.14132159948349,0.018295928835868835,0.0055913194082677364
1789061913542452000,0.810451904296875,-0.1773121953010559,0.06192481145262718,0.03607681021094322
1789061913552461800,0.8204619140625,-0.19286611676216125,0.015673160552978516,-0.015771739184856415
1789061913562472000,0.830471923828125,-0.19692999124526978,0.10663086920976639,0.027402210980653763
1789061913572481000,0.84048095703125,-0.18672315776348114,0.014332097955048084,-0.013987040147185326
1789061913582491000,0.850490966796875,-0.21780773997306824,-0.004351711366325617,-0.05202865228056908
1789061913592501000,0.8605009765625,-0.24714165925979614,-0.04418354853987694,-0.03243204951286316
1789061913602509800,0.870509765625,-0.2655258774757385,0.028419943526387215,-0.020108124241232872
1789061913612519700,0.880519775390625,-0.30134883522987366,-0.056123703718185425,-0.039613381028175354
1789061913622529800,0.89052978515625,-0.310951828956604,0.02522052451968193,-0.010916108265519142
1789061913632539000,0.900538818359375,-0.28423872590065,0.05946691334247589,0.0359928123652935
1789061913642548700,0.910548828125,-0.269428551197052,0.019848179072141647,0.027735121548175812
1789061913652558800,0.920558837890625,-0.23956333100795746,-0.010985897853970528,-0.02746262028813362
1789061913662568700,0.930568603515625,-0.19953973591327667,-0.0454447902739048,-0.06786742806434631
1789061913672577800,0.940577880859375,-0.19003145396709442,-0.055044420063495636,-0.0515931211411953
1789061913682588000,0.950587890625,-0.16809327900409698,-0.08877881616353989,-0.05714939162135124
1789061913692597800,0.96059765625,-0.1311134248971939,-0.04782659560441971,-0.027264196425676346
1789061913702606800,0.97060693359375,-0.11091434955596924,-0.15159152448177338,-0.0223983284085989
1789061913712617000,0.980616943359375,-0.1331442892551422,0.01757592149078846,0.04359586909413338
1789061913722626800,0.990626708984375,-0.07412562519311905,-0.048123106360435486,-0.012134627439081669
1789061913732635600,1.0006357421875,-0.06982968002557755,-0.06984011828899384,-0.039092209190130234
1789061913742645800,1.010645751953125,-0.04023158550262451,-0.02389019913971424,-0.023753302171826363
1789061913752656000,1.02065576171875,-0.02181929163634777,-0.042564019560813904,-0.041045743972063065
1789061913762664700,1.030664794921875,0.016947723925113678,-0.09705109894275665,-0.0363614484667778
1789061913772674800,1.0406748046875,0.053510263562202454,-0.06499090045690536,-0.009780704975128174
1789061913782685000,1.050684814453125,0.0806170329451561,-0.09242644160985947,-0.02112453430891037
1789061913792693800,1.06069384765625,0.09985917061567307,-0.17147013545036316,-0.044979799538850784
1789061913802704000,1.070703857421875,0.1173764020204544,-0.05287182703614235,0.011387205682694912
1789061913812714000,1.0807138671875,0.10717090219259262,-0.016338050365447998,0.037379927933216095
1789061913822722800,1.090722900390625,0.08380293846130371,-0.07224451750516891,-0.00019368925131857395
1789061913832733000,1.10073291015625,0.08590790629386902,-0.044253088533878326,-0.03101445361971855
1789061913842743000,1.110742919921875,0.11385130882263184,0.016492724418640137,-0.0001877075992524624
1789061913852753000,1.1207529296875,0.15545654296875,-0.16373509168624878,-0.02359423041343689
1789061913862761700,1.13076171875,0.16807159781455994,-0.042610324919223785,0.02886820398271084
1789061913872771800,1.140771728515625,0.13686494529247284,0.05340089276432991,0.023011911660432816
1789061913882781700,1.15078173828125,0.18400360643863678,-0.09864038974046707,-0.037237025797367096
1789061913892790800,1.160790771484375,0.1936759352684021,-0.0629175454378128,-0.009099665097892284
1789061913902801000,1.17080078125,0.18476873636245728,-0.09155745804309845,0.040999822318553925
1789061913912810800,1.180810791015625,0.1727120727300644,-0.07855590432882309,0.02893863245844841
1789061913922819800,1.19081982421875,0.11611758917570114,-0.047725193202495575,0.0318826362490654
1789061913932830000,1.200829833984375,0.12383143603801727,-0.061333682388067245,0.03605074808001518
1789061913942839800,1.21083984375,0.1262243241071701,-0.05139366164803505,-0.004009315278381109
1789061913952849000,1.220848876953125,0.128904789686203,-0.018891112878918648,-0.014939993619918823
1789061913962859000,1.23085888671875,0.15290629863739014,-0.07261770963668823,-0.00778357544913888
1789061913972868900,1.240868896484375,0.10352436453104019,0.05357590690255165,0.04469028487801552
1789061913982877700,1.250877685546875,0.16014444828033447,-0.11717375367879868,-0.031586483120918274
1789061913992887800,1.2608876953125,0.164961040019989,-0.06766799092292786,0.004108930006623268
1789061914002897700,1.270897705078125,0.11345504224300385,-0.015337093733251095,-0.0018435257952660322
1789061914012907800,1.28090771484375,0.129489928483963,-0.0636175349354744,-0.01916712149977684
1789061914022916900,1.290916748046875,0.12509849667549133,-0.08312104642391205,0.017230479046702385
1789061914032926700,1.3009267578125,0.15114635229110718,-0.011030610650777817,-0.00458107516169548
1789061914042936800,1.310936767578125,0.20981909334659576,-0.06211927533149719,-0.01043498981744051
1789061914052946000,1.32094580078125,0.17533913254737854,0.05913737416267395,0.03376656025648117
1789061914062955800,1.330955810546875,0.1937696784734726,0.020192760974168777,-0.008122850209474564
1789061914072966000,1.3409658203125,0.32475483417510986,-0.012876775115728378,-0.011105324141681194
1789061914082975000,1.35097509765625,0.42719289660453796,-0.18094828724861145,-0.0264467541128397
1789061914092984800,1.36098486328125,0.46651792526245117,0.027947135269641876,0.07866474986076355
1789061914102995000,1.370994873046875,0.4410027861595154,-0.005838161800056696,0.03905532881617546
1789061914113003800,1.381003662109375,0.3881579339504242,-0.07207683473825455,0.0033090512733906507
1789061914123013600,1.391013671875,0.4034551680088043,0.07546260952949524,0.04053885117173195
1789061914133023700,1.401023681640625,0.41345053911209106,0.01774871163070202,0.042570311576128006
1789061914143033900,1.411033935546875,0.44811874628067017,-0.02041255682706833,0.056033119559288025
1789061914153042700,1.421042724609375,0.4458846151828766,-0.05243680626153946,0.03944987803697586
1789061914163052800,1.431052734375,0.419434130191803,0.006528282072395086,0.02038484625518322
1789061914173063000,1.44106298828125,0.3859110474586487,0.04712817072868347,0.04282836988568306
1789061914183071700,1.45107177734375,0.43200334906578064,-0.046451155096292496,0.010819559916853905
1789061914193081900,1.461081787109375,0.3997173309326172,0.021379556506872177,0.033137381076812744
1789061914203092000,1.471092041015625,0.38809439539909363,0.07074222713708878,0.05891972780227661
1789061914213100800,1.481100830078125,0.4018371105194092,-0.04107990860939026,-0.007684596814215183
1789061914223111000,1.49111083984375,0.35607627034187317,0.1482284963130951,0.07417122274637222
1789061914233121000,1.50112109375,0.37096548080444336,0.013677870854735374,0.01154485996812582
1789061914243129900,1.5111298828125,0.38232704997062683,0.08394458144903183,0.0869903489947319
1789061914253139700,1.5211396484375,0.37761300802230835,0.04179499298334122,0.03215772658586502
1789061914263149800,1.53114990234375,0.36244815587997437,0.1893242597579956,0.055177558213472366
1789061914273159000,1.541158935546875,0.3681875169277191,0.1399415284395218,0.007082496769726276
1789061914283168800,1.551168701171875,0.3827618360519409,0.11141525208950043,-0.013193889521062374
1789061914293178400,1.561178466796875,0.4352378249168396,0.022512804716825485,-0.0584615021944046
1789061914303188200,1.571188232421875,0.4424133896827698,0.14043883979320526,0.06567668169736862
1789061914313197300,1.581197265625,0.4585777223110199,-0.026511535048484802,0.02233586646616459
1789061914323207400,1.59120751953125,0.34217599034309387,0.31541943550109863,0.15847399830818176
1789061914341349400,1.609349365234375,0.35897353291511536,0.1206139326095581,0.06260168552398682
1789061914351358500,1.6193583984375,0.320443719625473,0.08756863325834274,0.020111482590436935
1789061914361368300,1.629368408203125,0.25924068689346313,0.09358642995357513,0.02472805604338646
1789061914371378400,1.63937841796875,0.23853035271167755,0.06080770865082741,0.014745729975402355
1789061914381388500,1.649388427734375,0.16163939237594604,0.2223370373249054,0.09669170528650284
1789061914391397400,1.6593974609375,0.13949520885944366,0.1807621568441391,0.06307169795036316
1789061914401407500,1.669407470703125,0.13457053899765015,0.13339576125144958,0.03158517926931381
1789061914411417600,1.67941748046875,0.12330056726932526,0.10800918936729431,0.04898494482040405
1789061914421426200,1.68942626953125,0.10845385491847992,0.1498020589351654,0.0831153392791748
1789061914431436300,1.699436279296875,0.03895201534032822,0.1438448280096054,0.0531286746263504
1789061914441446400,1.7094462890625,-0.006500524468719959,0.20197784900665283,0.05653490871191025
1789061914451455200,1.719455322265625,-0.0011433092877268791,0.22539874911308289,0.08537880331277847
1789061914461465300,1.72946533203125,0.018812840804457664,0.10684466361999512,0.06353086978197098
1789061914471475500,1.739475341796875,0.05778047814965248,0.07791741192340851,0.0632653534412384
1789061914481485300,1.7494853515625,-0.0344960018992424,0.17716480791568756,0.07099423557519913
1789061914491494400,1.759494384765625,-0.077488474547863,0.20487207174301147,0.04429897665977478
1789061914501504500,1.76950439453125,-0.06680940091609955,0.21209782361984253,0.022430703043937683
1789061914511514400,1.779514404296875,-0.04046114906668663,0.18228134512901306,0.012395380064845085
1789061914521523500,1.7895234375,-0.023188820108771324,0.17687951028347015,0.053209904581308365
1789061914531533600,1.799533447265625,-0.02147188037633896,0.0888788178563118,0.04158227890729904
1789061914541543400,1.80954345703125,0.003098841989412904,0.2408786118030548,0.09693209826946259
1789061914551552300,1.81955224609375,-0.014739543199539185,0.16078351438045502,0.016560830175876617
1789061914561562400,1.829562255859375,-0.05525028333067894,0.2290905863046646,0.07618474215269089
1789061914571572200,1.839572265625,-0.040060143917798996,0.08102335780858994,0.01722314953804016
1789061914581581300,1.849581298828125,-0.09792216122150421,0.2797739803791046,0.1283562183380127
1789061914591591400,1.85959130859375,-0.11590994894504547,0.19315066933631897,0.07886296510696411
1789061914601601300,1.869601318359375,-0.1447664350271225,0.20083460211753845,0.03063255175948143
1789061914611611400,1.879611328125,-0.15644891560077667,0.18967407941818237,0.003965786658227444
1789061914621620500,1.889620361328125,-0.1590382307767868,0.09503930062055588,-0.023909345269203186
1789061914631630300,1.89963037109375,-0.2271837294101715,0.15584778785705566,0.029432173818349838
1789061914641640400,1.909640380859375,-0.3227624297142029,0.14626199007034302,0.08736708015203476
1789061914651649500,1.9196494140625,-0.3987376391887665,0.14200732111930847,0.050336092710494995
1789061914661659400,1.929659423828125,-0.3924681842327118,0.14418216049671173,0.010884301736950874
1789061914671669500,1.93966943359375,-0.41192924976348877,0.17200952768325806,-0.02416263148188591
1789061914681678300,1.94967822265625,-0.4660285711288452,0.1495344191789627,-0.04404780641198158
1789061914691688200,1.959688232421875,-0.4504256546497345,0.0626852735877037,-0.06776805222034454
1789061914701698300,1.9696982421875,-0.4725235104560852,0.061055686324834824,-0.040623512119054794
1789061914711708400,1.97970849609375,-0.5001407861709595,0.1846226304769516,0.06042267382144928
1789061914721717200,1.98971728515625,-0.47460711002349854,-0.0007836488075554371,-0.02366979420185089
1789061914731727400,1.999727294921875,-0.4977920651435852,0.019568495452404022,-0.05130168795585632
1789061914741737500,2.009737548828125,-0.5074989795684814,0.09761697798967361,0.0034506407100707293
1789061914751746300,2.019746337890625,-0.39668914675712585,0.00996541976928711,-0.0736694410443306
1789061914761756400,2.02975634765625,-0.35087868571281433,0.059232138097286224,-0.03502979129552841
1789061914771766500,2.0397666015625,-0.26775476336479187,0.008029935881495476,-0.017902735620737076
1789061914781775400,2.049775390625,-0.20089274644851685,0.093503437936306,0.06395885348320007
1789061914791785500,2.059785400390625,-0.12051189690828323,0.04944436997175217,0.02025771513581276
1789061914801795600,2.069795654296875,-0.05785826966166496,-0.0069807409308850765,0.0033612698316574097
1789061914811805400,2.079805419921875,-0.03164690360426903,0.029764490202069283,0.0202180128544569
1789061914821814300,2.089814208984375,-0.06308496743440628,0.041439805179834366,0.02404804155230522
1789061914831824400,2.099824462890625,-0.04576243832707405,0.027185235172510147,-0.010077704675495625
1789061914841834200,2.109834228515625,0.014966237358748913,-0.01571447029709816,-0.05604425445199013
1789061914851843300,2.11984326171875,0.0023817357141524553,-0.011983114294707775,-0.04643477126955986
1789061914861853400,2.129853515625,-0.02527264505624771,-0.007556269410997629,-0.0696779191493988
1789061914871863300,2.13986328125,-0.008410308510065079,0.002840978093445301,-0.02272825501859188
1789061914881872400,2.149872314453125,-0.023803746327757835,0.06161179766058922,0.059305112808942795
1789061914891882500,2.159882568359375,-0.002959983190521598,-0.06523056328296661,-0.009481940418481827
1789061914901892400,2.169892333984375,-0.049335137009620667,-0.017756186425685883,-0.0203739944845438
1789061914911901400,2.1799013671875,-0.07118477672338486,-0.013550788164138794,-0.05194203928112984
1789061914921911600,2.18991162109375,-0.07429984211921692,-0.027800818905234337,-0.009563185274600983
1789061914931921400,2.19992138671875,-0.10610917210578918,0.01417592354118824,-0.00011588842608034611
1789061914941931500,2.209931640625,-0.16209259629249573,0.050902459770441055,0.030988361686468124
1789061914951940400,2.2199404296875,-0.18464744091033936,0.025064734742045403,-0.046872079372406006
1789061914961950200,2.2299501953125,-0.15430231392383575,0.0055986265651881695,-0.049044154584407806
1789061914971960300,2.239960205078125,-0.12924623489379883,0.04204398766160011,0.010488146916031837
1789061914981969400,2.249969482421875,-0.14980487525463104,0.007473408710211515,0.0017402153462171555
1789061914991979300,2.259979248046875,-0.1410824954509735,0.052199333906173706,-0.006361386738717556
1789061915001989400,2.2699892578125,-0.07744342088699341,0.012159131467342377,-0.07278915494680405
1789061915011999500,2.27999951171875,-0.021572167053818703,0.0481051467359066,-0.05469351261854172
1789061915022008300,2.29000830078125,0.03873070329427719,0.008572779595851898,-0.057011112570762634
1789061915032018400,2.300018310546875,0.067930668592453,-0.04094017669558525,-0.05397031456232071
1789061915042028500,2.310028564453125,0.05249308794736862,0.1179165467619896,0.06435073167085648
1789061915052037400,2.320037353515625,0.08057985454797745,0.0843423381447792,0.04347687214612961
1789061915062047500,2.330047607421875,0.13883697986602783,0.06157414987683296,0.012268247082829475
1789061915072057600,2.3400576171875,0.13197214901447296,0.0662035197019577,0.02511986345052719
1789061915082066200,2.350066162109375,0.14428018033504486,-0.05201375111937523,-0.0470876581966877
1789061915092076300,2.360076171875,0.09316078573465347,0.0891156792640686,0.042888570576906204
1789061915102086400,2.37008642578125,-0.00134372734464705,0.07232833653688431,0.03723109886050224
1789061915112096300,2.38009619140625,-0.04407041519880295,0.15750928223133087,0.10086573660373688
1789061915122105300,2.390105224609375,-0.02797933667898178,0.03897254168987274,0.024014396592974663
1789061915132115500,2.400115478515625,-0.07249566912651062,0.07926750183105469,0.0525142177939415
1789061915142125300,2.410125244140625,-0.06756618618965149,0.07195519655942917,0.017739422619342804
1789061915152134400,2.420134521484375,-0.07420864701271057,0.018858689814805984,-0.056809380650520325
1789061915162144500,2.43014453125,-0.0853506475687027,-0.004263261798769236,-0.055378448218107224
1789061915172154400,2.440154296875,-0.10276718437671661,0.13806618750095367,0.016149263828992844
1789061915182163500,2.45016357421875,-0.100908562541008,-0.00812617689371109,-0.06844577938318253
1789061915192173600,2.460173583984375,-0.16998697817325592,0.12083446979522705,-0.018252918496727943
1789061915202183400,2.470183349609375,-0.17843100428581238,0.013507507741451263,-0.04286281764507294
1789061915212193500,2.480193603515625,-0.21334557235240936,0.10404379665851593,-0.018433906137943268
1789061915222202400,2.490202392578125,-0.2519976496696472,0.09226331114768982,0.0020044208504259586
1789061915232212200,2.500212158203125,-0.23556646704673767,-0.04770391061902046,-0.04331885278224945
1789061915242222300,2.510222412109375,-0.3194873631000519,0.15138371288776398,0.050058480352163315
1789061915252231400,2.5202314453125,-0.2841368317604065,0.05915151908993721,-0.02254088968038559
1789061915262241300,2.5302412109375,-0.28762564063072205,0.02965005487203598,-0.06413744390010834
1789061915272251400,2.54025146484375,-0.2949490547180176,-0.01944931223988533,-0.07720343768596649
1789061915282260500,2.550260498046875,-0.3081548810005188,0.08560599386692047,0.0021582243498414755
1789061915292270300,2.560270263671875,-0.28951168060302734,-0.00810371432453394,0.015140867792069912
1789061915302280400,2.570280517578125,-0.300353080034256,0.034160975366830826,0.017031051218509674
1789061915312290300,2.580290283203125,-0.2834332287311554,0.05131972208619118,0.021327795460820198
1789061915322299400,2.59029931640625,-0.25101804733276367,0.002026675269007683,-0.030056335031986237
1789061915332309500,2.6003095703125,-0.2405710220336914,0.00011905282735824585,-0.07955969870090485
1789061915342319600,2.610319580078125,-0.24456702172756195,-0.03144892305135727,-0.09795787930488586
1789061915352328400,2.620328369140625,-0.2262631207704544,-0.15277640521526337,-0.08061590790748596
1789061915362338600,2.630338623046875,-0.2510033845901489,0.08583348244428635,0.1657806932926178
1789061915372348700,2.6403486328125,-0.1915259212255478,-0.055525243282318115,0.22905473411083221
1789061915382358500,2.650358642578125,-0.2756466567516327,0.12765605747699738,0.2569977045059204
1789061915392367400,2.660367431640625,-0.3464348018169403,0.11747453361749649,0.07832274585962296
1789061915402377500,2.67037744140625,-0.29589492082595825,0.0884343683719635,-0.12266319245100021
1789061915412387300,2.68038720703125,-0.2672366499900818,0.06253352761268616,-0.2680206298828125
1789061915422396400,2.690396484375,-0.25798219442367554,-0.09334050863981247,-0.32996031641960144
1789061915432406500,2.700406494140625,-0.23828493058681488,-0.26855412125587463,-0.2412261962890625
1789061915442416400,2.71041650390625,-0.2509583532810211,0.024803994223475456,0.056237317621707916
1789061915452425500,2.720425537109375,-0.25046804547309875,0.1605122834444046,0.1675686240196228
1789061915462435600,2.730435546875,-0.2581906020641327,0.1542307734489441,0.10114537924528122
1789061915472445400,2.740445556640625,-0.2932108938694,0.08403517305850983,-0.021981077268719673
1789061915482455600,2.75045556640625,-0.31610217690467834,0.07549037784337997,-0.0539536327123642
1789061915492464600,2.760464599609375,-0.21829304099082947,-0.005887036211788654,-0.08725965768098831
1789061915502474500,2.770474609375,-0.1682138293981552,-0.16883061826229095,-0.12346868216991425
1789061915512484600,2.780484619140625,-0.14494764804840088,-0.09587225317955017,-0.045356571674346924
1789061915522493400,2.790493408203125,-0.1715548187494278,0.09189091622829437,0.09827622026205063
1789061915532503300,2.80050341796875,-0.17572027444839478,0.08916304260492325,0.07630008459091187
1789061915542513400,2.810513427734375,-0.17533762753009796,0.01464107632637024,0.0366276279091835
1789061915552522500,2.8205224609375,-0.1561436951160431,0.017886672168970108,0.01305892039090395
1789061915562532400,2.830532470703125,-0.12817539274692535,0.00015007378533482552,-0.0309134591370821
1789061915572542500,2.84054248046875,-0.09821536391973495,-0.04292576014995575,-0.03819134458899498
1789061915582552300,2.85055224609375,-0.06920056790113449,-0.04856642335653305,0.001094399020075798
1789061915592561400,2.8605615234375,-0.10719136148691177,-0.028363417834043503,-0.010003792122006416
1789061915602571500,2.870571533203125,-0.13072657585144043,0.02833470329642296,0.0008209156803786755
1789061915612581400,2.880581298828125,-0.16113509237766266,0.05933283269405365,0.024882841855287552
1789061915622590500,2.890590576171875,-0.17574679851531982,-0.18932972848415375,0.014424740336835384
1789061915632600600,2.9006005859375,-0.2728235423564911,0.11050651967525482,0.17380215227603912
1789061915642610400,2.9106103515625,-0.2355348914861679,0.07420407235622406,0.17486463487148285
1789061915652620500,2.92062060546875,-0.1376970112323761,-0.09649603068828583,0.04990725219249725
1789061915662629400,2.93062939453125,-0.12355469167232513,-0.04137644171714783,-0.005339477211236954
1789061915672639500,2.940639404296875,-0.2554522752761841,-0.0021603265777230263,-0.13125187158584595
1789061915682649300,2.9506494140625,-0.2848537266254425,-0.01861485280096531,-0.17647530138492584
1789061915692658400,2.960658447265625,-0.213417649269104,-0.1657947152853012,-0.20511598885059357
1789061915702668500,2.97066845703125,-0.17370788753032684,-0.16565902531147003,-0.06786800175905228
1789061915712678400,2.980678466796875,-0.1690841019153595,0.05897408723831177,0.09256401658058167
1789061915722687500,2.9906875,-0.18647469580173492,0.1122121512889862,0.13491947948932648
1789061915732697600,3.000697509765625,-0.2082739919424057,-0.053265489637851715,-0.08226291090250015
1789061915742707500,3.01070751953125,-0.1804787963628769,-0.1073417142033577,-0.15403443574905396
1789061915752717600,3.020717529296875,-0.12285997718572617,-0.11475036293268204,-0.12856395542621613
1789061915762726700,3.0307265625,-0.1046445220708847,-0.19451341032981873,-0.11934489011764526
1789061915772736500,3.040736572265625,-0.15035927295684814,0.05408548563718796,0.06312558799982071
1789061915782746600,3.05074658203125,-0.09680179506540298,-0.21841663122177124,-0.00038401782512664795
1789061915792755500,3.06075537109375,-0.11445588618516922,0.12856929004192352,0.19311194121837616
1789061915802765300,3.070765380859375,0.0008894650381989777,-0.01730765402317047,0.13620483875274658
1789061915812775400,3.080775390625,0.07319056242704391,-0.05563986301422119,0.07618837058544159
1789061915822784500,3.090784423828125,0.12325295805931091,-0.08189433068037033,0.03605639934539795
1789061915832794400,3.10079443359375,0.1265382468700409,-0.12605300545692444,-0.05872656777501106
1789061915842804500,3.110804443359375,0.10131946951150894,-0.053907670080661774,0.00157326296903193
1789061915852814300,3.120814453125,0.05473039299249649,-0.008706102147698402,-0.008822652511298656
1789061915862823400,3.130823486328125,0.021787604317069054,-0.01358556468039751,0.0351950041949749
1789061915872833500,3.14083349609375,0.007295481860637665,-0.06566980481147766,-0.011066234670579433
1789061915882843400,3.150843505859375,0.009049390442669392,-0.07415282726287842,0.006413550116121769
1789061915892852500,3.1608525390625,0.00840597040951252,-0.0039047636091709137,0.023613309487700462
1789061915902862600,3.170862548828125,0.0017028627917170525,0.010184204205870628,0.0006256785709410906
1789061915912872400,3.18087255859375,0.0009475903352722526,-0.07043181359767914,-0.013751662336289883
1789061915922882600,3.190882568359375,0.01139453798532486,-0.021930938586592674,0.014655230566859245
1789061915932891400,3.200891357421875,0.019652467221021652,-0.1935519576072693,-0.09620284289121628
1789061915942901200,3.2109013671875,-0.044478435069322586,0.1613069623708725,0.10355329513549805
1789061915952911400,3.220911376953125,-0.01904311403632164,0.014056522399187088,0.012252678163349628
1789061915962920400,3.23092041015625,0.01023881882429123,0.050863247364759445,-0.0391850546002388
1789061915972930300,3.240930419921875,-0.0057625179179012775,0.010328071191906929,-0.024588003754615784
1789061915982940400,3.2509404296875,0.03848189488053322,-0.0007115784101188183,-0.08505550771951675
1789061915992950500,3.260950439453125,0.024992186576128006,-0.04982106760144234,-0.06150703877210617
1789061916002959600,3.270959716796875,-0.018641844391822815,-0.007905575446784496,0.020120713859796524
1789061916012969500,3.280969482421875,-0.021478377282619476,-0.020931895822286606,0.08594021201133728
1789061916022979600,3.2909794921875,-0.1038101390004158,0.02254622057080269,0.16893842816352844
1789061916032988700,3.30098876953125,-0.0468808077275753,-0.004677410237491131,0.06505225598812103
1789061916042998500,3.31099853515625,-0.05720348656177521,0.04741082340478897,0.029413295909762383
1789061916053008600,3.321008544921875,-0.04609490931034088,-0.11045976728200912,-0.054031796753406525
1789061916063017500,3.331017578125,-0.044171951711177826,-0.002960598561912775,0.01686806231737137
1789061916073027300,3.34102734375,-0.07130024582147598,0.07402100414037704,0.10789117962121964
1789061916083037400,3.351037353515625,-0.09952978789806366,-0.11116806417703629,0.04621449485421181
1789061916093047300,3.36104736328125,-0.1802549809217453,-0.08417772501707077,0.014452837407588959
1789061916103056400,3.371056396484375,-0.2528352439403534,-0.05239534378051758,0.0015290735755115747
1789061916113066500,3.38106640625,-0.2571495771408081,-0.08135747909545898,-0.09863561391830444
1789061916123076400,3.391076416015625,-0.32109856605529785,-0.15002216398715973,-0.07076285034418106
1789061916133085400,3.40108544921875,-0.41154593229293823,-0.006573122926056385,0.053660303354263306
1789061916143095600,3.411095458984375,-0.4530962109565735,-0.11571656167507172,-0.0005615116097033024
1789061916153105400,3.42110546875,-0.5201714038848877,0.07983829081058502,0.09449309855699539
1789061916163115500,3.431115478515625,-0.49804046750068665,-0.08555302768945694,-0.025181634351611137
1789061916173124600,3.44112451171875,-0.5105671882629395,-0.10232694447040558,-0.017893094569444656
1789061916183134500,3.451134521484375,-0.5018798112869263,-0.04502224177122116,0.05409146845340729
1789061916193144600,3.46114453125,-0.43595218658447266,-0.11990180611610413,0.003184880828484893
1789061916203153400,3.4711533203125,-0.3993791937828064,-0.0486469641327858,0.03827763348817825
1789061916213163300,3.481163330078125,-0.35505619645118713,-0.1319945752620697,-0.03317924216389656
1789061916223173400,3.49117333984375,-0.3323034346103668,-0.1312534362077713,-0.04532767832279205
1789061916233183500,3.50118359375,-0.3161449730396271,-0.04803311452269554,0.0140799880027771
1789061916243192300,3.5111923828125,-0.26344063878059387,-0.18379241228103638,-0.05452129617333412
1789061916253202400,3.521202392578125,-0.23258312046527863,-0.07836426049470901,0.04497546702623367
1789061916263212500,3.531212646484375,-0.21532809734344482,-0.09894316643476486,0.04127619042992592
1789061916273221400,3.541221435546875,-0.17721612751483917,-0.06007992476224899,0.052447352558374405
1789061916283231500,3.5512314453125,-0.14915817975997925,-0.1224176436662674,-0.04914103448390961
1789061916293241600,3.56124169921875,-0.10600139945745468,-0.16761495172977448,-0.09220141917467117
1789061916303250400,3.57125048828125,-0.10642444342374802,-0.07719492167234421,-0.05288279429078102
1789061916313260500,3.581260498046875,-0.08559878915548325,-0.1385171264410019,-0.03231413662433624
1789061916323270700,3.591270751953125,-0.04651854932308197,-0.2320183515548706,-0.032045260071754456
1789061916333280500,3.601280517578125,-0.06394174695014954,-0.03186368569731712,0.031059404835104942
1789061916343289300,3.611289306640625,-0.04872914031147957,-0.18012391030788422,-0.044484373182058334
1789061916353299500,3.621299560546875,-0.05645070597529411,-0.22798916697502136,-0.0524807833135128
1789061916363309300,3.631309326171875,-0.10537517070770264,-0.2300925999879837,-0.017507627606391907
1789061916373318400,3.641318359375,-0.138206347823143,-0.10886764526367188,0.10342864692211151
1789061916383328500,3.65132861328125,-0.12739157676696777,-0.2555721700191498,0.04845849797129631
1789061916393338400,3.66133837890625,-0.17858898639678955,-0.1467660516500473,0.03207845985889435
1789061916403348500,3.671348388671875,-0.1666995882987976,-0.16999495029449463,-0.012824967503547668
1789061916413357600,3.681357666015625,-0.14621880650520325,-0.2251833826303482,-0.07101023942232132
1789061916423367400,3.691367431640625,-0.09703843295574188,-0.26311609148979187,-0.10048440843820572
1789061916433377500,3.70137744140625,-0.06338699162006378,-0.2137426733970642,-0.11861973255872726
1789061916443386600,3.71138671875,-0.10514414310455322,-0.22180096805095673,-0.23220233619213104
1789061916453396500,3.721396484375,-0.14829695224761963,-0.6493360996246338,-0.22743554413318634
1789061916463406600,3.731406494140625,-0.041895221918821335,-0.19375956058502197,0.11845623701810837
1789061916473415400,3.74141552734375,-0.09538321197032928,0.14604061841964722,0.3674652576446533
1789061916483425300,3.75142529296875,-0.15037678182125092,-0.24192693829536438,0.07317379862070084
1789061916493435400,3.761435302734375,-0.187655970454216,-0.19867587089538574,-0.13574105501174927
1789061916503445500,3.771445556640625,-0.03141026943922043,-0.2096809297800064,-0.21377938985824585
1789061916513454300,3.781454345703125,0.1998160183429718,-0.41153281927108765,-0.20094960927963257
1789061916523464400,3.79146435546875,0.2732127606868744,-0.43291956186294556,-0.11366875469684601
1789061916533474600,3.801474609375,0.3003098964691162,-0.37072330713272095,0.09028490632772446
1789061916543483400,3.8114833984375,0.2525064945220947,-0.058149613440036774,0.24899281561374664
1789061916553493500,3.821493408203125,0.29481613636016846,-0.046918533742427826,0.22687046229839325
1789061916563503600,3.831503662109375,0.34123122692108154,-0.1485200673341751,0.19496098160743713
1789061916573513500,3.841513427734375,0.4377489984035492,-0.1296161562204361,0.10114873945713043
1789061916583522600,3.8515224609375,0.47834843397140503,-0.13417252898216248,-0.024566635489463806
1789061916593532700,3.86153271484375,0.617122232913971,-0.21667885780334473,-0.11424299329519272
1789061916603542500,3.87154248046875,0.7392457723617554,-0.412502646446228,-0.11426115036010742
1789061916613551400,3.88155126953125,0.7495819926261902,0.07476793229579926,0.18586857616901398
1789061916623561500,3.8915615234375,0.6810051798820496,-0.20684903860092163,0.10442814230918884
1789061916633571300,3.9015712890625,0.638824462890625,-0.2031075656414032,-0.008399344980716705
1789061916643581400,3.91158154296875,0.5897487998008728,-0.08141199499368668,-0.04437931254506111
1789061916653590500,3.921590576171875,0.6902162432670593,-0.18071675300598145,0.01640573889017105
1789061916663600400,3.931600341796875,0.6921204328536987,-0.026374779641628265,0.1686573624610901
1789061916673610500,3.941610595703125,0.6560285091400146,-0.13032273948192596,0.14776645600795746
1789061916683619600,3.95161962890625,0.6062570214271545,-0.07988294959068298,0.1024603471159935
1789061916693629400,3.96162939453125,0.6539134979248047,-0.10288653522729874,-0.1242806538939476
1789061916703639600,3.9716396484375,0.608492910861969,-0.197051540017128,-0.2570379078388214
1789061916713649400,3.9816494140625,0.6874948143959045,-0.33695003390312195,-0.11964117735624313
1789061916723658500,3.991658447265625,0.6245244145393372,0.15816770493984222,0.3852744996547699
1789061916733668600,4.001668701171875,0.5313244462013245,-0.26126232743263245,0.2310207337141037
1789061916743678500,4.011678466796875,0.32259711623191833,0.3362692892551422,0.2570308744907379
1789061916753687300,4.021687255859375,0.3100142180919647,0.20461083948612213,0.04562675580382347
1789061916763697400,4.031697509765625,0.34834492206573486,0.09975533187389374,-0.05386510118842125
1789061916773707300,4.041707275390625,0.2526642084121704,0.10728035867214203,-0.0831042155623436
1789061916783717400,4.05171728515625,0.16497072577476501,0.009179815649986267,-0.10204832255840302
1789061916793726500,4.0617265625,0.21262480318546295,-0.22377647459506989,-0.0883205235004425
1789061916803736600,4.071736572265625,0.17124459147453308,0.1931685358285904,0.22501860558986664
1789061916813746400,4.081746337890625,0.10481443256139755,0.024483120068907738,0.10684803128242493
1789061916823755500,4.091755615234375,-0.0711420401930809,0.029104705899953842,0.05597754940390587
1789061916833765600,4.101765625,-0.05597507208585739,-0.1389508694410324,-0.00017387163825333118
1789061916843775500,4.111775390625,-0.03434595838189125,0.17323602735996246,0.2959601879119873
1789061916853785600,4.12178564453125,0.021401992067694664,-0.09971347451210022,0.04492529481649399
1789061916863794700,4.131794677734375,-0.13838644325733185,0.13034038245677948,-0.02742880955338478
1789061916873804500,4.141804443359375,-0.07940301299095154,0.09251044690608978,-0.2698398530483246
1789061916883814700,4.151814697265625,0.017157042399048805,-0.03653888776898384,-0.2596668303012848
1789061916893823500,4.161823486328125,0.032685402780771255,0.017230333760380745,-0.08740423619747162
1789061916903833300,4.171833251953125,-0.07177062332630157,0.003463670378550887,0.05858621001243591
1789061916913843500,4.181843505859375,-0.17768026888370514,0.12519782781600952,0.09547098726034164
1789061916923853300,4.191853271484375,-0.282850444316864,0.2819426655769348,0.10742474347352982
1789061916933862400,4.2018623046875,-0.1522628515958786,-0.16207098960876465,-0.05797646567225456
1789061916943872500,4.21187255859375,-0.20758824050426483,0.06512907892465591,0.05271824449300766
1789061916953882400,4.22188232421875,-0.25200313329696655,0.09805693477392197,0.023627469316124916
1789061916963891500,4.231891357421875,-0.3001193404197693,0.1028108075261116,0.059600237756967545
1789061916973901600,4.241901611328125,-0.16953179240226746,0.01626473292708397,0.04673903435468674
1789061916983911400,4.251911376953125,-0.024378610774874687,-0.042413778603076935,-0.019851313903927803
1789061916993921500,4.261921630859375,-0.02398446388542652,-0.04467160627245903,-0.0880998745560646
1789061917003930600,4.2719306640625,-0.19417433440685272,0.08493402600288391,-0.06058383360505104
1789061917013940500,4.2819404296875,-0.16413414478302002,0.05335984751582146,-0.043273553252220154
1789061917023950600,4.29195068359375,-0.1559765487909317,0.08669500797986984,0.09342894703149796
1789061917033959400,4.30195947265625,-0.1424301266670227,0.024416187778115273,0.08048118650913239
1789061917043969300,4.31196923828125,-0.14688800275325775,0.009404963813722134,-0.06767676025629044
1789061917053979400,4.3219794921875,-0.13200625777244568,-0.08700892329216003,-0.23098444938659668
1789061917063988500,4.331988525390625,-0.12120310962200165,-0.2675669491291046,-0.28833216428756714
1789061917073998300,4.341998291015625,-0.16559748351573944,0.2514016628265381,0.1293870508670807
1789061917084008400,4.352008544921875,-0.16721703112125397,-0.18242014944553375,-0.03131752461194992
1789061917094018600,4.3620185546875,-0.26263755559921265,-0.013304367661476135,0.013137291185557842
1789061917104027400,4.37202734375,-0.22108152508735657,0.004042175132781267,-0.14228880405426025
1789061917114037500,4.38203759765625,-0.06368470191955566,-0.18585053086280823,-0.3639487624168396
1789061917124047600,4.392047607421875,0.02247614786028862,-0.16946078836917877,-0.14139533042907715
1789061917134056400,4.402056396484375,0.13822272419929504,-0.29392337799072266,-0.02226840890944004
1789061917144066600,4.412066650390625,-0.01016769278794527,0.3751475512981415,0.4009318947792053
1789061917154076700,4.42207666015625,0.0715617910027504,-0.1656416356563568,0.09296448528766632
1789061917164086300,4.432086181640625,0.14538924396038055,-0.06335672736167908,-0.007344294339418411
1789061917174095400,4.442095458984375,0.21890901029109955,-0.09305176883935928,-0.14923831820487976
1789061917184105500,4.45210546875,0.24692301452159882,-0.1650698184967041,-0.1858220249414444
1789061917194115300,4.462115234375,0.2632239758968353,-0.32424911856651306,-0.16585098206996918
1789061917204124400,4.47212451171875,0.20555388927459717,0.3362049162387848,0.2765834629535675
1789061917214134500,4.482134521484375,0.2976697087287903,0.02053590677678585,0.10641277581453323
1789061917224144400,4.492144287109375,0.398250937461853,-0.011172765865921974,-0.016486940905451775
1789061917234154500,4.502154541015625,0.4785119593143463,-0.04497440904378891,-0.10964538156986237
1789061917244163600,4.51216357421875,0.46156591176986694,-0.03416736051440239,-0.21073482930660248
1789061917254173400,4.52217333984375,0.4326525032520294,-0.04344421625137329,-0.18244940042495728
1789061917264183600,4.53218359375,0.47453588247299194,-0.13670963048934937,-0.19471992552280426
1789061917274192600,4.542192626953125,0.45163482427597046,0.15324681997299194,0.05779062211513519
1789061917284202500,4.552202392578125,0.5378427505493164,-0.24594201147556305,-0.05743902176618576
1789061917294212600,4.562212646484375,0.501936674118042,0.43152570724487305,0.2348407804965973
1789061917304222500,4.572222412109375,0.5927112698554993,0.0046413494274020195,0.004806630313396454
1789061917314231600,4.5822314453125,0.5525369644165039,-0.0020059007219970226,-0.04660143330693245
1789061917324241700,4.59224169921875,0.5190961360931396,-0.1478261947631836,-0.07575785368680954
1789061917334251500,4.60225146484375,0.5207281708717346,0.2454654425382614,0.14159710705280304
1789061917344260600,4.612260498046875,0.5489741563796997,-0.0914875790476799,0.048496320843696594
1789061917354270700,4.622270751953125,0.42584821581840515,0.08657722920179367,0.0783679261803627
1789061917364280600,4.632280517578125,0.46624770760536194,0.05908079072833061,0.006501882337033749
1789061917374290400,4.64229052734375,0.47219163179397583,0.07848058640956879,0.083280548453331
1789061917384299500,4.652299560546875,0.4555036425590515,-0.07481081783771515,0.08209793269634247
1789061917394309600,4.6623095703125,0.37522023916244507,0.16528645157814026,0.17705586552619934
1789061917404319500,4.672319580078125,0.24186494946479797,0.20147018134593964,0.12338816374540329
1789061917414328600,4.68232861328125,0.2369261234998703,0.05081542208790779,0.05664694309234619
1789061917424338700,4.692338623046875,0.26411718130111694,0.06641878932714462,0.1639903038740158
1789061917434348500,4.7023486328125,0.24528251588344574,0.039715271443128586,0.26179540157318115
1789061917444358700,4.712358642578125,0.11745594441890717,0.07620231062173843,0.19490228593349457
1789061917454367700,4.72236767578125,0.07858791202306747,0.13233880698680878,-0.06219048798084259
1789061917464377600,4.732377685546875,0.04875516891479492,0.20364835858345032,-0.09825465083122253
1789061917474387700,4.7423876953125,0.12232712656259537,-0.20842601358890533,-0.2729324698448181
1789061917484396800,4.752396728515625,0.013994053937494755,0.25593724846839905,0.1417049914598465
1789061917494406700,4.76240673828125,-0.006727203261107206,-0.21368272602558136,0.02022489532828331
1789061917504416800,4.772416748046875,-0.2388293743133545,0.6905446648597717,0.48688074946403503
1789061917514426400,4.78242626953125,-0.19692745804786682,0.08992646634578705,0.1386769860982895
1789061917524435500,4.792435546875,-0.13238421082496643,0.1299947053194046,0.040788594633340836
1789061917534445600,4.802445556640625,-0.011232215911149979,0.08340536803007126,-0.06255084276199341
1789061917544455400,4.812455322265625,0.009418630041182041,0.043210726231336594,0.03453338146209717
1789061917554465500,4.822465576171875,-0.01429069321602583,0.2543216347694397,0.12357030808925629
1789061917564474600,4.832474609375,-0.08668404072523117,0.22149251401424408,0.07618816941976547
1789061917574484500,4.842484375,-0.08157822489738464,0.1420927494764328,-0.030063170939683914
1789061917584494600,4.85249462890625,0.004314584657549858,0.1925297975540161,0.1167512834072113
1789061917594503700,4.862503662109375,0.11271669715642929,0.06052302569150925,-0.01764674484729767
1789061917604513500,4.872513427734375,-0.06068245694041252,0.18488523364067078,-0.003712309058755636
1789061917614523600,4.882523681640625,-0.10370555520057678,0.0590444877743721,-0.12964999675750732
1789061917624532700,4.89253271484375,-0.03228890150785446,0.1015123501420021,0.007482319138944149
1789061917634542600,4.90254248046875,-0.08109398931264877,0.29609861969947815,0.1493358612060547
1789061917644552400,4.912552490234375,-0.19426289200782776,0.2635670304298401,0.09660767018795013
1789061917654562600,4.9225625,-0.20799094438552856,0.21106840670108795,-0.14160756766796112
1789061917664571600,4.932571533203125,-0.22959651052951813,0.15122942626476288,-0.2376408874988556
1789061917674581500,4.94258154296875,-0.02290964499115944,-0.47418731451034546,-0.31590214371681213
1789061917684591600,4.952591552734375,-0.12483815848827362,0.30939409136772156,0.2895713150501251
1789061917694601500,4.9626015625,-0.23529621958732605,0.19967105984687805,0.26102861762046814
1789061917704610600,4.972610595703125,-0.40364548563957214,0.264718234539032,0.2063199132680893
1789061917714620700,4.98262060546875,-0.4241025447845459,0.1502494364976883,-0.04025711491703987
1789061917724630500,4.992630615234375,-0.3721526563167572,0.15281078219413757,-0.07149916887283325
1789061917734639600,5.0026396484375,-0.21652044355869293,-0.008166920393705368,-0.17489001154899597
1789061917744649700,5.012649658203125,-0.2576295733451843,-0.32527807354927063,-0.19071625173091888
1789061917754659600,5.02265966796875,-0.452073335647583,0.21049323678016663,0.1336708813905716
1789061917764669700,5.032669677734375,-0.41467419266700745,0.19859138131141663,0.1811949759721756
1789061917774678500,5.042678466796875,-0.3723544180393219,0.004392610397189856,0.01940927468240261
1789061917784688400,5.0526884765625,-0.541537344455719,0.0661768987774849,-0.009180929511785507
1789061917794698500,5.062698486328125,-0.48423492908477783,0.044579457491636276,-0.023733772337436676
1789061917804707600,5.07270751953125,-0.43091997504234314,-0.0001371419057250023,-0.1969875991344452
1789061917814717400,5.082717529296875,-0.31048277020454407,-0.1912759393453598,-0.3997657597064972
1789061917824727600,5.0927275390625,-0.30807214975357056,-0.41076675057411194,-0.27175289392471313
1789061917834737700,5.102737548828125,-0.2527260482311249,-0.3256955146789551,-0.05085913464426994
1789061917844746500,5.11274658203125,-0.4503621459007263,0.3126588463783264,0.3488050401210785
1789061917854756600,5.122756591796875,-0.48403701186180115,-0.04597412794828415,0.07773732393980026
1789061917864766700,5.1327666015625,-0.5123460292816162,-0.05830742418766022,-0.18845778703689575
1789061917874775600,5.142775634765625,-0.3290444016456604,-0.019009552896022797,-0.2862112522125244
1789061917884785700,5.15278564453125,-0.11479470133781433,-0.19923174381256104,-0.29690444469451904
1789061917894795800,5.162795654296875,0.12735508382320404,-0.1749248057603836,-0.036839842796325684
1789061917904805600,5.1728056640625,0.17577479779720306,0.005562394857406616,0.09344372898340225
1789061917914814500,5.182814453125,0.1501685082912445,-0.29640039801597595,-0.131388321518898
1789061917924824600,5.192824462890625,0.1296132653951645,-0.03424565866589546,-0.09716272354125977
1789061917934834400,5.20283447265625,0.18682807683944702,-0.13810361921787262,-0.10321129113435745
1789061917944843500,5.212843505859375,0.3246121108531952,-0.23741415143013,-0.020363010466098785
1789061917954853600,5.222853515625,0.21969634294509888,0.16136865317821503,0.16647158563137054
1789061917964863500,5.232863525390625,0.2531810700893402,-0.19110897183418274,0.034577999264001846
1789061917974873600,5.24287353515625,0.34058016538619995,0.05807182937860489,0.12730847299098969
1789061917984882700,5.252882568359375,0.4843338429927826,-0.10208884626626968,0.022811060771346092
1789061917994892500,5.262892578125,0.5767577886581421,0.004371552728116512,0.06112382560968399
1789061918004902700,5.272902587890625,0.6295881271362305,-0.04949210211634636,-0.2320622354745865
1789061918014911700,5.282911865234375,0.5461059808731079,-0.44269824028015137,-0.4342899024486542
1789061918024921600,5.292921630859375,0.5772208571434021,0.30641576647758484,0.02931678295135498
1789061918034931700,5.302931640625,0.6760385036468506,-0.04848213866353035,0.16364476084709167
1789061918044941600,5.312941650390625,0.4533717632293701,-0.05060102790594101,0.03753878176212311
1789061918054950400,5.322950439453125,0.29049763083457947,0.1711001992225647,0.13467945158481598
1789061918064960500,5.33296044921875,0.39161813259124756,-0.0784291923046112,-0.094852015376091
1789061918076847600,5.34484765625,0.3181510865688324,0.07390521466732025,0.07604915648698807
1789061918086857500,5.354857421875,0.3639809191226959,-0.14442260563373566,0.02509143203496933
1789061918096867600,5.36486767578125,0.25408023595809937,0.0014052004553377628,0.12994208931922913
1789061918106877400,5.37487744140625,0.11302326619625092,0.04208548739552498,0.11007753759622574
1789061918116886500,5.384886474609375,0.06475507467985153,0.11895044147968292,0.053851813077926636
1789061918126896600,5.394896728515625,0.049482617527246475,0.07901928573846817,0.004296405706554651
1789061918136906500,5.404906494140625,0.006231819279491901,0.09479878097772598,0.027404919266700745
1789061918146915600,5.41491552734375,0.045847661793231964,0.04833002761006355,-0.05727231502532959
1789061918156925700,5.42492578125,0.07412724196910858,-0.264883816242218,-0.19658173620700836
1789061918166935800,5.434935791015625,0.026738643646240234,0.014313466846942902,-0.03837023675441742
1789061918176945700,5.444945556640625,-0.05499190464615822,0.0939321294426918,0.10000894218683243
1789061918186954500,5.45495458984375,-0.17641034722328186,-0.03240115940570831,0.018984414637088776
1789061918196964600,5.464964599609375,-0.28494372963905334,0.08408337831497192,0.035044606775045395
1789061918206974500,5.474974365234375,-0.19508545100688934,-0.0041657681576907635,0.08405380696058273
1789061918216983600,5.484983642578125,-0.0557219572365284,-0.013479640707373619,0.06895874440670013
1789061918226993700,5.49499365234375,-0.055971529334783554,-0.07348841428756714,0.09133940935134888
1789061918237003500,5.50500341796875,0.006823412142693996,-0.03666382655501366,0.15317480266094208
1789061918247013600,5.515013671875,0.10289794951677322,0.033804405480623245,0.21336837112903595
1789061918257022700,5.525022705078125,0.1175655722618103,-0.01966547779738903,0.06823674589395523
1789061918267032600,5.535032470703125,0.06463640928268433,0.05621501803398132,0.01969531923532486
1789061918277042700,5.545042724609375,0.18699507415294647,0.11754362285137177,-0.056379739195108414
1789061918287051800,5.5550517578125,0.2082602083683014,0.006484554149210453,-0.03769099712371826
1789061918297060900,5.565060791015625,0.2589724063873291,-0.006160134915262461,-0.04112940654158592
1789061918307071000,5.575071044921875,0.30818262696266174,0.267043799161911,0.2963234484195709
1789061918317081000,5.5850810546875,0.2800692319869995,-0.07761026918888092,0.0023823915980756283
1789061918327090000,5.59508984375,0.09458938986063004,0.24929191172122955,0.0695723220705986
1789061918337100000,5.60510009765625,0.1889566332101822,0.11119530349969864,-0.17761696875095367
1789061918347110100,5.615110107421875,0.352867066860199,-0.35074132680892944,-0.10410809516906738
1789061918357118700,5.62511865234375,0.19648917019367218,0.30268093943595886,0.2924664318561554
1789061918367128800,5.63512890625,0.023022089153528214,0.35460272431373596,0.40146663784980774
1789061918377139000,5.645138916015625,0.001478181453421712,0.0034985062666237354,0.01788836158812046
1789061918387148800,5.655148681640625,-0.007760114502161741,0.14928923547267914,-0.09543218463659286
1789061918397158000,5.665157958984375,0.06455110013484955,0.12533864378929138,-0.11866346746683121
1789061918407793200,5.675793212890625,0.05403115227818489,-0.07920407503843307,-0.08134381473064423
1789061918417803000,5.685802978515625,-0.14647531509399414,0.10488453507423401,0.01672656089067459
1789061918427811800,5.695811767578125,-0.15099932253360748,0.1462867558002472,0.029602430760860443
1789061918437822000,5.705822021484375,-0.1548827439546585,0.1280377060174942,0.16391655802726746
1789061918447831800,5.715831787109375,-0.2942076325416565,0.07246631383895874,0.056055206805467606
1789061918457842000,5.725842041015625,-0.3635092079639435,0.11441615968942642,0.10398837924003601
1789061918467851000,5.73585107421875,-0.39941641688346863,0.11258943378925323,0.012375231832265854
1789061918477860900,5.74586083984375,-0.44683346152305603,0.07116769254207611,-0.0707087367773056
1789061918487871000,5.75587109375,-0.3730350732803345,0.06673568487167358,-0.0911443904042244
1789061918497880000,5.765880126953125,-0.38092416524887085,-0.19685308635234833,-0.13241645693778992
1789061918507890000,5.775889892578125,-0.5131415724754333,0.18301385641098022,0.1815369725227356
1789061918517900000,5.785900146484375,-0.4110596776008606,-0.07953600585460663,0.09065579622983932
1789061918527910000,5.795909912109375,-0.436046302318573,0.1451634019613266,0.1281108856201172
1789061918537919000,5.8059189453125,-0.4946686029434204,0.0420636422932148,0.06765420734882355
1789061918547929000,5.81592919921875,-0.484715074300766,0.005415542516857386,-0.03079408034682274
1789061918557939000,5.82593896484375,-0.34989362955093384,-0.0059572202153503895,-0.07603053748607635
1789061918567947800,5.83594775390625,-0.2972155809402466,-0.12843048572540283,-0.1924988031387329
1789061918577958000,5.8459580078125,-0.24074512720108032,-0.13326837122440338,-0.043061379343271255
1789061918587968000,5.855968017578125,-0.0932888388633728,-0.13380399346351624,0.0791594386100769
1789061918597977900,5.865977783203125,0.0012962552718818188,0.34134894609451294,0.3141133487224579
1789061918607987000,5.875987060546875,0.04166495054960251,0.013155587017536163,0.10396704822778702
1789061918617997000,5.8859970703125,0.13515496253967285,-0.10511406511068344,-0.06282459944486618
1789061918628007000,5.8960068359375,0.17017608880996704,-0.05247952789068222,-0.10327918082475662
1789061918638017000,5.90601708984375,0.17113429307937622,-0.060029856860637665,-0.0669025331735611
1789061918648026000,5.916026123046875,0.18828225135803223,0.10251225531101227,0.1372389793395996
1789061918658036000,5.926035888671875,0.28916439414024353,-0.15318770706653595,-0.021842557936906815
1789061918668046000,5.936046142578125,0.2872256636619568,0.202445849776268,-0.024832215160131454
1789061918678055200,5.94605517578125,0.41457483172416687,-0.2845994234085083,-0.156055748462677
1789061918688065000,5.95606494140625,0.3422768712043762,0.2316271960735321,0.08892343193292618
1789061918698075100,5.9660751953125,0.33313027024269104,0.03776584938168526,0.09070827811956406
1789061918708085000,5.9760849609375,0.31342124938964844,-0.0747661292552948,-0.043983254581689835
1789061918718093800,5.98609375,0.27646881341934204,-0.038510121405124664,-0.00821353867650032
1789061918728104000,5.99610400390625,0.2769183814525604,0.11430584639310837,0.023941608145833015
1789061918738113800,6.00611376953125,0.3076813519001007,-0.03799447789788246,-0.045635074377059937
1789061918748123000,6.016122802734375,0.27551373839378357,0.016602393239736557,-0.03811495006084442
1789061918758133000,6.026133056640625,0.2552279233932495,0.012574895285069942,-0.04388069361448288
1789061918768142800,6.036142822265625,0.19859734177589417,0.06165947765111923,-0.0024177427403628826
1789061918778153000,6.046153076171875,0.2016461342573166,-0.05218479782342911,-0.08262816071510315
1789061918788162000,6.056162109375,0.18186140060424805,-0.06697865575551987,-0.031170880421996117
1789061918798172000,6.066171875,0.1663532853126526,0.23638415336608887,0.2174495905637741
1789061918808182000,6.07618212890625,0.11586984992027283,-0.0035672620870172977,0.14650774002075195
1789061918818192100,6.086192138671875,0.07006960362195969,0.06196727231144905,0.08291064947843552
1789061918828201000,6.096200927734375,0.11774612963199615,0.02934417501091957,-0.16265901923179626
1789061918838211000,6.106211181640625,0.19618447124958038,-0.11718640476465225,-0.18028169870376587
1789061918848221200,6.11622119140625,0.11502625048160553,-0.20325367152690887,-0.14854589104652405
1789061918858229800,6.126229736328125,-0.018661506474018097,0.36291760206222534,0.2846074104309082
1789061918868240000,6.136239990234375,0.05004621297121048,-0.03907394036650658,0.09169299900531769
1789061918878250000,6.14625,0.07408604025840759,0.14146095514297485,0.20309676229953766
1789061918888259800,6.156259765625,0.10029543936252594,0.031221413984894753,-0.03499278426170349
1789061918898269000,6.16626904296875,0.11404933780431747,0.023278269916772842,-0.11913588643074036
1789061918908279000,6.176279052734375,0.0489741787314415,-0.05878812074661255,-0.17414094507694244
1789061918918289000,6.186288818359375,-0.040033455938100815,0.08333013951778412,-0.042304627597332
1789061918928298000,6.196298095703125,-0.0007786947535350919,0.22822415828704834,0.09110011160373688
1789061918938308000,6.20630810546875,0.0726366713643074,-0.04812833294272423,-0.08582379668951035
1789061918948318000,6.21631787109375,-0.04375039041042328,0.11021555215120316,0.0626598447561264
1789061918958328000,6.226328125,-0.08977939188480377,0.04628317430615425,-0.07632040977478027
1789061918968337200,6.236337158203125,-0.08775446563959122,-0.013647953048348427,-0.04949147254228592
1789061918978347000,6.246346923828125,-0.1298142969608307,0.02670719288289547,-0.02169792354106903
1789061918988357000,6.256357177734375,-0.15838085114955902,0.0070345341227948666,0.007067953702062368
1789061918998367000,6.266366943359375,-0.20458057522773743,0.19965778291225433,0.1094190925359726
1789061919008375800,6.276375732421875,-0.18960940837860107,-0.07207176089286804,-0.08837132900953293
1789061919018386000,6.286385986328125,-0.2386147677898407,0.0833151638507843,-0.04838023707270622
1789061919028395800,6.296395751953125,-0.25110140442848206,0.05805331841111183,-0.05821943283081055
1789061919038404900,6.30640478515625,-0.2252570390701294,0.023166973143815994,-0.08274581283330917
1789061919048415000,6.3164150390625,-0.2128733992576599,-0.03304227814078331,-0.008606850169599056
1789061919058424800,6.3264248046875,-0.19269037246704102,-0.0683097168803215,-0.17330259084701538
1789061919068435000,6.33643505859375,-0.15896615386009216,0.08397094160318375,0.04566941410303116
1789061919078444000,6.346444091796875,-0.12013380974531174,-0.1260904222726822,-0.008396482095122337
1789061919088454000,6.356453857421875,-0.15880435705184937,0.3154919147491455,0.19599565863609314
1789061919098464000,6.366464111328125,-0.1143503338098526,0.002855712315067649,0.0013326976913958788
1789061919108473000,6.37647314453125,-0.09594476968050003,0.004458094481378794,-0.09704231470823288
1789061919118483000,6.38648291015625,0.010715097188949585,0.004439185839146376,-0.1232539489865303
1789061919128493000,6.3964931640625,0.06405296176671982,-0.12539781630039215,-0.1220758929848671
1789061919138503200,6.406503173828125,0.03296855092048645,0.21508359909057617,0.04131542891263962
1789061919148512000,6.416511962890625,0.06919834762811661,0.0624646320939064,-0.016348009929060936
1789061919158521900,6.42652197265625,0.0394417867064476,0.07119234651327133,-0.11136054247617722
1789061919168532000,6.436531982421875,0.1576068252325058,-0.21307335793972015,-0.16673855483531952
1789061919178541800,6.446541748046875,0.1084509938955307,0.26311659812927246,0.002309865318238735
1789061919188551000,6.456551025390625,0.08937743306159973,0.10641297698020935,0.00402371259406209
1789061919198561000,6.46656103515625,0.08594249188899994,-0.041958387941122055,-0.15901581943035126
1789061919208571000,6.47657080078125,0.07157520204782486,-0.009098250418901443,-0.18110033869743347
1789061919218580000,6.486580078125,0.028718283399939537,-0.0640440508723259,-0.11831232905387878
1789061919228590000,6.496590087890625,0.0029690030496567488,0.020817024633288383,-0.03126387298107147
1789061919238600000,6.506599853515625,-0.06734031438827515,0.10123809427022934,0.0319899320602417
1789061919248610000,6.516610107421875,-0.08978329598903656,-0.06281176954507828,-0.031407784670591354
1789061919258619100,6.526619140625,-0.09149464219808578,0.15425582230091095,0.1114625558257103
1789061919268629000,6.53662890625,-0.0779753252863884,-0.10325554758310318,0.07417816668748856
1789061919278639000,6.54663916015625,-0.1355736255645752,-0.0303198229521513,0.0817553922533989
1789061919288649200,6.556649169921875,-0.18725527822971344,0.10183792561292648,0.07601350545883179
1789061919298658000,6.566657958984375,-0.19399334490299225,-0.03940068930387497,-0.08133377134799957
1789061919308668200,6.576668212890625,-0.21893824636936188,0.09867417067289352,0.02088392712175846
1789061919318678000,6.586677978515625,-0.10878938436508179,-0.14005984365940094,-0.10404656082391739
1789061919328687000,6.59668701171875,-0.16335879266262054,0.06259425729513168,0.10533607006072998
1789061919338697200,6.606697265625,-0.20123693346977234,-0.20110554993152618,-0.12990014255046844
1789061919348707000,6.61670703125,-0.33792006969451904,0.3365490138530731,0.1538100242614746
1789061919358717200,6.62671728515625,-0.2668443024158478,-0.24460545182228088,-0.1158163994550705
1789061919368726300,6.636726318359375,-0.37729066610336304,0.30512771010398865,0.23445719480514526
1789061919378736400,6.646736328125,-0.2723964750766754,-0.25347891449928284,0.006450089626014233
1789061919388746200,6.656746337890625,-0.36029544472694397,0.24320435523986816,0.21842268109321594
1789061919398755300,6.66675537109375,-0.3486153483390808,0.05442378669977188,0.01973782479763031
1789061919408765400,6.676765380859375,-0.3977988362312317,-0.03637392818927765,-0.0444926843047142
1789061919418775300,6.686775390625,-0.3871043622493744,-0.05841238796710968,-0.061659686267375946
1789061919428785400,6.696785400390625,-0.34708815813064575,0.019041402265429497,0.02843952737748623
1789061919438794200,6.706794189453125,-0.2909497916698456,-0.07316628843545914,-0.024112895131111145
1789061919448804000,6.71680419921875,-0.2815953195095062,0.05821053683757782,0.03251221030950546
1789061919458814200,6.726814208984375,-0.25018787384033203,-0.038453686982393265,-0.05699610337615013
1789061919468824000,6.736823974609375,-0.21288172900676727,-0.04933001473546028,0.0048804255202412605
1789061919478833200,6.746833251953125,-0.13569612801074982,-0.1318451315164566,0.007509765215218067
1789061919488843300,6.75684326171875,-0.11070195585489273,0.009285779669880867,0.03798912465572357
1789061919498853000,6.76685302734375,-0.05343121290206909,-0.3406069874763489,-0.06715540587902069
1789061919508862200,6.7768623046875,-0.10724716633558273,0.16685959696769714,0.16417011618614197
1789061919518872300,6.786872314453125,-0.08637437224388123,-0.013035070151090622,0.162446528673172
1789061919528882200,6.796882080078125,-0.08258438855409622,-0.13068072497844696,0.06851279735565186
1789061919538892300,6.806892333984375,-0.08484860509634018,-0.07955071330070496,0.012686023488640785
1789061919548901400,6.8169013671875,-0.0359109491109848,-0.24573037028312683,-0.10924478620290756
1789061919558911200,6.8269111328125,-0.0333109050989151,0.02001527138054371,0.004880455322563648
1789061919568921300,6.83692138671875,0.026608511805534363,-0.23508240282535553,-0.02726990357041359
1789061919578931200,6.84693115234375,0.04164072498679161,-0.040156587958335876,0.03386508673429489
1789061919588940000,6.85693994140625,0.028379268944263458,0.11128973215818405,0.14580443501472473
1789061919598950100,6.8669501953125,0.07516488432884216,-0.25362616777420044,-0.054242100566625595
1789061919608960300,6.876960205078125,0.08496059477329254,-0.0033430657349526882,0.07094962149858475
1789061919618969000,6.886968994140625,0.19788715243339539,-0.05086052045226097,-0.03610306605696678
1789061919628979200,6.896979248046875,0.31314486265182495,-0.28545138239860535,-0.05479874089360237
1789061919638989300,6.9069892578125,0.3169257640838623,0.09185143560171127,0.11632933467626572
1789061919648999200,6.916999267578125,0.38465988636016846,-0.1225486472249031,0.040851496160030365
1789061919659008300,6.92700830078125,0.39336973428726196,-0.02292804792523384,0.03685569018125534
1789061919669018400,6.937018310546875,0.3876802623271942,0.1375722587108612,0.11838144809007645
1789061919679028200,6.9470283203125,0.41986748576164246,0.008381785824894905,-0.09923502802848816
1789061919689037300,6.957037353515625,0.41832974553108215,0.012921372428536415,-0.09733566641807556
1789061919699047400,6.96704736328125,0.41892310976982117,-0.11814236640930176,-0.19047360122203827
1789061919709057000,6.97705712890625,0.4043910801410675,0.1278221309185028,0.0310174860060215
1789061919719067100,6.987067138671875,0.37937629222869873,-0.03409833088517189,0.0200726930052042
1789061919729076200,6.997076171875,0.3194924592971802,0.20915034413337708,0.09772197902202606
1789061919739086000,7.007086181640625,0.3700970411300659,-0.07685770839452744,0.02978927083313465
1789061919749096200,7.01709619140625,0.24528956413269043,0.15281830728054047,0.12302374094724655
1789061919759106000,7.02710595703125,0.1881391853094101,0.10441801697015762,0.07384101301431656
1789061919769115100,7.037115234375,0.09731092303991318,0.10942227393388748,0.01775975711643696
1789061919779125200,7.047125244140625,0.08022062480449677,0.0983552411198616,-0.003559645963832736
1789061919789135000,7.057135009765625,0.06580374389886856,-0.20435234904289246,-0.02182311750948429
1789061919799144200,7.067144287109375,0.0045821997337043285,0.15366171300411224,0.140722393989563
1789061919809154300,7.077154296875,-0.02456233650445938,0.118862584233284,0.19658158719539642
1789061919819164200,7.0871640625,-0.06312704086303711,0.0983373299241066,0.15593695640563965
1789061919829174300,7.09717431640625,-0.10463044047355652,0.06900189816951752,0.07448841631412506
1789061919839183000,7.10718310546875,-0.18432952463626862,0.07869180291891098,0.03671787306666374
1789061919849193200,7.117193115234375,-0.2403084933757782,0.07120870798826218,0.02059268206357956
1789061919859203000,7.127203125,-0.3131251931190491,0.07517655193805695,0.06974557787179947
1789061919869213200,7.137213134765625,-0.29777267575263977,-0.13836482167243958,-0.05309656262397766
1789061919879222300,7.14722216796875,-0.3196742534637451,0.19294705986976624,0.05871652066707611
1789061919889232100,7.157232177734375,-0.2589574158191681,-0.04905976355075836,0.011789883486926556
1789061919899242200,7.1672421875,-0.34725290536880493,0.10056035220623016,0.06669361144304276
1789061919909251300,7.177251220703125,-0.3772887885570526,0.08614156395196915,0.003841822035610676
1789061919919261200,7.18726123046875,-0.34416651725769043,0.056031860411167145,-0.04616488516330719
1789061919929271300,7.197271240234375,-0.28227993845939636,-0.029640410095453262,-0.053438667207956314
1789061919939281200,7.20728125,-0.2651645839214325,-0.06590840220451355,-0.028301356360316277
1789061919949290200,7.217290283203125,-0.27249839901924133,0.1676362305879593,0.08657585084438324
1789061919959300400,7.22730029296875,-0.23563437163829803,-0.024150783196091652,-0.05421428382396698
1789061919969310200,7.237310302734375,-0.27810975909233093,0.1916266679763794,0.0879090279340744
1789061919979320300,7.2473203125,-0.22181133925914764,-0.07075807452201843,-0.155058354139328
1789061919989329200,7.2573291015625,-0.2134418785572052,0.029828395694494247,0.012154470197856426
1789061919999339000,7.267339111328125,-0.18447227776050568,-0.05589050427079201,0.003142067464068532
1789061920009349000,7.27734912109375,-0.20036925375461578,0.15161949396133423,0.17238634824752808
1789061920019358200,7.287358154296875,-0.13346266746520996,-0.2023758739233017,-0.021075792610645294
1789061920029368000,7.2973681640625,-0.1943461000919342,0.196328803896904,0.1402517408132553
1789061920039378200,7.307378173828125,-0.12231479585170746,-0.049573905766010284,0.08535279333591461
1789061920049388300,7.31738818359375,-0.14419186115264893,-0.026686999946832657,0.029750490561127663
1789061920059397000,7.327397216796875,-0.1195773184299469,-0.0864267647266388,-0.1165207028388977
1789061920069407200,7.3374072265625,-0.10987313091754913,-0.055991917848587036,-0.07248781621456146
1789061920079417300,7.347417236328125,-0.1156947985291481,0.1085304468870163,0.045866526663303375
1789061920089426200,7.35742626953125,-0.06525120139122009,-0.021995805203914642,0.051199860870838165
1789061920099436300,7.367436279296875,-0.0671074241399765,-0.04365742579102516,0.03781002014875412
1789061920109446400,7.3774462890625,-0.025486541911959648,-0.0074760583229362965,-0.0601692833006382
1789061920119456300,7.387456298828125,0.010572392493486404,-0.03379155322909355,-0.1382286697626114
1789061920129465000,7.397465087890625,-0.021482568234205246,-0.14469550549983978,-0.2729860544204712
1789061920139475200,7.40747509765625,-0.01302090659737587,-0.2049790769815445,-0.19185446202754974
1789061920149485000,7.417485107421875,-0.05427096411585808,0.12981723248958588,0.11126136779785156
1789061920159495200,7.4274951171875,-0.10141584277153015,-0.13515478372573853,0.0075373658910393715
1789061920169504300,7.437504150390625,-0.11827954649925232,-0.04442629590630531,-0.009036185219883919
1789061920179514000,7.44751416015625,-0.06064900755882263,-0.0964125320315361,-0.1981736123561859
1789061920189524200,7.457524169921875,-0.02758004516363144,-0.0832461342215538,-0.241621196269989
1789061920199533300,7.467533203125,-0.042968858033418655,-0.10858238488435745,-0.18426230549812317
1789061920209543200,7.477543212890625,-0.011089533567428589,-0.17705418169498444,-0.10989180207252502
1789061920219553300,7.48755322265625,0.006349110510200262,0.12382975965738297,0.13462206721305847
1789061920229563100,7.497563232421875,0.1768523007631302,-0.32240214943885803,0.012113213539123535
1789061920239572200,7.507572265625,0.16321398317813873,0.2425701916217804,0.26499366760253906
1789061920249582300,7.517582275390625,0.16102616488933563,-0.12537729740142822,0.0636281743645668
1789061920259592200,7.52759228515625,0.06623173505067825,-0.09761810302734375,-0.029056495055556297
1789061920269602300,7.537602294921875,-0.0009937835857272148,-0.07631076872348785,-0.1311122477054596
1789061920279611100,7.547611083984375,0.03631577268242836,-0.015836775302886963,-0.02000117115676403
1789061920289622000,7.5576220703125,0.10765673220157623,-0.13470278680324554,-0.04674677178263664
1789061920299632000,7.567632080078125,0.14361393451690674,-0.113871268928051,0.043008413165807724
1789061920309641200,7.57764111328125,0.11120720207691193,-0.026470694690942764,0.005803751293569803
1789061920319651000,7.587651123046875,0.1340869665145874,-0.10994907468557358,-0.12566852569580078
1789061920329661200,7.5976611328125,0.05247117578983307,-0.03779921308159828,-0.08615224808454514
1789061920339671000,7.607671142578125,0.11884674429893494,-0.031149836257100105,-0.12388071417808533
1789061920349680000,7.61768017578125,0.06365925818681717,-0.2308628261089325,-0.1977248638868332
1789061920359690200,7.627690185546875,-0.003749612020328641,-0.18309476971626282,-0.13418103754520416
1789061920369700000,7.6377001953125,-0.04860766604542732,0.2285553216934204,0.18743453919887543
1789061920379710200,7.647710205078125,0.07114376872777939,-0.2714718282222748,-0.03284775838255882
1789061920389719000,7.657718994140625,-0.013431993313133717,-0.1680329591035843,-0.10422022640705109
1789061920399729000,7.66772900390625,-0.005621741060167551,-0.07722076028585434,-0.08695602416992188
1789061920409739000,7.677739013671875,0.0550183467566967,0.05897935479879379,0.006716562435030937
1789061920419748000,7.687748046875,0.14624732732772827,-0.09172893315553665,-0.1027742475271225
1789061920429758000,7.697758056640625,0.14634360373020172,-0.1143832579255104,-0.10742973536252975
1789061920439768000,7.70776806640625,0.20378932356834412,-0.03655983507633209,0.018169205635786057
1789061920449778200,7.717778076171875,0.2696673572063446,-0.06655475497245789,0.11249732971191406
1789061920459787000,7.727787109375,0.2250828593969345,-0.03708527982234955,0.05356184020638466
1789061920469797000,7.737797119140625,0.21893459558486938,0.03049260564148426,0.06270593404769897
1789061920479807200,7.74780712890625,0.22001422941684723,-0.02834993787109852,-0.1639980524778366
1789061920489817000,7.757817138671875,0.1973315328359604,-0.033533286303281784,-0.06176729127764702
1789061920499826200,7.767826171875,0.1830841451883316,-0.17773281037807465,-0.03543315455317497
1789061920509836300,7.777836181640625,0.11184383183717728,0.2517984211444855,0.2653934359550476
1789061920519846100,7.78784619140625,0.08164971321821213,-0.02697063609957695,0.121238112449646
1789061920529855000,7.79785498046875,0.08984220027923584,0.006477378308773041,-0.0003682342357933521
1789061920539865000,7.807864990234375,0.1055908054113388,-0.0383920893073082,-0.11485433578491211
1789061920549875000,7.817875,0.0922030434012413,-0.10906477272510529,-0.051371797919273376
1789061920559885000,7.827885009765625,0.07356810569763184,0.07953177392482758,0.06523950397968292
1789061920569894100,7.83789404296875,0.032335661351680756,-0.07581152766942978,0.061234232038259506
1789061920579904000,7.847904052734375,-0.034935787320137024,-0.015728754922747612,0.020248983055353165
1789061920589914000,7.8579140625,-0.00808022078126669,0.004559804685413837,-0.017204590141773224
1789061920599924000,7.867924072265625,-0.04264272749423981,0.026975898072123528,-0.056506723165512085
1789061920609933000,7.87793310546875,-0.076090507209301,0.03090130351483822,-0.11583755910396576
1789061920619943200,7.887943115234375,-0.06102846935391426,-0.10113156586885452,-0.13232013583183289
1789061920629953000,7.897953125,-0.031244901940226555,0.1440950483083725,0.08032366633415222
1789061920639962000,7.907962158203125,0.02944348007440567,-0.06419716775417328,-0.05445384979248047
1789061920649972200,7.91797216796875,-0.05023403838276863,0.1542334407567978,0.057609304785728455
1789061920659982000,7.927982177734375,-0.12615224719047546,-0.06444378197193146,-0.17514671385288239
1789061920669992200,7.9379921875,-0.18307508528232574,0.08702170848846436,0.09776455909013748
1789061920680001000,7.9480009765625,-0.21593023836612701,-0.289566308259964,-0.16109655797481537
1789061920690011100,7.95801123046875,-0.30455559492111206,0.312049925327301,0.06962081789970398
1789061920700021000,7.96802099609375,-0.26700979471206665,-0.20370319485664368,-0.08319748938083649
1789061920710030000,7.978030029296875,-0.3817741572856903,0.12633316218852997,0.10553078353404999
1789061920720040200,7.988040283203125,-0.3584214150905609,0.03557317331433296,-0.029812920838594437
1789061920730050000,7.998050048828125,-0.3372187316417694,-0.023818910121917725,-0.003631554776802659
1789061920740060200,8.00806005859375,-0.3143312335014343,-0.18937964737415314,-0.0383213572204113
1789061920750069200,8.0180693359375,-0.2819540202617645,0.14453056454658508,0.18026265501976013
1789061920760079000,8.0280791015625,-0.20311272144317627,-0.12749534845352173,0.0002612022217363119
1789061920770089200,8.038089111328125,-0.20341184735298157,0.005227481480687857,-0.0002619815059006214
1789061920780099000,8.04809912109375,-0.18121786415576935,-0.017313513904809952,0.012676454149186611
1789061920790108200,8.058108154296875,-0.1751907467842102,0.01912718266248703,0.02876981720328331
1789061920800118300,8.0681181640625,-0.12373527139425278,-0.0178191177546978,0.09337756782770157
1789061920810128100,8.078128173828125,-0.07620637118816376,-0.1683814525604248,-0.051719967275857925
1789061920820137000,8.088136962890625,-0.08539081364870071,0.13420717418193817,0.12349153310060501
1789061920830147000,8.09814697265625,0.0158920306712389,-0.18751026690006256,-0.03918235003948212
1789061920840157000,8.108156982421875,-0.040625303983688354,0.03996444121003151,0.10162670165300369
1789061920850167000,8.1181669921875,-0.056463781744241714,0.02100503444671631,0.05606655776500702
1789061920860176100,8.128176025390625,-0.03241783380508423,-0.02002974972128868,0.01235343050211668
1789061920870186000,8.13818603515625,0.03870420530438423,-0.08360317349433899,-0.1309395134449005
1789061920880196000,8.148196044921875,0.09022705256938934,-0.16964617371559143,-0.13634707033634186
1789061920890206200,8.158206298828125,0.12476849555969238,-0.12214074283838272,-0.08350623399019241
1789061920900215000,8.168215087890625,0.17495416104793549,-0.02588026039302349,0.10001245886087418
1789061920910225200,8.17822509765625,0.17993149161338806,-0.1949911266565323,0.026287760585546494
1789061920920235300,8.1882353515625,0.08829692006111145,0.0017794645391404629,0.10609151422977448
1789061920930244000,8.198244140625,0.13243131339550018,0.012438943609595299,0.03970193490386009
1789061920940254200,8.208254150390625,0.15449294447898865,-0.017324544489383698,-0.13237927854061127
1789061920950264300,8.218264404296875,0.16922229528427124,-0.23285476863384247,-0.19029824435710907
1789061920960274200,8.228274169921875,0.2642872631549835,-0.27127060294151306,-0.032995712012052536
1789061920970283000,8.238282958984374,0.3004343509674072,0.2180897742509842,0.3520161509513855
1789061920980293000,8.248293212890625,0.2818460166454315,-0.329702764749527,0.028332095593214035
1789061920990303000,8.258302978515625,0.20688562095165253,0.014545027166604996,0.026892269030213356
1789061921000313000,8.26831298828125,0.15209853649139404,0.024219226092100143,-0.06819749623537064
1789061921010322200,8.278322265625,0.1102491170167923,0.056959934532642365,0.004197641741484404
1789061921020332000,8.28833203125,0.16521409153938293,-0.05687422305345535,-0.05325686186552048
1789061921030342100,8.298342041015625,0.17566710710525513,-0.07815655320882797,-0.07644729316234589
1789061921040351200,8.308351318359374,0.18287254869937897,-0.10802710056304932,0.004149818792939186
1789061921050361000,8.318361083984374,0.1780177652835846,-0.01871783658862114,-0.07715144008398056
1789061921060371200,8.32837109375,0.12848563492298126,0.08067133277654648,0.02671077661216259
1789061921070381000,8.338381103515625,0.11482302844524384,-0.2050238698720932,-0.21933521330356598
1789061921080390100,8.34839013671875,0.09095924347639084,0.11380843818187714,0.05105898529291153
1789061921090400300,8.358400146484374,0.14497724175453186,-0.15574228763580322,-0.025538448244333267
1789061921100410000,8.36841015625,0.13689109683036804,0.21871386468410492,0.1332557201385498
1789061921110420200,8.378420166015625,0.13662418723106384,0.002077629789710045,-0.00968758761882782
1789061921120429000,8.388428955078124,0.1051538735628128,-0.036192528903484344,-0.04670152813196182
1789061921130439200,8.398439208984374,0.12806767225265503,-0.03359541669487953,-0.021934906020760536
1789061921140449000,8.408448974609374,0.10340866446495056,0.11343744397163391,0.10710616409778595
1789061921150458000,8.4184580078125,0.11380857974290848,-0.10763824731111526,-0.0033122494351118803
1789061921160468200,8.42846826171875,0.06143539026379585,0.11276549100875854,0.10543234646320343
1789061921170478000,8.43847802734375,0.023432433605194092,0.04992453753948212,-0.007925530895590782
1789061921180488200,8.44848828125,0.013208291493356228,0.044859737157821655,0.04632652550935745
1789061921190497300,8.458497314453124,0.03966929763555527,-0.056425441056489944,-0.001827515079639852
1789061921200507100,8.468507080078124,-0.05173118785023689,0.20471668243408203,0.17213627696037292
1789061921210517200,8.478517333984374,-0.031645387411117554,-0.04081930220127106,-0.051634594798088074
1789061921220527000,8.488527099609374,-0.029063187539577484,0.002082627033814788,-0.05082738772034645
1789061921230536200,8.4985361328125,-0.016103781759738922,0.057029902935028076,0.019654063507914543
1789061921240546300,8.50854638671875,-0.10258514434099197,-0.007914741523563862,-0.04765333607792854
1789061921250556200,8.51855615234375,-0.15949250757694244,-0.039121776819229126,-0.01251903735101223
1789061921260565000,8.52856494140625,-0.12840142846107483,0.04420506954193115,0.18004588782787323
1789061921270575000,8.5385751953125,-0.039563074707984924,-0.1026359274983406,-0.01074882410466671
1789061921280585000,8.5485849609375,-0.07154791057109833,0.06144462153315544,0.05531008914113045
1789061921290594600,8.558594482421874,-0.0731111466884613,-0.10692384839057922,-0.20513828098773956
1789061921300603600,8.568603759765624,-0.129617840051651,0.014917371794581413,0.02765209786593914
1789061921310613800,8.57861376953125,-0.08646068722009659,-0.07658904790878296,-0.044721055775880814
1789061921320623600,8.58862353515625,-0.07593880593776703,0.18578185141086578,0.14300569891929626
1789061921330633700,8.5986337890625,-0.0035715268459171057,-0.14659331738948822,-0.0560472272336483
1789061921340642800,8.608642822265624,-0.06696434319019318,0.07885231822729111,0.047488752752542496
1789061921350652700,8.618652587890624,-0.004098720382899046,-0.1197677031159401,-0.03372899442911148
1789061921360662800,8.628662841796874,0.027731912210583687,0.11258991062641144,0.11216456443071365
1789061921370671600,8.638671630859376,0.06305105239152908,-0.001509727444499731,0.029606573283672333
1789061921380681500,8.648681396484376,0.01592109352350235,-0.004019489977508783,0.02388290874660015
1789061921390691600,8.658691650390624,0.06577831506729126,-0.04050062969326973,-0.0701446682214737
1789061921400701400,8.668701416015624,0.11001341789960861,-0.04488020017743111,-0.025192633271217346
1789061921410710500,8.67871044921875,0.13082444667816162,-0.060284439474344254,-0.08218201249837875
1789061921420720600,8.688720703125,0.07614309340715408,-0.00922924093902111,-0.023289138451218605
1789061921430730500,8.69873046875,0.05305815488100052,0.06117532029747963,0.03824707493185997
1789061921440740600,8.70874072265625,0.08950910717248917,-0.023047415539622307,-0.1027771532535553
1789061921450749700,8.718749755859376,0.06615828722715378,-0.008846105076372623,0.004278963431715965
1789061921460759600,8.728759521484376,0.1378745585680008,-0.10481178015470505,-0.0063787405379116535
1789061921470769700,8.738769775390624,0.11450114846229553,0.23883762955665588,0.2176039218902588
1789061921480778800,8.74877880859375,0.04073025658726692,0.005606502760201693,-0.0373239666223526
1789061921490788600,8.75878857421875,0.03453155979514122,-0.006531878374516964,-0.05717305839061737
1789061921500798700,8.768798828125,0.12133729457855225,-0.001995183527469635,-0.09912663698196411
1789061921510808800,8.778808837890624,0.13907670974731445,-0.13718971610069275,-0.07011061161756516
1789061921520817400,8.7888173828125,0.11931312084197998,0.02469850704073906,0.006287490017712116
1789061921530827500,8.79882763671875,0.15674948692321777,0.07244907319545746,0.04804655909538269
1789061921540837600,8.808837646484376,0.18121089041233063,0.023575805127620697,0.05440352484583855
1789061921550847500,8.818847412109376,0.16517958045005798,-0.022991297766566277,0.0408250093460083
1789061921560856600,8.828856689453126,0.16131825745105743,0.026905687525868416,0.0628778487443924
1789061921570866700,8.83886669921875,0.17810238897800446,0.03249257802963257,-0.047693125903606415
1789061921580876500,8.84887646484375,0.14590023458003998,0.05435074120759964,-0.11971113085746765
1789061921590885600,8.8588857421875,0.1459810882806778,0.05407362058758736,-0.14984294772148132
1789061921600895700,8.868895751953126,0.16435636579990387,-0.11544004082679749,-0.17683276534080505
1789061921610905600,8.878905517578126,0.23661060631275177,-0.1125161200761795,0.043184567242860794
1789061921620915700,8.888915771484376,0.1699730008840561,0.17204156517982483,0.19428221881389618
1789061921630924800,8.8989248046875,0.07441424578428268,0.12037145346403122,0.09246982634067535
1789061921640934700,8.9089345703125,0.0028950548730790615,0.04703812301158905,-0.15748940408229828
1789061921650944800,8.91894482421875,0.01334745530039072,-0.010921334847807884,-0.1522311568260193
1789061921660954600,8.92895458984375,0.013496591709554195,0.003426179988309741,-0.007401803508400917
1789061921670963500,8.93896337890625,-0.051254406571388245,-0.10326800495386124,-0.04248442128300667
1789061921680973600,8.9489736328125,-0.13921329379081726,0.14208902418613434,0.1072092056274414
1789061921690983400,8.9589833984375,-0.05546731874346733,-0.24621348083019257,0.016416070982813835
1789061921700992500,8.968992431640626,-0.07847197353839874,0.27040809392929077,0.17517216503620148
1789061921711002600,8.979002685546876,-0.06694439798593521,-0.06331492215394974,0.0917636975646019
1789061921721012500,8.989012451171876,-0.15688228607177734,-0.115887850522995,-0.011033520102500916
1789061921731022600,8.999022705078126,-0.2503587305545807,0.1309858113527298,0.12168750166893005
1789061921741031700,9.00903173828125,-0.09787837415933609,-0.08297654986381531,-0.0936245396733284
1789061921751041500,9.01904150390625,0.019701514393091202,-0.09481296688318253,-0.12372705340385437
1789061921761051600,9.0290517578125,0.014602093026041985,-0.14790600538253784,-0.1859387457370758
1789061921771060700,9.039060791015626,0.07558325678110123,-0.23891091346740723,-0.1550268977880478
1789061921781070600,9.049070556640626,0.050279490649700165,0.07931074500083923,0.08391164243221283
1789061921791080700,9.059080810546876,0.032421596348285675,0.09795087575912476,0.08655492961406708
1789061921801090800,9.0690908203125,0.09721656888723373,0.013816293329000473,0.06785926967859268
1789061921811099600,9.079099609375,0.11464162915945053,-0.022475402802228928,-0.060430530458688736
1789061921821109500,9.089109619140626,0.16746863722801208,-0.06497226655483246,-0.10235799849033356
1789061921831119600,9.09911962890625,0.1706581711769104,-0.0860549733042717,-0.12222900986671448
1789061921841129500,9.10912939453125,0.12544141709804535,-0.17669804394245148,-0.11929579079151154
1789061921851138600,9.119138671875,0.2744653820991516,0.029865067452192307,0.03877837583422661
1789061921861148700,9.129148681640626,0.27702227234840393,0.022975202649831772,0.068883016705513
1789061921871158500,9.139158447265626,0.24137817323207855,-0.026803119108080864,0.04783551022410393
1789061921881167600,9.149167724609375,0.29184746742248535,-0.018201107159256935,0.009158954955637455
1789061921891177700,9.159177734375,0.31123924255371094,-0.0642051249742508,-0.0629597157239914
1789061921901187600,9.1691875,0.339852511882782,0.01832597330212593,0.057010892778635025
1789061921911197700,9.17919775390625,0.35017848014831543,-0.10199258476495743,0.06369716674089432
1789061921921206800,9.189206787109375,0.3422020375728607,0.09116116166114807,0.22070783376693726
1789061921931216600,9.199216552734375,0.3489574193954468,-0.024113498628139496,-0.014502023346722126
1789061921941226800,9.209226806640626,0.33910951018333435,-0.03660598769783974,-0.028862468898296356
1789061921951236600,9.219236572265626,0.2761048972606659,0.009129755198955536,0.10084452480077744
1789061921961245400,9.229245361328125,0.16754834353923798,0.34803110361099243,0.3040887415409088
1789061921971255600,9.239255615234375,0.14986062049865723,0.0749872624874115,0.03684715926647186
1789061921981265700,9.249265625,0.1525980830192566,-0.009916182607412338,-0.09253240376710892
1789061921991274500,9.2592744140625,0.0614766962826252,0.02588122896850109,-0.142748162150383
1789061922001284600,9.26928466796875,-0.012614306062459946,0.19364546239376068,0.010944986715912819
1789061922011294700,9.279294677734375,0.06987418234348297,-0.3619921803474426,-0.13974758982658386
1789061922021304600,9.2893046875,-0.14391186833381653,0.31648775935173035,0.13456067442893982
1789061922031313700,9.299313720703125,-0.2209537774324417,-0.007484228350222111,0.07422573864459991
1789061922041323800,9.30932373046875,-0.2998475134372711,0.012881496921181679,-0.07879336923360825
1789061922051333600,9.319333740234375,-0.2968888282775879,0.09771692752838135,-0.09623109549283981
1789061922061343700,9.32934375,-0.17669107019901276,-0.014135833829641342,-0.12104509770870209
1789061922072605700,9.340605712890625,-0.07995063811540604,0.09141001850366592,0.007728698663413525
1789061922083240400,9.351240478515624,-0.012997971847653389,-0.07839472591876984,0.05833594873547554
1789061922093249500,9.36124951171875,-0.0346183106303215,-0.09897962957620621,-0.05838294327259064
1789061922103259600,9.371259765625,-0.08973783254623413,0.13262905180454254,0.041572172194719315
1789061922113269500,9.38126953125,-0.071903295814991,-0.07367973774671555,-0.07159364968538284
1789061922123279600,9.391279541015624,-0.051615335047245026,0.19344462454319,0.09429145604372025
1789061922133288700,9.401288818359374,-0.05108111351728439,-0.008163368329405785,-0.03554100543260574
1789061922143298600,9.411298583984374,-0.06824970990419388,0.04439597576856613,0.05300723761320114
1789061922153308700,9.42130859375,-0.06435464322566986,0.060086484998464584,-0.002002463676035404
1789061922163317800,9.43131787109375,-0.026431767269968987,-0.16536660492420197,-0.12425008416175842
1789061922173327600,9.44132763671875,-0.0024941768497228622,0.03197179734706879,0.00361334765329957
1789061922183337700,9.451337646484374,0.036419663578271866,0.12693825364112854,0.18912994861602783
1789061922193347600,9.46134765625,-0.07220255583524704,-0.06788309663534164,0.06127246841788292
1789061922203356700,9.471356689453126,-0.12022733688354492,0.018752994015812874,-0.09332296252250671
1789061922213366500,9.481366455078126,-0.09077010303735733,0.054394666105508804,-0.11921484768390656
1789061922223376600,9.491376708984374,0.04527561366558075,-0.08457014709711075,-0.1281960904598236
1789061922233385500,9.501385498046876,0.07980059832334518,-0.03278520703315735,-0.019601970911026
1789061922243395600,9.5113955078125,0.1312430202960968,0.020428478717803955,0.11788025498390198
1789061922253405700,9.52140576171875,0.19551821053028107,-0.13171227276325226,0.02637508697807789
1789061922263415600,9.53141552734375,0.17472931742668152,0.2611375153064728,0.15175111591815948
1789061922273424600,9.541424560546876,0.18394340574741364,0.08427656441926956,0.08561138808727264
1789061922283434800,9.551434814453126,0.2293606847524643,-0.040252573788166046,-0.013950088992714882
1789061922293444400,9.5614443359375,0.28372451663017273,0.03578535467386246,0.06969951838254929
1789061922303454500,9.571454345703126,0.3666473627090454,0.1119656041264534,0.13502739369869232
1789061922313463600,9.581463623046876,0.3734526038169861,-0.028142418712377548,0.07917982339859009
1789061922323473400,9.591473388671876,0.3345571458339691,0.044028714299201965,0.06654684990644455
1789061922333483300,9.601483154296876,0.2957526743412018,0.08392126858234406,-0.03391046077013016
1789061922343492400,9.611492431640626,0.31079208850860596,0.0016631418839097023,-0.006786164827644825
1789061922353502200,9.621502197265626,0.29559946060180664,0.01790323108434677,0.039813682436943054
1789061922363512300,9.63151220703125,0.24611258506774902,0.3134880065917969,0.2452416718006134
1789061922373522200,9.641522216796876,0.2640838921070099,0.047451574355363846,0.15808573365211487
1789061922383531300,9.65153125,0.23419390618801117,0.06193197891116142,0.03490787744522095
1789061922393541400,9.661541259765626,0.17952075600624084,0.10091766715049744,0.030195273458957672
1789061922404176100,9.672176025390625,0.21888387203216553,0.21012085676193237,0.06964468210935593
1789061922414186200,9.682186279296875,0.18460021913051605,0.15028278529644012,0.05808786302804947
1789061922424196400,9.6921962890625,0.11728561669588089,0.09966355562210083,-0.041457369923591614
1789061922434205200,9.702205078125,0.12184758484363556,-0.02914293110370636,-0.03908742591738701
1789061922444215300,9.71221533203125,0.1730298101902008,0.3356022834777832,0.15628580749034882
1789061922454225400,9.722225341796875,0.1458624005317688,0.08135299384593964,0.2453507035970688
1789061922464235300,9.7322353515625,0.14111319184303284,0.010211171582341194,0.16591019928455353
1789061922474244400,9.742244384765625,0.053300246596336365,0.4552171230316162,0.3234145939350128
1789061922484254500,9.75225439453125,0.0844789370894432,0.2730638384819031,0.03304535895586014
1789061922494264300,9.762264404296875,0.011972061358392239,0.2646680474281311,-0.1106080710887909
1789061922504274400,9.7722744140625,-0.029074707999825478,0.23003309965133667,-0.18407723307609558
1789061922514283500,9.782283447265625,-0.023671632632613182,-0.06438855826854706,-0.1660420000553131
1789061922524293400,9.79229345703125,-0.07721208781003952,0.376417875289917,0.09675367176532745
1789061922534303500,9.802303466796875,-0.1187877431511879,0.028826270252466202,0.020816244184970856
1789061922544312300,9.812312255859375,-0.15513217449188232,0.3260696828365326,0.11640668660402298
1789061922554322200,9.822322265625,-0.22282959520816803,0.40048709511756897,0.10036797821521759
1789061922564332300,9.832332275390625,-0.2816891670227051,0.29808324575424194,-0.09955206513404846
1789061922574342100,9.842342041015625,-0.34120187163352966,0.18545618653297424,-0.17226248979568481
1789061922584351200,9.852351318359375,-0.2277994006872177,-0.17791883647441864,-0.18457721173763275
1789061922594361300,9.862361328125,-0.3046778440475464,0.4484008252620697,0.22658222913742065
1789061922604371200,9.87237109375,-0.44355636835098267,0.041870083659887314,0.02943933755159378
1789061922614381300,9.88238134765625,-0.580907940864563,0.2897520065307617,0.06518630683422089
1789061922624390400,9.892390380859375,-0.6068775057792664,0.19735175371170044,-0.003102473681792617
1789061922634400300,9.902400146484375,-0.6265431642532349,0.16993996500968933,0.019642747938632965
1789061922644410400,9.912410400390625,-0.6308878660202026,0.18001870810985565,-0.010343114845454693
1789061922654420500,9.92242041015625,-0.6847218871116638,0.17412477731704712,-0.1632586121559143
1789061922664429300,9.93242919921875,-0.633679986000061,0.070463627576828,-0.2985677123069763
1789061922674439400,9.942439453125,-0.4903331398963928,-0.1627812534570694,-0.30178093910217285
1789061922684449500,9.952449462890625,-0.4850030839443207,0.08103220909833908,-0.02464945614337921
1789061922694458400,9.962458251953125,-0.6068949103355408,0.08939449489116669,0.10199210792779922
1789061922704468200,9.97246826171875,-0.6547314524650574,0.4313550293445587,0.22184127569198608
1789061922714478300,9.982478271484375,-0.5820937752723694,0.021748531609773636,-0.028110776096582413
1789061922724488200,9.99248828125,-0.5712752342224121,-0.009255722165107727,-0.07675234973430634
1789061922734497300,10.002497314453125,-0.5193652510643005,-0.12477472424507141,-0.03315175324678421
1789061922744507400,10.01250732421875,-0.47915181517601013,0.054325785487890244,0.14338545501232147
1789061922754517200,10.022517333984375,-0.4347677528858185,-0.07159473747015,0.07231598347425461
1789061922764527400,10.03252734375,-0.3513687551021576,-0.060690682381391525,-0.08896637707948685
1789061922774536400,10.042536376953125,-0.2872057855129242,0.008015085011720657,-0.13423919677734375
1789061922784546300,10.05254638671875,-0.22917257249355316,-0.14186576008796692,-0.16563546657562256
1789061922794556400,10.062556396484375,-0.19477197527885437,0.1362539827823639,0.005896049551665783
1789061922804565500,10.0725654296875,-0.10641415417194366,-0.2180851846933365,-0.08902513235807419
1789061922814575400,10.082575439453125,-0.04301094263792038,-0.1494584083557129,0.12686869502067566
1789061922824585500,10.09258544921875,-0.017713842913508415,-0.1698899120092392,0.16881801187992096
1789061922834595300,10.10259521484375,-0.045039866119623184,0.18215613067150116,0.39915773272514343
1789061922844604200,10.112604248046875,-0.027413737028837204,-0.07709088921546936,0.1632927507162094
1789061922854614300,10.1226142578125,-0.011874165385961533,-0.040329959243535995,0.034244854003190994
1789061922864624400,10.132624267578125,0.03590187802910805,-0.26346343755722046,-0.1010138988494873
1789061922874634200,10.14263427734375,0.11700439453125,0.016192151233553886,0.10924602299928665
1789061922884643300,10.152643310546875,0.1396854668855667,-0.11580237001180649,0.16103065013885498
1789061922894653400,10.1626533203125,0.162115216255188,-0.11170686781406403,0.14939650893211365
1789061922904663300,10.172663330078125,0.21138663589954376,-0.14119844138622284,-0.09000356495380402
1789061922914672400,10.18267236328125,0.18169529736042023,-0.11683373153209686,-0.16938559710979462
1789061922924682500,10.1926826171875,0.14721828699111938,-0.22383315861225128,-0.15500426292419434
1789061922934692400,10.2026923828125,0.1493174433708191,-0.32410168647766113,-0.10609067231416702
1789061922944702500,10.212702392578125,0.12638257443904877,0.20169712603092194,0.21038952469825745
1789061922954711600,10.222711669921875,0.1565740406513214,0.02980581484735012,0.19597557187080383
1789061922964721400,10.232721435546875,0.20006586611270905,-0.17173929512500763,0.20781704783439636
1789061922974731500,10.2427314453125,0.15106818079948425,-0.06796043366193771,0.19001437723636627
1789061922984741400,10.252741455078125,0.10618060827255249,-0.02719595655798912,-0.035078391432762146
1789061922994750200,10.262750244140625,0.24942396581172943,-0.1306537240743637,-0.07044770568609238
1789061923004760300,10.27276025390625,0.2672783434391022,-0.34631597995758057,-0.19402770698070526
1789061923014770200,10.282770263671875,0.21326959133148193,0.220539852976799,0.14215949177742004
1789061923024780300,10.2927802734375,0.19751432538032532,-0.12214745581150055,-0.006764482706785202
1789061923034789400,10.302789306640625,0.13846662640571594,0.15813900530338287,0.005238003563135862
1789061923044799200,10.31279931640625,0.09016860276460648,0.04152423143386841,-0.040592603385448456
1789061923054809300,10.322809326171875,0.12408909201622009,0.024333089590072632,-0.07515682280063629
1789061923064818400,10.332818359375,0.08090034127235413,0.028155524283647537,-0.09600485116243362
1789061923074828300,10.342828369140625,0.028651945292949677,-0.0537855438888073,-0.2161140888929367
1789061923084838400,10.35283837890625,0.08000381290912628,-0.10209102928638458,-0.13467969000339508
1789061923094848500,10.3628486328125,0.14304615557193756,-0.039934176951646805,0.07746745645999908
1789061923104857300,10.372857421875,0.009193825535476208,-0.11892940104007721,0.05741358548402786
1789061923114867500,10.382867431640625,-0.11737069487571716,0.22233588993549347,0.11827068030834198
1789061923124877600,10.392877685546875,-0.16319623589515686,-0.006863216403871775,0.0472942478954792
1789061923134887200,10.40288720703125,-0.15996721386909485,-0.06448720395565033,-0.15248174965381622
1789061923144896300,10.412896240234375,-0.1743522733449936,-0.07619313150644302,-0.1790742129087448
1789061923154906400,10.42290625,-0.16871346533298492,-0.050115615129470825,-0.15572094917297363
1789061923164916200,10.432916259765625,-0.23864087462425232,-0.004755587782710791,0.04362811520695686
1789061923174925300,10.44292529296875,-0.24212577939033508,-0.04712659493088722,-0.03301231935620308
1789061923184935400,10.452935302734375,-0.22643469274044037,0.06816830486059189,0.020196042954921722
1789061923194945300,10.4629453125,-0.20397460460662842,-0.05306590348482132,-0.0633411854505539
1789061923204955400,10.472955322265625,-0.2670382261276245,-0.0568997859954834,0.045208193361759186
1789061923214964500,10.482964599609375,-0.24533772468566895,-0.11727309972047806,-0.03223932534456253
1789061923224974300,10.492974365234375,-0.257282018661499,-0.051595818251371384,0.005170363001525402
1789061923234984400,10.502984375,-0.25436773896217346,0.01079241931438446,0.09706086665391922
1789061923244994300,10.512994384765625,-0.24243412911891937,-0.10296131670475006,0.048893604427576065
1789061923255003400,10.52300341796875,-0.2114826887845993,-0.04436282441020012,-0.025860805064439774
1789061923265013200,10.53301318359375,-0.19586165249347687,-0.22370567917823792,-0.20453733205795288
1789061923275023000,10.543023193359375,-0.18279646337032318,0.09757165610790253,-0.060445547103881836
1789061923285033200,10.553033203125,-0.17718838155269623,-0.17820586264133453,-0.08201715350151062
1789061923295042300,10.563042236328124,-0.16898316144943237,-0.11449557542800903,-0.036829832941293716
1789061923305052200,10.57305224609375,-0.12451875954866409,0.06197267025709152,0.09376014024019241
1789061923315062300,10.583062255859375,-0.022256258875131607,-0.17318306863307953,-0.10743914544582367
1789061923325071000,10.593071044921874,0.0042381989769637585,-0.049555663019418716,-0.04672306776046753
1789061923335081200,10.603081298828124,0.0072597935795784,-0.18412357568740845,-0.12539055943489075
1789061923345091000,10.613091064453124,0.010252919979393482,0.11669724434614182,0.09096437692642212
1789061923355101200,10.62310107421875,0.07891644537448883,-0.14824174344539642,-0.06599622964859009
1789061923365110300,10.6331103515625,0.03281952440738678,0.018184784799814224,0.018424110487103462
1789061923375120100,10.6431201171875,0.036246828734874725,-0.1680733561515808,-0.1072448343038559
1789061923385130200,10.653130126953124,0.030238738283514977,-0.03385536000132561,0.11290004849433899
1789061923395140000,10.66314013671875,0.028255464509129524,-0.14937910437583923,0.03884337097406387
1789061923405149200,10.673149169921874,0.07357846945524216,-0.15733663737773895,0.07394383102655411
1789061923415159300,10.6831591796875,0.0099386190995574,-0.05443061888217926,0.05441874638199806
1789061923425169200,10.693169189453124,-0.07628574967384338,-0.061018746346235275,0.031221019104123116
1789061923435178200,10.70317822265625,-0.03135454282164574,-0.17102764546871185,-0.05012607201933861
1789061923445188400,10.713188232421874,-0.051447562873363495,-0.16054198145866394,-0.014153956435620785
1789061923455198200,10.7231982421875,-0.0884026512503624,0.000608817208558321,0.0896960124373436
1789061923465208300,10.733208251953124,-0.12453242391347885,-0.0649757832288742,0.06422633677721024
1789061923475217200,10.743217041015624,-0.14444588124752045,-0.07506237924098969,0.004148521926254034
1789061923485227000,10.75322705078125,-0.11113133281469345,-0.11836377531290054,-0.06000729650259018
1789061923495237000,10.763237060546874,-0.04942276328802109,-0.09932097047567368,-0.0470099076628685
1789061923505247200,10.773247314453124,-0.06704729795455933,-0.10849583148956299,-0.08795201033353806
1789061923515256000,10.783256103515624,-0.04665861651301384,-0.1818631887435913,-0.11985628306865692
1789061923525266200,10.79326611328125,-0.024069419130682945,-0.03458879142999649,-0.05582589656114578
1789061923535276300,10.8032763671875,0.01593524031341076,-0.10075211524963379,-0.10755261033773422
1789061923545286100,10.8132861328125,0.018419435247778893,-0.0811280831694603,-0.12390415370464325
1789061923555295200,10.823295166015624,-0.00041843403596431017,-0.14363141357898712,-0.23442399501800537
1789061923565305300,10.833305419921874,0.019341688603162766,-0.2782377004623413,-0.09895885735750198
1789061923575315200,10.843315185546874,0.08171539753675461,-0.10235519707202911,0.07061157375574112
1789061923585324300,10.85332421875,0.09878945350646973,0.0011411034502089024,0.2043645828962326
1789061923595334400,10.86333447265625,0.06309962272644043,-0.12579210102558136,0.07880251854658127
1789061923605344300,10.87334423828125,-0.023565497249364853,-0.04008305072784424,0.013148678466677666
1789061923615354400,10.883354248046874,0.04259437695145607,-0.054357875138521194,-0.06712315231561661
1789061923625363200,10.89336328125,0.13770757615566254,-0.22732938826084137,-0.19800525903701782
1789061923635373000,10.903373046875,0.23182246088981628,-0.28371766209602356,-0.04823078215122223
1789061923645383200,10.913383056640624,0.31246164441108704,-0.19504958391189575,0.17497460544109344
1789061923655393000,10.92339306640625,0.2543462812900543,0.04411592707037926,0.29909372329711914
1789061923665402000,10.933402099609374,0.20582453906536102,-0.018157299607992172,0.19219496846199036
1789061923675412200,10.943412109375,0.19638527929782867,-0.07523012161254883,0.06452342867851257
1789061923685422000,10.953422119140624,0.2293163388967514,-0.0839194804430008,0.038001272827386856
1789061923695432200,10.96343212890625,0.2678695321083069,-0.09521792829036713,0.03926938772201538
1789061923705441300,10.973441162109374,0.33424562215805054,-0.17365920543670654,-0.05454925075173378
1789061923715451100,10.983451171875,0.34259042143821716,-0.0502009317278862,-0.0016550595173612237
1789061923725461200,10.993461181640624,0.3436812460422516,-0.15944300591945648,-0.13865578174591064
1789061923735470300,11.00347021484375,0.32596686482429504,0.002989987377077341,-0.032945483922958374
1789061923745480200,11.013480224609374,0.31977981328964233,-0.12043821066617966,-0.11966706067323685
1789061923755490300,11.023490234375,0.27955764532089233,0.0339522585272789,-0.06156473606824875
1789061923765500400,11.03350048828125,0.3206179738044739,-0.16127528250217438,-0.1578790247440338
1789061923775509000,11.043509033203126,0.3519868552684784,-0.016239289194345474,-0.07414673268795013
1789061923785519000,11.05351904296875,0.3491058647632599,0.07434867322444916,0.022241853177547455
1789061923795529200,11.063529296875,0.29213181138038635,-0.12420134991407394,-0.022166188806295395
1789061923805539000,11.0735390625,0.20892347395420074,0.020267147570848465,-0.0030606724321842194
1789061923815548200,11.083548095703126,0.16197630763053894,-0.004166708793491125,-0.05424901470541954
1789061923825558300,11.093558349609374,0.18781429529190063,0.03832908347249031,0.02474886365234852
1789061923835568000,11.103568115234374,0.17610259354114532,0.019157562404870987,-0.0007858108729124069
1789061923845577200,11.1135771484375,0.12589268386363983,-0.09127707034349442,-0.04749685898423195
1789061923855587300,11.12358740234375,0.10029421001672745,-0.017527401447296143,0.1083206832408905
1789061923865597200,11.13359716796875,0.1580698937177658,0.07411117106676102,0.2973864674568176
1789061923875607300,11.143607177734374,0.13241657614707947,-0.10497719049453735,0.16664248704910278
1789061923885616400,11.153616455078126,0.047943226993083954,-0.014121586456894875,0.03295686095952988
1789061923895626200,11.163626220703126,0.019505318254232407,-0.054914724081754684,-0.17216022312641144
1789061923905636400,11.17363623046875,0.06531594693660736,-0.13751693069934845,-0.1273788958787918
1789061923915646200,11.183646240234374,0.05889422073960304,-0.14376875758171082,0.007788104936480522
1789061923925655000,11.193655029296876,0.014271359890699387,0.1401369869709015,0.29381588101387024
1789061923935665200,11.2036650390625,0.03597516939043999,-0.12383747100830078,0.08114571869373322
1789061923945675000,11.213675048828126,-0.027988897636532784,0.015328675508499146,-0.04457918927073479
1789061923955685000,11.22368505859375,0.0191501472145319,-0.05631250515580177,-0.23417378962039948
1789061923965694200,11.233694091796876,0.05399148538708687,-0.28066039085388184,-0.30676329135894775
1789061923975704300,11.243704345703126,0.1122402548789978,0.1928180307149887,0.12302401661872864
1789061923985714200,11.253714111328126,0.13740819692611694,-0.28067734837532043,-0.03391233831644058
1789061923995723300,11.26372314453125,0.020061636343598366,0.43631675839424133,0.23875394463539124
1789061924005733400,11.2737333984375,0.08688460290431976,-0.04429459199309349,-0.1314331591129303
1789061924015743200,11.2837431640625,0.08679018914699554,-0.000045806169509887695,-0.10911069810390472
1789061924025753300,11.29375341796875,0.15596739947795868,-0.02322036772966385,-0.09565667062997818
1789061924035762400,11.303762451171876,0.16418345272541046,-0.04292197525501251,-0.050997067242860794
1789061924045772300,11.313772216796876,0.17385311424732208,0.059288281947374344,0.016873326152563095
1789061924055782400,11.323782470703126,0.2518816590309143,-0.15741115808486938,-0.08116451650857925
1789061924065792300,11.333792236328126,0.29827526211738586,0.08318467438220978,0.043318282812833786
1789061924075801000,11.343801025390626,0.2918476462364197,-0.051408637315034866,-0.003226054832339287
1789061924085811200,11.353811279296876,0.2734028697013855,-0.03929311782121658,-0.01034361869096756
1789061924095821000,11.363821044921876,0.23873299360275269,0.011229122057557106,0.08069800585508347
1789061924105831200,11.3738310546875,0.31054967641830444,-0.19962452352046967,-0.031724411994218826
1789061924115840300,11.38384033203125,0.2741173803806305,0.12145606428384781,0.2211536467075348
1789061924125850000,11.39385009765625,0.2915371358394623,-0.10610465705394745,0.1075274869799614
1789061924135860200,11.403860107421876,0.2892434597015381,-0.06785517930984497,0.16904902458190918
1789061924145869300,11.413869384765626,0.2937026619911194,-0.016980810090899467,0.09309247136116028
1789061924155879200,11.423879150390626,0.2879868745803833,-0.009441498667001724,0.08116139471530914
1789061924165889300,11.43388916015625,0.29964539408683777,-0.05441829189658165,-0.12859556078910828
1789061924175899400,11.4438994140625,0.33221596479415894,-0.18357053399085999,-0.09718649089336395
1789061924185908200,11.453908203125,0.35374414920806885,0.09863904863595963,0.06968824565410614
1789061924195918300,11.46391845703125,0.29368337988853455,0.09272588044404984,0.08698119968175888
1789061924205928400,11.473928466796876,0.3081773519515991,-0.012504931539297104,-0.03377237915992737
1789061924215938000,11.48393798828125,0.2973432242870331,0.029909294098615646,-0.12126465886831284
1789061924225947100,11.493947021484376,0.3888193666934967,-0.02674892544746399,-0.10382229089736938
1789061924235957200,11.503957275390626,0.421988308429718,0.06598164141178131,-0.08128940314054489
1789061924245967000,11.513967041015626,0.3986542224884033,-0.06044367700815201,-0.080842524766922
1789061924255977200,11.523977294921876,0.3505479395389557,0.15616443753242493,0.01180812157690525
1789061924265986300,11.533986328125,0.37788209319114685,0.23085758090019226,0.18275830149650574
1789061924275996200,11.54399609375,0.45456254482269287,0.01054980605840683,-0.05330227315425873
1789061924286006300,11.55400634765625,0.3333737850189209,0.066062331199646,-0.1614958494901657
1789061924296015000,11.56401513671875,0.3357236087322235,-0.07347522675991058,-0.1456720232963562
1789061924306025000,11.57402490234375,0.32700201869010925,0.14752772450447083,0.059949569404125214
1789061924316035000,11.58403515625,0.2798328399658203,0.20303912460803986,0.18828532099723816
1789061924326045000,11.594044921875,0.2752029299736023,0.06380241364240646,0.03887533023953438
1789061924336053800,11.6040537109375,0.1922379434108734,0.043752994388341904,-0.09729476273059845
1789061924346064000,11.61406396484375,0.1809575855731964,-0.1143258586525917,-0.011124993674457073
1789061924356074000,11.624073974609376,0.24305707216262817,0.062175869941711426,0.1867620199918747
1789061924366083800,11.634083740234376,0.14892658591270447,0.27042415738105774,0.36184248328208923
1789061924376093000,11.644093017578125,0.049543675035238266,0.06820138543844223,0.17692480981349945
1789061924386103000,11.65410302734375,-0.0017336256569251418,0.0488351434469223,0.06518708914518356
1789061924396113000,11.66411279296875,0.0674675926566124,0.05195083096623421,0.004346515983343124
1789061924406123000,11.674123046875,0.06687530875205994,0.026224695146083832,0.06471079587936401
1789061924416132000,11.684132080078125,0.008703334257006645,0.13333088159561157,0.0028054758440703154
1789061924426142000,11.694141845703125,-0.06331386417150497,-0.00007963087409734726,0.036262501031160355
1789061924436152000,11.704152099609376,0.03960364684462547,0.08012749254703522,0.019962217658758163
1789061924446162000,11.714161865234376,0.04332541674375534,0.2695416212081909,0.16985291242599487
1789061924456171000,11.7241708984375,0.07334426790475845,-0.0012182644568383694,-0.02827242761850357
1789061924466181000,11.73418115234375,-0.0574244000017643,0.2063961774110794,0.05688001587986946
1789061924476191000,11.74419091796875,-0.02155667543411255,0.17134876549243927,-0.08313791453838348
1789061924486199800,11.75419970703125,0.04698323830962181,0.16361814737319946,-0.1246989369392395
1789061924496210000,11.7642099609375,0.14417164027690887,-0.20934000611305237,-0.1736496239900589
1789061924506219800,11.7742197265625,0.13402420282363892,0.32987847924232483,0.17929191887378693
1789061924516230000,11.78422998046875,0.13892202079296112,0.06266733258962631,0.11592962592840195
1789061924526239000,11.794239013671875,-0.001773040508851409,0.15040650963783264,-0.02021249383687973
1789061924536248800,11.804248779296875,-0.008309945464134216,0.10671581327915192,-0.10075542330741882
1789061924546259000,11.814259033203125,0.12365048378705978,-0.09969727694988251,-0.07942430675029755
1789061924556269000,11.82426904296875,0.08801064640283585,0.13320942223072052,0.14371199905872345
1789061924566278000,11.83427783203125,-0.054736390709877014,0.11261012405157089,0.18290254473686218
1789061924576288000,11.8442880859375,-0.061486419290304184,0.22481311857700348,0.22842435538768768
1789061924586298000,11.854298095703125,-0.033522166311740875,0.05718044191598892,0.13113480806350708
1789061924596308000,11.864307861328125,-0.05544267222285271,0.09159835427999496,0.08017405867576599
1789061924606317000,11.874317138671875,-0.04907398670911789,0.05576419085264206,0.015620097517967224
1789061924616327200,11.8843271484375,-0.11974679678678513,0.05465123802423477,0.023902902379631996
1789061924626337000,11.8943369140625,-0.10698333382606506,0.024697601795196533,0.046881988644599915
1789061924636345900,11.904345947265625,-0.002049631904810667,0.32524237036705017,0.2656364440917969
1789061924646356000,11.91435595703125,0.06523167341947556,-0.1535322070121765,-0.048572883009910583
1789061924656365800,11.92436572265625,-0.07981028407812119,-0.053641658276319504,0.01105621550232172
1789061924666376000,11.9343759765625,-0.03779466077685356,0.07544788718223572,0.04810851067304611
1789061924676385000,11.944385009765625,-0.021990571171045303,-0.11025214940309525,0.20346599817276
1789061924686395000,11.954394775390625,-0.20591938495635986,0.113470159471035,0.21992725133895874
1789061924696405000,11.964405029296875,-0.3810473382472992,0.3145773410797119,0.11011512577533722
1789061924706414800,11.974414794921875,-0.31352609395980835,0.32920342683792114,-0.008189413696527481
1789061924716424000,11.984423828125,-0.10842669010162354,0.15224069356918335,-0.14958634972572327
1789061924726434000,11.99443408203125,0.09501191228628159,-0.043609246611595154,-0.13884902000427246
1789061924736444000,12.00444384765625,0.199847012758255,-0.19253766536712646,-0.14941668510437012
1789061924746454000,12.0144541015625,0.0969238206744194,0.2052893340587616,0.0777277946472168
1789061924756463000,12.024463134765625,0.15169019997119904,-0.03009992465376854,-0.03915420547127724
1789061924766473000,12.034472900390625,0.17061568796634674,0.17623993754386902,0.06486859172582626
1789061924776483000,12.044483154296875,0.19565770030021667,0.1463824361562729,-0.02611512877047062
1789061924786493200,12.0544931640625,0.14865531027317047,0.17901627719402313,0.030336428433656693
1789061924796501800,12.064501708984375,0.15823468565940857,0.04663185402750969,-0.03133106604218483
1789061924806511900,12.074511962890625,0.15998464822769165,0.05549485236406326,-0.044713180512189865
1789061924816522000,12.08452197265625,0.19568820297718048,-0.04351523518562317,-0.061896976083517075
1789061924826530800,12.09453076171875,0.12337005138397217,0.09064257144927979,0.11118665337562561
1789061924836541000,12.104541015625,0.02464977838099003,0.15309549868106842,0.16132080554962158
1789061924846551000,12.114551025390625,0.006402331404387951,0.15160121023654938,0.14191170036792755
1789061924856561000,12.124560791015625,0.029131503775715828,0.11680106818675995,0.02164149470627308
1789061924866570000,12.134570068359375,0.04743274673819542,0.06498047709465027,-0.03556373715400696
1789061924876580000,12.144580078125,0.06434477120637894,-0.002676993142813444,-0.01849301904439926
1789061924886590000,12.15458984375,0.1004716157913208,0.1291034072637558,0.08738680183887482
1789061924896600000,12.16460009765625,0.12398210167884827,0.19664283096790314,0.10280289500951767
1789061924906609200,12.174609130859375,0.1639540195465088,0.05633978173136711,-0.01603667251765728
1789061924916619000,12.184618896484375,0.21865339577198029,0.07008665800094604,-0.0244449470192194
1789061924926629000,12.194629150390625,0.2170855849981308,0.16268476843833923,-0.04547513276338577
1789061924936639000,12.204638916015625,0.23663470149040222,-0.05151919648051262,-0.16057147085666656
1789061924946647800,12.214647705078125,0.23663043975830078,0.11214722692966461,0.01875913515686989
