time,seconds_elapsed,z,y,x
1789759674207627500,0.06462744140625,0.014745149189233779,-0.1375020525470376,0.277534354224056
1789759674217637600,0.0746376953125,0.01153612401485443,-0.16372545808404684,0.2459234104298055
1789759674227646500,0.084646484375,0.033031331986188885,-0.21472850009053945,0.25849662240743637
1789759674237655600,0.094655517578125,0.047803953704237935,-0.2539692081108689,0.2866489501804113
1789759674247665700,0.104665771484375,0.06688859340250491,-0.2657157600060105,0.298638809312135
1789759674257674800,0.1146748046875,0.04316343442201614,-0.25379852771908046,0.3133648154094815
1789759674267683800,0.124683837890625,0.036658290311694146,-0.2959766043655574,0.34458252210244533
1789759674277692700,0.134692626953125,0.059579731693863866,-0.3420572414085269,0.34206659375876186
1789759674287702500,0.14470263671875,0.07361527130901813,-0.3687612700693309,0.3513768584176898
1789759674297711600,0.154711669921875,0.08312427341043949,-0.3916007322564721,0.36730990221723914
1789759674307720700,0.164720703125,0.08571487442553043,-0.4027518024764955,0.34117812048643825
1789759674317729800,0.174729736328125,0.05951251167654991,-0.3683426062658429,0.25851635002121326
1789759674327739600,0.18473974609375,0.04692717086970806,-0.3969219272792339,0.28134645985811946
1789759674337748500,0.19474853515625,0.05738076034486293,-0.38308351767137644,0.29141470327749847
1789759674347757600,0.204757568359375,0.103427641248703,-0.40595074464827774,0.3270494957603514
1789759674357767700,0.214767578125,0.11218261011242865,-0.40586292023435233,0.34973493642956016
1789759674367776500,0.224776611328125,0.10830722998380661,-0.42859483039379115,0.38740532639324665
1789759674377785600,0.23478564453125,0.1008089831829071,-0.44509193781688805,0.3835105109117925
1789759674387794700,0.244794677734375,0.0760433752387762,-0.44747956360578534,0.3443465213894844
1789759674397804800,0.2548046875,0.053933250239491456,-0.3931007615558803,0.3320743381850421
1789759674407813600,0.264813720703125,0.03670505206286907,-0.36805545988753435,0.2595680510312319
1789759674417822700,0.27482275390625,0.05283960978388786,-0.3396935810171067,0.23076003582850096
1789759674427831600,0.28483154296875,0.07872223905920982,-0.3229943751506507,0.08243731405958533
1789759674437841700,0.294841552734375,0.10281681587398052,-0.3220727302610874,0.06492766859307884
1789759674447850800,0.304850830078125,0.04965571905076503,-0.34969986511617895,0.09243059254661203
1789759674457859800,0.31485986328125,0.04089782757759094,-0.4071406850852072,0.15349062592610715
1789759674467869400,0.324869384765625,0.06630056438148021,-0.4637878704585135,0.1626969918191433
1789759674477878500,0.33487841796875,0.0829974321603775,-0.4711756426222622,0.1567198171056807
1789759674487887600,0.3448876953125,0.09952478859126568,-0.4340644939765334,0.10003449167907237
1789759674497896700,0.354896728515625,0.13413316063582897,-0.3691841716565192,0.054278410415351384
1789759674507906600,0.364906494140625,0.1449246037632227,-0.33434009115993973,-0.007598930696398019
1789759674517915600,0.37491552734375,0.14618892461061478,-0.3820984521567821,-0.012514905919134615
1789759674527924500,0.384924560546875,0.1401525670558214,-0.4289277156099677,0.08236176460534333
1789759674537933600,0.39493359375,0.1570370663613081,-0.5027865864165127,0.2068533828012645
1789759674547943700,0.404943603515625,0.14759762236475943,-0.5202234589077532,0.20513561909794806
1789759674557952800,0.414952880859375,0.12555880903601646,-0.5081419759698211,0.18388371836319564
1789759674567961600,0.424961669921875,0.1230126316845417,-0.4658931721746921,0.15743936355188487
1789759674577970700,0.434970703125,0.12234686125218867,-0.4682368126913905,0.16235943042784928
1789759674587980800,0.444980712890625,0.08940788372457027,-0.4921595400705933,0.10052300584837794
1789759674597989600,0.45498974609375,0.08491992465555667,-0.5856852343775332,0.11401070232242345
1789759674607998700,0.464998779296875,0.1201537351220846,-0.49138782504573464,0.09143456724658608
1789759674618008600,0.475008544921875,0.03636252223551273,-0.562558479681611,0.06830766642019152
1789759674628017700,0.485017578125,0.18430501251518724,-0.5882612223453819,0.1097714573174715
1789759674638026800,0.49502685546875,0.29570319425165653,-0.7046363157115876,0.13580328580513595
1789759674648035600,0.50503564453125,0.29547523071467874,-0.7090934412509202,0.14105886824578046
1789759674658045400,0.51504541015625,0.4760720363616943,-0.5798829778395593,0.5431446080289781
1789759674668054500,0.525054443359375,0.11708616424500942,-0.24667905110269783,0.5770446856737137
1789759674678063600,0.535063720703125,-0.2209977896183729,-0.06024857086613774,0.21547990297973155
1789759674688072700,0.54507275390625,-0.21748364401757717,0.09301204569637775,-0.20268296524882315
1789759674698082600,0.55508251953125,-0.10454933875501156,0.031737492783367634,-0.930220117945969
1789759674708091600,0.565091552734375,0.4319184218585491,-0.6869755713365971,-0.8076400324597954
1789759674718100500,0.5751005859375,0.5135024800896645,-0.6922941360108554,-0.11666501622349024
1789759674728110600,0.585110595703125,0.3811147018164396,-1.0733033316262066,0.1156426874384284
1789759674738119700,0.59511962890625,0.06078033965528011,-0.7410252875626087,0.3965931337162852
1789759674748128800,0.605128662109375,-0.10172960515916347,-0.5804983332589269,0.025731530366837976
1789759674758137600,0.6151376953125,-0.07723053919672966,-0.3439345795877278,-0.716406686873734
1789759674768147700,0.625147705078125,0.07685293805599212,-0.20581264157667756,-0.9814677823632955
1789759674778156500,0.635156494140625,0.13643793044686317,-0.16442659209072588,-1.2240765152871609
1789759674788165600,0.64516552734375,0.21591420274376869,-0.30435455661043526,-1.160190610831976
1789759674798174700,0.6551748046875,0.34314240629673004,-0.4521063466235995,-0.8796490376159548
1789759674808184600,0.6651845703125,0.4044698584407568,-0.6596539952993392,-0.8832999613389372
1789759674818193700,0.675193603515625,0.16112462793588636,-0.6864119461044669,-0.7378229843899607
1789759674828202800,0.68520263671875,-0.16045768845975397,-0.688459526284039,-0.6690449239790439
1789759674838211600,0.695211669921875,-0.33167525586485863,-0.6884167100556194,-0.7969216545686125
1789759674848221400,0.705221435546875,-0.3067372139632702,-0.6741162358939647,-0.932890798459947
1789759674858230500,0.71523046875,-0.006238602128624916,-0.7701802165068685,-1.0572525066658853
1789759674868239600,0.725239501953125,0.4423883779466152,-0.7979897221915423,-0.9970368151560425
1789759674878249700,0.735249755859375,0.6324199514150619,-0.64381871278584,-0.9430240699395537
1789759674888258800,0.7452587890625,0.398393168875575,-0.49132791155204175,-0.8965349982261657
1789759674898267600,0.755267578125,0.11876608015596866,-0.33594694183468815,-1.0685556987076996
1789759674908276500,0.7652763671875,0.026911387801170347,-0.4131387564562261,-1.0088736756831407
1789759674918286600,0.77528662109375,0.11795301020741462,-0.4682686691343784,-0.7102642385959624
1789759674928295700,0.785295654296875,-0.03779869251847267,-0.5428574616506695,-0.7540849678829312
1789759674938304800,0.7953046875,-0.14051263253986834,-0.5486018505215644,-0.8558674722731113
1789759674948313600,0.805313720703125,-0.10396014069020748,-0.5202868795327842,-0.8880535856068134
1789759674958323700,0.81532373046875,0.08589666073322295,-0.5554758279442786,-0.8728723830878734
1789759674968332500,0.82533251953125,0.1829214492022991,-0.5017284556657076,-0.8530152977123856
1789759674978341600,0.835341552734375,0.2431932548135519,-0.5867554939575493,-0.6654656041875481
1789759674988350700,0.845350830078125,0.37530572327673434,-0.8101571298472583,-0.7778281009115279
1789759674998360600,0.855360595703125,0.5379547843009234,-0.9052988810487091,-0.755073686659336
1789759675008369700,0.86536962890625,0.6766378633260727,-0.8424711073443293,-0.6295214534945786
1789759675018378800,0.875378662109375,0.7234557286024094,-0.9580411679379641,-0.37203152391165495
1789759675028388900,0.885388916015625,0.7442372353464365,-1.205552285950631,-0.1933710931546986
1789759675038397400,0.8953974609375,0.9385814113169908,-1.5077280372172592,-0.1275121350608766
1789759675048406500,0.905406494140625,0.9794704710662364,-1.7283457414768635,0.07921791362166404
1789759675058415600,0.91541552734375,0.4944815532773733,-1.7018344589091836,0.44175709430575366
1789759675068425700,0.92542578125,-0.04579319840371608,-1.7553448075614868,0.6877328194446861
1789759675078434800,0.935434814453125,-0.5148451268702745,-1.6190287499286233,0.9088622726187109
1789759675088443600,0.945443603515625,-0.5132289238452911,-1.6069279777683316,0.8893769431650638
1789759675098452500,0.955452392578125,0.6963081939578056,-2.2839468032360077,0.47762291906550525
1789759675108462600,0.965462646484375,0.8944780656963587,-1.7887017182402312,0.8395384148932993
1789759675118472200,0.97547216796875,0.3789613231748342,-1.0916707629658282,1.8051760293096304
1789759675128481000,0.98548095703125,0.24033728086054323,-0.8122162543341517,2.100984291370958
1789759675138489900,0.99548974609375,0.4639467142820358,-0.8219719246730208,2.3423118984431026
1789759675148500000,1.0055,1.4933394463807343,-0.7813546676024794,1.214708090700209
1789759675158509000,1.015509033203125,0.9922089566081762,-0.6874570712432265,1.0832027943499385
1789759675168518100,1.02551806640625,-0.13298340607881545,-1.5063459352090953,1.278383567275107
1789759675178528000,1.035528076171875,-0.9423258585423231,-1.1135437182083725,0.890232683211565
1789759675188537000,1.045537109375,-1.4122054700046778,-1.5539824233919382,1.2876147753484546
1789759675198546000,1.0555458984375,-0.8125304348498582,-1.797854600380361,1.32842536303401
1789759675208555000,1.065554931640625,0.8118237478852272,-2.0948814444512127,0.9418195164553821
1789759675218564900,1.07556494140625,1.9733616816729307,-1.4869555905625222,0.20725743355751036
1789759675228574000,1.085573974609375,1.32219611325562,0.0327782340079546,0.4384456316702068
1789759675238583000,1.0955830078125,0.0583931522578001,0.37308892401009797,0.35961963997557755
1789759675248592000,1.105591796875,-0.32955110331773757,-0.0035237902119755744,0.20741072442308067
1789759675258602000,1.11560205078125,-0.04444236831665039,-0.24259762700796125,-0.3557420678898692
1789759675268611000,1.125611083984375,0.7051981873780488,-0.8902318064287305,-0.672485712082684
1789759675278620000,1.135619873046875,1.47648768030107,-1.4568378079354762,-1.0627283077284693
1789759675288629000,1.14562890625,1.1151514456659555,-0.7141171146318316,-1.0346657040655611
1789759675298639000,1.15563916015625,0.5874427455693483,0.22049539305418728,-0.3653060150489211
1789759675308648200,1.165648193359375,0.5705868878364563,-0.03541705807894468,-0.25316198338121176
1789759675318657000,1.175656982421875,0.8957540769815444,-0.2816580100253224,0.42637554690912366
1789759675328667000,1.1856669921875,1.3677905742168426,-0.8012351338535547,0.8379168050408363
1789759675338676000,1.195676025390625,1.438939747673273,-0.8465893563181162,0.6349034387938678
1789759675348685000,1.20568505859375,1.592183851492405,-1.3828399670496583,1.3002875021778046
1789759675358694100,1.215694091796875,0.1780254938542843,-1.668522118024528,1.2523502774827182
1789759675368704000,1.2257041015625,-3.4370711289435625,-0.027022739221155643,2.4310975586161017
1789759675378713000,1.235713134765625,-4.028579808777571,-0.6280664323806763,2.113983181414753
1789759675388722000,1.245721923828125,-2.0619494811862706,-1.1007044026404618,0.47103126571550963
1789759675398731000,1.25573095703125,0.016966916891932485,-0.28802403792589903,0.43020138880759473
1789759675408741000,1.2657412109375,0.9653577745616435,0.9255524183958769,0.27490722059085965
1789759675418750000,1.27575,0.6013362463653087,1.691851263424754,0.9062794165186584
1789759675428759000,1.285759033203125,0.08369652034044266,-0.03571545650362968,0.9639642743766307
1789759675438767900,1.295767822265625,-1.3975702109307049,-0.09914104997068643,1.7708092109359799
1789759675448778000,1.305778076171875,-2.289447738739848,-0.3565133445233106,2.4136130475908515
1789759675458787000,1.315787109375,-1.6329910781770944,-0.17343085954040288,1.891946696398407
1789759675468796000,1.3257958984375,-0.9130915807515382,0.7356880181878804,0.48631315212994813
1789759675478806000,1.335805908203125,-0.30317338400185107,1.9465631065964697,-0.3028063042551279
1789759675488815000,1.345815185546875,0.4698240818828344,2.921136453270912,-0.0864767987087369
1789759675498824200,1.35582421875,0.9124941993802785,3.104017862723768,0.39697336520552634
1789759675508833000,1.3658330078125,0.19093816691935062,2.8226991676554083,0.4594197383768856
1789759675518843000,1.3758427734375,-0.5804021794080734,0.9199100285947323,0.5313225066795945
1789759675528852000,1.38585205078125,-1.093723457711935,0.02192424703836441,0.35077041695713995
1789759675538861000,1.395861083984375,-1.2561837181657551,-0.41912265317142006,0.9766125974170863
1789759675548870100,1.4058701171875,-0.7928150960326195,0.2578238377124071,0.8815643697179854
1789759675558880000,1.4158798828125,0.0009282207608222961,1.3296888070985675,0.7377598560258746
1789759675568888800,1.425888916015625,0.23078151700794697,2.0017200534120203,0.2609204885534942
1789759675578898000,1.43589794921875,0.09200432995855808,1.8710811646327374,-0.15933087638691068
1789759675588907000,1.445906982421875,-0.39351241109669205,0.7269424016743898,-0.2528255910336971
1789759675598917000,1.455917236328125,-0.6670446900725364,0.1663768493756652,0.11993556232675909
1789759675608926000,1.465926025390625,-0.9168576552867889,0.07418897954374551,-0.0021845044322311878
1789759675618935000,1.47593505859375,-0.8794301341682672,-0.05045739082247019,0.18329598160311578
1789759675628945200,1.485945068359375,-0.6574141074180603,-0.2156476607620716,0.3752791275307536
1789759675638954000,1.4959541015625,-0.2880734300255775,-0.29903000058680773,0.49812020204067226
1789759675648963000,1.505963134765625,-0.2889507973819971,-0.3037918081611395,0.5080658419936895
1789759675658972000,1.515971923828125,0.1307072778403759,0.0599073562130332,0.30872663421481844
1789759675668982000,1.52598193359375,0.3081821520745754,-0.1871419895067811,0.2625860836781561
1789759675678991000,1.5359912109375,0.6273813727259635,-0.5743173065364361,0.010260112729668617
1789759675689000200,1.546000244140625,0.6471633470386267,-0.8863076187223196,-0.11892945402413606
1789759675699009000,1.556009033203125,0.23107377795279024,-0.6076201489403843,-0.09362623207196592
1789759675709019000,1.566018798828125,-0.1032663132071495,-0.6459031178444623,0.10620251278951763
1789759675719028000,1.576028076171875,0.18592998336851596,-1.248476212528348,0.21192542536854742
1789759675729037000,1.586037109375,0.21184183873832224,-1.185470598039031,0.22363909790739417
1789759675739047200,1.596047119140625,0.1573024392992258,-0.970888520681858,-0.06393544268533587
1789759675749056000,1.606055908203125,0.27418694349229333,-1.0225962038263678,-0.47918519994616504
1789759675759064800,1.61606494140625,0.2571604053676128,-0.7709232899591326,-1.134412318713963
1789759675769074000,1.626073974609375,0.4766436987698078,-0.7418070855900645,-1.2499084372885525
1789759675779084000,1.636083984375,0.6388146208882332,-0.986142496176064,-1.2557396276600659
1789759675789093000,1.646093017578125,0.7827274172604084,-0.9654793551146984,-1.3319701960340142
1789759675799102000,1.65610205078125,1.0015297426611185,-1.388560390523076,-1.2723024937957526
1789759675809111000,1.666111083984375,0.6629325785785913,-0.8956827653110027,-1.2829952988542617
1789759675819121200,1.67612109375,0.24095804310739039,-0.2496802787452936,-0.8747460680052638
1789759675829130000,1.6861298828125,0.060606736654043196,0.008518529759347438,-0.29289924274683
1789759675839139000,1.69613916015625,0.19783961687088011,-0.21641309217661617,-0.2277202297411859
1789759675849148200,1.706148193359375,0.19743805033266543,-0.21582067924141882,-0.22664967790022492
1789759675859158000,1.716157958984375,-0.41308045039772984,-1.1146689228460192,-0.6354996511213481
1789759675869167000,1.7261669921875,-0.49114977850615976,-1.0552774072006343,-0.7716922285050153
1789759675879176000,1.736176025390625,0.44037411551475525,-1.0116045619517564,-0.6325869785450399
1789759675889185800,1.746185791015625,1.4223726437538862,-0.8227002389475703,-0.27730595229566096
1789759675899195000,1.75619482421875,1.317973527124524,-0.5393225655227899,-0.014843202736228703
1789759675909204000,1.766203857421875,0.8481365857601165,-0.7156161210179328,-0.2106365546017885
1789759675919213000,1.776213134765625,0.48404842206835746,-1.2280997794538735,-0.28117431816160676
1789759675929223200,1.78622314453125,-0.09527706801891327,-1.6264523240581155,-0.9403520742513238
1789759675939232000,1.79623193359375,-0.453446363055706,-1.9191613049298524,-0.9798796363890171
1789759675949240800,1.80624072265625,-0.2832423566073179,-0.859767694582045,-0.8064740574203431
1789759675959250000,1.81625,0.6640080988556146,-0.9560556932091713,-0.9152268392145633
1789759675969260000,1.826260009765625,0.8141413771778344,-0.7991898917615413,-0.7252882047265767
1789759675979269000,1.83626904296875,0.815460643082857,-0.7934002024441957,-0.7384523683346808
1789759675989278000,1.84627783203125,-0.18311843307912348,-0.7949445092767476,-0.5611068195685744
1789759675999287000,1.856287109375,-0.7435790636986493,-0.21683131758868693,-0.034219664987921714
1789759676009297000,1.866296875,-0.7807879736304283,0.017978724282979964,0.23163126570507883
1789759676019306000,1.876305908203125,0.15978315019905567,-0.7789256868898868,0.4158937542527914
1789759676029315000,1.886315185546875,0.5418325025171041,-0.698696550399065,0.020408435647934674
1789759676039325000,1.896324951171875,0.8023866419762372,-0.46936435541659594,0.05797229649722576
1789759676049334000,1.906333984375,0.7772802577704191,-0.9248837253540754,0.2815111489005387
1789759676059343000,1.916343017578125,0.07739595889151096,-0.5744695744886994,0.17055939575731754
1789759676069352000,1.92635205078125,-0.46357729644775386,-0.8476748134672641,0.9304062881678342
1789759676079361800,1.93636181640625,-1.1470400373578071,-1.1082850670278073,0.7659862719483673
1789759676089371000,1.946370849609375,-0.15222352859973906,-1.7627976077854632,0.28919805014133454
1789759676099380000,1.9563798828125,1.4395371290445327,-1.7910367370590567,-0.11016951672434806
1789759676109389000,1.96638916015625,1.967736243006587,-1.0525728244170547,-0.2756293973855674
1789759676119399200,1.976399169921875,1.2375789709389209,0.26829671640992164,0.29591581408903
1789759676129408000,1.986407958984375,0.3787093942403793,0.7268968089669943,0.03166764241755009
1789759676139416800,1.996416748046875,-0.5945113687813282,1.1875664012745022,0.05027838099375367
1789759676149426000,2.006426025390625,-0.10762567746043204,0.5934221122398973,-0.5587127640388906
1789759676159436000,2.01643603515625,-0.2271159802377224,-0.215742061047256,-1.1472693160690366
1789759676169445000,2.026445068359375,0.435956299072504,-0.8258724392428993,-1.1534475663125514
1789759676179454200,2.0364541015625,0.062485390007495874,0.000009060089290142059,-0.37860140382125973
1789759676189463800,2.0464638671875,0.694127342787385,-1.3598004522457718,-0.5349579405725002
1789759676199473000,2.056472900390625,-0.11907879936695098,0.09797259071320295,0.18206643980816006
1789759676209482000,2.06648193359375,-0.5955407118290662,-0.46237610396444795,0.024992548567801712
1789759676219491000,2.076490966796875,-0.7846610156714916,-1.0372729639545082,0.5175650533534586
1789759676229501000,2.0865009765625,-1.276619187951088,0.2163227835446596,0.13880889736190438
1789759676239510000,2.096510009765625,-0.7354413499504328,-0.3691925010934472,0.5413816900096834
1789759676249518800,2.106518798828125,0.14652677826285362,-0.20258388878852127,0.893806157784164
1789759676259528000,2.11652783203125,0.5045166250795126,0.07259586513340473,0.5168156962908804
1789759676269538000,2.1265380859375,0.26887422403693195,0.7887798491671681,0.9503317626044153
1789759676279547000,2.136546875,-0.1497393105685711,0.6584598170787096,0.152194740896672
1789759676289556000,2.146555908203125,-0.33206571648716926,-0.22925825296342373,-0.0049750119335949415
1789759676299566000,2.156566162109375,-0.4925719202637672,0.26850802107304333,0.011287409950792788
1789759676309575200,2.1665751953125,-0.3792500769883394,-0.28064240324199197,0.4530803062222898
1789759676319584000,2.176583984375,-0.37955578193664546,-0.27244536052197216,0.437690867780149
1789759676329592800,2.1865927734375,0.5907464632898569,0.07414280231446027,0.8263045470498501
1789759676339603000,2.19660302734375,0.5387158318012952,0.1554047889843583,0.8846098748937249
1789759676349612000,2.206612060546875,0.30752281138300896,0.12804799550324678,1.0659455162093043
1789759676359621000,2.21662109375,0.3057014411747455,0.14003507815599442,1.0518209831364451
1789759676369630000,2.2266298828125,0.626942396786809,-1.6641081009745597,1.250514440357685
1789759676379639800,2.236639892578125,0.40921091548800465,-1.3421972832769156,1.0554697149023413
1789759676389649000,2.24664892578125,-0.008582534906268119,-0.30601708299517627,0.6560640079833566
1789759676399658000,2.256657958984375,-0.2542097388684749,0.44421617789566514,0.41604470703080293
1789759676409667000,2.2666669921875,0.16950959444344044,0.4717547576844692,0.017798837671428917
1789759676419677000,2.276677001953125,0.6731359926849603,-0.2110556567966938,-0.20759937886297702
1789759676429686000,2.28668603515625,-0.10718903960883616,-0.6806321936592459,-0.42497598230950534
1789759676439694800,2.29669482421875,-0.5848538981199264,-1.363752112480998,-0.5053424083791673
1789759676449704000,2.306703857421875,-1.1840075397491454,0.5199664154067635,-0.6545601062264294
1789759676459714000,2.316714111328125,-0.6708423287898302,0.9482599247664213,-1.2979764487564562
1789759676469723000,2.326722900390625,0.7572405093044042,1.3455860489323734,-1.3683292111381888
1789759676479732000,2.33673193359375,0.838691296544671,1.7795333462700247,-1.517088424628228
1789759676489742000,2.3467421875,0.637872956123948,1.162799624286592,-1.477870512961596
1789759676499751000,2.3567509765625,0.8190390860915183,-0.12118044782131909,-1.0032513788219541
1789759676509760000,2.366760009765625,0.36145255449116226,-0.9570543488577008,-0.6446711648967117
1789759676519768800,2.376768798828125,0.1597036552220583,-2.1459172196835277,-0.20032471168488264
1789759676529779000,2.386779052734375,-0.28491876538693905,-1.1044476808220147,0.5289247978881001
1789759676539788000,2.3967880859375,0.06295593012869358,-0.8363874035164713,0.17149448465034364
1789759676549797000,2.406797119140625,1.2241671161800622,-0.34102439122945066,0.29771102694272994
1789759676559806000,2.416805908203125,2.530026427140832,-0.44733255635052915,-0.1719821951020509
1789759676569815800,2.42681591796875,3.124718413186073,-0.3580927226692438,-0.06263846167735755
1789759676579825000,2.436824951171875,3.4525925232023,-1.1158502415850757,0.12231237446069716
1789759676589834000,2.446833984375,3.0976813531786203,-0.6418684555009007,0.468696539157629
1789759676599844000,2.456843994140625,2.821163336390257,-0.9089239396780728,0.9560380844872445
1789759676609853000,2.46685302734375,2.5778046618819235,-1.3776426906675099,1.2808382669508456
1789759676619862000,2.476862060546875,2.6634996625632046,-2.4689263540118933,0.7390200121548026
1789759676629870800,2.486870849609375,3.16118498031795,-3.7194346568897365,0.466854856813699
1789759676639881000,2.496880859375,3.149983787345886,-3.4574157055750487,0.15770765909925102
1789759676649890000,2.50689013671875,3.1573569464623925,-3.47894510807693,0.15272227190211415
1789759676659899000,2.51689892578125,3.919629020193219,-2.4173697697758674,1.0463966930653898
1789759676669908000,2.526907958984375,2.299951597097516,-1.1950240238040686,0.9267431625504046
1789759676679918000,2.53691796875,-12.577293109464645,5.693025763404369,2.0729187650986014
1789759676689927000,2.546927001953125,-20.185818148159978,4.18602428689599,1.9154212416186929
1789759676699936000,2.55693603515625,-15.319433762544392,0.9894435835480689,-1.2619047261610628
1789759676709945000,2.566945068359375,-2.09691908775866,-4.579642496454715,-3.7932775994747874
1789759676719955000,2.576954833984375,5.373303395661711,-2.2496493968367575,-3.1965988235265015
1789759676729964000,2.586964111328125,7.2604428379088635,-0.36524230216294523,-0.5465343235325067
1789759676739973000,2.59697314453125,3.5443571991860865,3.5987235801458355,1.350195296293497
1789759676749983000,2.60698291015625,-1.66211195872128,4.427884247279167,2.3142642000883815
1789759676759991800,2.61699169921875,-4.046865991574526,2.8375147517323493,1.578049673808366
1789759676770001000,2.6270009765625,-3.3326877944052216,1.3932666685178876,-0.6327264600809663
1789759676780010000,2.637010009765625,-1.5132652130782602,-1.0077665912240743,-3.0132179401189085
1789759676790020000,2.64702001953125,-2.1184499515652657,-1.3722376167535781,-3.9511616380542516
1789759676800029000,2.65702880859375,-0.604924041724205,-1.6324746530875562,-3.219067260444164
1789759676810038000,2.6670380859375,1.7018419115632772,-0.8818567767933011,-1.265104398985207
1789759676820046800,2.677046875,1.9666215597629546,0.7543547247350215,0.03329889688119292
1789759676830057000,2.687056884765625,1.6433131502270697,1.9625702385455368,0.810180583788082
1789759676840066000,2.697066162109375,1.4732412457257509,2.2304116124033926,1.3377214530371129
1789759676850075000,2.707074951171875,-0.13485329160392284,2.465083122587204,1.1951262420695274
1789759676860084000,2.717083984375,-1.629410881602764,2.9959301207095383,0.4252162938714027
1789759676870094000,2.727093994140625,-1.6423942818164825,-0.30713878050148485,-0.43944611394964156
1789759676880103000,2.73710302734375,0.00180208098590374,-2.4756936561897396,-1.6588900740653276
1789759676890112000,2.747112060546875,2.4728683696359393,-4.544951706823706,-2.293962878076732
1789759676900121900,2.757121826171875,3.0743180132478476,-4.509125483421981,-1.9404998610347508
1789759676910131000,2.767130859375,0.006236848562955856,-2.127975612540543,-1.339158353972435
1789759676920140000,2.77714013671875,-3.3180238937586544,1.3731918487384915,-0.5386795914441347
1789759676930149000,2.787149169921875,-2.2202052756875754,1.3411293617844582,-0.5079389276783913
1789759676940159000,2.797158935546875,0.5154454308509826,-0.42734687615931033,-0.8432162266232073
1789759676950167800,2.807167724609375,2.6488223179131745,-0.7914090286269784,-1.312319593016058
1789759676960177000,2.817177001953125,2.334112225374579,-1.181865559284389,-0.8822264138232916
1789759676970186000,2.82718603515625,1.3177613456785677,-0.9431737075433134,-0.7478256882924587
1789759676980196000,2.837196044921875,1.314309159398079,-0.924261501802504,-0.7827022097539156
1789759676990205000,2.847204833984375,-0.18659400023519992,-1.8930173943698405,-0.6574061433073133
1789759677000213800,2.8572138671875,2.051200708156824,-4.941354578664899,-0.6786711227193475
1789759677010222800,2.867222900390625,2.4268062911629675,-5.838667575526237,-0.8355446690820157
1789759677020233000,2.87723291015625,1.89475283986032,-3.103978115235269,-0.4011373530171811
1789759677030242000,2.887241943359375,-0.06803250274062156,-2.4517042933151125,0.64691704412736
1789759677040251100,2.897251220703125,-1.2885299904972314,-2.8516064054489134,0.9425070603281259
1789759677050261000,2.907260986328125,-0.012459668600559234,-0.7991893072396516,0.15488639113344252
1789759677060270000,2.91727001953125,1.1364572685450314,-0.08870061223804951,-0.7200801877547055
1789759677070279000,2.92727880859375,0.08560381526648998,0.8491089379236102,-1.467289643844962
1789759677080288000,2.9372880859375,-0.5999041677355766,0.5618620218500494,-1.5307352571867405
1789759677090297900,2.9472978515625,-0.8276683827489614,0.31100159340947864,0.17690834465892985
1789759677100307000,2.957306884765625,-0.3402390860706568,0.35160277612805363,2.0289036822833117
1789759677110316000,2.96731591796875,1.7716396704107522,-0.6204723239898682,1.6434755011819302
1789759677120324400,2.977324462890625,1.7703209890276193,-0.616114128780365,1.5917460445970295
1789759677130334500,2.98733447265625,-0.23231004174947736,0.8923401768848299,-0.4003601580996066
1789759677140343600,2.997343505859375,-1.7484738988786934,2.5447730376347897,-0.07054566373848356
1789759677150352100,3.00735205078125,-1.9150223054289817,2.6054773894444105,-0.15025490454104728
1789759677160361200,3.017361328125,-0.3542424769818783,1.3268793026357888,-1.1449693685635924
1789759677170371300,3.027371337890625,0.5019593418121338,0.733234487555921,-0.8508145727977157
1789759677180380400,3.03738037109375,0.37570144459605215,0.6804933697104454,-1.817650749348849
1789759677190389500,3.047389404296875,-0.3536725681394338,1.460726924328506,-0.48844263843931257
1789759677200399400,3.0573994140625,0.09694120183885097,1.015792076769471,-0.3942501507867127
1789759677210408400,3.067408447265625,1.0857494100928307,0.7960138920739293,-1.3215547466121613
1789759677220417300,3.077417236328125,-0.3652659752994776,1.2222455004677175,-1.9202359484240412
1789759677230426400,3.08742626953125,-1.7578391085952518,2.2521315690413117,-2.2642136365011334
1789759677240436200,3.097436279296875,-1.61496442309916,2.117643311357498,-2.333009232568741
1789759677250445300,3.1074453125,-0.05097440043389797,1.345708214007318,-1.0562408454053103
1789759677260454400,3.117454345703125,0.13731062162816524,1.3613766155213116,-1.0913597242552786
1789759677270463200,3.127463134765625,-0.3379851696640253,1.086688444508612,-0.5162869597090408
1789759677280473300,3.137473388671875,-1.3655436720728873,1.2106430332183837,-0.42715197464171795
1789759677290482200,3.147482177734375,-1.4983827012449502,1.2868228943184017,-0.4581797847857699
1789759677300491300,3.1574912109375,-0.49340486395657057,1.0008598805755375,-0.1225022710096091
1789759677310500400,3.167500244140625,0.5717553470939397,0.9812149766460061,0.10821392567716538
1789759677320510500,3.177510498046875,0.07288403442502021,0.6890428791299462,0.530646872440353
1789759677330519600,3.18751953125,-0.6871686096906662,1.354592946730554,1.0466210764057933
1789759677340528000,3.197528076171875,-0.46822424547076225,0.8763859441667795,1.0560440076589583
1789759677350538200,3.207538330078125,0.11284896506667136,0.9009723961517214,1.704337527771294
1789759677360547300,3.21754736328125,0.18647241968214512,1.0148927898421882,1.6629630225926637
1789759677370556400,3.227556396484375,0.35302374884188176,1.0046405681580304,1.3311588796511291
1789759677380565500,3.2375654296875,0.2823696654260158,0.6216600724697112,1.4212363332003355
1789759677390575400,3.247575439453125,-0.21726035665571689,0.4404880972832441,0.7871591891627758
1789759677400584400,3.25758447265625,0.21449498359560965,0.6308674612760543,0.6817052297182381
1789759677410593300,3.26759326171875,-0.47059740434288977,0.47406654175817964,1.1294959781650453
1789759677420602400,3.277602294921875,-1.1345955663263798,1.1517761259689927,0.7109133501544594
1789759677430612200,3.2876123046875,-0.7122358309298753,0.4627294474467635,-0.2520401762770489
1789759677440621300,3.297621337890625,0.3816472012579441,0.8691910642266273,-0.35770686515681444
1789759677450630400,3.30763037109375,0.08704173911511898,2.473667118798196,-1.3035196159668265
1789759677460639200,3.31763916015625,0.4450625655919313,1.6626634551241992,-0.8743859294559806
1789759677470649300,3.3276494140625,0.9648404726892709,1.1729825801268219,-1.0685505110759288
1789759677480658200,3.337658203125,1.3617401881366968,-0.025754618981480598,-1.548711789512634
1789759677490667300,3.347667236328125,1.8155892867743968,-1.2006322190746663,-1.1733408189799637
1789759677500677400,3.357677490234375,-1.392215990421176,0.4355041713908314,-1.6215639674946665
1789759677510686500,3.3676865234375,-4.877714757925272,1.5877835707068442,-1.8030796415522694
1789759677520695600,3.377695556640625,-2.3378087418049573,0.6121878952473402,-0.6585889964163303
1789759677530704400,3.387704345703125,0.2911211271584034,0.37683746288865805,-0.46512905593439935
1789759677540714200,3.39771435546875,0.6049684653878211,0.6838873960629105,-0.5829360817998648
1789759677550723300,3.407723388671875,0.7932640088438987,0.0922428148895502,-0.774991489246115
1789759677560732400,3.417732421875,-0.2881868272721767,0.6713868109300732,-1.0563355379514396
1789759677570741500,3.427741455078125,-2.0084885246336457,0.2942673162296414,-1.551334539231658
1789759677580751400,3.43775146484375,-2.0417092417120934,0.21801614345908163,-1.3700897910699248
1789759677590760200,3.44776025390625,-0.0815817201435566,-0.25852234137058255,-0.6865718859065324
1789759677600769300,3.457769287109375,1.5339900211989879,-1.0727034660369157,0.09614186815470456
1789759677610779400,3.467779296875,1.419230254074931,-0.2336091416493058,0.5213668567892163
1789759677620788200,3.477788330078125,0.6308510946631432,0.4282958474472165,0.6341887877184897
1789759677630797300,3.48779736328125,0.6284113002955913,0.43298225169777865,0.6255977041795849
1789759677640806400,3.497806396484375,0.12659691991209984,-0.3005611556768417,0.5604205908700823
1789759677650816500,3.50781640625,0.12271978621780871,-0.293007379296422,0.5477464027360082
1789759677660825300,3.517825439453125,0.1920809072136879,-0.8114820948407053,-0.6017696693465113
1789759677670834200,3.527834228515625,0.3612690146178007,-0.4282642832651734,-1.4236758353069423
1789759677680843300,3.53784326171875,0.6610638620972633,-0.5183665789946913,-1.782363893520832
1789759677690853400,3.547853271484375,0.5749731400966644,-0.2268967845290899,-1.4353808861479163
1789759677700862500,3.557862548828125,0.14123568611741066,-0.5272916437283158,-2.1238886354878543
1789759677710871600,3.56787158203125,0.371951152151823,0.02264963870346546,-1.6714776068292556
1789759677720880400,3.57788037109375,1.180433188393712,0.7373758251443505,-0.7439906401742249
1789759677730890200,3.58789013671875,2.3621827200829983,0.3258101632237434,0.564767168707028
1789759677740899300,3.5978994140625,4.416440477722883,-7.1466837722599506,3.1043335045441984
1789759677750908400,3.607908447265625,7.85682233864963,-18.77579937454462,5.563285869291424
1789759677760917500,3.61791748046875,-4.95724305267036,-2.109260098415613,-3.441428447370231
1789759677770927400,3.62792724609375,-7.532878553819656,-0.9484206682860851,-4.499684578120708
1789759677780936200,3.637936279296875,-4.6547985674649475,4.2462078297019,-3.8961663115411995
1789759677790945300,3.6479453125,3.37664968572855,0.45486996611803765,-2.358476851302385
1789759677800955400,3.657955322265625,4.2005724522084,2.4095459442824123,1.5670209147937595
1789759677810964200,3.667964111328125,1.065340243792534,1.8073770464852452,1.8354799821585415
1789759677820973300,3.677973388671875,-1.6625030038654802,1.353682846148312,1.4938725303441285
1789759677830982400,3.687982421875,-2.7382190957218406,1.2352689404308794,-1.7576380330651997
1789759677840992500,3.697992431640625,-1.3282786480396984,-0.563325080139935,-2.3593780379258096
1789759677851001300,3.70800146484375,-0.5046294378042221,0.7684183214008807,-1.2864208893887699
1789759677861010400,3.718010498046875,0.8002507989913225,-0.5614306446954608,0.1085509756118059
1789759677871019300,3.728019287109375,0.17935118950009346,-0.24849632965773344,-1.3354052850492297
1789759677881029400,3.738029296875,-1.6356640967786311,2.768243647107482,-2.8452190424993633
1789759677891038500,3.74803857421875,-1.2395990785896778,1.9670868391871452,-3.888226166191697
1789759677901047300,3.75804736328125,-0.05226502476632595,2.2348358585864303,-2.0757294386051592
1789759677911056400,3.768056396484375,-0.26177169855535026,0.758391725166142,-1.1426834495835005
1789759677921066200,3.778066162109375,-0.7205377953290939,-0.8943620381012558,-1.622136360555142
1789759677931075300,3.788075439453125,-1.1751941186964512,-0.9098238111272454,-1.8870032486468553
1789759677941084400,3.79808447265625,-1.5764175425618887,-0.33564386723488565,-2.919777439877391
1789759677951094300,3.80809423828125,-1.4024550603628159,0.32700054205209017,-2.972506575024128
1789759677961103400,3.818103271484375,0.5955401273071765,-0.13303075235188005,-0.7328146547086536
1789759677971112200,3.8281123046875,0.6524538546621799,0.654076195167005,-0.8827196772329509
1789759677981121300,3.838121337890625,0.6532628329575061,0.6404284858256578,-0.9036557900168001
1789759677991131400,3.84813134765625,-0.13390695066452027,2.225412781202793,1.1332581802427768
1789759678001140500,3.858140380859375,0.4930301854252815,1.3552312446340917,1.2722910956189035
1789759678011149300,3.8681494140625,1.0247960519582033,0.7334332249984145,1.733445694964379
1789759678021158400,3.878158447265625,0.5843108772844076,0.4267769673168659,1.8558670827575028
1789759678031168500,3.88816845703125,-0.9986609092265367,0.07075549796372652,0.3555126430481672
1789759678041177300,3.89817724609375,-0.6618266631633043,-0.018273031054437158,0.674846888256073
1789759678051186400,3.9081865234375,-1.5859949337244033,-0.0591620908036828,0.11562281369417905
1789759678061195300,3.9181953125,-2.853520714637637,0.3948167716935277,-0.7481098389960825
1789759678071205400,3.928205322265625,-2.399287000596523,1.2371157373413444,0.07034969364181161
1789759678081214500,3.93821435546875,-1.627296081405878,2.017136818252504,0.03776683607548475
1789759678091223300,3.948223388671875,0.6353215180754661,1.8837351867616174,1.0357901780508458
1789759678101233200,3.958233154296875,-0.6333066711217165,2.013269621430337,-0.7106662435255944
1789759678111242200,3.9682421875,-2.093629398563504,1.560027256514132,-0.0478631365455687
1789759678121251600,3.97825146484375,-1.1918044772356748,1.4172957788810132,1.471880332636088
1789759678131260700,3.9882607421875,1.064267646124959,-1.0785784955501556,0.7402733001515269
1789759678141270500,3.9982705078125,2.4507494768083093,-2.3632784063652155,-1.1395115415491164
1789759678151279600,4.008279541015625,3.0198247910380362,-2.275844160801172,-1.220640695619583
1789759678161288700,4.018288818359375,2.426385435402393,-2.1995091091394423,-2.621705762928724
1789759678171297500,4.028297607421875,1.758195082426071,-2.0776982544600964,-2.825762354618311
1789759678181307600,4.0383076171875,0.4463730636686086,-0.9853443315356969,-2.0417346684142945
1789759678191316500,4.04831640625,-0.6411176371335983,-1.3619512005388736,-1.1053608501441776
1789759678201325600,4.05832568359375,-0.34112580577731133,-1.4111328723371028,-0.14312369182109833
1789759678211335700,4.068335693359375,-0.6201023216336965,-1.7881334168329834,0.9987018257588147
1789759678221344800,4.0783447265625,-0.47741760575175285,-1.0218845484256744,0.6944738181374966
1789759678231353600,4.088353515625,0.8436568099975585,-1.2441390601068734,0.406380222106725
1789759678241362700,4.09836279296875,0.6565963612943887,-1.1375725363105536,-0.997965766569227
1789759678251372500,4.10837255859375,-0.1699035621970892,-0.936202991747856,-0.6689280196011066
1789759678261381600,4.118381591796875,0.31493571798801423,-1.4829861024096607,-0.6544235472999512
1789759678271390700,4.128390625,0.45180619463324545,-0.9732198862388729,-0.33322818439528346
1789759678281399800,4.13839990234375,0.4967354696840047,-0.9911597398161888,1.0648295177914202
1789759678291409700,4.14840966796875,-0.11315876166820525,-0.4929629654079675,1.35384987327829
1789759678301418500,4.15841845703125,-0.29695231752991674,0.2709963307574391,2.382629734175652
1789759678311427600,4.168427490234375,-0.6828612678855657,0.9132686908841132,2.1710453773297367
1789759678321436700,4.178436767578125,-0.18594868806898593,0.8691963249236345,1.7317523350499568
1789759678331446500,4.188446533203125,-0.18305004401803016,1.6327949710831045,2.3804655418790874
1789759678341455600,4.19845556640625,0.48130642988383765,0.49007571953386064,1.6209214318074285
1789759678351464700,4.208464599609375,0.6087240185290574,0.6711866121828556,2.7169550661578774
1789759678361473500,4.2184736328125,0.6006318974882364,-0.3637479719519615,2.003677324959636
1789759678371483600,4.228483642578125,0.5776946740150452,-0.6015063422352075,2.2159167847134174
1789759678381492700,4.23849267578125,0.232191383805871,-0.9872025266230106,1.8487587120570241
1789759678391501600,4.24850146484375,0.23299217879474163,-0.9787184836551547,1.8632548549212515
1789759678401511700,4.25851171875,-0.1665694493383169,-0.42444501723796124,0.7580459804683923
1789759678411520800,4.268520751953125,0.6751812347769737,-0.8337450723141431,1.1690259514555335
1789759678421529600,4.278529541015625,1.5693243694305419,-1.6677675002649426,0.8192796168491244
1789759678431538700,4.28853857421875,0.5151344652056694,-1.1596949362695217,-0.153461107570678
1789759678441548500,4.298548583984375,0.6926309667497873,-1.9002815401539206,-0.13279913555309175
1789759678451557600,4.3085576171875,-0.0868488468915224,-1.948054514198005,0.1403420982785523
1789759678461566700,4.318566650390625,-0.05450491264760494,-0.904964388397336,0.3361719827622175
1789759678471575800,4.328575927734375,0.20538404090106485,-0.9605544659331441,-0.6443171638272702
1789759678481585700,4.338585693359375,0.27395138117074963,-0.6491504292026162,-0.2529755208984017
1789759678491594500,4.348594482421875,0.6278554199784994,-0.7698597523808479,-0.8987589578859507
1789759678501603600,4.358603515625,0.664264703965187,-0.22592092523425816,-0.46340354731604455
1789759678511613700,4.36861376953125,1.5511948385000227,-1.662128617595136,-0.11694237186014651
1789759678521622800,4.378622802734375,0.7507470556318759,-1.37552584464401,-0.5757675053447484
1789759678531631600,4.388631591796875,-0.39611762515902516,-0.5039996154680848,-0.7353333595313132
1789759678541640400,4.398640380859375,-0.8719137671887874,-0.12050386373400687,-0.6015364451125264
1789759678551650600,4.408650634765625,-0.2104144362837076,0.24623306090086697,-0.5253019312158227
1789759678561659600,4.41865966796875,-0.18347849856317042,0.6064417528107762,-0.23990648822784422
1789759678571668700,4.428668701171875,0.012452654337882995,0.5203899015158414,-0.16778087095469235
1789759678581677600,4.438677490234375,-0.07137129177451133,0.3504883851453662,0.30484058656170965
1789759678591687700,4.448687744140625,-0.7822878567993641,0.28555092581063507,0.5965932165566832
1789759678601696800,4.45869677734375,-1.6131880610764027,1.7352280483365057,-0.1678735176742077
1789759678611705600,4.46870556640625,-0.3533563417971134,0.1538365167543292,0.8607749719284474
1789759678621714700,4.478714599609375,0.43103579380512236,0.36705548906475305,1.244682665464282
1789759678631724500,4.488724609375,0.6934732627928256,0.20503332776725292,1.7268460044384002
1789759678641733600,4.498733642578125,-0.49023091009557246,0.2927636336684227,0.8971982844404875
1789759678651742700,4.50874267578125,-0.4905798696637153,0.30108722537755966,0.9231595319099724
1789759678661751800,4.518751708984375,1.5706833828240632,0.6398819578588009,2.0747852896228434
1789759678671761700,4.52876171875,0.9522884496301413,0.7460740953847765,1.7512284582838415
1789759678681770500,4.5387705078125,0.3976315368533134,-0.20251257711797951,1.5927452847674488
1789759678691779600,4.548779541015625,-0.057816813674569124,-0.915359817944467,0.19165135669000447
1789759678701789700,4.558789794921875,-0.4804723171472549,-0.6376701270282268,-1.0703463084515183
1789759678711798800,4.568798828125,-0.01561257967352867,-0.7260442837908864,-0.6050507368437945
1789759678721807600,4.5788076171875,0.6784568954467773,-1.2628767860636114,0.35037674146443604
1789759678731816400,4.58881640625,0.3103787853360176,-1.1239221966207027,0.13081643730327486
1789759678741826600,4.59882666015625,0.4957400289058685,-0.9897715003281831,0.458732267569378
1789759678751835600,4.608835693359375,0.3351087374448776,-0.8525646313354373,-0.05845365027338266
1789759678761844700,4.6188447265625,-0.20124679496586323,-0.29453035108000036,-0.34871384975351394
1789759678771853600,4.628853515625,0.3175111214339733,-0.62546706353724,0.030734818546846506
1789759678781863700,4.63886376953125,0.6160685360729694,-0.8993877573087811,-0.17433358053378759
1789759678791872800,4.648872802734375,0.8737854062795638,-1.3720488161832094,-0.3469250666406005
1789759678801881600,4.658881591796875,0.0757037680208683,-0.7050920966550708,-0.03541398933902383
1789759678811891500,4.668891357421875,0.8049205443680286,-1.5622022624656557,0.05491816962361335
1789759678821900500,4.678900634765625,0.2598918761581182,-1.065610000644624,-0.09348280501328408
1789759678831909600,4.68890966796875,0.11925474045574665,-2.2122209989354014,0.5070761003039777
1789759678841918700,4.698918701171875,-0.9431599712789058,-0.8427706748127937,0.1372724450422451
1789759678851928800,4.7089287109375,-1.2304630014538764,1.160455106987059,0.06610339784156531
1789759678861937400,4.7189375,-0.15382278048992157,0.6442112192347645,0.499332756168209
1789759678871946500,4.728946533203125,0.35191491081714626,1.4027745015755295,1.3326657770827413
1789759678881955600,4.73895556640625,1.223072891202569,-0.785025757330656,1.5335050141610205
1789759678891965700,4.748965576171875,0.40073300999999045,-1.0053791115656494,2.308797166854143
1789759678901974800,4.758974853515625,0.4036111957848072,-1.0091542461901903,2.3358982320085167
1789759678911983600,4.768983642578125,-0.7227262452840805,0.7537158423095941,0.7539713514406233
1789759678921992400,4.778992431640625,0.3252870161324739,0.9118880501806735,1.2212563432998955
1789759678932002600,4.78900244140625,0.9306880277186632,0.2934273582741618,1.5229194688692689
1789759678942011600,4.79901171875,1.0074620553195477,-1.650537840783596,1.3692689762063324
1789759678952020700,4.809020751953125,1.0824217269748448,-2.527075760641694,2.044641495771706
1789759678962030600,4.819030517578125,0.5804992100417614,-1.8195885855436325,1.642089892042428
1789759678972039700,4.829039794921875,0.030867431950569152,-0.6706193336889147,1.1591627290889621
1789759678982048800,4.839048828125,0.03110708592534065,-0.6688631376713514,1.2020243310201912
1789759678992057600,4.8490576171875,0.07980185098946094,-0.014002514128386974,1.131470273912698
1789759679002067500,4.8590673828125,1.4302736261367797,-1.675642471423745,1.451592746888846
1789759679012076500,4.86907666015625,1.444189923286438,-1.4443506668061017,0.9945107307445258
1789759679022085600,4.879085693359375,1.408333012485504,-1.1875687393620609,0.44116818850189443
1789759679032094700,4.8890947265625,0.886812061113119,-0.4340694624125957,0.16747432575616986
1789759679042104800,4.899104736328125,0.741074971923232,-0.6715785341098904,0.8494858084119856
1789759679052113400,4.909113525390625,0.33318156877458094,-0.9238345085620879,1.2844047272607684
1789759679062122500,4.91912255859375,0.13909107530415057,-1.2896338600859045,1.3835868398942053
1789759679072131600,4.929131591796875,0.5441466246783733,-1.3302274440199136,1.6201593613937497
1789759679082141700,4.9391416015625,1.104974919566512,-1.768411940535903,2.0669931744419037
1789759679092150800,4.94915087890625,0.1792097352027893,-1.2432403577014803,1.907401016770303
1789759679102159600,4.95915966796875,-0.5319125815272331,-1.0853230013743043,2.109235840757191
1789759679112168400,4.96916845703125,-0.29448154350221156,-0.6932698491752147,2.4663325381264087
1789759679122179000,4.979178955078125,0.4954536131799221,-1.003668215994537,2.2646043893843886
1789759679132188200,4.989188232421875,0.6752274120062589,-0.8272080717608332,2.0211348018474875
1789759679142197200,4.999197265625,1.2377303621083497,-1.3322212481856346,1.0596809759218244
1789759679152207000,5.00920703125,1.3789414983063935,-1.454419348616898,1.0121243480421602
1789759679162216200,5.01921630859375,0.33746319161653515,-0.6622776218011975,0.9198492383182049
1789759679172225000,5.02922509765625,-0.02990764700770378,-1.3283967214614152,1.0174336334314196
1789759679182234000,5.039234130859375,-0.02958206831514835,-1.338815239623189,1.0609006539098917
1789759679192244000,5.049243896484375,-0.540361260920763,-0.3823804839685559,0.9442969394195825
1789759679202253000,5.059253173828125,-0.05389759440422058,-0.3737473879188299,0.47479178729280824
1789759679212262100,5.06926220703125,0.6713081927359104,-0.7928916684001683,0.4357896372687071
1789759679222271200,5.079271240234375,0.8026911778807639,-1.0161930587857961,0.11330087355263531
1789759679232281000,5.089281005859375,0.5625087953209876,-1.04673432752192,0.4761923017404973
1789759679242290000,5.0992900390625,-0.4895961193233728,-0.012434241898357868,0.6792233497746288
1789759679252299000,5.109299072265625,-0.03949848217368126,-2.1439760224878786,0.7047266243435442
1789759679262308000,5.11930810546875,-0.41960371468663216,-0.9377490521460771,0.48163617329485714
1789759679272318200,5.129318115234375,-0.2758709510564804,-1.2839680894091725,1.1555866972330957
1789759679282327300,5.139327392578125,0.04153086478412151,-1.3603580861285327,0.9422276588648557
1789759679292335900,5.1493359375,0.4149263705253601,-0.8162292893677949,1.409566061411798
1789759679302346000,5.159345947265625,1.4282248769134283,-2.4429224364444613,0.9322115840241313
1789759679312355000,5.16935498046875,1.0767056874155998,-1.8330141765668988,1.2853868701659141
1789759679322364200,5.1793642578125,0.37641222321391105,-0.37242666070908303,2.423634967650473
1789759679332373200,5.189373291015625,0.1019634139150381,-1.0339134243935346,2.357019784361869
1789759679342383000,5.199383056640625,-0.2140221053868532,-1.571407605445385,2.377090804748982
1789759679352392200,5.20939208984375,-0.35431612673997875,-1.4422168696478008,1.5947127854481338
1789759679362401000,5.219401123046875,-1.081733160188794,-0.06294073255956173,1.6841756142303346
1789759679372410000,5.22941015625,-0.9727841251701116,-0.5435787616625428,1.6354431475043296
1789759679382420000,5.239419921875,0.24101123459935186,-1.7161761418640613,1.7228334077961742
1789759679392429000,5.249428955078125,-0.015497428861260413,-1.1088681276127694,0.9675555768668651
1789759679402438100,5.259438232421875,-0.4871785367876291,0.22761486967056987,0.4891805242598056
1789759679412447200,5.269447265625,0.07708791585564613,-0.3971317706376314,0.3558488892652094
1789759679422457000,5.27945703125,-0.18230244052112102,-0.471460450913012,0.30279242186024785
1789759679432466000,5.2894658203125,-0.5328904866486788,-0.5970926174461841,0.2712871303975582
1789759679442475000,5.29947509765625,-0.9791945767343043,-0.13182108430117367,0.3065292703010142
1789759679452485000,5.309485107421875,-0.022042904981970785,-0.7217883799120783,0.15791721019670366
1789759679462494200,5.319494140625,0.4506991101741791,-1.2344982483193279,0.3269286458596587
1789759679472503300,5.32950341796875,0.3437742744594812,0.09513765954822301,0.17227087585031986
1789759679483765200,5.34076513671875,0.3437555697590112,0.09292378289103508,0.177097273093462
1789759679494399000,5.35139892578125,0.3433312068670988,0.09227057967931032,0.18093816643059252
1789759679504409000,5.3614091796875,0.6074971070826053,-0.4060241021454334,0.09574147066026925
1789759679514418200,5.371418212890625,1.1809697794884442,-0.9463067448720336,0.3051071285434067
1789759679524427300,5.38142724609375,0.63688102247715,-0.679794573791325,0.49936099588200444
1789759679534436000,5.39143603515625,0.3814923029571771,-0.604144581784308,0.9582882745668292
1789759679544446000,5.401446044921875,-0.4841898763656616,0.5030865922763943,1.457402309950441
1789759679554455000,5.411455078125,-1.0460901843994854,-0.4000751306131482,1.2553744476094841
1789759679564464000,5.421464111328125,-1.4218401443123816,-0.06255524037331342,1.153573530779779
1789759679574473200,5.43147314453125,-0.7332669285207987,-0.33793548530340195,0.6463169593423604
1789759679584483000,5.441483154296875,0.09801789115965366,-0.5825339307397603,0.03890124693289399
1789759679594492200,5.4514921875,0.6752730047136545,-0.41092268784195185,0.4138241083718836
1789759679604501000,5.4615009765625,0.8696154271185398,-0.4791659107238054,0.9521838202118873
1789759679614510000,5.471510009765625,0.10167992079854012,0.13094693181514738,0.9002081337809562
1789759679624520000,5.48152001953125,-0.34922143394947047,-0.5692120923519134,1.0950042913027107
1789759679634529000,5.491529052734375,-0.8889069875657558,0.0067924366191029545,0.7933079941160976
1789759679644538000,5.5015380859375,-0.6331570335179567,-0.7467094706788658,0.24740005885362623
1789759679654547200,5.511547119140625,-0.10474690715372562,-0.7159113045722246,0.1022873851723969
1789759679664557000,5.52155712890625,0.6593728402704,-0.958348188060522,-0.14279299856200814
1789759679674566100,5.531566162109375,0.9078881668895482,-0.6312155440613627,-0.3304495134621858
1789759679684575000,5.541574951171875,0.9892740722000598,-1.4584344294771552,0.7305978554420173
1789759679694585000,5.551585205078125,0.3511959488928318,-0.6274149827346205,1.0179444324977696
1789759679704594200,5.56159423828125,-0.6222364110529423,-0.3743342478960752,0.8953447655282915
1789759679714603300,5.571603271484375,-0.9797235690444708,-0.31145927404910323,0.5745460007257759
1789759679724612000,5.581612060546875,-0.11630641204416751,-1.229044659088552,0.19871800714060664
1789759679734622000,5.5916220703125,0.09751227972507476,-0.5982765665337443,0.21434914538413286
1789759679744631000,5.601631103515625,1.0146271246433258,-1.3275377665445207,-0.03104834147542715
1789759679754640100,5.61164013671875,0.5968599777340888,-0.6535942568689584,0.024922844332456586
1789759679764649200,5.621649169921875,0.9743635033160447,-1.6257175800427794,0.5547654877178371
1789759679774659000,5.6316591796875,0.27278642904460426,-1.2420301051288842,0.9623749593585729
1789759679784668200,5.641668212890625,-0.10513795229792594,-1.1391837708994745,1.138284191711247
1789759679794677000,5.651677001953125,-0.021935352954268454,-1.170159047138691,0.4943224171929061
1789759679808440300,5.6654404296875,-0.17865151679813862,-1.0571247886329889,0.7721579463206231
1789759679819074000,5.676073974609375,0.7446627672821283,-1.063676402233541,0.55424248675704
1789759679829083100,5.686083251953125,0.8851058417171239,-0.918308438616991,0.5132113881886005
1789759679839092000,5.696092041015625,0.883279795333743,-1.2543886514425278,0.3199151138357818
1789759679849102000,5.70610205078125,-0.10199497809708118,-0.3297027867481112,0.10120894228592514
1789759679859111200,5.716111083984375,-0.3737672616630792,-0.8273188386589289,0.4897681148894131
1789759679869120000,5.7261201171875,-0.3315864085376262,-0.763923055808246,0.6267069805957377
1789759679879129000,5.736129150390625,0.0024099837511777876,-0.5840332293868065,0.42417964430004357
1789759679889139200,5.74613916015625,1.0732733748793601,-0.7463315772771835,0.5201308121882379
1789759679899148000,5.75614794921875,1.8347206882238387,-0.8155401380598545,0.07945844437927008
1789759679909157000,5.7661572265625,1.0284323626339436,-0.7805316607818007,0.3281052884235978
1789759679919166200,5.776166259765625,-0.1293693072348833,-0.43194034142941234,0.8662494578167795
1789759679929176000,5.786176025390625,-0.20229834984540937,-0.8060419496133923,1.3413354057505726
1789759679939185200,5.79618505859375,-0.8618079682379961,-0.29090631536394357,1.2601786330208182
1789759679949194200,5.8061943359375,-0.22828034784197807,-0.49667409488558767,1.6247367523118852
1789759679959203000,5.816203125,1.158045415496826,-2.110416282713413,0.7296579442434012
1789759679969213000,5.826212890625,0.8461907123893498,-0.35408085667937994,1.1808953990779816
1789759679979222000,5.836221923828125,0.8581225577235221,0.34333442173749207,1.5220026462852954
1789759679989231000,5.846231201171875,1.1344658024668692,-0.497266507820785,1.799292231968045
1789759679999241200,5.8562412109375,-0.8027011147528886,-0.5683361863002181,2.011706463766843
1789759680009250000,5.86625,-1.9865537562012672,-0.5652729993373156,2.1700728790357706
1789759680019259100,5.876259033203125,-1.255781567105651,0.001058276881277561,1.1374452566690743
1789759680029268000,5.88626806640625,0.7726601967543363,-0.008190905240178108,0.5500606710277497
1789759680039278000,5.896278076171875,2.600102418407798,-0.8879936721131205,-0.28850203070119024
1789759680049287200,5.906287109375,2.755020008397102,-1.4809309234455228,-0.058226417388767
1789759680059296300,5.916296142578125,1.9649995115190744,-0.4521870106443763,1.4721296312220393
1789759680069305000,5.92630517578125,-0.22580431311726568,-0.2785775796666741,1.7138609967894851
1789759680079315200,5.936315185546875,-1.8256378025799989,0.4650102518603205,2.61182909655869
1789759680089324000,5.946323974609375,-1.405699741372466,0.0888464504495263,2.211250108076632
1789759680099333000,5.9563330078125,-0.03593815934360027,-0.9404419444918632,1.2012788464151323
1789759680109342200,5.96634228515625,0.4340227006614208,-1.012192883233726,1.6377007171727715
1789759680119352000,5.97635205078125,0.9359820424735545,-0.749415222506225,1.9086061547763644
1789759680129360600,5.986360595703125,0.056199441605806345,-0.29458821874707936,2.457454819665849
1789759680139369700,5.99636962890625,-0.8256400917917489,-0.05640723913758993,2.939801698513329
1789759680149378600,6.006378662109375,-1.0541086556822061,-0.41975919750928875,2.9243787961930034
1789759680159388400,6.016388427734375,-0.8253641974598169,0.009848901580274105,2.922867222586274
1789759680169397500,6.0263974609375,0.7447410932153463,-0.8336518410727382,2.618857972282171
1789759680179406600,6.036406494140625,1.339449445873499,-0.33533582419902086,3.0704195445045825
1789759680189416700,6.046416748046875,1.0947709209382532,-0.6401493766233325,2.781083839458227
1789759680199425800,6.05642578125,-0.4888911859244108,0.4499216960608959,2.677960149592161
1789759680209434600,6.0664345703125,-0.741966367805004,-0.2125657690986991,2.4876094271719453
1789759680219443500,6.076443359375,-1.6364350811511277,0.09662088384330272,2.220827499239147
1789759680229453600,6.08645361328125,-0.9753162739962339,-1.4414435471877456,1.7637034705840051
1789759680239462700,6.096462646484375,-0.8172615550249814,-0.2271329313725233,2.0811817126616834
1789759680249471700,6.1064716796875,-0.20407412734627722,-0.21553952421247957,1.8912388403899967
1789759680259480800,6.116480712890625,0.02651040578484535,-0.5718161373704671,2.4768133078694343
1789759680269490700,6.12649072265625,-0.7742500962942839,0.46458910383880136,1.9346188401721416
1789759680279499500,6.13649951171875,-1.0614356375694274,0.46860856861323114,1.8595652066230772
1789759680289508600,6.146508544921875,-1.175347263431549,0.23412878160923717,1.9709091739542781
1789759680299517700,6.156517578125,-0.706768213173747,-0.3212999923229217,1.6361362443350254
1789759680309527600,6.166527587890625,0.09081891956627368,-1.3838497286140918,1.1605196966558695
1789759680319536600,6.17653662109375,0.06605448066592216,-0.8288520395755767,1.4862008266724644
1789759680329545700,6.186545654296875,0.2382043604850769,-0.9064055271163582,1.5635881638661027
1789759680339554600,6.196554443359375,-0.8253793950289487,0.3587815817162394,2.2500080010160803
1789759680349564700,6.206564697265625,-1.52561206895411,-0.6078738314405083,1.9801602557718752
1789759680359573500,6.216573486328125,-2.301922604909539,-0.1997311297059059,1.739259788070619
1789759680369582600,6.22658251953125,-2.5910288851141927,0.19004881686419248,1.2271598682552576
1789759680379592700,6.2365927734375,-0.7775929769814014,-1.005441655407846,0.7595037780612707
1789759680389601800,6.246601806640625,1.189976677286625,-1.5675833709821103,-0.448517089959979
1789759680399610600,6.256610595703125,0.09667641342282295,-0.5963876840472221,-1.2346607454046605
1789759680409619500,6.266619384765625,0.75234338491261,-0.24955051488578317,0.27044717244207855
1789759680419629600,6.276629638671875,-0.44369419984817504,-1.1725503261893988,0.2070855841219425
1789759680429638700,6.286638671875,-0.6885550956130028,-2.748831967411935,0.41020927887558933
1789759680439647700,6.296647705078125,-0.4746656766951084,-2.117774244260788,1.1134081091299652
1789759680449656800,6.30665673828125,-0.9755933373719453,-1.2862559080854057,1.7885417053729296
1789759680459666700,6.316666748046875,-0.5017284556657076,-2.031577431537211,1.3134011046424507
1789759680469675500,6.326675537109375,-1.5789105284214018,-0.5830170380815863,3.0593162589490412
1789759680479684600,6.3366845703125,-2.172286171171069,-0.6710296680554747,2.4482427546843883
1789759680489693700,6.346693603515625,-1.408055364587903,-0.7754200168564915,2.7773119197040796
1789759680499703600,6.35670361328125,-0.1417909819126129,-1.1946321018770336,2.3394433572694657
1789759680509712600,6.366712646484375,1.0421832400888205,-1.6590940722048282,1.3673891538091003
1789759680519721700,6.3767216796875,1.3136778757572174,-0.8393211188808083,1.300360713544488
1789759680529730600,6.38673046875,0.8075836260974407,-0.46779462188184256,1.3939026283338665
1789759680539740700,6.39674072265625,-0.8065876007974148,0.04238602030873299,1.0286376759476958
1789759680549749500,6.40674951171875,-0.8992489333599806,-0.6449564846441149,0.8869201976627111
1789759680559758600,6.416758544921875,-1.2293500717759132,-0.33177959302216764,0.17782076506242156
1789759680569768700,6.426768798828125,-0.0586415740609169,-1.1283438124552367,-0.18376286846250295
1789759680579777800,6.43677783203125,0.12850129222869872,-0.5356099747404456,-0.4607333051934838
1789759680589786600,6.44678662109375,0.23437749567329882,0.11371318068057298,-0.1757891131043434
1789759680599795500,6.45679541015625,0.25477380249202247,0.4282335958659649,-0.02796981081292033
1789759680609805600,6.4668056640625,0.09523673600852489,0.4296197895273566,-0.5846404014997184
1789759680619814700,6.476814697265625,1.0333516988575457,-0.8380874854326248,-0.6002483049981295
1789759680629823700,6.48682373046875,0.47426177206933495,-1.5424544826835394,0.6428130428746343
1789759680639832800,6.496832763671875,-0.1304278763771057,-0.4860749594599008,0.19124021860584617
1789759680649842700,6.5068427734375,-1.1497118869155645,1.5001321752607821,-2.502058808284998
1789759680659851500,6.5168515625,0.6687392190307379,-0.7637713723778724,-0.08051482156440615
1789759680669860600,6.526860595703125,0.7385428230971097,-0.729142834328115,0.521821103362739
1789759680679869700,6.53686962890625,0.7930442286133765,-0.6892655819699168,2.1060725544206798
1789759680689879600,6.546879638671875,-0.3881926773786545,1.048169036500156,2.179638433630019
1789759680699888600,6.556888671875,0.35277824964821336,-1.4761846057012675,1.8686425393089652
1789759680709897700,6.566897705078125,0.3522627013415098,-1.9084554942592977,0.9939197060488164
1789759680719906600,6.576906494140625,-0.902549143949151,0.6539721502706408,2.1937166433431208
1789759680729916700,6.586916748046875,-1.133129000905156,0.0380938760727644,1.3183182489089667
1789759680739925500,6.596925537109375,-0.44771629497110843,0.08868453788608312,1.1615775351457298
1789759680749934600,6.6069345703125,0.78544719761312,0.3149319185957312,0.7378430042646825
1789759680759944700,6.61694482421875,1.2377882297754288,0.372150766377151,-0.3588391571223736
1789759680769953800,6.626953857421875,0.9837982711374759,-0.030679215902090072,-0.30041210259497164
1789759680779962600,6.636962646484375,0.7184159808695316,-0.11574205615967512,-0.34129641310386355
1789759680789971700,6.6469716796875,0.22112112373709678,-0.6476189818516374,-1.5463045822404324
1789759680799981600,6.656981689453125,-0.5525631553679704,0.08097410963922738,-1.4431053429201244
1789759680809990700,6.66699072265625,-0.4572539386451244,0.24199615398347377,-1.940675948254019
1789759680819999700,6.676999755859375,0.625625468969345,-1.2303311917677522,-2.2203397157222033
1789759680830008800,6.6870087890625,0.7679314146667718,-0.5908715509742498,-1.4900152703940868
1789759680840018700,6.697018798828125,0.5168097049415111,-0.15526713407933712,-0.8185454573556781
1789759680850027500,6.707027587890625,1.3941057496905327,-1.0252455492913723,-0.7337952632438391
1789759680860036600,6.71703662109375,2.6008114434599876,-1.1656401084095238,-0.8530280110634862
1789759680870045700,6.727045654296875,1.9218442604035137,-0.4285749566495418,-0.44980435329154134
1789759680880055600,6.7370556640625,0.1974965025216341,0.4840867082521319,-0.39658867673687637
1789759680890064600,6.747064697265625,-1.4729606752187012,0.7945870741412043,-0.1299633276052773
1789759680900073500,6.757073486328125,-1.0844564476728438,-0.09022796793580054,0.5835770831171423
1789759680910082600,6.76708251953125,-0.5399263766348361,-0.660430240368843,0.6585070172213018
1789759680920092700,6.7770927734375,-0.35256139202713965,-0.4706672547087073,0.24736356276813892
1789759680930101800,6.787101806640625,-0.44117081885039805,-0.7003074927270412,-0.14145210534706712
1789759680940110600,6.797110595703125,-0.20367899054884908,-0.18467296904474495,0.16861991559471934
1789759680950120700,6.80712060546875,0.015139701464772224,0.04743628943562507,0.8541575996153056
1789759680960129800,6.8171298828125,0.723652127957344,-1.2977797571405767,1.7502395933769643
1789759680970138600,6.827138671875,0.40474984442591666,-0.05403349574357271,1.4545108262926338
1789759680980147700,6.837147705078125,0.43777182406187054,0.19214491236060857,1.5061372608944772
1789759680990157600,6.847157470703125,1.5870131708562374,-0.3442731638923287,0.5186406101631
1789759681000166700,6.857166748046875,1.4011241040199993,-0.5534791011691094,-0.5749569561468437
1789759681010175700,6.86717578125,1.6637211474835871,-1.574695541074872,-0.30279165467526764
1789759681020184800,6.877184814453125,0.9672323362618684,-0.970856956499815,0.5959960909137502
1789759681030194400,6.8871943359375,-0.13318097447752952,-0.45898266213387245,0.9423436864599585
1789759681040203500,6.89720361328125,-1.2561387099802492,-0.13688392064869404,0.825154573297128
1789759681050212600,6.907212646484375,-1.856570700982213,0.06203209328204393,0.10168061491828412
1789759681060221700,6.9172216796875,-0.5999047522574663,-1.3221034665361047,0.2871030323571525
1789759681070231600,6.9272314453125,1.0059832149386405,-1.5270231047958134,1.0280942167207598
1789759681080240600,6.93724072265625,2.384609655946493,-1.4305124033287167,1.2201439250785857
1789759681090249500,6.94724951171875,1.6699065581202506,-0.3940162689656019,1.8823972161561249
1789759681100258600,6.957258544921875,0.009892448461055754,0.5960577214404941,1.7184791581094263
1789759681110268700,6.9672685546875,-1.5074854606330395,-0.004415478354692459,1.2696098937109113
1789759681120277800,6.97727783203125,-1.0922112995833158,-1.2482137621998786,1.7590744956091044
1789759681130286300,6.987286376953125,0.533003883895278,-1.0593129463270305,1.8863354323878883
1789759681140295400,6.99729541015625,1.883672642919421,-1.4248688444837927,2.556310915215313
1789759681150305300,7.00730517578125,0.3387555695146322,0.4995610484987497,2.425046295753121
1789759681160314400,7.017314453125,-0.7374713944733142,0.6135360949859022,1.4925233076922595
1789759681170323500,7.027323486328125,-0.7501490897387266,-0.4553799614667892,1.2655159023955465
1789759681180333300,7.037333251953125,-0.3776823892802,-0.4479641322523355,1.3216226972818375
1789759681190342400,7.04734228515625,0.6708031658232212,-0.7281763273835182,1.9039517530992627
1789759681200351500,7.0573515625,-0.1339665718972683,1.2699305039674043,1.7946970131322741
1789759681210360300,7.0673603515625,0.21458090831339358,0.5454153294399381,1.6574116720758378
1789759681220370200,7.0773701171875,-0.22002339162826537,0.8426429567798972,0.6247922330155968
1789759681230379300,7.087379150390625,-0.5125134690523148,-0.05728606779873371,0.9899839740350842
1789759681240388400,7.097388427734375,-0.12298399011194705,-0.6986398517757654,1.3451421045571565
1789759681250397400,7.1073974609375,0.7748252658337355,-0.7394765968158841,1.9440498086012898
1789759681260407600,7.117407470703125,1.1101526144653557,-0.6747746998026967,1.5601698798552155
1789759681270416400,7.12741650390625,0.4435650205105543,-0.11685703166425228,1.4614774504348635
1789759681280425200,7.13742529296875,-1.375339089900255,0.8536059570819139,1.0643212760083376
1789759681290434300,7.147434326171875,-1.3406938929766417,0.05223404510617256,0.9258568812351673
1789759681300444400,7.1574443359375,-0.6135112528055906,-0.08657587516903877,0.8262377654239534
1789759681310453500,7.16745361328125,1.0907155080676079,-0.7865943218216299,1.2548209053799508
1789759681320462600,7.177462646484375,1.4462123690247535,-0.36255057886093855,1.0447759599957616
1789759681330471200,7.18747119140625,1.8776836316376924,-0.8400280981063842,0.9237304636657238
1789759681340481300,7.197481201171875,0.969745195865631,-0.06211889478266239,0.8466769615363329
1789759681350490400,7.207490478515625,1.1277701042205095,-1.3081217029348016,1.2572814502745866
1789759681360499500,7.21749951171875,0.019000468546152113,0.3313105142056942,1.1647479818753896
1789759681370508500,7.227508544921875,-0.3000976298183203,-0.24113719906657932,0.8568130094949156
1789759681380518400,7.237518310546875,-0.4988502698808908,-1.0927601656377315,1.2574050766542553
1789759681390527500,7.247527587890625,-1.825301702493429,0.6994646121621132,1.1219387677185237
1789759681400536300,7.257536376953125,-0.7295142979890108,-0.989413772931695,1.1624052912067622
1789759681410546200,7.267546142578125,0.37973464563488957,-0.8554019005879759,1.3925968064323067
1789759681420555300,7.27755517578125,0.9924006797879934,-0.17980770109593866,1.2552055207833648
1789759681430564400,7.287564453125,-0.048718145939707753,0.8950169948786496,1.260225394771993
1789759681440573400,7.297573486328125,-0.5914098956346512,-0.13310644793659449,1.5370141913257538
1789759681450583600,7.30758349609375,-0.2199129169911146,-1.2475266567185521,0.9298897169478237
1789759681460592400,7.31759228515625,0.04718728311061859,-1.368446115516126,1.1295183361273258
1789759681470601200,7.327601318359375,0.449886040225625,-0.7803332156002522,1.0597422776550054
1789759681480610300,7.3376103515625,0.5984007774353027,-0.7583996162116527,1.1791378148209304
1789759681490620400,7.347620361328125,-0.5121662630498409,-0.39816169820725916,1.0737462530881166
1789759681500629500,7.35762939453125,-1.6552292134702205,0.37519378733485936,0.7232634939659387
1789759681510638600,7.367638671875,-0.1991682351261377,-0.6465346937462687,0.6223856102652847
1789759681520647200,7.377647216796875,1.070771036669612,-0.5510051122710108,0.8545848120514303
1789759681530657300,7.3876572265625,0.8916010489553212,0.7540142407342791,0.6952806044757366
1789759681540666400,7.397666259765625,0.6669581808328628,-0.04023293392807245,1.3461911752186715
1789759681550675500,7.407675537109375,-1.1527519852638244,0.5872685580462217,1.0413822259042411
1789759681560684500,7.4176845703125,-1.3948434163153172,-0.5095891060382127,0.5320624383267015
1789759681570694400,7.4276943359375,-1.7194582322746514,0.8074553235426545,0.6489439468450844
1789759681580703500,7.437703369140625,-0.19559505281448364,-0.7571601375445723,0.43802097651734945
1789759681590712300,7.44771240234375,0.7772849339455365,-0.646364305615425,0.6345009954728186
1789759681600721400,7.457721435546875,0.01768997046947479,-0.01246112990528345,1.132505462179333
1789759681610731300,7.467731201171875,-0.10313187317252158,-0.9740922851592302,1.8065131231322884
1789759681620740400,7.477740234375,-0.6196919872671366,0.7902133891016244,1.614794911751151
1789759681630749400,7.48774951171875,1.4407435822248458,-0.7878013595238328,0.9352034593164921
1789759681640759600,7.497759521484375,2.0986703153401614,-0.6844675340384244,0.9409658222354947
1789759681650768400,7.507768310546875,1.086625023883581,-0.6293342603594064,1.3498171106308698
1789759681660777200,7.517777099609375,-1.7037299172669649,0.8736343073710798,1.821589842363447
1789759681670786300,7.527786376953125,-2.5601801578640937,-0.16210808601528406,1.8760045925095676
1789759681680796400,7.53779638671875,-2.669026901552081,0.2934299886226654,1.1437244830690323
1789759681690805500,7.547805419921875,0.14619535435140132,-1.64989603574872,0.3068881667412817
1789759681700814600,7.557814697265625,0.829584445503354,-0.37276714470982547,1.0102623535625637
1789759681710823400,7.567823486328125,2.569074242937565,-1.3033017354324459,1.359302147334814
1789759681720833300,7.577833251953125,1.640634286406636,-1.1543278562784194,1.0334108816988765
1789759681730842400,7.58784228515625,-0.06270867736935615,-0.7188999649941921,1.4944332329668104
1789759681740851500,7.5978515625,-2.6379361822396517,0.41216947303265333,1.5332131916075944
1789759681750860500,7.607860595703125,-2.310698032039404,-0.503217817440629,0.8920167901493609
1789759681760870400,7.617870361328125,0.39824762292504307,-1.702261890541017,0.6801514244049787
1789759681770879200,7.627879150390625,2.0823767676651475,-2.278047223803401,0.31149186114445326
1789759681780888300,7.637888427734375,2.3132015392929315,-1.2127063954889774,0.42087578044906254
1789759681790897400,7.6478974609375,0.8914087412536144,-0.6377066596463322,0.8811055200345814
1789759681800907300,7.6579072265625,-1.2786486479520798,0.4270645520865917,1.2591696021087466
1789759681810916400,7.667916259765625,-2.2825813601016995,-0.34768794077187776,0.46810003456920385
1789759681820925400,7.677925537109375,-1.4280904368788003,-0.21488398291319608,-0.17439590518027542
1789759681830934300,7.687934326171875,0.17525076844394205,-0.4944014737784862,-0.04934636084064841
1789759681840944400,7.6979443359375,1.1184335360765456,-0.4656432890668511,0.8654724090296775
1789759681850953200,7.707953125,2.0200743330091235,-1.896544691713154,0.7071388000518083
1789759681860962300,7.71796240234375,1.3380758194327353,-1.2828487299904225,0.6684560912404209
1789759681870972400,7.727972412109375,-0.7835662061721086,-0.5214104767352342,0.46824426534548397
1789759681880981500,7.7379814453125,-2.136032370007038,0.18724135822802782,0.7517458574108778
1789759681890990600,7.747990478515625,-2.120835969918966,0.9109896400362253,0.7861720047563314
1789759681900999400,7.75799951171875,-0.3761106099188328,-0.43664457359761,0.1234022155240178
1789759681911009300,7.76800927734375,1.0942173787087202,-1.174045825444162,0.34530842522419986
1789759681921018400,7.778018310546875,1.1712328138500452,0.21692864048331975,0.3674413465771824
1789759681931027500,7.78802734375,0.8009037099421024,0.2814373530119657,0.30581944153122603
1789759681941036500,7.79803662109375,-0.09119067548811435,-0.09956219799220561,0.07830364832095801
1789759681951046400,7.80804638671875,-0.5532739339858294,-0.45996378212571143,0.17710516413897276
1789759681961055200,7.81805517578125,-0.13064122686684132,-1.392346046541631,0.386543887258321
1789759681971064300,7.828064208984375,-0.4499292948454618,0.2755120546162128,0.3785799226418137
1789759681981073400,7.838073486328125,0.5797580362856388,-0.5040647896587849,-0.7923959207724779
1789759681991083300,7.848083251953125,1.557277957805991,-1.8568664690583943,-0.4397621941614896
1789759682001092400,7.85809228515625,-0.2577057642906904,0.08113397637605667,0.14590243581943213
1789759682011101400,7.868101318359375,0.6588374182194471,-1.2920397521838545,0.6313427506376057
1789759682021110300,7.8781103515625,0.5115928470760583,0.3446601173833012,0.5723694604042917
1789759682031120400,7.888120361328125,0.8155518284976482,0.23107933091074226,-0.4124747395895421
1789759682041129500,7.89812939453125,0.44957156744897364,0.8800301458880305,-1.0359913997113703
1789759682051138300,7.90813818359375,0.18936288042664526,-0.7059118886053561,-0.48905908983722324
1789759682061147400,7.9181474609375,0.04306698831021785,-0.7816451749816536,-0.34237507518604393
1789759682071157500,7.928157470703125,-1.9536282226771116,-0.34971447816342116,0.5963445024926215
1789759682081166600,7.93816650390625,-2.945786325880885,1.2979162430018185,-0.21175160317160188
1789759682091175400,7.948175537109375,-0.66416591976583,-0.8640954946532845,-0.8313025014676153
1789759682101184300,7.958184326171875,1.8982225617974995,-0.8512441963866353,-0.8673248319633304
1789759682111194400,7.9681943359375,4.0942227860331535,-1.1015317933753133,-0.2605702138110995
1789759682121203500,7.978203369140625,3.0528339111924168,0.3138417852714658,0.3860272064404562
1789759682131213000,7.988213134765625,-0.35302316431999203,1.5309432008489965,0.6857141730986536
1789759682141223000,7.998222900390625,-3.1733196547478437,1.662839396212995,0.3104361780790612
1789759682151232000,8.00823193359375,-4.043630078393221,0.21247487594485281,-0.027969774280302225
1789759682161241000,8.018240966796874,-2.0621353591471907,-0.8604743815466761,0.2505273970939219
1789759682171250200,8.028250244140626,0.06849953573048115,-0.29729601640105247,0.6926268750965595
1789759682181260000,8.038260009765626,1.703953204628825,0.15133476306647062,0.8913617603067309
1789759682191268900,8.048268798828126,1.3013725209355353,0.29631694223582744,1.0963804019615053
1789759682201278000,8.05827783203125,0.7227870355606079,0.03393237247914076,1.3127829727441072
1789759682211287000,8.068287109375,-0.27110885122120376,0.24961393551081418,0.8565937407210469
1789759682221297200,8.078297119140625,0.16900339848697185,0.3714446639344096,1.2005518473148344
1789759682231306000,8.088305908203125,1.2391244468152522,-0.11379793635457754,1.1318922256518156
1789759682241315000,8.098315185546875,1.0963836168318986,-0.2888245406538248,0.5802254346016794
1789759682251324000,8.108323974609375,-0.3350046925485134,-0.8967807896807789,1.4566732650235295
1789759682261334000,8.118333984375,-1.8504396508812904,-0.34130642304122444,1.260681175715476
1789759682271343000,8.128343017578125,-1.7296335893303154,-1.0727151564747095,1.8922522552162409
1789759682281352000,8.13835205078125,0.4312690180391073,-1.878387395992875,1.1833538981460034
1789759682291361000,8.148361083984375,1.0649112047255038,-0.1571133464679122,-0.9120464556127786
1789759682301371100,8.15837109375,1.2868307853639125,-0.01645516797751188,-0.9411280270598829
1789759682311380000,8.1683798828125,0.3155681706726551,0.875506530983746,-0.3603637363411486
1789759682321389000,8.17838916015625,-0.25414368789494035,0.21568507016301153,0.43674109277464446
1789759682331398000,8.18839794921875,-0.7304886959791183,0.6410556778132915,0.5067436900118366
1789759682341408000,8.198407958984374,-0.2149585094541311,-1.4581164495691656,0.18327490228246895
1789759682351417000,8.2084169921875,-1.4648153626859188,0.24385931750684975,-0.8446434098821133
1789759682361426200,8.21842626953125,0.04354629625976086,-1.6004033983051775,-1.0704526914354413
1789759682371436000,8.22843603515625,1.2229694308280945,-0.4885746673211455,-0.7428899123907089
1789759682381444900,8.23844482421875,1.8702701405107973,-0.6318859906688332,0.13687262293654492
1789759682391454000,8.248453857421875,0.03435176693499088,0.06630670186132193,-0.6722484692607075
1789759682401463000,8.258463134765625,-1.2349421926945447,-0.5839429207548499,-0.6516600739359856
1789759682411473200,8.26847314453125,-1.8091168758898972,1.1844327794238925,-0.6220617851383984
1789759682421482000,8.27848193359375,0.5436047728866339,-0.6600245821774006,0.5595193311814218
1789759682431490800,8.28849072265625,0.8731225584566593,-0.18420125987976788,0.28882074126154184
1789759682441500000,8.2985,0.565070754763484,0.27224048559963704,0.6662273823402821
1789759682451510000,8.308510009765625,0.8351368189334869,-1.3840537267535924,0.6421716031659395
1789759682461519000,8.31851904296875,0.3598345979005098,-1.2101952894508838,0.6258350200667977
1789759682471528000,8.32852783203125,0.08253682891130447,0.3626794659376144,0.36627117028664796
1789759682481537000,8.338537109375,0.5762549966007471,0.03248568080216646,0.5308522588193416
1789759682491547100,8.348547119140624,0.7547738269299268,0.5076674903258681,1.13127548199296
1789759682501556000,8.358555908203124,0.5655927328109741,0.37809126234203577,0.7249629913602024
1789759682511565000,8.36856494140625,0.09091945733129977,0.11663403656333685,0.464675978404656
1789759682521574100,8.37857421875,-0.22669278638958928,-0.3294575798153877,0.2615882317472249
1789759682531584000,8.388583984375,-0.7185317162036895,-0.252118904069066,0.23589887828798964
1789759682541593000,8.398593017578126,-0.4452817613005638,-0.3977019717410207,0.23582382202409208
1789759682551602200,8.408602294921875,-0.4316097943007946,0.5367401478141546,0.1579674790792167
1789759682561611000,8.418611083984375,0.415030999943614,-0.6606964900895953,0.16352668410893528
1789759682571620900,8.428620849609375,0.1654629494011402,-0.262389538192749,0.9907609497569501
1789759682581630000,8.4386298828125,0.6072697280675172,-0.7547633055359124,0.8575856013026087
1789759682591639000,8.44863916015625,1.321770581319928,-0.1618108566343784,-0.05430529842227697
1789759682601648000,8.458648193359375,1.4038818782955407,0.7838836015582085,0.45602081665359434
1789759682611658000,8.468657958984375,0.28181086249947546,1.0326198774516582,0.08424455527779645
1789759682621666800,8.478666748046875,-0.9352665876805781,-0.024928105029463767,0.4072121428862214
1789759682631676000,8.488676025390625,-1.4981307723104953,-0.17665420550107955,0.7893193628713489
1789759682641686000,8.49868603515625,-1.154118012920022,-1.1730398632720112,0.5919072506975382
1789759682651695000,8.508695068359375,-0.8130202641934156,-0.5482628278255463,0.356443128831312
1789759682661704000,8.518703857421874,-0.21853519889712333,-0.3467114969551563,0.746504011234641
1789759682671713000,8.528713134765624,1.1871914304822682,0.10595482163876295,1.1069755918644368
1789759682681723100,8.53872314453125,2.6039719533175227,-0.5474997344985604,1.11579135100469
1789759682691732000,8.54873193359375,2.9007442381054163,-0.5740864203900099,0.7965134390939027
1789759682701741000,8.558740966796876,1.2254080561518668,0.12217238146811724,1.1187065808642656
1789759682711750100,8.568750244140626,-1.934729460939765,0.9832830150917172,1.3406025614313781
1789759682721760000,8.578760009765626,-2.6744828288704157,-0.0683992902263999,0.7433870482578874
1789759682731769000,8.58876904296875,-3.378829952377081,0.34811522627323865,0.6573492985535413
1789759682741778000,8.59877783203125,-1.8962796110361813,0.10545154829174279,0.24958759549316017
1789759682751787000,8.608787109375,0.3199713740676641,-0.18645809889584777,-0.01468212585642468
1789759682761796900,8.618796875,1.404877319073677,-0.0037640287086367604,0.3089755309419706
1789759682771806000,8.628805908203125,1.3415502175450325,0.09806699099838734,0.6666749069120734
1789759682781815000,8.63881494140625,0.027495909690856933,1.2767986361712216,0.43256490306854245
1789759682791824100,8.64882421875,0.38288989479541774,0.8771040293082595,-0.12837089818152597
1789759682801834000,8.658833984375,0.2796802802115679,0.6237678584039211,-0.5710364947674795
1789759682811842800,8.6688427734375,0.2453711833745241,-0.20553134041726587,0.1965517872837372
1789759682821852000,8.678851806640624,-0.46871524385809893,0.08335749764442443,0.44807413196545093
1789759682831861000,8.688861083984374,-0.7520826881498098,0.19057956274002788,0.6262252614933997
1789759682841871000,8.69887109375,0.16846446930468081,-0.9433148695796728,-0.11928947384241036
1789759682851880200,8.708880126953124,0.4593529567509889,-0.28009470623135563,-0.3114980351569131
1789759682861889000,8.718888916015626,0.3937111485391855,-0.12838146524131297,0.8649789994895458
1789759682871897900,8.72889794921875,-0.35986382399499417,0.23158611138910054,0.041251161926751954
1789759682881908000,8.738907958984376,-0.886290083065629,0.028211364483833313,0.045314137049345296
1789759682891917000,8.7489169921875,-0.6880927387982606,0.22743045301437376,0.36324740201868116
1789759682901926100,8.758926025390625,0.6168143860042095,-0.23679858534038065,-0.02997373451385647
1789759682911936000,8.76893603515625,1.0889508364826441,-0.16795856560915706,0.07233633741438389
1789759682921945000,8.778945068359375,0.6823913122862577,-0.10494506007432937,0.21764829652737824
1789759682931954000,8.788953857421875,-0.01851180824637413,-0.37456922569572926,-0.13352287411722355
1789759682941963000,8.798962890625,-0.7043681662946939,0.14667904621511696,-0.42775965821128337
1789759682951972900,8.808972900390625,-0.5321148261010646,-0.09482260224968195,0.12360834168852307
1789759682961982000,8.81898193359375,-0.03844400468468666,-0.30480829172730445,-0.1704080045878887
1789759682971991000,8.828990966796875,0.0682528674930334,-0.5741071709170937,-0.6917766880080104
1789759682982000000,8.839000244140625,0.0012754267632961273,0.759464030572772,0.02632880214024335
1789759682992010200,8.84901025390625,-0.2780103011727333,1.4573001647502184,-0.03554346093758941
1789759683002018800,8.859018798828124,0.4063993651986122,0.308444017881155,-0.2347906978503801
1789759683012028000,8.86902783203125,0.5809317562401294,-0.4922606623575091,-0.3044123146796599
1789759683022037000,8.879037109375,0.08131517816185951,-0.8206389225035905,-0.2738772199559957
1789759683032047000,8.889047119140624,-0.4317413117259741,0.5703413886427879,-0.9450611287251114
1789759683042056200,8.89905615234375,-0.5971019697964192,0.40411330008804797,-0.30213043255386873
1789759683052064800,8.909064697265626,-0.19582535443902013,-0.07112520805895328,0.08104558570655063
1789759683062073900,8.919073974609375,-0.693619977787137,0.6239665958464146,-0.1347824731237255
1789759683072084000,8.929083984375,-0.4461491917848587,0.9553104277998209,-0.09775112998224794
1789759683082093000,8.939093017578125,0.6403016445755958,-0.2475301149740815,0.627626214332506
1789759683092102100,8.94910205078125,0.29214754759669304,-0.3719467682376504,-0.2964752746026963
1789759683102111000,8.959111083984375,0.2971206598341465,-0.30037966163009405,0.5145691594731062
1789759683112121000,8.96912109375,-0.45553076811432835,0.3718228495970368,0.019845239674067122
1789759683122130000,8.9791298828125,-0.5222136098116636,0.1924199299097061,-0.3893060089154169
1789759683132139000,8.989138916015625,-0.6763888570010662,-0.5207192796006799,0.0637392259934917
1789759683142147800,8.99914794921875,-0.6396311979681253,0.9659130703568458,1.1259169506344944
1789759683152157700,9.00915771484375,1.1515952164441345,-0.42903409859389063,1.344538585706055
1789759683162166800,9.019166748046874,1.8288292920976876,0.4619342054158449,0.9168456725880503
1789759683172176000,9.02917578125,0.869016292181611,0.9201941062331199,0.40475952556971456
1789759683182185000,9.03918505859375,-1.1420254240661858,1.0237883362203837,0.14595133472876623
1789759683192194800,9.04919482421875,-1.7203011128395795,-0.016719371871650218,1.0316007635369897
1789759683202204000,9.059203857421876,-1.3931038791716097,-0.5388520254015923,1.6523742624305187
1789759683212212700,9.069212646484376,-0.4461182121247053,-0.48222997446954247,1.3783731968991457
1789759683222221800,9.079221923828126,-0.6522136161655188,1.113442011399567,0.22749529841151087
1789759683232232000,9.08923193359375,0.9503513440877198,0.007857727763056755,0.22230459790062157
1789759683242241000,9.099240966796875,2.1340672074139118,-0.39982817011475563,0.566379097415693
1789759683252249900,9.109249755859375,3.0222213307857513,-1.327964175263047,0.6779330907683819
1789759683262260000,9.119260009765625,1.7578934691309929,-0.2960562454730272,0.45522564768791196
1789759683272268800,9.129268798828125,-0.10211246699690818,0.31369536253809926,0.5901633296396583
1789759683282278000,9.13927783203125,-1.1193488973557948,0.09149199652224779,0.4548713908901438
1789759683292287000,9.149286865234375,-1.334396838659048,-0.2599292855590582,0.5121795243902132
1789759683302296800,9.159296875,-0.8715046018660068,-0.4002069402992725,0.6254500393372029
1789759683312306000,9.169305908203125,-0.5283084195554256,-0.2026084387078881,-0.12833775396374986
1789759683322315000,9.17931494140625,0.14445406364202498,-0.49326282513737674,0.05309946629647165
1789759683332323800,9.18932373046875,-0.7717360676467419,0.6654904463678598,0.7197884382665157
1789759683342333700,9.199333740234374,-0.5615753138631582,-0.6342047890052199,1.254307695160806
1789759683352342800,9.2093427734375,-1.3025029862701891,1.7444868750691414,0.3236692787375301
1789759683362351900,9.219351806640624,1.1330933450698852,-0.8371946282461286,-0.17004266014052555
1789759683372361000,9.22936083984375,1.5643798987656832,0.07274930212944745,-0.4122200341761112
1789759683382371000,9.23937109375,0.6906260566681623,-0.6932052595064043,-0.03839745299606584
1789759683392380000,9.2493798828125,-2.262862514153123,1.0045353542178868,0.3778112398242578
1789759683402388700,9.259388671875,-2.6036796923726797,-0.43746144293844696,-0.02444394052500138
1789759683412397800,9.269397705078125,-1.0552338603198528,-0.26460546067655083,-0.5694027926184236
1789759683422408000,9.279407958984375,1.404377552857995,-1.0626792078897356,0.05674399681128561
1789759683432417000,9.2894169921875,1.9292910692781209,-0.012037351535260676,0.12996462451322002
1789759683442425900,9.29942578125,1.4602490776836872,-0.08338321660757064,-0.018156652974529425
1789759683452434700,9.3094345703125,-0.22624562714397906,0.6982941070780158,0.014777323009341488
1789759683462444800,9.31944482421875,-1.0482383023440838,0.6159639066547155,-0.025848749838606452
1789759683472454000,9.329453857421875,0.02156242798864841,-0.6184682906910777,-0.4195221738830209
1789759683483715800,9.3407158203125,0.02159574573636055,-0.6187184660598636,-0.436133043878898
1789759683494350000,9.35135009765625,0.17981646892428396,-0.37773616529405113,-0.4184167699243873
1789759683504358700,9.361358642578125,0.0335579862087965,-0.027998598515987395,-0.6164484753012657
1789759683514368800,9.37136865234375,0.577101968818903,0.0050075990289449685,-0.8078658040396869
1789759683524377900,9.3813779296875,0.46000060700476164,0.7245607672348618,-0.7604213312976061
1789759683534387000,9.391386962890625,0.015021628043055534,1.5053589699983596,-1.0060100298803298
1789759683544396000,9.40139599609375,-0.4921013801425695,1.1621350228980183,-0.9299200390208512
1789759683554406000,9.411406005859375,-1.2203525263279675,0.4795063947245478,-0.5537578450452536
1789759683564415000,9.4214150390625,-1.2447066308617591,0.4203624240994453,-0.5262039946220815
1789759683574423800,9.431423828125,-0.3431026588082313,-0.11489829881191253,-0.24376836955407633
1789759683584433000,9.441432861328124,-0.04498012845516205,0.27994477636665105,-0.371510641842708
1789759683594442800,9.45144287109375,0.3005500497609377,0.9413035297572612,-0.05033484215503558
1789759683604451800,9.461451904296876,0.35095454135239124,1.327966221089661,0.05255122129656374
1789759683614461000,9.4714609375,0.007941314393281936,1.3425856980726123,0.07104958553947507
1789759683624470000,9.481469970703126,0.5031126035004854,0.4439671715706587,-0.26502706535579634
1789759683634479900,9.49147998046875,0.0875678088158369,0.1408402570590377,-0.2558762473085895
1789759683644488700,9.50148876953125,-0.389929876434803,0.09057575846016407,0.3570382817128673
1789759683654497800,9.511497802734375,-0.27141981686651706,-0.458299063783884,0.6439537373423576
1789759683664508000,9.5215078125,-0.06044716217815876,-0.8524357442587613,0.44683213254772125
1789759683674517000,9.53151708984375,0.294993584677577,-0.49240533152520655,0.9997517732031643
1789759683684526000,9.541526123046875,0.2763309697836637,0.45591684482246636,0.041294243016652764
1789759683694534700,9.55153466796875,0.47677638523876664,-0.6594234014138579,-0.2182817721253261
1789759683704544800,9.561544677734375,-0.5760042367100715,0.47814475098252296,0.5777999244878068
1789759683714553900,9.571553955078125,-0.2644330267190933,-0.29979104808717966,0.7658223135583102
1789759683724563000,9.58156298828125,0.20351006372272967,-0.24798165813386439,0.4224217677820474
1789759683734572000,9.591572021484374,0.866785756650567,0.3225055687204003,0.6061465327238663
1789759683744582000,9.601581787109374,0.36993630519807336,0.8738447352513671,-0.6170517018914222
1789759683754591000,9.611591064453124,-0.4663479302048683,0.44640901176482434,-1.075688619327545
1789759683764599800,9.621599853515624,-1.6580775886386632,0.2938277557685971,-1.116352492018789
1789759683774609000,9.63160888671875,-1.8980057041764258,-0.011285071863234042,-0.6070609076224267
1789759683784618800,9.64161865234375,-1.5376859531074762,0.10227174921184777,-0.8308429211318492
1789759683794627800,9.6516279296875,-0.38572190335094925,-0.05293810172230005,-1.2666468061216174
1789759683804637000,9.661636962890626,0.8291068911194801,0.18268267201036215,-1.244795624319464
1789759683814646000,9.67164599609375,2.945849454244971,-0.3434805522099137,-1.1516458506528287
1789759683826530800,9.68353076171875,2.740553676149249,-0.4249517977163195,-0.9558534486353397
1789759683836541000,9.693541015625,0.45876492772996424,0.8651116859585046,-1.3747048836499451
1789759683846550000,9.703550048828125,-1.101021213504672,0.9307090705066918,-1.1752104853093623
1789759683856558800,9.713558837890625,-2.8441163419544697,1.2473007390081883,-1.048893770578131
1789759683866568000,9.72356787109375,-2.03796654805243,-0.6523483484610915,-1.0518090735029428
1789759683876577800,9.733577880859375,-2.374650571990013,0.3914961028382182,-1.108564395425841
1789759683886587000,9.7435869140625,-0.9789426477998494,-0.043973289500176906,-0.8790572822678834
1789759683896596000,9.753595947265625,0.19740765519440173,-0.15194149678796529,0.7005464160494506
1789759683906605000,9.76360498046875,1.1250807190060614,-1.3594316189333795,1.8846566855207085
1789759683916614700,9.77361474609375,1.253388534489274,0.17697744610607624,-0.10078560230731963
1789759683926623700,9.783623779296875,1.19285778568089,1.540433498249948,-1.3858099227711558
1789759683936632800,9.7936328125,2.9111089802533385,-1.0128376108780504,-0.2281685580305755
1789759683946643000,9.803642822265624,1.8743045105934142,0.473025216011703,0.9194065360520034
1789759683956652000,9.813652099609374,-0.8552385267198085,-0.7354249833375215,0.4441600637942552
1789759683966660900,9.823660888671874,-3.225451408523321,-0.665204615163803,0.745805653706938
1789759683976669700,9.833669677734376,-3.4060914687901733,0.5402238982766866,0.8574581024654209
1789759683986679800,9.8436796875,-0.10432897400259972,-0.26048341231048106,0.8716583311229944
1789759683996689000,9.85368896484375,2.1484522911190984,-1.0551391677737236,0.8203941539622843
1789759684006698000,9.863697998046876,2.4388749146193263,-0.4485471928372979,0.38402196756526824
1789759684016706800,9.873706787109375,0.5691869579106569,1.116093987213075,-1.1168904713530092
1789759684026717000,9.883717041015625,-0.8474766605466604,0.5590487179949879,-1.027025856836885
1789759684036726000,9.89372607421875,-1.445340262365341,0.47739217904955145,-0.2502547906976193
1789759684046734800,9.90373486328125,-0.8761708401113748,-0.07350450441092252,-0.20482545717023312
1789759684056744000,9.913743896484375,-0.9854898774862288,0.2775067355647683,0.48713937382102007
1789759684066753800,9.92375390625,-0.8232476436972618,0.3794803786128759,0.16265373719930648
1789759684076763000,9.933762939453125,-0.6747989574611186,0.5567234899178147,-0.9619177901756018
1789759684086772000,9.94377197265625,0.31376199803352356,-0.11056114639043807,-0.5102743118233979
1789759684096780800,9.95378076171875,0.9903115985542535,-0.06857435453236102,-0.36822343686558306
1789759684106790700,9.963790771484375,0.9501280567258595,-0.05261632242202759,-0.9855453340005129
1789759684116799700,9.9737998046875,0.2970575314700603,0.8804159303352236,-0.4165682194482535
1789759684126808800,9.983808837890624,-0.02759410936832428,0.7968328072413802,0.11026004455201327
1789759684136817700,9.993817626953126,-0.6093441962540149,0.764350341309607,0.3357259194951504
1789759684146827800,10.003827880859374,-0.2616571322649717,-0.032900983604788776,1.0391697374865412
1789759684156836600,10.013836669921876,0.21943185547590255,-1.2222417010754345,0.4969883484665304
1789759684166845400,10.023845458984376,-0.6000327625513077,0.17219664157032966,0.2878788938341662
1789759684176854500,10.0338544921875,-0.731574737650156,1.027959776686132,0.6753748576529324
1789759684186864600,10.04386474609375,-0.3811632171332836,0.43667146160453557,1.0626501279257237
1789759684196873700,10.053873779296875,0.10917232238054275,0.2096893368795514,1.2749701055698095
1789759684206882600,10.063882568359375,0.9320113852769136,-0.6253311621978879,0.44973643915448336
1789759684216891600,10.0738916015625,0.8628829039931297,-0.35095249552577734,0.3176230939084664
1789759684226901500,10.083901611328125,-0.009236614900827408,0.11190116282254457,-0.09118614544346929
1789759684236910600,10.09391064453125,-0.26436639122366906,0.6721420132115483,-0.0724498807914555
1789759684246919700,10.103919677734375,0.1791793400645256,-0.11994564532935618,0.26820494647324084
1789759684256928800,10.1139287109375,-0.37258945005536076,1.0961056766733526,-0.36619178490750487
1789759684266938600,10.123938720703125,-0.4409019387811422,-0.20708762994855642,-1.5575335400022565
1789759684276947500,10.133947509765624,-0.33685061267614363,-0.5990107260271906,-1.269750909616798
1789759684286956500,10.14395654296875,-0.7694120086133479,0.06988134547770022,0.23999149963017552
1789759684296966700,10.153966552734374,0.14081833748817443,0.1204527180686593,0.42615152889490127
1789759684306975500,10.1639755859375,1.1216606814295054,0.5586576728507876,-0.07548245342038572
1789759684316984600,10.173984619140626,1.4501578917801379,1.0277163233190774,-0.45036702867560086
1789759684326993700,10.18399365234375,0.5799146881520748,0.8430410161867737,-1.229362785127014
1789759684337003800,10.194003662109376,-0.6092945118933916,0.2934311576664448,-1.1654139715034515
1789759684347012600,10.2040126953125,-1.4872557425528763,-0.3614814883247018,-0.5251390322716907
1789759684357021700,10.214021728515625,-1.462436943116784,-0.2596633280992508,-0.17743998558390883
1789759684367030500,10.224030517578125,-1.0122744240373371,-0.0841693985491991,-0.1705977184737101
1789759684377040600,10.23404052734375,-0.38635318699181076,0.258980314271152,-0.031032997775822874
1789759684387049700,10.2440498046875,0.7812351328760385,-0.10590484501719474,-0.36527094373553987
1789759684397058600,10.25405859375,1.939607880631089,-0.559872893859446,0.3342599385958165
1789759684407067600,10.264067626953125,1.5004413873404263,-0.22661621402204035,0.0025290070209652185
1789759684417077500,10.274077392578125,-0.15174363612830638,0.738712042184174,-0.15928798709325492
1789759684427086600,10.284086669921875,-1.450301684165001,1.3146075578227638,-0.05981470949351787
1789759684437095700,10.294095703125,-2.0705565660119056,0.5034335060179234,-0.1375930918313563
1789759684447104800,10.304104736328124,-2.229351874217391,0.14606062205582857,-0.4611140481393784
1789759684457114600,10.314114501953124,-1.7337801876157521,-0.621767039975524,-0.9530454054772853
1789759684467123500,10.32412353515625,0.2866448585271835,-0.14333675004988908,-0.29953955754414197
1789759684477132500,10.334132568359376,0.8514841426223516,0.8144283774256705,0.4208431202884763
1789759684487141600,10.3441416015625,1.3002747888267039,0.22430472220927475,0.781211021348089
1789759684497151500,10.3541513671875,-0.12799509627223013,1.3797919776558876,-0.31828093676269054
1789759684507160600,10.36416064453125,-0.5540080934792757,0.6480532816156744,-1.6770600831367075
1789759684517169700,10.374169677734375,0.6544587647438049,0.20637685133069752,-1.7786200308173894
1789759684527178500,10.384178466796875,1.2987351581692694,-0.5811766709119082,-1.439282569761574
1789759684537188600,10.394188720703125,0.14643909997940063,-0.22998276784569024,-0.5640517869792878
1789759684547197700,10.40419775390625,-1.8001099780917167,0.9785273449972272,-0.5301361464392393
1789759684557206500,10.41420654296875,-2.388078793361783,1.151111232319474,-0.29050255686864257
1789759684567215600,10.424215576171875,-1.424941032937169,0.4306134767398238,-0.7303603203590959
1789759684577225700,10.434225830078125,0.8634878841489553,-0.761285985302925,-0.12464096353873609
1789759684587234600,10.444234619140625,2.218148343157768,-0.9020569765180348,-0.09013144875876605
1789759684597243600,10.45424365234375,1.3238064710617066,-0.22781302259117364,-0.7930177789978683
1789759684607252500,10.46425244140625,0.2315986786097288,0.3397758524730801,-0.5715346170153468
1789759684617262600,10.4742626953125,-0.4048363536655903,0.44980800655335185,0.057180415467172854
1789759684627271700,10.484271728515624,-0.42971126720309255,0.14223872568011284,0.7028972169592976
1789759684637280800,10.49428076171875,0.0107575408577919,-0.6945221873238683,1.3480071385994552
1789759684647289600,10.50428955078125,0.3244388748705387,-0.712335199651122,1.2046871935538948
1789759684657299500,10.514299560546876,-0.775654117873311,-0.3869596284523606,0.35349381403904406
1789759684667308500,10.52430859375,-0.5334738394945859,0.4216805209606886,0.14371880817003546
1789759684677317600,10.534317626953126,0.8044476661592721,-0.2111968188330531,1.3680213142327964
1789759684687327700,10.54432763671875,1.3060311603963375,-0.14440642510801552,0.9520424389798193
1789759684697336600,10.554336669921875,0.8531324943512678,0.056385611827671524,0.33637806326095016
1789759684707345400,10.564345458984375,-0.37772447485625743,0.7418897954374551,0.4594369452400133
1789759684717354500,10.5743544921875,-0.5528840578854084,-0.28133681524693965,0.5934389903094619
1789759684727364600,10.584364501953125,-0.9414414769232272,-0.13374240775257348,0.8829222871329635
1789759684737373700,10.594373779296875,-0.40271453920602795,-1.0986129833191633,0.7328919577285647
1789759684747382500,10.604382568359375,0.5489227530390024,-1.500171922749281,0.23681078723482787
1789759684757391600,10.6143916015625,0.43535657961368557,0.3723839906111359,0.08547522045075893
1789759684767401700,10.624401611328125,0.5897662200808524,0.27316286114156246,-0.04781703238151967
1789759684777410600,10.63441064453125,-0.39126492443084715,0.9057736589536071,-0.5883331185378133
1789759684787419600,10.644419677734374,0.10197276626527309,-0.4340948891147971,0.29595727861057963
1789759684797428500,10.654428466796874,-0.8971078296780586,0.8174483097687363,-0.8431194882504641
1789759684807438600,10.6644384765625,-0.9002467122256755,0.7404127086222171,-0.5101753449609503
1789759684817447700,10.67444775390625,-0.244839852976799,0.34515462290197607,-0.5669723140684887
1789759684827456800,10.684456787109376,0.8957277734965086,-0.76637746322304,-0.05393405395708978
1789759684837465600,10.694465576171876,0.6438134520888328,-0.4395861800074577,-0.21842457812950014
1789759684847475500,10.704475341796876,0.3820037596106529,0.6636001025766134,-1.056140599901229
1789759684857484500,10.714484619140626,0.49662265695929525,-0.5759875778362155,-1.234799861614406
1789759684867493600,10.72449365234375,-0.3128495593637228,0.20691724181771276,-0.7564424907945096
1789759684877502700,10.734502685546875,-0.8646434839248657,-0.07757628389447926,0.28027426404934375
1789759684887512600,10.7445126953125,-0.360466466063261,0.13837182111889124,0.1986800862830132
1789759684897521400,10.754521484375,0.7127209840983152,0.042189620953798294,-0.03827814659848809
1789759684907530500,10.764530517578125,0.46735623046457764,0.775626060822606,-0.7474341316916048
1789759684917539600,10.77453955078125,0.08378302958011627,0.08719926776438951,-0.789492016024515
1789759684927549700,10.7845498046875,-0.1309685591250658,-0.5506731038376689,-0.4719374573076144
1789759684937558500,10.79455859375,-0.3398404421418905,-0.5017003986150026,-0.44784397647138685
1789759684947567600,10.804567626953125,-0.5479577073991299,0.33892069694846866,-0.6871954976975917
1789759684957576400,10.814576416015624,-0.7562135043442249,-0.3653998308122158,-0.6729055449299514
1789759684967586600,10.824586669921874,-1.4258663310885429,0.3968494465649128,-0.8954594779491424
1789759684977595600,10.834595703125,-0.5333154340624809,-0.792722741574049,-1.0030959690645336
1789759684987604700,10.844604736328124,2.195506887760758,-1.624492714422941,-0.3499721061863005
1789759684997613600,10.854613525390626,2.3422207130283117,-0.4894996732115745,-0.7587798477008938
1789759685007623700,10.864623779296876,0.7404659001141786,0.909516644874215,-1.2151092188470065
1789759685017632500,10.874632568359376,-0.990249054712057,1.25334966378361,-0.8563993871927261
1789759685027641600,10.8846416015625,-2.2505483915030955,0.3648313832744956,-0.6988401966534554
1789759685037650700,10.894650634765625,-1.9887936440825462,-0.1067646767169237,-0.08757168127335607
1789759685047660500,10.90466064453125,-0.5903448967516421,-0.8239987543255091,-0.8721958720657974
1789759685057669600,10.914669677734375,-0.06382277609109878,0.01182195521891117,-1.3283645727574824
1789759685067678700,10.9246787109375,0.18547113368511198,0.7144160975784063,-0.5459594462540001
1789759685077687600,10.9346875,0.7010106725603341,0.35184506045132874,-0.10168434124533086
1789759685087697400,10.944697509765625,-0.40256197899281976,0.8845680815786123,-0.07063830132484436
1789759685097706500,10.95470654296875,0.9878764803618192,0.6027566345572472,0.0584100303273648
1789759685107715600,10.964715576171875,1.557360375392437,0.43385874227136373,-0.4522803880162537
1789759685117725700,10.9747255859375,1.7988555941164492,-0.11069120251089334,-0.40765944826230405
1789759685127734800,10.98473486328125,-0.07343523856699466,0.03227379161715507,-0.09631379065550863
1789759685137744000,10.994743896484374,-2.6410510993897915,0.9676377021923661,-0.2549352766640484
1789759685147753000,11.0047529296875,-3.039403936254978,1.0955340142652392,-0.6272998319223523
1789759685157763000,11.01476318359375,-1.0101292287021875,-0.24152561386227606,0.20225567974746225
1789759685167772200,11.024772216796874,1.0575596729189156,-0.33079993433505295,0.9550466622970998
1789759685177781000,11.034781005859376,1.8970774834156034,-0.14597148246765135,0.20100589888207612
1789759685187789800,11.044789794921876,1.2202420516908168,0.31103812602758407,-0.7029586648229509
1789759685197800000,11.054800048828126,0.08273089017868042,0.8960144814833998,-0.8505019266519696
1789759685207809000,11.06480908203125,-1.1651309898436069,0.8849702326387167,0.2846660327348858
1789759685217818000,11.074818115234375,-1.16156306822896,0.18840455678850412,1.1836394370891152
1789759685227827200,11.0848271484375,-0.8392115210264921,-0.18012480422109364,1.369063370631635
1789759685237837000,11.094837158203125,-0.5698047975480556,-0.8870926316201686,0.6219190887320787
1789759685247846000,11.104845947265625,-0.5480670129925013,0.21224545110315082,-0.1818069120891392
1789759685257855000,11.11485498046875,-0.5083218625813722,1.2090092945367097,-0.42797984030060465
1789759685267864000,11.124864013671875,0.19982640677392483,0.5910232344046235,0.5235762034017593
1789759685277874000,11.1348740234375,0.3478711883842945,-0.023167525097727775,0.4761244972012937
1789759685287883000,11.144883056640625,0.54704351516366,-0.4424310480445623,0.5789135482855141
1789759685297891800,11.154891845703125,0.847102566537261,-0.8304732110366225,0.1339739514861256
1789759685307901000,11.16490087890625,-0.11182955889105796,-0.08384937281459569,0.28581688327044247
1789759685317910800,11.174910888671874,-0.2504097620636225,0.05904284833818674,0.1964589761674404
1789759685327919900,11.184919921875,0.10515841056406497,-0.7893857061058283,0.288920621439442
1789759685337929000,11.194928955078124,-0.015507950255274771,-0.5680465557038784,0.7192129034008831
1789759685347938000,11.20493798828125,0.22118191401362416,-0.22428251037746666,-0.1567637293126434
1789759685357948200,11.2149482421875,-0.08324585396349429,0.9845078807115554,-0.39980354713015254
1789759685367957000,11.22495703125,0.2696042918771505,0.489151882687211,-0.2704380392875522
1789759685377965800,11.2349658203125,-0.08405717034637927,0.6771800073787569,-0.41927645549364384
1789759685387975000,11.244974853515625,0.21114976482093334,0.0913873671039939,0.003970730261877179
1789759685397985000,11.254985107421875,-1.1375824731826782,0.39028380443900823,-0.20837869267240167
1789759685407994000,11.264994140625,-1.332263333761692,-0.834640559849143,-1.0297897685922681
1789759685418003200,11.275003173828125,-0.33703707515895365,-1.1713503027498722,-1.3820771659836173
1789759685428011800,11.28501171875,0.8225321889042854,0.8923468988865614,0.6282130012445152
1789759685438022000,11.29502197265625,1.2429881365060806,0.8955947947666049,0.5333862342763692
1789759685448031000,11.305031005859375,1.5498369941502808,-0.44935763243734833,0.5015501764893532
1789759685458040000,11.3150400390625,0.07277648239731788,-0.36599779670536514,-0.015187851455435155
1789759685468049200,11.325049072265625,-0.8799930287480354,-0.7188546645477414,0.08443864394463599
1789759685478059000,11.33505908203125,-0.8039829712569713,0.004637596672773361,-0.9960025036722421
1789759685488067800,11.34506787109375,0.8698597572684288,0.009631751698255538,-0.32326186698041853
1789759685498077000,11.355076904296874,0.8579226512372493,1.1585144943132997,0.05591207603178918
1789759685508086000,11.3650859375,1.0643518172770738,0.08339607608914375,0.36593744482025503
1789759685518096000,11.375095947265624,0.12356792747974395,-0.36804596140682694,0.8011546159632503
1789759685528105000,11.38510498046875,-1.3013397877097128,-0.3498138468846679,-0.28125542057380076
1789759685538114000,11.395114013671876,-0.8051262960731983,-0.613437895308435,-0.7670980325825512
1789759685548124200,11.405124267578126,-1.3576011886358261,0.0693774876087904,-0.29708127767182885
1789759685558133000,11.415133056640625,-0.543511249384284,-0.5854530330568551,0.1956002769788727
1789759685568141800,11.425141845703125,0.06445347521007061,-0.24398937362730502,0.39921752740312366
1789759685578151000,11.43515087890625,1.8936030853033066,-1.0075430116012691,0.310099931862019
1789759685588161000,11.4451611328125,1.828263474908471,-0.08288549621850251,0.10686210920941085
1789759685598170000,11.455170166015625,0.09469371517300605,0.5343818942502141,-0.365142750778608
1789759685608179000,11.465178955078125,-1.135499821689725,0.44742315724343057,-0.09095332306828349
1789759685618188000,11.47518798828125,-1.68339147811532,-0.3097279202118516,0.1788088262517005
1789759685628198000,11.485197998046875,-2.072180367821455,0.82099431181252,-0.03193655901942402
1789759685638207000,11.49520703125,-0.9269447495371103,0.00799041423201561,-0.26941888884026555
1789759685648216000,11.505216064453125,-0.2993640548467636,0.3674351360321045,-0.23375592970885334
1789759685658225200,11.51522509765625,-0.07733458409309386,0.2533344173386693,-0.6326046603322029
1789759685668235000,11.525235107421874,0.40295477770268917,-0.26092151146680115,0.3703083168482408
1789759685678243800,11.535243896484374,-0.35658231810629365,1.5043591453060507,-0.09708835522457956
1789759685688253000,11.5452529296875,1.7011252877265215,-0.013843816435337065,0.05811177803315222
1789759685698262000,11.555261962890626,2.7995208289027214,-0.2835202967658639,-0.4665899953324347
1789759685708271900,11.56527197265625,2.516796358689666,-0.5611471515789628,-0.1984085028000176
1789759685718281000,11.575281005859376,-0.27139994312226773,0.6087476916655897,-0.2980976516401395
1789759685728290000,11.5852900390625,-3.048667439162731,1.1373200228542089,-0.13386804342623798
1789759685738299000,11.595298828125,-3.222698894944787,1.2933391443446278,-0.47914534285981203
1789759685748309000,11.60530908203125,-0.9000900603592396,-0.6372860961467027,-0.010665222931839526
1789759685758317800,11.61531787109375,1.0391250215619803,-0.7416349438935518,0.5059955385256558
1789759685768327000,11.625326904296875,1.1081401055991649,0.2818786670386791,-0.19299352854657917
1789759685778336000,11.6353359375,0.5146504810810089,0.20678192500025033,-0.36826950449701396
1789759685788346000,11.64534619140625,-0.5983107610642909,0.9451005839526653,-0.444912745325081
1789759685798355000,11.65535498046875,-1.1250848106592892,1.2873580241084097,0.4750223446456715
1789759685808364000,11.665364013671875,0.2441635611504316,-0.9988783513695001,1.4029806916721164
1789759685818372900,11.675372802734374,0.14318798922896384,-0.4113777381330728,0.8263694289796054
1789759685828383000,11.685383056640624,-0.7337047354161739,0.22408932589292524,0.14607673294041304
1789759685838392000,11.69539208984375,-1.3211007192343474,1.080312479735911,0.14385408845487982
1789759685848401200,11.705401123046874,-0.17525018392205238,-0.545251371049881,0.4984781851654872
1789759685858410000,11.715409912109376,0.6262175896435975,0.24309008670002222,1.041683693068847
1789759685868419800,11.725419921875,1.2537322333604097,-0.4382426564440131,0.789111126948148
1789759685878429000,11.735428955078126,0.620398089709878,0.6965177450552582,-0.8038090759947896
1789759685888438000,11.74543798828125,-0.08871113363206386,0.7043693353384732,-0.8110128698937594
1789759685898447000,11.755447021484375,0.4393050249785185,-0.1561088456004858,-0.05745959773473441
1789759685908457000,11.76545703125,-0.13909341339170933,-0.08840484416186808,0.18690598879382014
1789759685918465800,11.7754658203125,0.40379590470194815,-0.9279372677057981,-0.08211286787819116
1789759685928475000,11.785474853515625,-0.004352349990606308,-0.005841127243638038,-1.1692810952603816
1789759685938484000,11.79548388671875,-1.1840426110625266,1.1164628205254674,-0.897717924400419
1789759685948494000,11.805494140625,-0.998818730136752,1.323820499587059,-0.08501768594160676
1789759685958503000,11.8155029296875,-0.23827859476506708,0.4264361910551786,-0.03621909517683088
1789759685968512000,11.825511962890625,1.1430652885079384,-0.798509800542891,0.05517309423275291
1789759685978520800,11.835520751953124,-0.10204875411093234,0.6576917553156614,-0.8485035193763673
1789759685988531000,11.845531005859375,-0.8045499574899673,0.3126087363451719,-0.7210025632966309
1789759685998540000,11.8555400390625,-0.7916244249433279,0.26404519644528623,0.13453056245557962
1789759686008548900,11.865548828125,-0.08636369372308254,-1.2803349936038255,0.014927885344997047
1789759686018559000,11.87555908203125,-0.3554951073914766,0.056918111269176,-0.21793164351340383
1789759686028568000,11.885568115234374,0.16412030262053012,0.5666711756974459,-0.4077542504062876
1789759686038577200,11.8955771484375,1.9126386251628398,-0.6724880501702427,-0.3906089447401464
1789759686048586000,11.9055859375,1.821599925366044,-0.5537357062786817,-0.07498623086865991
1789759686058595800,11.915595947265626,0.7802122195690869,-0.12295008784234523,0.5764585198162123
1789759686068605000,11.92560498046875,0.7164321135759353,-1.265968030077219,0.40481936599817125
1789759686078614000,11.935614013671875,0.30756080530583857,0.6239718565434217,0.28106329553518444
1789759686088623000,11.945623046875,0.22944997614324092,0.6017109248965978,-0.6320607627138495
1789759686098633000,11.955633056640625,-1.0055448235213755,0.6850126007005571,-0.6866673821702599
1789759686108641800,11.965641845703125,-0.7533329804718494,-0.7159530978873372,0.41082847021985797
1789759686118651000,11.97565087890625,-1.1061048003792762,-0.9162804399207234,0.3150863419724628
1789759686128660000,11.985659912109375,-0.5136854354411363,-0.5503244365304708,0.8740402578234672
1789759686138670000,11.995670166015625,-0.679671531933546,0.4299403997838497,-0.30063210202120244
1789759686148679000,12.005678955078125,-0.1767868919700384,-0.2346373156532645,-0.5848394312031566
1789759686158688000,12.01568798828125,0.7061755079776049,-0.8030655641511082,-0.36171814662478863
1789759686168697000,12.025697021484374,1.4671972893863916,-1.085819552719593,0.20185992189552635
1789759686178707200,12.035707275390624,1.4174977311939,-0.45014556794464583,0.6439448964487761
1789759686188716300,12.04571630859375,0.4998474642246961,0.14100626127570867,0.09569713832819834
1789759686198724900,12.055724853515626,0.0856856483310461,-0.41772213872373104,0.12075769236460328
1789759686208734000,12.06573388671875,-1.55412796934247,0.7547975000664592,0.06671226872121915
1789759686218744000,12.075744140625,-0.940582229745388,-0.7969853674545884,0.47626390567198396
1789759686228753200,12.085753173828126,-1.7842092291265725,0.7545666139200329,-0.7020545555900782
1789759686238762200,12.09576220703125,0.17056173384487627,-1.3216969315618277,-0.5687589417569339
1789759686248771000,12.10577099609375,0.787459706479311,-0.08608487678170204,-0.13790407574297858
1789759686258781200,12.11578125,1.0944622933804988,-1.264863868227601,0.6947276467680931
1789759686268790000,12.1257900390625,-0.2103840411454439,0.9137488756164908,-0.15942798008583486
1789759686278799000,12.135799072265625,0.622540946957469,-0.2464317983433604,-0.6316392493661492
1789759686288808200,12.14580810546875,1.5731915662527083,0.023268939645588398,-0.11158197733815758
1789759686298818000,12.155818115234375,2.5851713912576435,-1.1643389626830816,-0.3111329647041857
1789759686308827100,12.1658271484375,1.692711095124483,-1.1969915244847535,0.025180527154263107
1789759686318836200,12.175836181640625,-1.3580834191948175,0.23900486321300266,0.13186992841158063
1789759686328845000,12.185844970703124,-3.4257775815129277,1.0899945003166793,-0.9118580203685909
1789759686338855000,12.19585498046875,-1.9018600415170193,-0.8152157284110784,-0.3392009751945734
1789759686348864000,12.205864013671874,-0.070305123847723,-0.682931702773273,-0.07201028379779309
1789759686358873000,12.215873046875,1.498549289983511,-0.30756051304489374,-0.12076952893286942
1789759686368882200,12.225882080078126,1.1312304738074541,0.20482553023546932,-0.06760139958066866
1789759686378892300,12.235892333984374,-0.17348785042464732,1.5855790463998913,-0.4289395887108519
1789759686388901000,12.245901123046876,-0.92871701990664,1.2466171406581996,-0.5391636486340314
1789759686398910000,12.255909912109376,-0.09767419228851795,-0.31444384281784293,0.5205163043744861
1789759686408919000,12.2659189453125,0.28014088346064087,-1.4231345680370926,-0.03537729232413694
1789759686418929200,12.27592919921875,-0.3714104694038629,-0.5065452082976698,-0.5804867889516055
1789759686428938200,12.285938232421875,-0.9526900161683559,0.2732090383708477,-0.4258854253046214
1789759686438947300,12.295947265625,-1.1046733062714338,1.2440928828775881,-0.293128338794969
1789759686448957200,12.305957275390625,-0.1888607761234045,-0.010256605598330496,-0.1951958608964458
1789759686458966000,12.315966064453125,1.089292197266221,-0.5589405814453959,-0.17501984576489776
1789759686468975000,12.32597509765625,1.7566256411522625,-0.3458046112433076,-0.32037937034666536
1789759686478984200,12.335984130859375,0.7324924370169639,0.6129053958669305,-0.2682779203779064
1789759686488994000,12.345994140625,-0.943418914476037,0.9316235550031066,-0.4031975004173815
1789759686499003100,12.356003173828125,-1.218307868757844,0.16313918262869118,0.5289105136344209
1789759686509012000,12.366011962890624,-0.7264192545831203,-1.2764090523317455,0.9520375436089933
1789759686519021000,12.37602099609375,-1.4593828162431717,0.4389712629795074,0.729510206335783
1789759686529031000,12.386031005859374,-1.325485802450776,0.7451084652230143,0.46896980314105746
1789759686539040000,12.3960400390625,-0.08634089736938476,0.7218772272393107,0.5669875116376206
1789759686549049000,12.406049072265626,1.6918407420307398,-0.24316461324095726,1.0084941017810254
1789759686559058200,12.41605810546875,1.6806027241796253,0.20727350790947674,0.6351734148416668
1789759686569068300,12.426068359375,0.8131471054434776,-0.1554609030857682,0.8837550116300582
1789759686579077000,12.4360771484375,-0.48958092175424095,0.5103007614389061,0.8704384339392185
1789759686589086000,12.4460859375,-0.8384837912738323,0.35034868441373107,0.1790184321480803
1789759686599095000,12.456094970703125,0.15108195734918117,-0.8800126102313399,1.3303212597832084
1789759686609105200,12.466105224609375,0.3440606901854276,0.07341010412573815,1.355115947691351
1789759686619114200,12.4761142578125,0.01948211458325386,0.7666036731943487,0.4948901340782642
1789759686629123300,12.486123291015625,1.223565058633685,-0.47027328695505854,0.7939100516624749
1789759686639132000,12.4961318359375,0.5580126529455185,0.31819588882774114,0.59075932277143
1789759686649142000,12.50614208984375,0.339874928933382,-1.1861389988198876,0.19966783694503829
1789759686659151000,12.516151123046875,-0.204869077116251,0.5741548094511032,0.49897404239103194
1789759686669160200,12.52616015625,0.294641117978096,0.6466667956933378,0.6500785768982023
1789759686679169300,12.536169189453124,0.6075339319616556,0.8750251772075891,0.20997146002287043
1789759686689179100,12.54617919921875,-0.27207798851430415,0.11894231350570916,0.6978454865276813
