time,seconds_elapsed,z,y,x
1789759674207627500,0.06462744140625,-0.003808320267125964,0.007065632846206427,0.009972739033401012
1789759674217637600,0.0746376953125,-0.003748931922018528,0.004316717851907015,0.009268599562346935
1789759674227646500,0.084646484375,-0.001454618526622653,0.00487305223941803,0.009505887515842915
1789759674237655600,0.094655517578125,0.0011313108261674643,0.004877845756709576,0.008174573071300983
1789759674247665700,0.104665771484375,0.0054546864703297615,0.0033987262286245823,0.007552192080765963
1789759674257674800,0.1146748046875,0.008983374573290348,0.0032405343372374773,0.008658469654619694
1789759674267683800,0.124683837890625,0.012329370714724064,0.0013970943400636315,0.008351407013833523
1789759674277692700,0.134692626953125,0.014907310716807842,-0.002359827049076557,0.007120493799448013
1789759674287702500,0.14470263671875,0.017854364588856697,-0.004917527083307505,0.0063002402894198895
1789759674297711600,0.154711669921875,0.018218418583273888,-0.006836866959929466,0.005868807900696993
1789759674307720700,0.164720703125,0.019543606787919998,-0.012180233374238014,0.00401684595271945
1789759674317729800,0.174729736328125,0.02309759519994259,-0.012267851270735264,0.003082342678681016
1789759674327739600,0.18473974609375,0.024091754108667374,-0.015156315639615059,0.0028482507914304733
1789759674337748500,0.19474853515625,0.02694639563560486,-0.013531255535781384,0.0019478360190987587
1789759674347757600,0.204757568359375,0.028145350515842438,-0.01709775999188423,0.0020626182667911053
1789759674357767700,0.214767578125,0.027590615674853325,-0.019040802493691444,-0.0008466189028695226
1789759674367776500,0.224776611328125,0.030713170766830444,-0.023381488397717476,-0.0009544769418425858
1789759674377785600,0.23478564453125,0.03446236997842789,-0.023807061836123466,-0.0018927085911855102
1789759674387794700,0.244794677734375,0.037512753158807755,-0.02719486877322197,-0.001133174984715879
1789759674397804800,0.2548046875,0.04525136947631836,-0.030183468014001846,-0.003841343568637967
1789759674407813600,0.264813720703125,0.0467107817530632,-0.032462067902088165,-0.0023723437916487455
1789759674417822700,0.27482275390625,0.04872918874025345,-0.03250814229249954,-0.0034354778472334146
1789759674427831600,0.28483154296875,0.046610910445451736,-0.031071633100509644,-0.002111886627972126
1789759674437841700,0.294841552734375,0.04180443659424782,-0.030345655977725983,-0.0013827132061123848
1789759674447850800,0.304850830078125,0.03993569687008858,-0.031690020114183426,-0.003216299694031477
1789759674457859800,0.31485986328125,0.03970666602253914,-0.03492229804396629,-0.0017132115317508578
1789759674467869400,0.324869384765625,0.04049815610051155,-0.04001719132065773,-0.004478638060390949
1789759674477878500,0.33487841796875,0.044493965804576874,-0.04386625811457634,-0.00666349520906806
1789759674487887600,0.3448876953125,0.04566895216703415,-0.04610810801386833,-0.008958341553807259
1789759674497896700,0.354896728515625,0.047437556087970734,-0.04547560587525368,-0.006885070353746414
1789759674507906600,0.364906494140625,0.04771452397108078,-0.04399994760751724,-0.0060206083580851555
1789759674517915600,0.37491552734375,0.047746483236551285,-0.041802309453487396,-0.004188619554042816
1789759674527924500,0.384924560546875,0.050645068287849426,-0.03946032375097275,-0.0029726203065365553
1789759674537933600,0.39493359375,0.05655328929424286,-0.038538869470357895,-0.003394731320440769
1789759674547943700,0.404943603515625,0.062379755079746246,-0.038778021931648254,-0.0029494508635252714
1789759674557952800,0.414952880859375,0.07242200523614883,-0.037522073835134506,-0.002380333375185728
1789759674567961600,0.424961669921875,0.08132921159267426,-0.038476020097732544,-0.000952080066781491
1789759674577970700,0.434970703125,0.09054934233427048,-0.03501177951693535,-0.0010815097484737635
1789759674587980800,0.444980712890625,0.10016388446092606,-0.034686606377363205,0.0038043255917727947
1789759674597989600,0.45498974609375,0.10178495198488235,-0.035351600497961044,0.0027955202385783195
1789759674607998700,0.464998779296875,0.09499708563089371,-0.03187297657132149,0.0044048684649169445
1789759674618008600,0.475008544921875,0.09519869089126587,-0.030305175110697746,0.008085623383522034
1789759674628017700,0.485017578125,0.09141752868890762,-0.034390997141599655,0.0012889700010418892
1789759674638026800,0.49502685546875,0.10804018378257751,-0.03200294077396393,-0.006820355542004108
1789759674648035600,0.50503564453125,0.15502074360847473,-0.028235632926225662,-0.016751816496253014
1789759674658045400,0.51504541015625,0.2321336418390274,-0.029896913096308708,-0.01888926886022091
1789759674668054500,0.525054443359375,0.30442115664482117,-0.036807283759117126,-0.009365538135170937
1789759674678063600,0.535063720703125,0.3741528391838074,-0.027789819985628128,0.0017718010349199176
1789759674688072700,0.54507275390625,0.40804579854011536,-0.012859606184065342,0.019176358357071877
1789759674698082600,0.55508251953125,0.38891980051994324,0.012988769449293613,0.04424282908439636
1789759674708091600,0.565091552734375,0.4174281358718872,0.03831223398447037,0.03171771392226219
1789759674718100500,0.5751005859375,0.4166345000267029,0.0403578095138073,0.03244049847126007
1789759674728110600,0.585110595703125,0.4552048146724701,0.03437688201665878,0.021228056401014328
1789759674738119700,0.59511962890625,0.4959346652030945,0.021160412579774857,0.018785672262310982
1789759674748128800,0.605128662109375,0.5193286538124084,0.006911169271916151,0.015078818425536156
1789759674758137600,0.6151376953125,0.5160660147666931,0.012957876548171043,0.02038969285786152
1789759674768147700,0.625147705078125,0.511132538318634,0.028145086020231247,0.029223665595054626
1789759674778156500,0.635156494140625,0.4932171702384949,0.042098451405763626,0.03762274235486984
1789759674788165600,0.64516552734375,0.47560301423072815,0.06335952877998352,0.04542047902941704
1789759674798174700,0.6551748046875,0.4612269997596741,0.07072796672582626,0.05392634868621826
1789759674808184600,0.6651845703125,0.4516638517379761,0.07728200405836105,0.05606859549880028
1789759674818193700,0.675193603515625,0.4490337371826172,0.08338809758424759,0.057671550661325455
1789759674828202800,0.68520263671875,0.446138858795166,0.08393803983926773,0.06082846224308014
1789759674838211600,0.695211669921875,0.44048312306404114,0.0885530337691307,0.06704694777727127
1789759674848221400,0.705221435546875,0.42342478036880493,0.09548604488372803,0.0739477276802063
1789759674858230500,0.71523046875,0.3967364430427551,0.10554267466068268,0.08010601997375488
1789759674868239600,0.725239501953125,0.3701159954071045,0.11252281814813614,0.08083439618349075
1789759674878249700,0.735249755859375,0.34800004959106445,0.11918391287326813,0.08568987250328064
1789759674888258800,0.7452587890625,0.3329867422580719,0.12878035008907318,0.08497081696987152
1789759674898267600,0.755267578125,0.30633461475372314,0.13581402599811554,0.0965220108628273
1789759674908276500,0.7652763671875,0.27736663818359375,0.1549730747938156,0.10669608414173126
1789759674918286600,0.77528662109375,0.2621985971927643,0.15857499837875366,0.11627893894910812
1789759674928295700,0.785295654296875,0.2506657838821411,0.16832642257213593,0.12334270775318146
1789759674938304800,0.7953046875,0.23353205621242523,0.17534944415092468,0.12733611464500427
1789759674948313600,0.805313720703125,0.21846282482147217,0.18801544606685638,0.1338733732700348
1789759674958323700,0.81532373046875,0.1997179090976715,0.19406774640083313,0.13646383583545685
1789759674968332500,0.82533251953125,0.18329764902591705,0.20564237236976624,0.1420402228832245
1789759674978341600,0.835341552734375,0.16595381498336792,0.21074552834033966,0.1471974402666092
1789759674988350700,0.845350830078125,0.15087206661701202,0.21941331028938293,0.1498211920261383
1789759674998360600,0.855360595703125,0.13359588384628296,0.23029844462871552,0.15065714716911316
1789759675008369700,0.86536962890625,0.11657615005970001,0.2384069710969925,0.1511857956647873
1789759675018378800,0.875378662109375,0.10551097989082336,0.24342916905879974,0.15007871389389038
1789759675028388900,0.885388916015625,0.08794743567705154,0.24084137380123138,0.14549461007118225
1789759675038397400,0.8953974609375,0.07470619678497314,0.2381499856710434,0.1401997208595276
1789759675048406500,0.905406494140625,0.049856506288051605,0.23862722516059875,0.1289806216955185
1789759675058415600,0.91541552734375,0.031260449439287186,0.22625496983528137,0.12518161535263062
1789759675068425700,0.92542578125,0.005515939090400934,0.21669982373714447,0.12140845507383347
1789759675078434800,0.935434814453125,-0.01733717881143093,0.20162846148014069,0.12772707641124725
1789759675088443600,0.945443603515625,-0.03696201369166374,0.19267091155052185,0.12656326591968536
1789759675098452500,0.955452392578125,-0.06084870174527168,0.19508346915245056,0.10887135565280914
1789759675108462600,0.965462646484375,-0.09136319905519485,0.20134270191192627,0.10150399059057236
1789759675118472200,0.97547216796875,-0.1126280128955841,0.1828523725271225,0.0966849997639656
1789759675128481000,0.98548095703125,-0.11959563940763474,0.16557671129703522,0.10317724943161011
1789759675138489900,0.99548974609375,-0.1354033648967743,0.13513119518756866,0.1147172600030899
1789759675148500000,1.0055,-0.15283934772014618,0.11031931638717651,0.11642221361398697
1789759675158509000,1.015509033203125,-0.17583520710468292,0.11616095900535583,0.13315512239933014
1789759675168518100,1.02551806640625,-0.1754636913537979,0.10987084358930588,0.1222446858882904
1789759675178528000,1.035528076171875,-0.17499205470085144,0.11247168481349945,0.1303153932094574
1789759675188537000,1.045537109375,-0.16802282631397247,0.10397966206073761,0.12348278611898422
1789759675198546000,1.0555458984375,-0.14145486056804657,0.09405618906021118,0.12447694689035416
1789759675208555000,1.065554931640625,-0.10975898802280426,0.08351220190525055,0.10017134249210358
1789759675218564900,1.07556494140625,-0.08890829980373383,0.09838142991065979,0.06842752546072006
1789759675228574000,1.085573974609375,-0.06359708309173584,0.09809540957212448,0.06927307695150375
1789759675238583000,1.0955830078125,-0.022341791540384293,0.10117215663194656,0.08869178593158722
1789759675248592000,1.105591796875,0.04228061065077782,0.10411335527896881,0.09899209439754486
1789759675258602000,1.11560205078125,0.10662630945444107,0.10384943336248398,0.11164477467536926
1789759675268611000,1.125611083984375,0.1674499809741974,0.1047314703464508,0.09892658144235611
1789759675278620000,1.135619873046875,0.2228541225194931,0.11790639907121658,0.07339511811733246
1789759675288629000,1.14562890625,0.25872528553009033,0.13357004523277283,0.04110722243785858
1789759675298639000,1.15563916015625,0.2850431799888611,0.1371181756258011,0.04719308018684387
1789759675308648200,1.165648193359375,0.3062177300453186,0.13969798386096954,0.04446680098772049
1789759675318657000,1.175656982421875,0.32138335704803467,0.14231054484844208,0.04093331843614578
1789759675328667000,1.1856669921875,0.33641690015792847,0.12408226728439331,0.025964222848415375
1789759675338676000,1.195676025390625,0.33777564764022827,0.13116733729839325,0.011533351615071297
1789759675348685000,1.20568505859375,0.3350965082645416,0.12240554392337799,-0.0035382758360356092
1789759675358694100,1.215694091796875,0.3365396559238434,0.11618173122406006,-0.04316025227308273
1789759675368704000,1.2257041015625,0.3280724287033081,0.10378231853246689,-0.019295932725071907
1789759675378713000,1.235713134765625,0.31393155455589294,0.0548187755048275,0.0023462448734790087
1789759675388722000,1.245721923828125,0.2462579756975174,0.05614609271287918,0.008892294950783253
1789759675398731000,1.25573095703125,0.17630232870578766,0.06379921734333038,0.004070109222084284
1789759675408741000,1.2657412109375,0.11461392790079117,0.09070034325122833,0.007390271872282028
1789759675418750000,1.27575,0.10963728278875351,0.10332026332616806,0.04676031321287155
1789759675428759000,1.285759033203125,0.07958909869194031,0.09946933388710022,0.046423692256212234
1789759675438767900,1.295767822265625,0.10155991464853287,0.0761464312672615,0.039326101541519165
1789759675448778000,1.305778076171875,0.12448227405548096,0.031989358365535736,0.028871862217783928
1789759675458787000,1.315787109375,0.1592136174440384,-0.016656741499900818,-0.0008828379213809967
1789759675468796000,1.3257958984375,0.15497121214866638,-0.03674283251166344,-0.014169881120324135
1789759675478806000,1.335805908203125,0.12004704773426056,-0.03116004914045334,-0.018623219802975655
1789759675488815000,1.345815185546875,0.09383514523506165,-0.01930898241698742,0.00484215933829546
1789759675498824200,1.35582421875,0.08814184367656708,-0.010093380697071552,0.026189526543021202
1789759675508833000,1.3658330078125,0.0850730836391449,-0.006456301547586918,0.06606823205947876
1789759675518843000,1.3758427734375,0.1125558391213417,-0.0037944719661027193,0.05392501875758171
1789759675528852000,1.38585205078125,0.13200756907463074,-0.0004037352045997977,0.04566628858447075
1789759675538861000,1.395861083984375,0.1604304164648056,-0.020366789773106575,0.01834864728152752
1789759675548870100,1.4058701171875,0.16732880473136902,-0.039044339209795,-0.007610781583935022
1789759675558880000,1.4158798828125,0.1627066284418106,-0.04976489394903183,-0.020983312278985977
1789759675568888800,1.425888916015625,0.1436903178691864,-0.05667632818222046,-0.004198473412543535
1789759675578898000,1.43589794921875,0.13947054743766785,-0.05326162278652191,0.012432168237864971
1789759675588907000,1.445906982421875,0.13566061854362488,-0.030306506901979446,0.030521957203745842
1789759675598917000,1.455917236328125,0.1874050498008728,-0.029826605692505836,0.020841632038354874
1789759675608926000,1.465926025390625,0.20845814049243927,-0.02448776550590992,0.0166719201952219
1789759675618935000,1.47593505859375,0.22410766780376434,-0.03268337622284889,0.011619637720286846
1789759675628945200,1.485945068359375,0.21894006431102753,-0.042040660977363586,0.00752129964530468
1789759675638954000,1.4959541015625,0.2052365094423294,-0.057796988636255264,-0.003665308468043804
1789759675648963000,1.505963134765625,0.18044647574424744,-0.06102766841650009,-0.008499212563037872
1789759675658972000,1.515971923828125,0.15394455194473267,-0.07051331549882889,-0.0054419031366705894
1789759675668982000,1.52598193359375,0.12898515164852142,-0.07866604626178741,-0.0040823593735694885
1789759675678991000,1.5359912109375,0.1112399697303772,-0.07306968420743942,-0.002754773711785674
1789759675689000200,1.546000244140625,0.08692451566457748,-0.05974482372403145,-0.010074738413095474
1789759675699009000,1.556009033203125,0.0684962347149849,-0.047201067209243774,-0.005094361025840044
1789759675709019000,1.566018798828125,0.06486927717924118,-0.03658144548535347,0.0038578552193939686
1789759675719028000,1.576028076171875,0.0673058032989502,-0.029814355075359344,0.00863183755427599
1789759675729037000,1.586037109375,0.08718496561050415,-0.03911784291267395,0.0036962011363357306
1789759675739047200,1.596047119140625,0.11471539735794067,-0.031741149723529816,0.00663366774097085
1789759675749056000,1.606055908203125,0.14925312995910645,-0.03578942269086838,0.011143464595079422
1789759675759064800,1.61606494140625,0.17571589350700378,-0.01575632579624653,0.019085543230175972
1789759675769074000,1.626073974609375,0.19480836391448975,-0.00017869810108095407,0.02997387759387493
1789759675779084000,1.636083984375,0.2192833572626114,0.010351973585784435,0.0314151793718338
1789759675789093000,1.646093017578125,0.24979625642299652,0.03116750717163086,0.048357944935560226
1789759675799102000,1.65610205078125,0.2808164954185486,0.044431913644075394,0.04060841351747513
1789759675809111000,1.666111083984375,0.3118593692779541,0.06634706258773804,0.04181189462542534
1789759675819121200,1.67612109375,0.3359742760658264,0.08026128262281418,0.0558432936668396
1789759675829130000,1.6861298828125,0.3605611026287079,0.08659534901380539,0.07173730432987213
1789759675839139000,1.69613916015625,0.38469335436820984,0.08606990426778793,0.08836421370506287
1789759675849148200,1.706148193359375,0.3920420706272125,0.08733384311199188,0.10603216290473938
1789759675859158000,1.716157958984375,0.4064295291900635,0.09477365016937256,0.10898613929748535
1789759675869167000,1.7261669921875,0.40065446496009827,0.12144653499126434,0.11628000438213348
1789759675879176000,1.736176025390625,0.38768380880355835,0.13911740481853485,0.11754793673753738
1789759675889185800,1.746185791015625,0.369144469499588,0.1551525741815567,0.11887605488300323
1789759675899195000,1.75619482421875,0.3553445041179657,0.15357224643230438,0.11948378384113312
1789759675909204000,1.766203857421875,0.34008753299713135,0.1583787202835083,0.13084456324577332
1789759675919213000,1.776213134765625,0.33044663071632385,0.15675605833530426,0.13040007650852203
1789759675929223200,1.78622314453125,0.31832578778266907,0.1656544804573059,0.13348056375980377
1789759675939232000,1.79623193359375,0.3087674379348755,0.18054766952991486,0.1152094155550003
1789759675949240800,1.80624072265625,0.28782060742378235,0.18463163077831268,0.1261499524116516
1789759675959250000,1.81625,0.26716166734695435,0.1902940422296524,0.11857511848211288
1789759675969260000,1.826260009765625,0.22430580854415894,0.18705616891384125,0.10708517581224442
1789759675979269000,1.83626904296875,0.17697957158088684,0.19400516152381897,0.11662941426038742
1789759675989278000,1.84627783203125,0.1341138631105423,0.2021230012178421,0.11124955862760544
1789759675999287000,1.856287109375,0.0983063280582428,0.19053612649440765,0.11853623390197754
1789759676009297000,1.866296875,0.05582544952630997,0.19274601340293884,0.13702842593193054
1789759676019306000,1.876305908203125,0.009333048015832901,0.16883349418640137,0.1409888118505478
1789759676029315000,1.886315185546875,-0.05235029011964798,0.16884493827819824,0.13065335154533386
1789759676039325000,1.896324951171875,-0.14319443702697754,0.17060662806034088,0.14423227310180664
1789759676049334000,1.906333984375,-0.22299259901046753,0.16268984973430634,0.12894652783870697
1789759676059343000,1.916343017578125,-0.30020615458488464,0.1689767688512802,0.13258600234985352
1789759676069352000,1.92635205078125,-0.35904842615127563,0.15181216597557068,0.11921481043100357
1789759676079361800,1.93636181640625,-0.39785388112068176,0.12924747169017792,0.11417743563652039
1789759676089371000,1.946370849609375,-0.43485692143440247,0.11846938729286194,0.0897274911403656
1789759676099380000,1.9563798828125,-0.4762302041053772,0.12072402238845825,0.05661054700613022
1789759676109389000,1.96638916015625,-0.504489541053772,0.12478427588939667,0.02322223223745823
1789759676119399200,1.976399169921875,-0.5031574368476868,0.11393295973539352,0.023360183462500572
1789759676129408000,1.986407958984375,-0.48846369981765747,0.10320894420146942,0.031153125688433647
1789759676139416800,1.996416748046875,-0.46514585614204407,0.08921456336975098,0.06472786515951157
1789759676149426000,2.006426025390625,-0.4192875325679779,0.07399539649486542,0.09956467151641846
1789759676159436000,2.01643603515625,-0.3996054530143738,0.09690843522548676,0.1020193099975586
1789759676169445000,2.026445068359375,-0.37509292364120483,0.11353428661823273,0.0893208235502243
1789759676179454200,2.0364541015625,-0.3491058051586151,0.11258167028427124,0.09704399108886719
1789759676189463800,2.0464638671875,-0.32452401518821716,0.13160330057144165,0.06850369274616241
1789759676199473000,2.056472900390625,-0.3104044795036316,0.1258322298526764,0.07693339884281158
1789759676209482000,2.06648193359375,-0.32088959217071533,0.13147200644016266,0.07473175972700119
1789759676219491000,2.076490966796875,-0.30469971895217896,0.12665514647960663,0.05892856419086456
1789759676229501000,2.0865009765625,-0.288222998380661,0.11814022064208984,0.06649327278137207
1789759676239510000,2.096510009765625,-0.28071609139442444,0.13158705830574036,0.06222395971417427
1789759676249518800,2.106518798828125,-0.26084011793136597,0.10107335448265076,0.04920988902449608
1789759676259528000,2.11652783203125,-0.2536841928958893,0.1042529046535492,0.0385306142270565
1789759676269538000,2.1265380859375,-0.23697152733802795,0.07740876823663712,0.02761112153530121
1789759676279547000,2.136546875,-0.23909273743629456,0.07249177992343903,0.05631786584854126
1789759676289556000,2.146555908203125,-0.26401033997535706,0.0636327713727951,0.0362221859395504
1789759676299566000,2.156566162109375,-0.2904757857322693,0.07199110090732574,0.04115089774131775
1789759676309575200,2.1665751953125,-0.31622961163520813,0.06714095175266266,0.04916808009147644
1789759676319584000,2.176583984375,-0.3426484167575836,0.04527480527758598,0.0418422557413578
1789759676329592800,2.1865927734375,-0.3718787431716919,0.029894782230257988,0.04428170993924141
1789759676339603000,2.19660302734375,-0.42126601934432983,0.01745089516043663,0.052250687032938004
1789759676349612000,2.206612060546875,-0.4610491096973419,-0.001514273346401751,0.05676394701004028
1789759676359621000,2.21662109375,-0.4958036243915558,-0.01107262447476387,0.07406677305698395
1789759676369630000,2.2266298828125,-0.5120867490768433,-0.0278627909719944,0.061102502048015594
1789759676379639800,2.236639892578125,-0.5183345079421997,-0.04794861748814583,0.02803616225719452
1789759676389649000,2.24664892578125,-0.5291884541511536,-0.04952068254351616,0.019401127472519875
1789759676399658000,2.256657958984375,-0.5061926245689392,-0.05270342528820038,0.024929318577051163
1789759676409667000,2.2666669921875,-0.47433987259864807,-0.03964701294898987,0.043715789914131165
1789759676419677000,2.276677001953125,-0.40927138924598694,-0.040944769978523254,0.03834392502903938
1789759676429686000,2.28668603515625,-0.329759806394577,-0.03223090618848801,0.028388764709234238
1789759676439694800,2.29669482421875,-0.22270257771015167,-0.02245044708251953,-0.0034325483720749617
1789759676449704000,2.306703857421875,-0.10276925563812256,-0.023909859359264374,-0.006207562051713467
1789759676459714000,2.316714111328125,-0.011145861819386482,-0.0044107274152338505,0.004221110139042139
1789759676469723000,2.326722900390625,0.06986670196056366,0.012493154965341091,0.012675581499934196
1789759676479732000,2.33673193359375,0.14299416542053223,0.03951065614819527,0.03149028122425079
1789759676489742000,2.3467421875,0.20030753314495087,0.07120919972658157,0.06579925119876862
1789759676499751000,2.3567509765625,0.27604782581329346,0.09511932730674744,0.048051416873931885
1789759676509760000,2.366760009765625,0.344970166683197,0.10886150598526001,0.04706950858235359
1789759676519768800,2.376768798828125,0.3888087272644043,0.1191524863243103,-0.0005376922199502587
1789759676529779000,2.386779052734375,0.44375693798065186,0.10011941194534302,-0.017775269225239754
1789759676539788000,2.3967880859375,0.44127246737480164,0.0994834452867508,-0.027838822454214096
1789759676549797000,2.406797119140625,0.4164794981479645,0.096134252846241,-0.025593509897589684
1789759676559806000,2.416805908203125,0.3514043688774109,0.10983089357614517,-0.03791782259941101
1789759676569815800,2.42681591796875,0.281761109828949,0.1222396269440651,-0.03343811631202698
1789759676579825000,2.436824951171875,0.21887588500976562,0.12919020652770996,-0.057806842029094696
1789759676589834000,2.446833984375,0.17602136731147766,0.12675021588802338,-0.060558419674634933
1789759676599844000,2.456843994140625,0.14720143377780914,0.11944330483675003,-0.07137671113014221
1789759676609853000,2.46685302734375,0.14881983399391174,0.09503357112407684,-0.08082906901836395
1789759676619862000,2.476862060546875,0.13063950836658478,0.0780351459980011,-0.09594757109880447
1789759676629870800,2.486870849609375,0.11682488769292831,0.06360667198896408,-0.1532161831855774
1789759676639881000,2.496880859375,0.0797044187784195,0.07437862455844879,-0.1962568610906601
1789759676649890000,2.50689013671875,0.06199466064572334,0.06591057032346725,-0.23916544020175934
1789759676659899000,2.51689892578125,0.04561195895075798,0.05383926257491112,-0.27659323811531067
1789759676669908000,2.526907958984375,0.03105911612510681,0.037941522896289825,-0.3160618245601654
1789759676679918000,2.53691796875,0.0612788051366806,0.008688828907907009,-0.17848558723926544
1789759676689927000,2.546927001953125,0.09817024320363998,-0.05700469762086868,-0.020123377442359924
1789759676699936000,2.55693603515625,0.041302431374788284,-0.0044232443906366825,0.17118319869041443
1789759676709945000,2.566945068359375,-0.05871258303523064,0.09761843830347061,0.11833729594945908
1789759676719955000,2.576954833984375,-0.14111530780792236,0.2077566534280777,0.07509235292673111
1789759676729964000,2.586964111328125,-0.15119831264019012,0.22164903581142426,-0.029145900160074234
1789759676739973000,2.59697314453125,-0.05246906727552414,0.1956041157245636,-0.022282136604189873
1789759676749983000,2.60698291015625,0.04884903132915497,0.11372549831867218,0.04541542008519173
1789759676759991800,2.61699169921875,0.19691838324069977,0.049008287489414215,0.1148136705160141
1789759676770001000,2.6270009765625,0.3177124559879303,0.02713814377784729,0.1584831178188324
1789759676780010000,2.637010009765625,0.37670227885246277,0.05114973708987236,0.1682896763086319
1789759676790020000,2.64702001953125,0.3993801474571228,0.12322232872247696,0.15387478470802307
1789759676800029000,2.65702880859375,0.33986595273017883,0.2226405292749405,0.10217004269361496
1789759676810038000,2.6670380859375,0.3075663447380066,0.25891172885894775,0.07122784107923508
1789759676820046800,2.677046875,0.2689313292503357,0.2580389976501465,0.05734717845916748
1789759676830057000,2.687056884765625,0.24787159264087677,0.2386687695980072,0.06968054175376892
1789759676840066000,2.697066162109375,0.2536751329898834,0.21120359003543854,0.1278117597103119
1789759676850075000,2.707074951171875,0.27404993772506714,0.17225192487239838,0.14654949307441711
1789759676860084000,2.717083984375,0.2930654287338257,0.1563752293586731,0.24927294254302979
1789759676870094000,2.727093994140625,0.3165084421634674,0.1660904437303543,0.24258574843406677
1789759676880103000,2.73710302734375,0.3006359934806824,0.21895524859428406,0.22581209242343903
1789759676890112000,2.747112060546875,0.2504575252532959,0.25709065794944763,0.16124774515628815
1789759676900121900,2.757121826171875,0.17690953612327576,0.29169389605522156,0.07448968291282654
1789759676910131000,2.767130859375,0.11685711145401001,0.3076390326023102,0.013731790706515312
1789759676920140000,2.77714013671875,0.0678994208574295,0.28737160563468933,0.053337790071964264
1789759676930149000,2.787149169921875,0.014720089733600616,0.2842274606227875,0.13601775467395782
1789759676940159000,2.797158935546875,-0.027029752731323242,0.27037450671195984,0.16028821468353271
1789759676950167800,2.807167724609375,-0.08552129566669464,0.28321573138237,0.16829393804073334
1789759676960177000,2.817177001953125,-0.14696387946605682,0.2762947082519531,0.16681908071041107
1789759676970186000,2.82718603515625,-0.23103934526443481,0.2756938934326172,0.17297151684761047
1789759676980196000,2.837196044921875,-0.3567330837249756,0.2776515781879425,0.1980142742395401
1789759676990205000,2.847204833984375,-0.49632880091667175,0.2758515477180481,0.24944524466991425
1789759677000213800,2.8572138671875,-0.604155421257019,0.27073562145233154,0.2170465588569641
1789759677010222800,2.867222900390625,-0.7180156707763672,0.26373711228370667,0.12088754028081894
1789759677020233000,2.87723291015625,-0.8287310004234314,0.2506817579269409,0.07864394783973694
1789759677030242000,2.887241943359375,-0.9215690493583679,0.2147487848997116,0.0667920783162117
1789759677040251100,2.897251220703125,-1.0045206546783447,0.15920643508434296,0.029291043058037758
1789759677050261000,2.907260986328125,-1.1050763130187988,0.1302243173122406,0.03051529824733734
1789759677060270000,2.91727001953125,-1.228779911994934,0.11348368227481842,0.032874058932065964
1789759677070279000,2.92727880859375,-1.3545817136764526,0.10576025396585464,0.05246320739388466
1789759677080288000,2.9372880859375,-1.507436990737915,0.13987214863300323,0.07721569389104843
1789759677090297900,2.9472978515625,-1.619572639465332,0.13824522495269775,0.06892793625593185
1789759677100307000,2.957306884765625,-1.6201872825622559,0.07252267003059387,0.09396830946207047
1789759677110316000,2.96731591796875,-1.580872654914856,0.011155715212225914,0.046495065093040466
1789759677120324400,2.977324462890625,-1.6209111213684082,-0.01284469198435545,0.03482962027192116
1789759677130334500,2.98733447265625,-1.7086247205734253,-0.04024995118379593,0.002123870886862278
1789759677140343600,2.997343505859375,-1.6894681453704834,-0.05924974009394646,0.04875741899013519
1789759677150352100,3.00735205078125,-1.6653707027435303,-0.07583244889974594,0.06491614878177643
1789759677160361200,3.017361328125,-1.6779512166976929,-0.07167072594165802,0.10774590075016022
1789759677170371300,3.027371337890625,-1.6491467952728271,-0.08940178155899048,0.07965115457773209
1789759677180380400,3.03738037109375,-1.6449365615844727,-0.06845122575759888,0.07353387027978897
1789759677190389500,3.047389404296875,-1.544260859489441,-0.07262839376926422,0.07050958275794983
1789759677200399400,3.0573994140625,-1.38152015209198,-0.0966074988245964,0.06561069935560226
1789759677210408400,3.067408447265625,-1.2182705402374268,-0.09870127588510513,0.05573996156454086
1789759677220417300,3.077417236328125,-1.0371696949005127,-0.09117252379655838,0.04951855167746544
1789759677230426400,3.08742626953125,-0.8421607613563538,-0.06388843804597855,0.06172062084078789
1789759677240436200,3.097436279296875,-0.640027642250061,-0.01116317231208086,0.09187053143978119
1789759677250445300,3.1074453125,-0.4191597104072571,0.013154949992895126,0.08274787664413452
1789759677260454400,3.117454345703125,-0.24347124993801117,0.02947639860212803,0.06776599586009979
1789759677270463200,3.127463134765625,-0.07677813619375229,0.03648317605257034,0.05499081313610077
1789759677280473300,3.137473388671875,0.046539805829524994,0.05615035444498062,0.0339939184486866
1789759677290482200,3.147482177734375,0.1473526954650879,0.09641148895025253,0.05892137438058853
1789759677300491300,3.1574912109375,0.24315646290779114,0.10792513191699982,0.03500831872224808
1789759677310500400,3.167500244140625,0.31022152304649353,0.11135901510715485,0.034023746848106384
1789759677320510500,3.177510498046875,0.3712611794471741,0.11494549363851547,0.020259199663996696
1789759677330519600,3.18751953125,0.40971508622169495,0.102885901927948,0.0327526219189167
1789759677340528000,3.197528076171875,0.3979763984680176,0.09753481298685074,0.03898708149790764
1789759677350538200,3.207538330078125,0.34157225489616394,0.08007166534662247,0.03542643412947655
1789759677360547300,3.21754736328125,0.24579378962516785,0.059469450265169144,0.042993005365133286
1789759677370556400,3.227556396484375,0.11238859593868256,0.039143674075603485,0.04820987209677696
1789759677380565500,3.2375654296875,-0.03201945126056671,0.018859442323446274,0.04357783868908882
1789759677390575400,3.247575439453125,-0.18467503786087036,0.0015219965716823936,0.04466254264116287
1789759677400584400,3.25758447265625,-0.34633398056030273,-0.001919340225867927,0.051308196038007736
1789759677410593300,3.26759326171875,-0.44558972120285034,-0.03086576983332634,0.04306970536708832
1789759677420602400,3.277602294921875,-0.50673508644104,-0.058237474411726,0.05331941321492195
1789759677430612200,3.2876123046875,-0.5504943132400513,-0.06314727663993835,0.052505020052194595
1789759677440621300,3.297621337890625,-0.5598534345626831,-0.06932075321674347,0.03750503063201904
1789759677450630400,3.30763037109375,-0.560761570930481,-0.0712137222290039,0.03313931077718735
1789759677460639200,3.31763916015625,-0.5650237202644348,-0.06721924990415573,0.07516904920339584
1789759677470649300,3.3276494140625,-0.5580224990844727,-0.08236517757177353,0.05660682171583176
1789759677480658200,3.337658203125,-0.5483618974685669,-0.05060512199997902,0.04673687741160393
1789759677490667300,3.347667236328125,-0.5017321109771729,-0.0608990378677845,0.002008023438975215
1789759677500677400,3.357677490234375,-0.4465966522693634,-0.05420331656932831,-0.019717779010534286
1789759677510686500,3.3676865234375,-0.3950623571872711,-0.006316485349088907,0.025851303711533546
1789759677520695600,3.377695556640625,-0.3268668055534363,0.015932360664010048,0.047204796224832535
1789759677530704400,3.387704345703125,-0.22130335867404938,0.024706145748496056,0.039332225918769836
1789759677540714200,3.39771435546875,-0.12479200214147568,0.010269149206578732,0.043063580989837646
1789759677550723300,3.407723388671875,-0.01799790933728218,0.013012205250561237,0.023455524817109108
1789759677560732400,3.417732421875,0.08533141016960144,0.02809634990990162,0.021134845912456512
1789759677570741500,3.427741455078125,0.10455623269081116,0.07032503187656403,0.03110465593636036
1789759677580751400,3.43775146484375,0.1070055440068245,0.11410579830408096,0.03806855529546738
1789759677590760200,3.44776025390625,0.1259765774011612,0.14576013386249542,0.0506189689040184
1789759677600769300,3.457769287109375,0.13453970849514008,0.1425670087337494,0.03435930609703064
1789759677610779400,3.467779296875,0.11795087158679962,0.12566258013248444,0.025736788287758827
1789759677620788200,3.477788330078125,0.07728999108076096,0.11125887930393219,0.03728558495640755
1789759677630797300,3.48779736328125,0.00487305223941803,0.09458030015230179,0.06880436092615128
1789759677640806400,3.497806396484375,-0.10545212030410767,0.07191812992095947,0.09381650388240814
1789759677650816500,3.50781640625,-0.23949594795703888,0.0680253878235817,0.10368884354829788
1789759677660825300,3.517825439453125,-0.3535551428794861,0.0544443316757679,0.1224212497472763
1789759677670834200,3.527834228515625,-0.4906136691570282,0.057076867669820786,0.14129534363746643
1789759677680843300,3.53784326171875,-0.6168879866600037,0.06826667487621307,0.15506069362163544
1789759677690853400,3.547853271484375,-0.7202412486076355,0.07275623083114624,0.2003975510597229
1789759677700862500,3.557862548828125,-0.832200288772583,0.08388478308916092,0.21335595846176147
1789759677710871600,3.56787158203125,-0.9174211621284485,0.08940977603197098,0.25553616881370544
1789759677720880400,3.57788037109375,-0.9744671583175659,0.08776500821113586,0.30351248383522034
1789759677730890200,3.58789013671875,-1.0110819339752197,0.04387717694044113,0.3387652635574341
1789759677740899300,3.5978994140625,-1.0064905881881714,0.043597545474767685,0.3857452869415283
1789759677750908400,3.607908447265625,-1.1605912446975708,-0.2984846830368042,-0.10188028961420059
1789759677760917500,3.61791748046875,-1.0747032165527344,-0.19739189743995667,-0.06809702515602112
1789759677770927400,3.62792724609375,-1.217592716217041,-0.11268500238656998,-0.05673278868198395
1789759677780936200,3.637936279296875,-1.2561837434768677,-0.030193321406841278,0.03437581658363342
1789759677790945300,3.6479453125,-1.3258811235427856,0.030658576637506485,-0.04062812030315399
1789759677800955400,3.657955322265625,-1.2933428287506104,-0.04007231816649437,-0.055144213140010834
1789759677810964200,3.667964111328125,-1.2560429573059082,-0.10166271030902863,-0.0520019493997097
1789759677820973300,3.677973388671875,-1.1527601480484009,-0.16339612007141113,-0.01543461624532938
1789759677830982400,3.687982421875,-1.1639246940612793,-0.11939004063606262,0.029459355399012566
1789759677840992500,3.697992431640625,-1.2299764156341553,-0.09835346788167953,-0.020785706117749214
1789759677851001300,3.70800146484375,-1.1964263916015625,-0.047140613198280334,-0.010782606899738312
1789759677861010400,3.718010498046875,-1.0346332788467407,-0.06488525867462158,-0.03773379698395729
1789759677871019300,3.728019287109375,-0.9103134870529175,-0.058108843863010406,-0.07650036364793777
1789759677881029400,3.738029296875,-0.8116118907928467,-0.06559418886899948,-0.038062963634729385
1789759677891038500,3.74803857421875,-0.7760683298110962,0.004923119675368071,-0.03475584834814072
1789759677901047300,3.75804736328125,-0.7149559259414673,0.02286376990377903,-0.0016194682102650404
1789759677911056400,3.768056396484375,-0.5921916961669922,0.015537414699792862,0.01170432660728693
1789759677921066200,3.778066162109375,-0.5211049914360046,-0.007931159809231758,-0.007589210290461779
1789759677931075300,3.788075439453125,-0.46800076961517334,0.010998322628438473,-0.015533152967691422
1789759677941084400,3.79808447265625,-0.43870463967323303,0.02184377983212471,-0.04466227814555168
1789759677951094300,3.80809423828125,-0.4228130280971527,0.08277583867311478,-0.03536118566989899
1789759677961103400,3.818103271484375,-0.37286120653152466,0.08089405298233032,-0.05580521002411842
1789759677971112200,3.8281123046875,-0.3500802516937256,0.08051934093236923,-0.06478911638259888
1789759677981121300,3.838121337890625,-0.436087042093277,0.08960631489753723,-0.07721702009439468
1789759677991131400,3.84813134765625,-0.48272058367729187,0.06281039118766785,-0.04234931990504265
1789759678001140500,3.858140380859375,-0.5489557981491089,0.03815590590238571,-0.030643928796052933
1789759678011149300,3.8681494140625,-0.630168616771698,0.009199091233313084,-0.012799418531358242
1789759678021158400,3.878158447265625,-0.7143511176109314,-0.04109630361199379,-0.006899451371282339
1789759678031168500,3.88816845703125,-0.8315110802650452,-0.050940413028001785,0.00395825644955039
1789759678041177300,3.89817724609375,-0.9738522171974182,-0.04754301905632019,0.017359282821416855
1789759678051186400,3.9081865234375,-1.0697721242904663,-0.058942146599292755,0.02943219058215618
1789759678061195300,3.9181953125,-1.1482634544372559,-0.027474502101540565,0.03473907336592674
1789759678071205400,3.928205322265625,-1.1800706386566162,-0.026498185470700264,0.05506058782339096
1789759678081214500,3.93821435546875,-1.2218737602233887,-0.02588326297700405,0.08734475821256638
1789759678091223300,3.948223388671875,-1.2372031211853027,-0.05867503210902214,0.10704256594181061
1789759678101233200,3.958233154296875,-1.3070250749588013,-0.07744712382555008,0.14948029816150665
1789759678111242200,3.9682421875,-1.4407299757003784,-0.09626980870962143,0.17013044655323029
1789759678121251600,3.97825146484375,-1.410498023033142,-0.1608346849679947,0.2459847331047058
1789759678131260700,3.9882607421875,-1.405501365661621,-0.2303602397441864,0.24656184017658234
1789759678141270500,3.9982705078125,-1.432560920715332,-0.23862935602664948,0.23385536670684814
1789759678151279600,4.008279541015625,-1.4426645040512085,-0.2603626251220703,0.18606974184513092
1789759678161288700,4.018288818359375,-1.4425626993179321,-0.2267969250679016,0.1646272987127304
1789759678171297500,4.028297607421875,-1.4755734205245972,-0.1843741089105606,0.1302807778120041
1789759678181307600,4.0383076171875,-1.4483156204223633,-0.16188903152942657,0.12405376881361008
1789759678191316500,4.04831640625,-1.4002711772918701,-0.15045049786567688,0.13190317153930664
1789759678201325600,4.05832568359375,-1.3077247142791748,-0.14015524089336395,0.13777783513069153
1789759678211335700,4.068335693359375,-1.1936626434326172,-0.18641887605190277,0.13574691116809845
1789759678221344800,4.0783447265625,-1.0173075199127197,-0.205790713429451,0.14266793429851532
1789759678231353600,4.088353515625,-0.8520384430885315,-0.22572340071201324,0.14701367914676666
1789759678241362700,4.09836279296875,-0.7021291255950928,-0.22118590772151947,0.14626958966255188
1789759678251372500,4.10837255859375,-0.5593365430831909,-0.20280903577804565,0.14844593405723572
1789759678261381600,4.118381591796875,-0.4196220338344574,-0.1874183565378189,0.1517820656299591
1789759678271390700,4.128390625,-0.30915704369544983,-0.16229462623596191,0.14064259827136993
1789759678281399800,4.13839990234375,-0.23830071091651917,-0.17604853212833405,0.14542856812477112
1789759678291409700,4.14840966796875,-0.20014268159866333,-0.1900772601366043,0.13706570863723755
1789759678301418500,4.15841845703125,-0.19249647855758667,-0.21992278099060059,0.14150387048721313
1789759678311427600,4.168427490234375,-0.21286806464195251,-0.26338210701942444,0.17346446216106415
1789759678321436700,4.178436767578125,-0.31585437059402466,-0.25458115339279175,0.17382079362869263
1789759678331446500,4.188446533203125,-0.40604525804519653,-0.29668307304382324,0.23208889365196228
1789759678341455600,4.19845556640625,-0.5428856611251831,-0.2914568781852722,0.2231486588716507
1789759678351464700,4.208464599609375,-0.6197452545166016,-0.3249557316303253,0.2549486756324768
1789759678361473500,4.2184736328125,-0.6889964938163757,-0.3308953642845154,0.2551470696926117
1789759678371483600,4.228483642578125,-0.7219217419624329,-0.35643163323402405,0.2603311836719513
1789759678381492700,4.23849267578125,-0.7322902083396912,-0.38835546374320984,0.2563167214393616
1789759678391501600,4.24850146484375,-0.6914740800857544,-0.39230093359947205,0.2829557955265045
1789759678401511700,4.25851171875,-0.6290594339370728,-0.40368223190307617,0.30756261944770813
1789759678411520800,4.268520751953125,-0.4434669315814972,-0.4251667261123657,0.3322831392288208
1789759678421529600,4.278529541015625,-0.2850431799888611,-0.44287222623825073,0.31093549728393555
1789759678431538700,4.28853857421875,-0.08759909123182297,-0.4445803761482239,0.3298705816268921
1789759678441548500,4.298548583984375,0.08539452403783798,-0.4183642268180847,0.30456894636154175
1789759678451557600,4.3085576171875,0.2799597382545471,-0.3933451473712921,0.2804465591907501
1789759678461566700,4.318566650390625,0.5103045105934143,-0.3876723647117615,0.26257890462875366
1789759678471575800,4.328575927734375,0.7292004227638245,-0.322556734085083,0.24097825586795807
1789759678481585700,4.338585693359375,0.9447734355926514,-0.2986902892589569,0.2179882526397705
1789759678491594500,4.348594482421875,1.115153431892395,-0.24898478388786316,0.1769622564315796
1789759678501603600,4.358603515625,1.3052176237106323,-0.20595769584178925,0.1647529900074005
1789759678511613700,4.36861376953125,1.4783108234405518,-0.1682790219783783,0.11517638713121414
1789759678521622800,4.378622802734375,1.6003727912902832,-0.14600780606269836,0.06120636686682701
1789759678531631600,4.388631591796875,1.6661654710769653,-0.10267471522092819,0.04487559571862221
1789759678541640400,4.398640380859375,1.7092477083206177,-0.07828228920698166,0.03605706989765167
1789759678551650600,4.408650634765625,1.6906079053878784,-0.04824183136224747,0.029076924547553062
1789759678561659600,4.41865966796875,1.652435302734375,-0.044552553445100784,0.028775721788406372
1789759678571668700,4.428668701171875,1.5502047538757324,-0.03430790454149246,0.02792830392718315
1789759678581677600,4.438677490234375,1.437803864479065,-0.03640274703502655,0.014282532967627048
1789759678591687700,4.448687744140625,1.3143434524536133,-0.05182830989360809,-0.009294698014855385
1789759678601696800,4.45869677734375,1.1466647386550903,-0.022837936878204346,0.028550950810313225
1789759678611705600,4.46870556640625,0.9957287311553955,-0.030653515830636024,0.026082733646035194
1789759678621714700,4.478714599609375,0.8715716600418091,-0.027347467839717865,0.020897824317216873
1789759678631724500,4.488724609375,0.7560650110244751,-0.06409749388694763,0.016386963427066803
1789759678641733600,4.498733642578125,0.6748554110527039,-0.05008633807301521,0.015731824561953545
1789759678651742700,4.50874267578125,0.6083115339279175,-0.062196794897317886,0.03684749826788902
1789759678661751800,4.518751708984375,0.5604555606842041,-0.1034635379910469,0.03413533419370651
1789759678671761700,4.52876171875,0.5100773572921753,-0.1303231120109558,0.05198277533054352
1789759678681770500,4.5387705078125,0.49266189336776733,-0.1581592708826065,0.050877559930086136
1789759678691779600,4.548779541015625,0.44682568311691284,-0.1678832769393921,0.06024789437651634
1789759678701789700,4.558789794921875,0.34862616658210754,-0.13648593425750732,0.052450958639383316
1789759678711798800,4.568798828125,0.2799469530582428,-0.10693018138408661,0.07242972403764725
1789759678721807600,4.5788076171875,0.25061970949172974,-0.11924969404935837,0.05577245354652405
1789759678731816400,4.58881640625,0.25326502323150635,-0.11774474382400513,0.05688272416591644
1789759678741826600,4.59882666015625,0.23827888071537018,-0.13908198475837708,0.05667925626039505
1789759678751835600,4.608835693359375,0.2230176329612732,-0.14951066672801971,0.052914347499608994
1789759678761844700,4.6188447265625,0.18994463980197906,-0.13971902430057526,0.0692906603217125
1789759678771853600,4.628853515625,0.151394322514534,-0.15102413296699524,0.06759288907051086
1789759678781863700,4.63886376953125,0.13969558477401733,-0.15461860597133636,0.07466544955968857
1789759678791872800,4.648872802734375,0.11470208317041397,-0.14634177088737488,0.05823773890733719
1789759678801881600,4.658881591796875,0.10822127759456635,-0.14540833234786987,0.06783950328826904
1789759678811891500,4.668891357421875,0.10114685446023941,-0.15667615830898285,0.043000731617212296
1789759678821900500,4.678900634765625,0.11105941236019135,-0.1514880657196045,0.030644994229078293
1789759678831909600,4.68890966796875,0.12705568969249725,-0.15938672423362732,-0.0015923039754852653
1789759678841918700,4.698918701171875,0.136245459318161,-0.1691586673259735,-0.04626523330807686
1789759678851928800,4.7089287109375,0.1409754902124405,-0.168209508061409,-0.024591362103819847
1789759678861937400,4.7189375,0.1444844752550125,-0.15440049767494202,-0.022061359137296677
1789759678871946500,4.728946533203125,0.1486816257238388,-0.18015725910663605,-0.005758286919444799
1789759678881955600,4.73895556640625,0.14252439141273499,-0.19182083010673523,-0.024946095421910286
1789759678891965700,4.748965576171875,0.17075257003307343,-0.20715291798114777,-0.04249712824821472
1789759678901974800,4.758974853515625,0.20647594332695007,-0.24617834389209747,-0.050278082489967346
1789759678911983600,4.768983642578125,0.23547697067260742,-0.21979734301567078,-0.014185327105224133
1789759678921992400,4.778992431640625,0.2524586021900177,-0.20516912639141083,0.0051897019147872925
1789759678932002600,4.78900244140625,0.3074193298816681,-0.20846664905548096,0.0482167974114418
1789759678942011600,4.79901171875,0.3644472062587738,-0.20169982314109802,0.030939273536205292
1789759678952020700,4.809020751953125,0.45455819368362427,-0.2111053168773651,0.015562447719275951
1789759678962030600,4.819030517578125,0.5383798480033875,-0.22780413925647736,-0.001847701147198677
1789759678972039700,4.829039794921875,0.6095067262649536,-0.22743529081344604,-0.0013435647124424577
1789759678982048800,4.839048828125,0.6785942316055298,-0.21333731710910797,0.02081446722149849
1789759678992057600,4.8490576171875,0.7555302977561951,-0.20922298729419708,0.04952201247215271
1789759679002067500,4.8590673828125,0.8433030247688293,-0.20185428857803345,0.043836962431669235
1789759679012076500,4.86907666015625,0.9397286176681519,-0.19297078251838684,0.025480059906840324
1789759679022085600,4.879085693359375,1.021614909172058,-0.17995618283748627,0.0036647759843617678
1789759679032094700,4.8890947265625,1.0891058444976807,-0.1388431042432785,0.014488928020000458
1789759679042104800,4.899104736328125,1.153173565864563,-0.12383965402841568,0.018548917025327682
1789759679052113400,4.909113525390625,1.2201874256134033,-0.11122212558984756,0.025354359298944473
1789759679062122500,4.91912255859375,1.2476270198822021,-0.10573122650384903,0.025245968252420425
1789759679072131600,4.929131591796875,1.249890685081482,-0.09742163121700287,0.027589283883571625
1789759679082141700,4.9391416015625,1.2387144565582275,-0.11143491417169571,0.02352103777229786
1789759679092150800,4.94915087890625,1.2149418592453003,-0.10567290335893631,-0.001785383210517466
1789759679102159600,4.95915966796875,1.1653361320495605,-0.10386035591363907,0.011539743281900883
1789759679112168400,4.96916845703125,1.1216720342636108,-0.0990927591919899,0.03183595836162567
1789759679122179000,4.979178955078125,1.0983717441558838,-0.11316543817520142,0.019890351220965385
1789759679132188200,4.989188232421875,1.0819838047027588,-0.11486692726612091,0.03533082455396652
1789759679142197200,4.999197265625,1.051931619644165,-0.09434567391872406,0.022477878257632256
1789759679152207000,5.00920703125,1.034152865409851,-0.08349835872650146,0.014220480807125568
1789759679162216200,5.01921630859375,1.039243221282959,-0.07626094669103622,-0.006010221783071756
1789759679172225000,5.02922509765625,1.0591529607772827,-0.05926518887281418,-0.0007582019316032529
1789759679182234000,5.039234130859375,1.0740896463394165,-0.05728912353515625,-0.00523577444255352
1789759679192244000,5.049243896484375,1.1152652502059937,-0.07043474912643433,-0.004120176658034325
1789759679202253000,5.059253173828125,1.136453628540039,-0.040878988802433014,0.019292471930384636
1789759679212262100,5.06926220703125,1.1638983488082886,-0.03623177483677864,0.012405537068843842
1789759679222271200,5.079271240234375,1.1863783597946167,-0.0071066454984247684,-0.0008114652009680867
1789759679232281000,5.089281005859375,1.2285436391830444,-0.0007835020078346133,-0.01629961095750332
1789759679242290000,5.0992900390625,1.2913814783096313,0.026974625885486603,0.026606842875480652
1789759679252299000,5.109299072265625,1.32166588306427,0.02533438429236412,0.009411078877747059
1789759679262308000,5.11930810546875,1.3541278839111328,0.06269880384206772,0.02311783656477928
1789759679272318200,5.129318115234375,1.3699942827224731,0.06777318567037582,0.03626985847949982
1789759679282327300,5.139327392578125,1.3566867113113403,0.08677031844854355,0.040175650268793106
1789759679292335900,5.1493359375,1.3370836973190308,0.09331423789262772,0.05451197922229767
1789759679302346000,5.159345947265625,1.2682784795761108,0.10974939912557602,0.04733848571777344
1789759679312355000,5.16935498046875,1.1800442934036255,0.14950214326381683,0.014703045599162579
1789759679322364200,5.1793642578125,1.1083756685256958,0.12368305772542953,0.0347294844686985
1789759679332373200,5.189373291015625,1.0273127555847168,0.11942413449287415,0.0379180870950222
1789759679342383000,5.199383056640625,0.9464903473854065,0.09081912040710449,0.028381839394569397
1789759679352392200,5.20939208984375,0.8660644888877869,0.10156204551458359,0.01595366559922695
1789759679362401000,5.219401123046875,0.7791178822517395,0.0927475169301033,0.03160213306546211
1789759679372410000,5.22941015625,0.7196042537689209,0.09759553521871567,0.052688777446746826
1789759679382420000,5.239419921875,0.6670323610305786,0.0700155720114708,0.03676174208521843
1789759679392429000,5.249428955078125,0.6137846112251282,0.07355810701847076,0.01942616142332554
1789759679402438100,5.259438232421875,0.5440923571586609,0.06437312811613083,0.04543352872133255
1789759679412447200,5.269447265625,0.4758695960044861,0.07401537150144577,0.05239236727356911
1789759679422457000,5.27945703125,0.42060208320617676,0.07241880893707275,0.052435509860515594
1789759679432466000,5.2894658203125,0.3986760079860687,0.06782218813896179,0.05351542308926582
1789759679442475000,5.29947509765625,0.37658268213272095,0.06835348904132843,0.0668882206082344
1789759679452485000,5.309485107421875,0.3684523403644562,0.07463642209768295,0.0715562105178833
1789759679462494200,5.319494140625,0.35477301478385925,0.08394070714712143,0.04621836170554161
1789759679472503300,5.32950341796875,0.3760324716567993,0.08421207964420319,0.043353866785764694
1789759679483765200,5.34076513671875,0.38561320304870605,0.0920681431889534,0.04668894037604332
1789759679494399000,5.35139892578125,0.4110240340232849,0.10974247753620148,0.06667303293943405
1789759679504409000,5.3614091796875,0.4284943640232086,0.11181521415710449,0.055564992129802704
1789759679514418200,5.371418212890625,0.4524089992046356,0.13315965235233307,0.04264200106263161
1789759679524427300,5.38142724609375,0.45895853638648987,0.1410370171070099,0.037693582475185394
1789759679534436000,5.39143603515625,0.4599907696247101,0.12182976305484772,0.05035771429538727
1789759679544446000,5.401446044921875,0.44898390769958496,0.11477531492710114,0.039259254932403564
1789759679554455000,5.411455078125,0.42990875244140625,0.10282517969608307,0.0654359981417656
1789759679564464000,5.421464111328125,0.4095054864883423,0.10685454308986664,0.0734984502196312
1789759679574473200,5.43147314453125,0.3746607005596161,0.1313130110502243,0.07982052862644196
1789759679584483000,5.441483154296875,0.36115553975105286,0.14701208472251892,0.07001131027936935
1789759679594492200,5.4514921875,0.3591507077217102,0.1460493505001068,0.05422835052013397
1789759679604501000,5.4615009765625,0.3620966970920563,0.13373436033725739,0.06384369730949402
1789759679614510000,5.471510009765625,0.3711003065109253,0.13421133160591125,0.05849446728825569
1789759679624520000,5.48152001953125,0.36944541335105896,0.11539024114608765,0.08722225576639175
1789759679634529000,5.491529052734375,0.3369292914867401,0.1113174706697464,0.07583537697792053
1789759679644538000,5.5015380859375,0.31450414657592773,0.14887629449367523,0.0808652862906456
1789759679654547200,5.511547119140625,0.2673206627368927,0.14616653323173523,0.0637584701180458
1789759679664557000,5.52155712890625,0.23224522173404694,0.18369872868061066,0.0648418441414833
1789759679674566100,5.531566162109375,0.20828290283679962,0.16935308277606964,0.03405250981450081
1789759679684575000,5.541574951171875,0.21295754611492157,0.1500275880098343,0.041546110063791275
1789759679694585000,5.551585205078125,0.21782606840133667,0.1460014134645462,0.05191512778401375
1789759679704594200,5.56159423828125,0.21522389352321625,0.13479669392108917,0.0764460414648056
1789759679714603300,5.571603271484375,0.20993751287460327,0.12924161553382874,0.06429989635944366
1789759679724612000,5.581612060546875,0.19583527743816376,0.14540965855121613,0.07556905597448349
1789759679734622000,5.5916220703125,0.17987042665481567,0.1499921679496765,0.06450122594833374
1789759679744631000,5.601631103515625,0.14289429783821106,0.15820561349391937,0.07409100234508514
1789759679754640100,5.61164013671875,0.11807257682085037,0.14775323867797852,0.05241846665740013
1789759679764649200,5.621649169921875,0.09017516672611237,0.14463654160499573,0.05825291946530342
1789759679774659000,5.6316591796875,0.06332704424858093,0.10775043070316315,0.05463315173983574
1789759679784668200,5.641668212890625,0.015717975795269012,0.11148738116025925,0.06016426905989647
1789759679794677000,5.651677001953125,-0.03941025584936142,0.11615563184022903,0.05288931354880333
1789759679808440300,5.6654404296875,-0.09463143348693848,0.09739233553409576,0.05425577983260155
1789759679819074000,5.676073974609375,-0.11927419900894165,0.09093683212995529,0.04705379530787468
1789759679829083100,5.686083251953125,-0.14194568991661072,0.07117351144552231,0.03922143951058388
1789759679839092000,5.696092041015625,-0.1555136889219284,0.0684344545006752,0.04090375825762749
1789759679849102000,5.70610205078125,-0.16855067014694214,0.06497367471456528,0.03552017733454704
1789759679859111200,5.716111083984375,-0.16043974459171295,0.062120627611875534,0.04602581635117531
1789759679869120000,5.7261201171875,-0.15966902673244476,0.044727522879838943,0.04108512029051781
1789759679879129000,5.736129150390625,-0.16603690385818481,0.027403661981225014,0.052613142877817154
1789759679889139200,5.74613916015625,-0.17695745825767517,0.018729479983448982,0.04345852881669998
1789759679899148000,5.75614794921875,-0.1937020868062973,0.03201838582754135,0.02486007660627365
1789759679909157000,5.7661572265625,-0.19759003818035126,0.019396867603063583,0.02972007915377617
1789759679919166200,5.776166259765625,-0.19928701221942902,-0.0033129723742604256,0.03326341509819031
1789759679929176000,5.786176025390625,-0.17701391875743866,-0.027057982981204987,0.034327615052461624
1789759679939185200,5.79618505859375,-0.16663958132266998,-0.033246636390686035,0.04290752112865448
1789759679949194200,5.8061943359375,-0.15552407503128052,-0.05511917918920517,0.03749198094010353
1789759679959203000,5.816203125,-0.16264431178569794,-0.05667872726917267,0.002999251941218972
1789759679969213000,5.826212890625,-0.15270192921161652,-0.0625360831618309,0.007601194549351931
1789759679979222000,5.836221923828125,-0.12161111831665039,-0.06833244860172272,0.006911435630172491
1789759679989231000,5.846231201171875,-0.0866297036409378,-0.10066855698823929,0.005315935704857111
1789759679999241200,5.8562412109375,-0.03887389600276947,-0.13194924592971802,0.015141136012971401
1789759680009250000,5.86625,0.018550248816609383,-0.17118452489376068,0.01950126327574253
1789759680019259100,5.876259033203125,0.06378776580095291,-0.16535620391368866,0.04410301148891449
1789759680029268000,5.88626806640625,0.08945584297180176,-0.15832066535949707,0.05258837714791298
1789759680039278000,5.896278076171875,0.11356943845748901,-0.09314379096031189,0.023515978828072548
1789759680049287200,5.906287109375,0.15641890466213226,-0.09152059257030487,-0.008236091583967209
1789759680059296300,5.916296142578125,0.26123878359794617,-0.10998189449310303,-0.00974583812057972
1789759680069305000,5.92630517578125,0.40940454602241516,-0.10800662636756897,0.011139470152556896
1789759680079315200,5.936315185546875,0.5593282580375671,-0.14268603920936584,0.029936060309410095
1789759680089324000,5.946323974609375,0.6647188663482666,-0.15428650379180908,0.04102439805865288
1789759680099333000,5.9563330078125,0.7341104745864868,-0.12759338319301605,0.03289589658379555
1789759680109342200,5.96634228515625,0.799630343914032,-0.12493554502725601,0.015536082908511162
1789759680119352000,5.97635205078125,0.872840404510498,-0.09182845801115036,0.010218814946711063
1789759680129360600,5.986360595703125,0.9404628276824951,-0.09542452543973923,0.022785739973187447
1789759680139369700,5.99636962890625,1.017628788948059,-0.1013343408703804,0.022012358531355858
1789759680149378600,6.006378662109375,1.0608843564987183,-0.09927172213792801,0.026971429586410522
1789759680159388400,6.016388427734375,1.1062664985656738,-0.0901983380317688,0.03699237108230591
1789759680169397500,6.0263974609375,1.13436758518219,-0.06718995422124863,0.02851233445107937
1789759680179406600,6.036406494140625,1.1700584888458252,-0.07395012676715851,0.012446549721062183
1789759680189416700,6.046416748046875,1.1964893341064453,-0.05381209775805473,0.012836968526244164
1789759680199425800,6.05642578125,1.2042689323425293,-0.04297542944550514,0.0246648658066988
1789759680209434600,6.0664345703125,1.229477882385254,-0.03653404116630554,0.05017422139644623
1789759680219443500,6.076443359375,1.243152379989624,-0.022304506972432137,0.05748486518859863
1789759680229453600,6.08645361328125,1.2633631229400635,-0.005318332463502884,0.04409582167863846
1789759680239462700,6.096462646484375,1.294866681098938,0.011243599466979504,0.05624755844473839
1789759680249471700,6.1064716796875,1.3255923986434937,0.011204984039068222,0.05446803569793701
1789759680259480800,6.116480712890625,1.382738471031189,0.01516004465520382,0.06749888509511948
1789759680269490700,6.12649072265625,1.416705846786499,0.04578559845685959,0.08807340264320374
1789759680279499500,6.13649951171875,1.4404335021972656,0.04364601522684097,0.10196391493082047
1789759680289508600,6.146508544921875,1.4704729318618774,0.07724179327487946,0.14037202298641205
1789759680299517700,6.156517578125,1.4830904006958008,0.09773427993059158,0.13928784430027008
1789759680309527600,6.166527587890625,1.4789129495620728,0.13324594497680664,0.13167759776115417
1789759680319536600,6.17653662109375,1.4927235841751099,0.1683293581008911,0.13374900817871094
1789759680329545700,6.186545654296875,1.5102386474609375,0.19727233052253723,0.14048974215984344
1789759680339554600,6.196554443359375,1.5416682958602905,0.20888184010982513,0.1521328091621399
1789759680349564700,6.206564697265625,1.5664982795715332,0.2229534536600113,0.16457509994506836
1789759680359573500,6.216573486328125,1.5602885484695435,0.2421116977930069,0.19738391041755676
1789759680369582600,6.22658251953125,1.5420570373535156,0.27210715413093567,0.2270837426185608
1789759680379592700,6.2365927734375,1.5117316246032715,0.29771876335144043,0.23359544575214386
1789759680389601800,6.246601806640625,1.4825074672698975,0.351998507976532,0.23089046776294708
1789759680399610600,6.256610595703125,1.4334783554077148,0.40357303619384766,0.23482050001621246
1789759680409619500,6.266619384765625,1.4142661094665527,0.4708370268344879,0.2607378363609314
1789759680419629600,6.276629638671875,1.359715223312378,0.46696266531944275,0.27007222175598145
1789759680429638700,6.286638671875,1.3194775581359863,0.5064948797225952,0.26928818225860596
1789759680439647700,6.296647705078125,1.244059681892395,0.5048136115074158,0.27162858843803406
1789759680449656800,6.30665673828125,1.1467316150665283,0.511883020401001,0.2858445346355438
1789759680459666700,6.316666748046875,0.9952501654624939,0.5166271328926086,0.2644790709018707
1789759680469675500,6.326675537109375,0.8449717164039612,0.488506555557251,0.29599037766456604
1789759680479684600,6.3366845703125,0.7080048322677612,0.49691441655158997,0.3028871715068817
1789759680489693700,6.346693603515625,0.5626242160797119,0.47991040349006653,0.32296261191368103
1789759680499703600,6.35670361328125,0.46036919951438904,0.47962838411331177,0.31214484572410583
1789759680509712600,6.366712646484375,0.35851502418518066,0.491831511259079,0.2812516391277313
1789759680519721700,6.3767216796875,0.25860732793807983,0.48998141288757324,0.26523032784461975
1789759680529730600,6.38673046875,0.19683609902858734,0.46795734763145447,0.2603200078010559
1789759680539740700,6.39674072265625,0.14590047299861908,0.474830687046051,0.2689233422279358
1789759680549749500,6.40674951171875,0.11152200400829315,0.4593135118484497,0.25516730546951294
1789759680559758600,6.416758544921875,0.08981697261333466,0.4725712835788727,0.2511448860168457
1789759680569768700,6.426768798828125,0.06937907636165619,0.46329760551452637,0.22400885820388794
1789759680579777800,6.43677783203125,0.05235747992992401,0.47857004404067993,0.21655920147895813
1789759680589786600,6.44678662109375,0.05645342171192169,0.4744011461734772,0.20962299406528473
1789759680599795500,6.45679541015625,0.05248983949422836,0.4652201533317566,0.21479804813861847
1789759680609805600,6.4668056640625,0.06690606474876404,0.49173858761787415,0.22480301558971405
1789759680619814700,6.476814697265625,0.08723503351211548,0.4907281696796417,0.21231678128242493
1789759680629823700,6.48682373046875,0.09093496948480606,0.42151767015457153,0.164900541305542
1789759680639832800,6.496832763671875,0.09819208085536957,0.47627440094947815,0.19634075462818146
1789759680649842700,6.5068427734375,0.043111249804496765,0.51652991771698,0.1960725635290146
1789759680659851500,6.5168515625,-0.00022423815971706063,0.5304622650146484,0.19826887547969818
1789759680669860600,6.526860595703125,-0.04267369583249092,0.532210648059845,0.15685246884822845
1789759680679869700,6.53686962890625,-0.05336948111653328,0.49044373631477356,0.17315153777599335
1789759680689879600,6.546879638671875,-0.0661555826663971,0.4610704183578491,0.16541239619255066
1789759680699888600,6.556888671875,-0.14080505073070526,0.4336449205875397,0.14141304790973663
1789759680709897700,6.566897705078125,-0.24401693046092987,0.44012996554374695,0.10883593559265137
1789759680719906600,6.576906494140625,-0.3416667878627777,0.3972584009170532,0.12329210340976715
1789759680729916700,6.586916748046875,-0.41294950246810913,0.3900787830352783,0.12045104801654816
1789759680739925500,6.596925537109375,-0.46140384674072266,0.3598332703113556,0.12072908133268356
1789759680749934600,6.6069345703125,-0.5116270780563354,0.3475651443004608,0.11838869750499725
1789759680759944700,6.61694482421875,-0.5591484904289246,0.3543066680431366,0.11490927636623383
1789759680769953800,6.626953857421875,-0.5926516056060791,0.3261152505874634,0.11305677890777588
1789759680779962600,6.636962646484375,-0.6004022359848022,0.32067015767097473,0.09094695001840591
1789759680789971700,6.6469716796875,-0.612540602684021,0.3259868919849396,0.08656685054302216
1789759680799981600,6.656981689453125,-0.6065762042999268,0.30392447113990784,0.09401118010282516
1789759680809990700,6.66699072265625,-0.6229325532913208,0.3307605981826782,0.09695131331682205
1789759680819999700,6.676999755859375,-0.6404579877853394,0.31764453649520874,0.06388284265995026
1789759680830008800,6.6870087890625,-0.6233378648757935,0.31497499346733093,0.05351169407367706
1789759680840018700,6.697018798828125,-0.6066670417785645,0.2955312430858612,0.0509079210460186
1789759680850027500,6.707027587890625,-0.5915980339050293,0.28476834297180176,0.018858643248677254
1789759680860036600,6.71703662109375,-0.5897319912910461,0.2809261977672577,-0.017112141475081444
1789759680870045700,6.727045654296875,-0.6050254702568054,0.25667092204093933,-0.036802489310503006
1789759680880055600,6.7370556640625,-0.6284756660461426,0.24796932935714722,-0.014275342226028442
1789759680890064600,6.747064697265625,-0.647865891456604,0.23333552479743958,0.0025124261155724525
1789759680900073500,6.757073486328125,-0.6787058115005493,0.19778285920619965,0.010130930691957474
1789759680910082600,6.76708251953125,-0.7178593277931213,0.1712212860584259,0.0000601874417043291
1789759680920092700,6.7770927734375,-0.7639802098274231,0.15677151083946228,-0.002061286708340049
1789759680930101800,6.787101806640625,-0.7922608852386475,0.15691931545734406,-0.008109059184789658
1789759680940110600,6.797110595703125,-0.8203468322753906,0.13403023779392242,-0.0021465078461915255
1789759680950120700,6.80712060546875,-0.8118239045143127,0.11899323016405106,-0.010429205372929573
1789759680960129800,6.8171298828125,-0.7885345816612244,0.059428706765174866,-0.026853984221816063
1789759680970138600,6.827138671875,-0.7194340825080872,0.03765549883246422,-0.012487296015024185
1789759680980147700,6.837147705078125,-0.6516739130020142,-0.00177952426020056,-0.0000601874417043291
1789759680990157600,6.847157470703125,-0.6214904189109802,-0.037521541118621826,-0.005696235224604607
1789759681000166700,6.857166748046875,-0.6094484329223633,-0.007135673891752958,-0.0013526194961741567
1789759681010175700,6.86717578125,-0.5717804431915283,-0.01912575773894787,-0.028736306354403496
1789759681020184800,6.877184814453125,-0.48041749000549316,-0.01931777223944664,-0.02237854339182377
1789759681030194400,6.8871943359375,-0.35971182584762573,-0.06035388633608818,-0.010753843933343887
1789759681040203500,6.89720361328125,-0.24484357237815857,-0.06486022472381592,0.001419198582880199
1789759681050212600,6.907212646484375,-0.1587715446949005,-0.05613783746957779,0.024943700060248375
1789759681060221700,6.9172216796875,-0.07198284566402435,-0.05296574532985687,0.023688284680247307
1789759681070231600,6.9272314453125,-0.001517469179816544,-0.055143944919109344,0.005650961305946112
1789759681080240600,6.93724072265625,0.068161740899086,-0.06708396226167679,-0.015122760087251663
1789759681090249500,6.94724951171875,0.1262037456035614,-0.08004716783761978,-0.021705295890569687
1789759681100258600,6.957258544921875,0.1608988642692566,-0.0843854546546936,0.01532010082155466
1789759681110268700,6.9672685546875,0.2022383213043213,-0.07944183051586151,0.019946010783314705
1789759681120277800,6.97727783203125,0.2363733947277069,-0.079554483294487,0.023933561518788338
1789759681130286300,6.987286376953125,0.2653762698173523,-0.07637146860361099,0.009927998296916485
1789759681140295400,6.99729541015625,0.31206014752388,-0.1077866479754448,-0.016957677900791168
1789759681150305300,7.00730517578125,0.3440982401371002,-0.12132003903388977,0.005965214688330889
1789759681160314400,7.017314453125,0.35862818360328674,-0.11271456629037857,0.0049590724520385265
1789759681170323500,7.027323486328125,0.3523319363594055,-0.10665427148342133,0.015631690621376038
1789759681180333300,7.037333251953125,0.3484154939651489,-0.10086589306592941,0.013435647822916508
1789759681190342400,7.04734228515625,0.3757299482822418,-0.11347223073244095,-0.006839796435087919
1789759681200351500,7.0573515625,0.3995617926120758,-0.11602114140987396,0.019296199083328247
1789759681210360300,7.0673603515625,0.416703999042511,-0.1351008266210556,0.005672000348567963
1789759681220370200,7.0773701171875,0.40852198004722595,-0.10248429328203201,0.02845214679837227
1789759681230379300,7.087379150390625,0.4146302044391632,-0.09946534037590027,0.031982701271772385
1789759681240388400,7.097388427734375,0.4608485698699951,-0.08759216964244843,0.03517769277095795
1789759681250397400,7.1073974609375,0.4989810287952423,-0.10942342877388,0.011566374450922012
1789759681260407600,7.117407470703125,0.5278606414794922,-0.10760103166103363,-0.0032559807877987623
1789759681270416400,7.12741650390625,0.5510567426681519,-0.11318407952785492,0.004454669542610645
1789759681280425200,7.13742529296875,0.5613378882408142,-0.09609350562095642,0.032171253114938736
1789759681290434300,7.147434326171875,0.5633237957954407,-0.07570914179086685,0.045272406190633774
1789759681300444400,7.1574443359375,0.5585806965827942,-0.07285716384649277,0.03278084844350815
1789759681310453500,7.16745361328125,0.5792527198791504,-0.05302566662430763,0.04234585911035538
1789759681320462600,7.177462646484375,0.6030150055885315,-0.05817488953471184,0.021401695907115936
1789759681330471200,7.18747119140625,0.5947999954223633,-0.04285239055752754,0.014594122767448425
1789759681340481300,7.197481201171875,0.6197913289070129,-0.03790663555264473,-0.01182017382234335
1789759681350490400,7.207490478515625,0.6257725358009338,-0.023661388084292412,0.0003283677506260574
1789759681360499500,7.21749951171875,0.630993127822876,-0.03099413402378559,-0.00010652644414221868
1789759681370508500,7.227508544921875,0.6090798377990723,-0.006050968077033758,0.017640246078372
1789759681380518400,7.237518310546875,0.604763388633728,-0.025347700342535973,-0.01128328125923872
1789759681390527500,7.247527587890625,0.5518139004707336,0.002888997085392475,0.04414802044630051
1789759681400536300,7.257536376953125,0.5254102349281311,-0.011333614587783813,0.008755408227443695
1789759681410546200,7.267546142578125,0.4682154059410095,-0.004283428192138672,0.016761403530836105
1789759681420555300,7.27755517578125,0.4366622865200043,-0.02034468576312065,0.011393003165721893
1789759681430564400,7.287564453125,0.385464608669281,-0.022948991507291794,0.038536474108695984
1789759681440573400,7.297573486328125,0.3545820415019989,-0.027410851791501045,0.046001046895980835
1789759681450583600,7.30758349609375,0.31869062781333923,-0.008141815662384033,0.04477306455373764
1789759681460592400,7.31759228515625,0.3042568266391754,-0.02683747373521328,0.025893116369843483
1789759681470601200,7.327601318359375,0.29121506214141846,-0.018999790772795677,0.021041901782155037
1789759681480610300,7.3376103515625,0.30852481722831726,-0.04367051646113396,0.002948385663330555
1789759681490620400,7.347620361328125,0.3183870315551758,-0.03213956207036972,0.020424848422408104
1789759681500629500,7.35762939453125,0.3294077217578888,-0.01944640278816223,0.03964567929506302
1789759681510638600,7.367638671875,0.339556485414505,-0.006387059111148119,0.03235341235995293
1789759681520647200,7.377647216796875,0.36941346526145935,-0.01510118879377842,0.010339190252125263
1789759681530657300,7.3876572265625,0.4242047965526581,0.008421714417636395,0.004736698232591152
1789759681540666400,7.397666259765625,0.48044756054878235,0.00711729796603322,0.019631225615739822
1789759681550675500,7.407675537109375,0.5295426845550537,0.006717024836689234,0.02575702778995037
1789759681560684500,7.4176845703125,0.5457027554512024,0.034035731106996536,0.031089209020137787
1789759681570694400,7.4276943359375,0.5959480404853821,0.038167357444763184,0.04495761916041374
1789759681580703500,7.437703369140625,0.636292576789856,0.06445062905550003,0.03375503420829773
1789759681590712300,7.44771240234375,0.6536151170730591,0.08870430290699005,0.019640812650322914
1789759681600721400,7.457721435546875,0.679480791091919,0.09596461057662964,0.019953735172748566
1789759681610731300,7.467731201171875,0.6929808855056763,0.08411461114883423,0.021392906084656715
1789759681620740400,7.477740234375,0.7024739980697632,0.10331866890192032,0.04230644553899765
1789759681630749400,7.48774951171875,0.6948224306106567,0.11816951632499695,0.009505354799330235
1789759681640759600,7.497759521484375,0.652654767036438,0.14666134119033813,-0.009296828880906105
1789759681650768400,7.507768310546875,0.6291624903678894,0.16139395534992218,0.00708747049793601
1789759681660777200,7.517777099609375,0.6136764883995056,0.13592641055583954,0.03092409297823906
1789759681670786300,7.527786376953125,0.5946646928787231,0.14292466640472412,0.05771096795797348
1789759681680796400,7.53779638671875,0.5460768938064575,0.14297500252723694,0.0735703557729721
1789759681690805500,7.547805419921875,0.4832979440689087,0.18193703889846802,0.07686948031187057
1789759681700814600,7.557814697265625,0.4500073790550232,0.17241331934928894,0.07599170506000519
1789759681710823400,7.567823486328125,0.43093007802963257,0.18972572684288025,0.06796866655349731
1789759681720833300,7.577833251953125,0.4267609119415283,0.18000465631484985,0.04248780384659767
1789759681730842400,7.58784228515625,0.41379132866859436,0.19200725853443146,0.06235045939683914
1789759681740851500,7.5978515625,0.4131723940372467,0.15381565690040588,0.08224480599164963
1789759681750860500,7.607860595703125,0.3797007203102112,0.18449927866458893,0.10226458311080933
1789759681760870400,7.617870361328125,0.3729650676250458,0.19525204598903656,0.09282314777374268
1789759681770879200,7.627879150390625,0.3645590543746948,0.20511026680469513,0.04309607297182083
1789759681780888300,7.637888427734375,0.3735216557979584,0.23367826640605927,0.02906707115471363
1789759681790897400,7.6478974609375,0.38016465306282043,0.20799900591373444,0.024687768891453743
1789759681800907300,7.6579072265625,0.38234445452690125,0.21674668788909912,0.07049014419317245
1789759681810916400,7.667916259765625,0.3749179542064667,0.20147106051445007,0.07251015305519104
1789759681820925400,7.677925537109375,0.33406558632850647,0.25991520285606384,0.09759792685508728
1789759681830934300,7.687934326171875,0.32469287514686584,0.24361425638198853,0.07172238826751709
1789759681840944400,7.6979443359375,0.30746355652809143,0.25833195447921753,0.0881224051117897
1789759681850953200,7.707953125,0.32341668009757996,0.24942953884601593,0.02413596212863922
1789759681860962300,7.71796240234375,0.3002788722515106,0.2612377107143402,0.027651067823171616
1789759681870972400,7.727972412109375,0.27904653549194336,0.2546631693840027,0.012457734905183315
1789759681880981500,7.7379814453125,0.2399313747882843,0.26375067234039307,0.04415680840611458
1789759681890990600,7.747990478515625,0.20192886888980865,0.2645810544490814,0.062481485307216644
1789759681900999400,7.75799951171875,0.14600513875484467,0.27592238783836365,0.07546652853488922
1789759681911009300,7.76800927734375,0.09500880539417267,0.27235642075538635,0.03592284768819809
1789759681921018400,7.778018310546875,0.03211692348122597,0.2457740753889084,0.04851320758461952
1789759681931027500,7.78802734375,-0.00703926756978035,0.26207050681114197,0.0402052104473114
1789759681941036500,7.79803662109375,-0.08099365234375,0.2720067501068115,0.058327220380306244
1789759681951046400,7.80804638671875,-0.11162080615758896,0.2592211663722992,0.04673581197857857
1789759681961055200,7.81805517578125,-0.1524643748998642,0.25528982281684875,0.03955380246043205
1789759681971064300,7.828064208984375,-0.1795537769794464,0.22808216512203217,0.06407938152551651
1789759681981073400,7.838073486328125,-0.2148798108100891,0.25583311915397644,0.04295545816421509
1789759681991083300,7.848083251953125,-0.25148922204971313,0.23669642210006714,0.028077440336346626
1789759682001092400,7.85809228515625,-0.2608289420604706,0.2409745305776596,0.026817498728632927
1789759682011101400,7.868101318359375,-0.2364484965801239,0.21757546067237854,0.01685488037765026
1789759682021110300,7.8781103515625,-0.23885731399059296,0.21034951508045197,0.036977726966142654
1789759682031120400,7.888120361328125,-0.24206936359405518,0.1906820684671402,0.03098161891102791
1789759682041129500,7.89812939453125,-0.2690674066543579,0.23535685241222382,0.03662645444273949
1789759682051138300,7.90813818359375,-0.2619863450527191,0.20808368921279907,0.02117399498820305
1789759682061147400,7.9181474609375,-0.23033413290977478,0.23247958719730377,0.03308365121483803
1789759682071157500,7.928157470703125,-0.18399487435817719,0.18267527222633362,0.0314500667154789
1789759682081166600,7.93816650390625,-0.15544471144676208,0.19826142489910126,0.055933572351932526
1789759682091175400,7.948175537109375,-0.144241064786911,0.218643918633461,0.04994066059589386
1789759682101184300,7.958184326171875,-0.12824079394340515,0.2176247388124466,0.020235763862729073
1789759682111194400,7.9681943359375,-0.08929978311061859,0.23062175512313843,-0.02725532278418541
1789759682121203500,7.978203369140625,-0.03158429265022278,0.20854735374450684,-0.03713937848806381
1789759682131213000,7.988213134765625,0.006999319884926081,0.20638060569763184,-0.015585084445774555
1789759682141223000,7.998222900390625,0.01299329660832882,0.2056378424167633,0.015805061906576157
1789759682151232000,8.00823193359375,0.003591006388887763,0.23206466436386108,0.054058972746133804
1789759682161241000,8.018240966796874,0.021574800834059715,0.23155200481414795,0.03057468682527542
1789759682171250200,8.028250244140626,0.032338231801986694,0.21726520359516144,0.04471500590443611
1789759682181260000,8.038260009765626,0.07959762215614319,0.23130938410758972,-0.008099205791950226
1789759682191268900,8.048268798828126,0.07470166683197021,0.20921607315540314,0.019641079008579254
1789759682201278000,8.05827783203125,0.10347259789705276,0.20883363485336304,-0.008621185086667538
1789759682211287000,8.068287109375,0.09135814011096954,0.22248926758766174,0.024399615824222565
1789759682221297200,8.078297119140625,0.1006762757897377,0.2067774087190628,0.007988417521119118
1789759682231306000,8.088305908203125,0.050813380628824234,0.2124645859003067,0.012090484611690044
1789759682241315000,8.098315185546875,0.016746755689382553,0.21968123316764832,-0.015873771160840988
1789759682251324000,8.108323974609375,-0.05124587565660477,0.1962938755750656,0.002660498023033142
1789759682261334000,8.118333984375,-0.09711669385433197,0.17141994833946228,0.018313493579626083
1789759682271343000,8.128343017578125,-0.16763852536678314,0.12510386109352112,0.02472452074289322
1789759682281352000,8.13835205078125,-0.2320939600467682,0.11895648390054703,-0.008412126451730728
1789759682291361000,8.148361083984375,-0.3150032162666321,0.12353711575269699,-0.0016162724932655692
1789759682301371100,8.15837109375,-0.38339558243751526,0.1647902876138687,-0.0021289309952408075
1789759682311380000,8.1683798828125,-0.422639936208725,0.13207495212554932,0.02147839404642582
1789759682321389000,8.17838916015625,-0.4038119316101074,0.16182725131511688,0.010612696409225464
1789759682331398000,8.18839794921875,-0.3586907684803009,0.0791400894522667,0.03785630315542221
1789759682341408000,8.198407958984374,-0.2991212010383606,0.09290410578250885,0.025661421939730644
1789759682351417000,8.2084169921875,-0.29206860065460205,0.07460153102874756,0.05289357528090477
1789759682361426200,8.21842626953125,-0.2816777527332306,0.10563667863607407,0.022064022719860077
1789759682371436000,8.22843603515625,-0.27689310908317566,0.054972171783447266,0.01164626982063055
1789759682381444900,8.23844482421875,-0.23311661183834076,0.06659633666276932,0.002537992550060153
1789759682391454000,8.248453857421875,-0.21692565083503723,0.058271028101444244,0.002237587934359908
1789759682401463000,8.258463134765625,-0.21063020825386047,0.0737844780087471,0.010507235303521156
1789759682411473200,8.26847314453125,-0.2096395194530487,0.0886760726571083,0.04044835641980171
1789759682421482000,8.27848193359375,-0.1791497766971588,0.05257772281765938,0.04927300661802292
1789759682431490800,8.28849072265625,-0.1421331763267517,0.06244313716888428,0.009818010032176971
1789759682441500000,8.2985,-0.13010767102241516,0.03135978803038597,0.04391605779528618
1789759682451510000,8.308510009765625,-0.09034161269664764,0.04043397679924965,-0.008335161954164505
1789759682461519000,8.31851904296875,-0.08910377323627472,0.014340856112539768,-0.02047145366668701
1789759682471528000,8.32852783203125,-0.06117973476648331,0.03879852965474129,-0.0070640346966683865
1789759682481537000,8.338537109375,-0.07032635807991028,0.01290328148752451,-0.015276424586772919
1789759682491547100,8.348547119140624,-0.04717177152633667,0.011363708414137363,-0.004030161537230015
1789759682501556000,8.358555908203124,-0.03802807629108429,-0.0013379721203818917,-0.002180862706154585
1789759682511565000,8.36856494140625,-0.03419259190559387,0.006858705077320337,0.007864580489695072
1789759682521574100,8.37857421875,-0.03543549031019211,-0.008445949293673038,0.00857191625982523
1789759682531584000,8.388583984375,-0.03238537162542343,0.019776368513703346,-0.005606220569461584
1789759682541593000,8.398593017578126,-0.04007817804813385,-0.007789480034261942,0.013659886084496975
1789759682551602200,8.408602294921875,-0.02966628223657608,0.03533908352255821,0.019692212343215942
1789759682561611000,8.418611083984375,-0.03308311849832535,-0.009370865300297737,0.004291950259357691
1789759682571620900,8.428620849609375,-0.022411033511161804,0.0007669904152862728,0.0033776871860027313
1789759682581630000,8.4386298828125,-0.016628777608275414,-0.03960573300719261,-0.0013965616235509515
1789759682591639000,8.44863916015625,-0.021046962589025497,0.0005344964447431266,-0.00427304208278656
1789759682601648000,8.458648193359375,-0.00765791954472661,-0.048294827342033386,-0.0182261411100626
1789759682611658000,8.468657958984375,0.002680737990885973,-0.0015933692920953035,0.014975220896303654
1789759682621666800,8.478666748046875,0.03597957268357277,-0.03804272413253784,-0.008138353936374187
1789759682631676000,8.488676025390625,0.07488729059696198,-0.01242178212851286,0.031984031200408936
1789759682641686000,8.49868603515625,0.13179105520248413,-0.023270968347787857,-0.0046480149030685425
1789759682651695000,8.508695068359375,0.15544818341732025,-0.017223462462425232,0.021458687260746956
1789759682661704000,8.518703857421874,0.18985781073570251,-0.005726329050958157,-0.02130342461168766
1789759682671713000,8.528713134765624,0.21613310277462006,-0.03539394214749336,-0.002350505907088518
1789759682681723100,8.53872314453125,0.25371667742729187,-0.0039880839176476,-0.0440651960670948
1789759682691732000,8.54873193359375,0.24780820310115814,-0.012353605590760708,-0.04399888217449188
1789759682701741000,8.558740966796876,0.2525539696216583,0.0012306467397138476,-0.060083843767642975
1789759682711750100,8.568750244140626,0.2630593180656433,-0.028839638456702232,-0.04090189188718796
1789759682721760000,8.578760009765626,0.25844061374664307,0.017135310918092728,-0.01260980125516653
1789759682731769000,8.58876904296875,0.2732169032096863,-0.029386917129158974,-0.015394935384392738
1789759682741778000,8.59877783203125,0.25524136424064636,0.03684243559837341,0.015918778255581856
1789759682751787000,8.608787109375,0.25877830386161804,0.016053535044193268,-0.015241004526615143
1789759682761796900,8.618796875,0.25078001618385315,0.046724628657102585,-0.02281397022306919
1789759682771806000,8.628805908203125,0.27343180775642395,0.023512782528996468,-0.03693218529224396
1789759682781815000,8.63881494140625,0.26522207260131836,0.04992814362049103,-0.009413475170731544
1789759682791824100,8.64882421875,0.2489248663187027,0.030843932181596756,-0.0018250643042847514
1789759682801834000,8.658833984375,0.21063101291656494,0.08286186307668686,-0.002347842790186405
1789759682811842800,8.6688427734375,0.19325920939445496,0.06428737938404083,-0.018389659002423286
1789759682821852000,8.678851806640624,0.17907361686229706,0.08220938593149185,0.007664577569812536
1789759682831861000,8.688861083984374,0.1495111882686615,0.04918219521641731,0.02016226015985012
1789759682841871000,8.69887109375,0.11710984259843826,0.08631118386983871,-0.016530506312847137
1789759682851880200,8.708880126953124,0.05293964594602585,0.06831327825784683,-0.0065194182097911835
1789759682861889000,8.718888916015626,0.02876799926161766,0.05402808263897896,-0.02562892995774746
1789759682871897900,8.72889794921875,-0.02454821951687336,0.07454081624746323,-0.01381168607622385
1789759682881908000,8.738907958984376,-0.06725546717643738,0.0413474403321743,0.0036495958920568228
1789759682891917000,8.7489169921875,-0.10423239320516586,0.06592628359794617,0.011061439290642738
1789759682901926100,8.758926025390625,-0.15138445794582367,0.02798689343035221,0.005035771057009697
1789759682911936000,8.76893603515625,-0.18333999812602997,0.04229685664176941,-0.010252105072140694
1789759682921945000,8.778945068359375,-0.20785120129585266,-0.0031071100383996964,0.008360994048416615
1789759682931954000,8.788953857421875,-0.228035569190979,0.030736073851585388,-0.0145874647423625
1789759682941963000,8.798962890625,-0.2565252482891083,-0.00697987899184227,-0.011268367059528828
1789759682951972900,8.808972900390625,-0.26497069001197815,0.01810683123767376,0.002398442942649126
1789759682961982000,8.81898193359375,-0.2663549780845642,-0.021824339404702187,-0.004822718445211649
1789759682971991000,8.828990966796875,-0.2755255699157715,0.021864818409085274,-0.01587590202689171
1789759682982000000,8.839000244140625,-0.26455309987068176,-0.031216775998473167,0.006134058814495802
1789759682992010200,8.84901025390625,-0.23715795576572418,0.0001651159836910665,0.03507862612605095
1789759683002018800,8.859018798828124,-0.20898890495300293,-0.03664429858326912,0.012739763595163822
1789759683012028000,8.86902783203125,-0.1876298189163208,-0.03068600781261921,-0.008990298956632614
1789759683022037000,8.879037109375,-0.16349811851978302,-0.04060255363583565,-0.019306054338812828
1789759683032047000,8.889047119140624,-0.15794622898101807,-0.018795259296894073,-0.002174737397581339
1789759683042056200,8.89905615234375,-0.14312545955181122,-0.024958079680800438,0.005566272884607315
1789759683052064800,8.909064697265626,-0.1180371567606926,-0.0376879908144474,0.002217081608250737
1789759683062073900,8.919073974609375,-0.08940737694501877,-0.019587550312280655,0.022722622379660606
1789759683072084000,8.929083984375,-0.06610844284296036,-0.037646710872650146,0.01906636916100979
1789759683082093000,8.939093017578125,-0.018375812098383904,-0.03316647559404373,0.02352609857916832
1789759683092102100,8.94910205078125,0.009812151081860065,-0.027819912880659103,0.005290103144943714
1789759683102111000,8.959111083984375,0.05293192341923714,-0.039324503391981125,0.013972806744277477
1789759683112121000,8.96912109375,0.0780404731631279,-0.028920065611600876,0.016802947968244553
1789759683122130000,8.9791298828125,0.08663102984428406,-0.0057167415507137775,0.01212537195533514
1789759683132139000,8.989138916015625,0.10351600497961044,-0.010121343657374382,0.012885171920061111
1789759683142147800,8.99914794921875,0.11978525668382645,-0.023240873590111732,0.021702632308006287
1789759683152157700,9.00915771484375,0.15831534564495087,-0.03951545059680939,0.0057042245753109455
1789759683162166800,9.019166748046874,0.1521676927804947,-0.025859294459223747,0.011949337087571621
1789759683172176000,9.02917578125,0.13187333941459656,-0.05300569534301758,0.004098338540643454
1789759683182185000,9.03918505859375,0.11806938052177429,0.006976150441914797,0.03148655220866203
1789759683192194800,9.04919482421875,0.13352930545806885,-0.040333040058612823,0.02586515247821808
1789759683202204000,9.059203857421876,0.15780161321163177,-0.02250664122402668,0.03629835322499275
1789759683212212700,9.069212646484376,0.180910125374794,-0.07414080947637558,0.03488368168473244
1789759683222221800,9.079221923828126,0.18255916237831116,-0.01726687140762806,0.05579988285899162
1789759683232232000,9.08923193359375,0.20967254042625427,-0.03116990439593792,0.03834952041506767
1789759683242241000,9.099240966796875,0.23478534817695618,-0.014546718448400497,0.012397547252476215
1789759683252249900,9.109249755859375,0.28344210982322693,-0.02833390235900879,-0.007533017545938492
1789759683262260000,9.119260009765625,0.3095245659351349,-0.01925785094499588,-0.029983730986714363
1789759683272268800,9.129268798828125,0.3278476297855377,-0.0009384979493916035,-0.014879346825182438
1789759683282278000,9.13927783203125,0.3425685465335846,0.006265885196626186,-0.025372734293341637
1789759683292287000,9.149286865234375,0.3340195119380951,0.01919872872531414,-0.007844873704016209
1789759683302296800,9.159296875,0.3434881269931793,0.006662430241703987,-0.003150519449263811
1789759683312306000,9.169305908203125,0.3263155221939087,0.05512690171599388,-0.011802330613136292
1789759683322315000,9.17931494140625,0.30093613266944885,0.05309411138296127,-0.025301095098257065
1789759683332323800,9.18932373046875,0.302719384431839,0.05836423859000206,-0.031267374753952026
1789759683342333700,9.199333740234374,0.3112284541130066,0.03182876855134964,0.011988486163318157
1789759683352342800,9.2093427734375,0.3212781548500061,0.05769312381744385,0.03309457004070282
1789759683362351900,9.219351806640624,0.2888656258583069,0.07315889745950699,0.011410047300159931
1789759683372361000,9.22936083984375,0.2599996328353882,0.07029999792575836,-0.01595047116279602
1789759683382371000,9.23937109375,0.26016393303871155,0.1188259869813919,-0.011374094523489475
1789759683392380000,9.2493798828125,0.27078089118003845,0.0765584260225296,0.019764117896556854
1789759683402388700,9.259388671875,0.26031386852264404,0.13196176290512085,0.02857092395424843
1789759683412397800,9.269397705078125,0.2177903801202774,0.12223376333713531,0.022107964381575584
1789759683422408000,9.279407958984375,0.17713935673236847,0.13617807626724243,-0.005302886478602886
1789759683432417000,9.2894169921875,0.13249891996383667,0.12139087915420532,-0.02099982462823391
1789759683442425900,9.29942578125,0.09246042370796204,0.1366550475358963,-0.015729693695902824
1789759683452434700,9.3094345703125,0.05506005510687828,0.13136893510818481,-0.018020279705524445
1789759683462444800,9.31944482421875,-0.0005576659459620714,0.12989994883537292,0.014022874645888805
1789759683472454000,9.329453857421875,-0.031735025346279144,0.1447707712650299,0.01022973470389843
1789759683483715800,9.3407158203125,-0.05217824876308441,0.1336110532283783,-0.01047554425895214
1789759683494350000,9.35135009765625,-0.06179439276456833,0.14110839366912842,-0.025015603750944138
1789759683504358700,9.361358642578125,-0.0692959800362587,0.14043541252613068,-0.02798236533999443
1789759683514368800,9.37136865234375,-0.07514827698469162,0.13840660452842712,-0.039443545043468475
1789759683524377900,9.3813779296875,-0.09133071452379227,0.16570614278316498,-0.03106071427464485
1789759683534387000,9.391386962890625,-0.10938694328069687,0.1474565714597702,-0.020479176193475723
1789759683544396000,9.40139599609375,-0.1297697126865387,0.18128137290477753,-0.011759720742702484
1789759683554406000,9.411406005859375,-0.13993500173091888,0.14571060240268707,-0.00878177396953106
1789759683564415000,9.4214150390625,-0.15188273787498474,0.18954622745513916,0.001597363967448473
1789759683574423800,9.431423828125,-0.13998693227767944,0.14539821445941925,-0.007032076828181744
1789759683584433000,9.441432861328124,-0.15278474986553192,0.17937001585960388,-0.016515327617526054
1789759683594442800,9.45144287109375,-0.14915139973163605,0.12873613834381104,-0.0041670482605695724
1789759683604451800,9.461451904296876,-0.15685352683067322,0.15143373608589172,0.009810020215809345
1789759683614461000,9.4714609375,-0.1726655215024948,0.1317678838968277,0.03315103054046631
1789759683624470000,9.481469970703126,-0.19556523859500885,0.13729101419448853,0.020927386358380318
1789759683634479900,9.49147998046875,-0.2287389039993286,0.13451573252677917,0.038711175322532654
1789759683644488700,9.50148876953125,-0.22323574125766754,0.13781405985355377,0.019823240116238594
1789759683654497800,9.511497802734375,-0.2272254228591919,0.11404801160097122,0.0010791128734126687
1789759683664508000,9.5215078125,-0.2267758846282959,0.12497229874134064,-0.0008633967954665422
1789759683674517000,9.53151708984375,-0.22650131583213806,0.08680041134357452,-0.006795587949454784
1789759683684526000,9.541526123046875,-0.238441601395607,0.09259863942861557,0.0013036173768341541
1789759683694534700,9.55153466796875,-0.2640470862388611,0.09560242295265198,-0.021102355793118477
1789759683704544800,9.561544677734375,-0.28354570269584656,0.08538547158241272,-0.019706860184669495
1789759683714553900,9.571553955078125,-0.2939605116844177,0.06790155172348022,-0.018064754083752632
1789759683724563000,9.58156298828125,-0.29672515392303467,0.043465450406074524,-0.021103421226143837
1789759683734572000,9.591572021484374,-0.3043319284915924,0.02274179831147194,-0.021400896832346916
1789759683744582000,9.601581787109374,-0.3251442611217499,0.02546168491244316,-0.014822621829807758
1789759683754591000,9.611591064453124,-0.35917413234710693,0.055040616542100906,-0.004004328977316618
1789759683764599800,9.621599853515624,-0.34984588623046875,0.0492413155734539,-0.0006543386843986809
1789759683774609000,9.63160888671875,-0.3462258577346802,0.03963848948478699,0.025612685829401016
1789759683784618800,9.64161865234375,-0.3192906379699707,0.03821556270122528,0.011235876940190792
1789759683794627800,9.6516279296875,-0.3242507874965668,0.0419466495513916,0.027277959510684013
1789759683804637000,9.661636962890626,-0.31865760684013367,0.034211501479148865,0.014067082665860653
1789759683814646000,9.67164599609375,-0.30865636467933655,0.03436143696308136,-0.00006897587445564568
1789759683825281000,9.682281005859375,-0.2942502796649933,0.005289304070174694,-0.038901858031749725
1789759683835289900,9.692289794921875,-0.32772326469421387,0.055144477635622025,-0.019727099686861038
1789759683845299000,9.702298828125,-0.3344576060771942,0.025890719145536423,-0.0028330706991255283
1789759683855308800,9.712308837890625,-0.36720702052116394,0.04310912266373634,0.022764701396226883
1789759683865318000,9.72231787109375,-0.36667174100875854,0.037691451609134674,0.014721421524882317
1789759683875327000,9.732326904296874,-0.3948487937450409,0.04258367791771889,0.04380021244287491
1789759683885335800,9.742335693359376,-0.3705543577671051,0.02701803483068943,0.026820428669452667
1789759683895346000,9.752345947265624,-0.3624948263168335,-0.00012250541476532817,0.04790973663330078
1789759683905355000,9.76235498046875,-0.3270889222621918,-0.07888203114271164,-0.009602293372154236
1789759683915363800,9.77236376953125,-0.36104315519332886,-0.05944601446390152,0.0500091053545475
1789759683925373000,9.782373046875,-0.3742487132549286,-0.048771798610687256,0.03700701892375946
1789759683935382800,9.7923828125,-0.4118210971355438,-0.0222025066614151,0.02383422665297985
1789759683945391900,9.802391845703125,-0.4106906056404114,-0.09087291359901428,0.009326389990746975
1789759683955401000,9.81240087890625,-0.37840110063552856,-0.062061239033937454,0.013496899977326393
1789759683965410000,9.82241015625,-0.3330450654029846,-0.08902521431446075,0.008677910082042217
1789759683975420000,9.832419921875,-0.302976131439209,-0.07637067139148712,0.04554751142859459
1789759683985428700,9.8424287109375,-0.25232386589050293,-0.14735323190689087,0.04355306923389435
1789759683995437800,9.852437744140625,-0.1988329440355301,-0.1429438441991806,-0.0010423612548038363
1789759684005447000,9.862447021484375,-0.15763036906719208,-0.17843125760555267,0.00036378781078383327
1789759684015457000,9.87245703125,-0.15098366141319275,-0.12044279277324677,0.025172997266054153
1789759684025465900,9.8824658203125,-0.151884064078331,-0.1235610842704773,0.0364762507379055
1789759684035474700,9.892474609375,-0.10487394779920578,-0.09895587712526321,0.038974031805992126
1789759684045483800,9.90248388671875,-0.03792980685830116,-0.11094808578491211,0.04428490623831749
1789759684055494000,9.912493896484374,0.07082357257604599,-0.1041913852095604,0.04006992280483246
1789759684065503000,9.9225029296875,0.13725346326828003,-0.13379082083702087,0.042693134397268295
1789759684075511800,9.93251171875,0.20353607833385468,-0.06978360563516617,0.04405134543776512
1789759684085522000,9.94252197265625,0.2551177740097046,-0.09856358915567398,0.03646932914853096
1789759684095531000,9.952531005859376,0.3111131489276886,-0.07039080560207367,0.01696087419986725
1789759684105539800,9.962539794921875,0.30909499526023865,-0.04595896974205971,-0.000018109494703821838
1789759684115549000,9.972548828125,0.3010629117488861,-0.029447637498378754,0.018214423209428787
1789759684125558800,9.982558837890625,0.29509902000427246,-0.016112657263875008,0.00723527604714036
1789759684135567600,9.992567626953125,0.29578664898872375,-0.006725014187395573,0.03297499567270279
1789759684145576400,10.002576416015625,0.2931983172893524,-0.04725246503949165,0.006030195392668247
1789759684155585500,10.01258544921875,0.2677161395549774,-0.004893824923783541,-0.015034875832498074
1789759684165595600,10.022595703125,0.21824924647808075,-0.016272179782390594,-0.0010165285784751177
1789759684175604500,10.0326044921875,0.1959761679172516,0.012991698458790779,0.0038956720381975174
1789759684185613600,10.042613525390625,0.15960431098937988,-0.02484835870563984,0.011064102873206139
1789759684195622700,10.05262255859375,0.14235953986644745,-0.026753317564725876,0.01420290395617485
1789759684205632800,10.0626328125,0.09770286083221436,-0.02479669265449047,-0.012024438939988613
1789759684215641600,10.0726416015625,0.05055292323231697,-0.02791392244398594,-0.010822287760674953
1789759684225650400,10.082650390625,0.023200927302241325,-0.004869590047746897,-0.01101403497159481
1789759684235659500,10.092659423828126,0.010161290876567364,-0.015905994921922684,-0.007836883887648582
1789759684245669600,10.102669677734376,0.018329473212361336,-0.035411253571510315,-0.014901984483003616
1789759684255678700,10.1126787109375,0.0023616913240402937,-0.01028859056532383,0.023542610928416252
1789759684265687800,10.122687744140626,-0.024084564298391342,-0.003698598127812147,0.006095176562666893
1789759684275696600,10.132696533203125,-0.04393709823489189,0.05025864392518997,0.0007683219737373292
1789759684285706500,10.14270654296875,-0.026344522833824158,0.0011323761427775025,-0.0009454221581108868
1789759684295715600,10.152715576171875,-0.0017188041238114238,-0.0028607675340026617,0.011027883738279343
1789759684305724700,10.162724609375,-0.002632800955325365,-0.02094549499452114,0.007622765842825174
1789759684315733800,10.172733642578125,-0.029797310009598732,-0.01571211777627468,0.01948634907603264
1789759684325743600,10.18274365234375,-0.06702377647161484,-0.0029963224660605192,0.020372383296489716
1789759684335752400,10.19275244140625,-0.10052873939275742,0.024958346039056778,0.03160346671938896
1789759684345761500,10.202761474609375,-0.10764683783054352,0.019840283319354057,0.03508634865283966
1789759684355770600,10.2127705078125,-0.12873508036136627,0.006251237820833921,0.030661240220069885
1789759684365780500,10.222780517578125,-0.13108611106872559,0.004005128052085638,0.02696637064218521
1789759684375789600,10.23278955078125,-0.1616504192352295,-0.013905162923038006,0.02931074984371662
1789759684385798700,10.242798583984374,-0.19313670694828033,-0.018371550366282463,0.007408914156258106
1789759684395807500,10.252807373046876,-0.20975616574287415,-0.03695269301533699,-0.006308495998382568
1789759684405817600,10.262817626953124,-0.24363583326339722,-0.043485693633556366,-0.02863750420510769
1789759684415826400,10.272826416015626,-0.29681196808815,-0.061468686908483505,-0.020722588524222374
1789759684425835500,10.28283544921875,-0.32566678524017334,-0.0643712654709816,-0.006216616835445166
1789759684435844600,10.2928447265625,-0.38152071833610535,-0.0665808916091919,0.00446958327665925
1789759684445854700,10.302854736328126,-0.40662768483161926,-0.04801466315984726,0.038786277174949646
1789759684455863800,10.31286376953125,-0.4151756167411804,-0.03990080952644348,0.035534292459487915
1789759684465872600,10.32287255859375,-0.4105291962623596,-0.06401307135820389,0.016633572056889534
1789759684475881500,10.332881591796875,-0.3752732276916504,-0.09041618555784225,0.016033029183745384
1789759684485891600,10.3428916015625,-0.3160746097564697,-0.1315162181854248,0.005119927227497101
1789759684495900700,10.352900634765625,-0.2975776195526123,-0.15472513437271118,0.03434732183814049
1789759684505909800,10.36290966796875,-0.302082896232605,-0.11974797397851944,0.021132981404662132
1789759684515919600,10.372919677734375,-0.34141460061073303,-0.09560881555080414,0.04247022792696953
1789759684525928400,10.382928466796875,-0.3153507709503174,-0.07700956612825394,-0.00025592977181077003
1789759684535937500,10.3929375,-0.29164090752601624,-0.09320211410522461,0.006531136110424995
1789759684545946600,10.402946533203124,-0.23039565980434418,-0.07896166294813156,0.03359550982713699
1789759684555956500,10.41295654296875,-0.16878555715084076,-0.10638849437236786,0.060739777982234955
1789759684565965600,10.422965576171874,-0.1204792782664299,-0.07066991180181503,0.058754127472639084
1789759684575974700,10.432974609375,-0.0750284343957901,-0.1121012344956398,0.04863278195261955
1789759684585983500,10.4429833984375,-0.02292449027299881,-0.1125238835811615,0.01302472222596407
1789759684595993600,10.45299365234375,0.0013688647886738181,-0.10387100279331207,0.01480504497885704
1789759684606002700,10.463002685546876,0.02725159376859665,-0.07127071917057037,-0.00012676646292675287
1789759684616011500,10.473011474609375,0.040654752403497696,-0.08117128163576126,0.030705448240041733
1789759684626020600,10.4830205078125,0.06081061810255051,-0.06173420324921608,0.031185882166028023
1789759684636030700,10.49303076171875,0.08287490904331207,-0.12299703061580658,0.030854584649205208
1789759684646039600,10.50303955078125,0.10300814360380173,-0.1028696596622467,0.007993744686245918
1789759684656048600,10.513048583984375,0.09552332758903503,-0.1014147698879242,0.020974790677428246
1789759684666057500,10.523057373046875,0.10490697622299194,-0.09711669385433197,0.017535317689180374
1789759684676067600,10.533067626953125,0.12601199746131897,-0.10408858209848404,0.010625479742884636
1789759684686076700,10.54307666015625,0.14140479266643524,-0.12165240198373795,0.012295548804104328
1789759684696085800,10.553085693359375,0.13218094408512115,-0.09814201295375824,0.010337592102587223
1789759684706094600,10.563094482421874,0.1364787518978119,-0.10037161409854889,0.024704014882445335
1789759684716104400,10.5731044921875,0.14405064284801483,-0.08902494609355927,0.026162894442677498
1789759684726113500,10.583113525390624,0.16462117433547974,-0.10599487274885178,0.033303629606962204
1789759684736122600,10.59312255859375,0.18055352568626404,-0.10007413476705551,0.004262122791260481
1789759684746131700,10.603131591796876,0.1793343424797058,-0.10900478065013885,-0.017184846103191376
1789759684756141600,10.6131416015625,0.18406809866428375,-0.10768651217222214,-0.012089420109987259
1789759684766150700,10.623150634765626,0.19467253983020782,-0.07881145924329758,0.00018908442871179432
1789759684776159500,10.633159423828126,0.17972688376903534,-0.07971560209989548,-0.006870689336210489
1789759684786168600,10.64316845703125,0.19244001805782318,-0.07197432219982147,0.011065168306231499
1789759684796178700,10.6531787109375,0.18289871513843536,-0.05747847259044647,0.013006346300244331
1789759684806187500,10.6631875,0.15603061020374298,-0.0613216795027256,0.036378514021635056
1789759684816196600,10.673196533203125,0.18127179145812988,-0.029946979135274887,0.015497200191020966
1789759684826205400,10.683205322265625,0.19577829539775848,-0.03737640008330345,-0.00014194648247212172
1789759684836215600,10.693215576171875,0.22333002090454102,-0.03225194662809372,0.006696252152323723
1789759684846224600,10.703224609375,0.2136659473180771,-0.02112419344484806,0.011742143891751766
1789759684856233500,10.7132333984375,0.21213355660438538,0.03098108619451523,-0.015459650196135044
1789759684866242600,10.72324267578125,0.1971716582775116,0.03388233482837677,-0.0038136467337608337
1789759684876252700,10.733252685546875,0.20971594750881195,0.03267352283000946,0.0004799016169272363
1789759684886261800,10.74326171875,0.2105998545885086,0.016037821769714355,0.0029856697656214237
1789759684896270600,10.7532705078125,0.18385425209999084,0.023840351030230522,-0.01768472045660019
1789759684906280400,10.763280517578124,0.12790736556053162,0.049740392714738846,0.012980513274669647
1789759684916289500,10.77328955078125,0.09959476441144943,0.06444796174764633,0.005257346201688051
1789759684926298600,10.783298583984376,0.06569033116102219,0.05842149630188942,-0.01787593588232994
1789759684936307700,10.7933076171875,0.056524794548749924,0.08132388442754745,0.00869229156523943
1789759684946317600,10.803317626953126,0.020169716328382492,0.05498255789279938,0.024214260280132294
1789759684956326400,10.813326416015625,-0.00023222764139063656,0.09778940677642822,0.01745888590812683
1789759684966335500,10.82333544921875,-0.05794212967157364,0.06003963574767113,0.04193519800901413
1789759684976344600,10.833344482421875,-0.08365947753190994,0.10115830600261688,0.012960539199411869
1789759684986354700,10.843354736328125,-0.10015962272882462,0.06678755581378937,-0.0022796657867729664
1789759684996363500,10.853363525390625,-0.13693147897720337,0.0896017849445343,-0.04290752112865448
1789759685006372600,10.86337255859375,-0.19463099539279938,0.07728839665651321,0.009790046140551567
1789759685016381400,10.87338134765625,-0.2231643795967102,0.09848609566688538,0.004592354875057936
1789759685026391600,10.8833916015625,-0.2567993104457855,0.0738057792186737,0.021199561655521393
1789759685036400600,10.893400634765625,-0.2634444236755371,0.08389995992183685,0.015282017178833485
1789759685046409700,10.90340966796875,-0.29033756256103516,0.05453648045659065,0.01624741218984127
1789759685056418600,10.91341845703125,-0.3246249556541443,0.11361923813819885,0.012653211131691933
1789759685066428700,10.9234287109375,-0.32414186000823975,0.05216200277209282,-0.01816462352871895
1789759685076437800,10.933437744140624,-0.31702083349227905,0.08034677058458328,0.003469033632427454
1789759685086446600,10.943446533203126,-0.3186485469341278,0.02847345359623432,0.016410931944847107
1789759685096455700,10.95345556640625,-0.30555564165115356,0.06788744032382965,0.009136772714555264
1789759685106465500,10.963465576171876,-0.33497798442840576,0.0217116866260767,-0.00077631144085899
1789759685116474600,10.973474609375,-0.3234630227088928,0.034516699612140656,-0.04378955811262131
1789759685126483700,10.983483642578125,-0.30152228474617004,0.02895335480570793,-0.031007982790470123
1789759685136493000,10.9934931640625,-0.2750059962272644,0.01896223984658718,0.005143096670508385
1789759685146503000,11.0035029296875,-0.23939847946166992,0.05865399166941643,0.02165442891418934
1789759685156512000,11.013511962890625,-0.2260270118713379,0.01047341339290142,0.03232491761445999
1789759685166521000,11.02352099609375,-0.19380062818527222,-0.007196926511824131,0.005624329671263695
1789759685176530000,11.033530029296875,-0.16370052099227905,-0.035648807883262634,0.0052083441987633705
1789759685186539800,11.043539794921875,-0.18080653250217438,0.027000725269317627,-0.009502691216766834
1789759685196548900,11.053548828125,-0.20255950093269348,-0.0150428656488657,0.01889086700975895
1789759685206558000,11.063557861328125,-0.20698007941246033,0.036441363394260406,0.01264229230582714
1789759685216567000,11.073567138671875,-0.16975520551204681,-0.04041586443781853,0.0214789267629385
1789759685226577200,11.0835771484375,-0.11584537476301193,-0.008820123039186,0.01661120168864727
1789759685236585700,11.093585693359374,-0.10688091069459915,-0.08107594400644302,0.003748931922018528
1789759685246594800,11.1035947265625,-0.11352922767400742,-0.026560503989458084,0.00902678444981575
1789759685256604000,11.11360400390625,-0.11575988680124283,-0.045279063284397125,0.03454039990901947
1789759685266614000,11.123614013671874,-0.0839630737900734,-0.037267476320266724,0.026680346578359604
1789759685276623000,11.133623046875,-0.05723213031888008,-0.0691886618733406,0.03326581045985222
1789759685286632000,11.1436318359375,-0.06772498786449432,-0.03966858237981796,0.0257509034126997
1789759685296640800,11.153640869140625,-0.03973755985498428,-0.07308965921401978,0.0034466630313545465
1789759685306651000,11.16365087890625,-0.07178231328725815,-0.06474383920431137,0.006615824531763792
1789759685316660000,11.173659912109375,-0.0494178831577301,-0.050282612442970276,0.009966347366571426
1789759685326669000,11.1836689453125,-0.032656215131282806,-0.0804157480597496,-0.0025627599097788334
1789759685336679000,11.193678955078125,-0.02082219161093235,-0.07067044079303741,-0.007536745630204678
1789759685346688000,11.20368798828125,-0.02046506106853485,-0.08876208961009979,-0.02359161153435707
1789759685356697000,11.213697021484375,-0.014283332042396069,-0.06385833770036697,0.009011072106659412
1789759685366706000,11.223705810546875,-0.010553042404353619,-0.08388131856918335,0.0063034361228346825
1789759685376715800,11.2337158203125,-0.013458284549415112,-0.06749701499938965,0.021386781707406044
1789759685386724900,11.243724853515625,-0.009129848331212997,-0.09598032385110855,0.025081651285290718
1789759685396734000,11.25373388671875,-0.0008721852791495621,-0.08340194821357727,0.04518292471766472
1789759685406743000,11.263742919921874,-0.013952567242085934,-0.05228424444794655,0.02245071344077587
1789759685416753200,11.273753173828124,-0.03684456646442413,-0.00782543234527111,0.008649680763483047
1789759685426762000,11.283761962890624,-0.02165709249675274,-0.045693185180425644,0.045333925634622574
1789759685436770800,11.293770751953126,0.01768445409834385,-0.05596020445227623,0.041911229491233826
1789759685446780000,11.30377978515625,0.06999026983976364,-0.08158567547798157,0.00974264182150364
1789759685456790000,11.3137900390625,0.08756047487258911,-0.07970335334539413,0.009680856950581074
1789759685466799000,11.323799072265626,0.05621986463665962,-0.051065847277641296,0.015778429806232452
1789759685476808200,11.33380810546875,0.02305471897125244,-0.049302566796541214,0.02286483533680439
1789759685486816800,11.343816650390625,-0.011554124765098095,-0.03197018429636955,0.024986309930682182
1789759685496827000,11.353826904296875,-0.0013638047967106104,-0.03772687166929245,0.0349087156355381
1789759685506836000,11.3638359375,0.01498028077185154,-0.04385107755661011,0.032595761120319366
1789759685516845000,11.373844970703125,0.0331672728061676,-0.07037749141454697,0.020671457052230835
1789759685526854100,11.383854248046875,0.030311299487948418,-0.04325772449374199,0.026506442576646805
1789759685536864000,11.393864013671875,0.00017683389887679368,-0.04288727790117264,0.0376507043838501
1789759685546872800,11.403872802734375,-0.0025297366082668304,-0.006077333353459835,0.04042678326368332
1789759685556882000,11.4138818359375,-0.019303923472762108,-0.05944494903087616,0.026578081771731377
1789759685566891000,11.42389111328125,-0.013996242545545101,-0.03189854323863983,0.020592892542481422
1789759685576900900,11.43390087890625,-0.024754881858825684,-0.07734964787960052,-0.005732454359531403
1789759685586910000,11.443909912109374,-0.040648628026247025,-0.0454375222325325,-0.01817820407450199
1789759685596919000,11.4539189453125,-0.07651368528604507,-0.05653864145278931,-0.01308384444564581
1789759685606928000,11.463927978515626,-0.060918744653463364,-0.0380680225789547,-0.023781495168805122
1789759685616938000,11.47393798828125,-0.05649390071630478,-0.06425595283508301,-0.005660282447934151
1789759685626946800,11.48394677734375,-0.031132087111473083,-0.03971465677022934,0.007525826804339886
1789759685636956000,11.493955810546876,-0.035477299243211746,-0.04874197393655777,0.012559734284877777
1789759685646965000,11.503965087890625,-0.03953143209218979,-0.03104926273226738,0.01543488260358572
1789759685656975000,11.51397509765625,-0.041598841547966,-0.03543868288397789,0.0076027922332286835
1789759685666984200,11.523984130859375,-0.0266590416431427,-0.05814346298575401,0.0010692591313272715
1789759685676992800,11.53399267578125,-0.011773568578064442,-0.02611176110804081,0.030072148889303207
1789759685687001900,11.544001953125,-0.017844777554273605,-0.060207147151231766,0.023268571123480797
1789759685697012000,11.554011962890625,-0.00814953912049532,-0.01564713567495346,-0.026151176542043686
1789759685707021000,11.56402099609375,0.0029678267892450094,-0.05925506725907326,-0.038658179342746735
1789759685717030100,11.574030029296875,0.03280641511082649,0.005074653308838606,-0.03472602367401123
1789759685727039000,11.5840390625,0.042639605700969696,-0.04929004982113838,0.020064787939190865
1789759685737048800,11.594048828125,0.060078516602516174,0.007237672805786133,0.018748920410871506
1789759685747058000,11.604057861328124,0.06350333988666534,-0.022048044949769974,0.013975470326840878
1789759685757067000,11.61406689453125,0.06384209543466568,-0.032638102769851685,-0.0057383133098483086
1789759685767076000,11.624076171875,0.042806852608919144,-0.01395629532635212,0.014337926171720028
1789759685777086000,11.6340859375,0.0004596615908667445,-0.032592564821243286,-0.013052685186266899
1789759685787095000,11.644094970703126,-0.04760986194014549,0.00041998049709945917,0.021445371210575104
1789759685797103900,11.654103759765626,-0.07077883183956146,-0.019625365734100342,0.03665947914123535
1789759685807114000,11.664114013671876,-0.06151582673192024,-0.04968712851405144,0.028962409123778343
1789759685817122800,11.674122802734376,-0.08419983088970184,-0.08176250755786896,0.003662378992885351
1789759685827132000,11.6841318359375,-0.12640294432640076,-0.0527108833193779,0.02503424696624279
1789759685837141000,11.69414111328125,-0.15821920335292816,-0.07480233907699585,0.03507249802350998
1789759685847151000,11.704151123046875,-0.1754642277956009,-0.05428268015384674,0.010571950115263462
1789759685857160000,11.714159912109375,-0.16233111917972565,-0.11910136044025421,0.03479420021176338
1789759685867169000,11.7241689453125,-0.1628381907939911,-0.10160624980926514,-0.0013113404856994748
1789759685877177900,11.734177734375,-0.18596000969409943,-0.12858647108078003,0.008868326433002949
1789759685887188000,11.74418798828125,-0.19175584614276886,-0.07021477073431015,-0.008599081076681614
1789759685897197000,11.754197021484375,-0.15982775390148163,-0.12654168903827667,0.011809521354734898
1789759685907206100,11.7642060546875,-0.13167867064476013,-0.10264408588409424,-0.020410733297467232
1789759685917215000,11.774215087890624,-0.10935977846384048,-0.13219718635082245,-0.0406145378947258
1789759685927224800,11.784224853515624,-0.1079200729727745,-0.10593974590301514,-0.019512981176376343
1789759685937234000,11.79423388671875,-0.10476475954055786,-0.09548817574977875,0.0004575310740619898
1789759685947243000,11.804242919921874,-0.06416566669940948,-0.1050739511847496,0.02328055538237095
1789759685957252000,11.814252197265626,-0.03735456243157387,-0.11170629411935806,0.02286297082901001
1789759685967262000,11.824261962890626,-0.017308149486780167,-0.1269662082195282,0.00412363838404417
1789759685977271000,11.83427099609375,-0.022231003269553185,-0.10018758475780487,0.035110849887132645
1789759685987280000,11.84427978515625,-0.027961593121290207,-0.09049501270055771,0.040949828922748566
1789759685997289000,11.8542890625,0.016703080385923386,-0.0877213329076767,0.03225167840719223
1789759686007299000,11.864299072265625,0.0392315573990345,-0.09762270003557205,0.016709471121430397
1789759686017308000,11.874307861328125,0.04349847510457039,-0.09026811271905899,0.030730482190847397
1789759686027317000,11.88431689453125,0.05005357787013054,-0.08365042507648468,0.03723844885826111
1789759686037325800,11.894325927734375,0.05836477130651474,-0.07017748802900314,0.0013973605819046497
1789759686047336000,11.9043359375,0.06127480790019035,-0.059669189155101776,0.010923754423856735
1789759686057345000,11.914344970703125,0.07778028398752213,-0.08121202886104584,0.007548197638243437
1789759686067353900,11.924353759765625,0.11565469205379486,-0.06820754706859589,-0.024335699155926704
1789759686077363000,11.934363037109375,0.10636532306671143,-0.09430918842554092,-0.0007344998302869499
1789759686087373000,11.944373046875,0.10370802134275436,-0.06125110760331154,-0.013794908300042152
1789759686097382100,11.954382080078124,0.09014240652322769,-0.05056144297122955,0.01164333987981081
1789759686107391000,11.964390869140624,0.09760032594203949,-0.038229942321777344,0.008213454857468605
1789759686117399800,11.97439990234375,0.10540125519037247,-0.062433019280433655,0.01624182052910328
1789759686127410000,11.984409912109374,0.11836685985326767,-0.0705396831035614,-0.00025273399660363793
1789759686137419000,11.9944189453125,0.1049535796046257,-0.080367811024189,0.015266038477420807
1789759686147428000,12.004427978515626,0.0757160633802414,-0.03213023766875267,0.008219047449529171
1789759686157437200,12.014437255859375,0.04339780658483505,-0.04779122397303581,0.006154032424092293
1789759686167447000,12.024447021484375,0.04470115900039673,-0.023439545184373856,-0.011422297917306423
1789759686177456000,12.0344560546875,0.0483132041990757,-0.05513222888112068,-0.020778780803084373
1789759686187465200,12.04446533203125,0.033968351781368256,-0.04343216121196747,-0.018460765480995178
1789759686197474000,12.05447412109375,0.027048928663134575,-0.07426943629980087,-0.035357989370822906
1789759686207484000,12.06448388671875,0.018511366099119186,-0.028070516884326935,-0.0005792375304736197
1789759686217493000,12.074492919921875,0.016810938715934753,-0.08183707296848297,0.01152669358998537
1789759686227502000,12.084502197265625,-0.011027084663510323,-0.0194927416741848,0.019634155556559563
1789759686237512200,12.09451220703125,-0.027591148391366005,-0.05224988982081413,0.017532654106616974
1789759686247521300,12.104521240234375,-0.022954851388931274,-0.019871974363923073,0.0017369136912748218
1789759686257530000,12.114530029296875,-0.02093697339296341,-0.08459930866956711,-0.03622058779001236
1789759686267539000,12.1245390625,-0.01685408130288124,-0.021798240020871162,0.015629559755325317
1789759686277549000,12.134549072265624,-0.026443058624863625,-0.05625448375940323,-0.015357917174696922
1789759686287558100,12.14455810546875,-0.021108213812112808,-0.01691746525466442,0.0003430151555221528
1789759686297567200,12.154567138671876,-0.018920160830020905,-0.04277356341481209,-0.05128395929932594
1789759686307576000,12.164576171875,-0.004671450704336166,-0.028267856687307358,-0.036320190876722336
1789759686317586200,12.174586181640626,0.0017188041238114238,-0.05681614577770233,-0.01661652699112892
1789759686327595000,12.184594970703126,0.009061671793460846,-0.0065441858023405075,-0.003922570031136274
1789759686337604000,12.19460400390625,-0.009929596446454525,-0.03614921495318413,-0.004737763665616512
1789759686347613200,12.20461328125,-0.013537379913032055,0.010369550436735153,-0.010298710316419601
1789759686357623000,12.214623046875,-0.0386163666844368,-0.045473743230104446,-0.021931396797299385
1789759686367632100,12.224632080078125,-0.04296956956386566,-0.005703425966203213,-0.013131514191627502
1789759686377641200,12.23464111328125,-0.06710260361433029,-0.04302123561501503,0.028087027370929718
1789759686387650000,12.244650146484375,-0.05735170468688011,-0.001683384063653648,0.023839818313717842
1789759686397660000,12.254659912109375,-0.060572002083063126,-0.05313299223780632,0.03322666138410568
