time,seconds_elapsed,z,y,x
1789759674207627500,0.06462744140625,-0.004741408862173557,0.01266719214618206,0.006727893371134996
1789759674217637600,0.0746376953125,-0.0046820202842354774,0.009918278083205223,0.006023753900080919
1789759674227646500,0.084646484375,-0.0023873148020356894,0.010474766604602337,0.006262060720473528
1789759674237655600,0.094655517578125,0.00019861460896208882,0.010479560121893883,0.004930746275931597
1789759674247665700,0.104665771484375,0.004521859344094992,0.009000388905405998,0.004308025352656841
1789759674257674800,0.1146748046875,0.008050547912716866,0.008842196315526962,0.00541430339217186
1789759674267683800,0.124683837890625,0.011396936140954494,0.0069989110343158245,0.005108260549604893
1789759674277692700,0.134692626953125,0.013974876143038273,0.0032419897615909576,0.0038773471023887396
1789759674287702500,0.14470263671875,0.01692179962992668,0.0006842375732958317,0.0030567531939595938
1789759674297711600,0.154711669921875,0.017285853624343872,-0.00123510230332613,0.002625320805236697
1789759674307720700,0.164720703125,0.01861097663640976,-0.0065784938633441925,0.000773188890889287
1789759674317729800,0.174729736328125,0.02216496504843235,-0.006666111759841442,-0.00016131438314914703
1789759674327739600,0.18473974609375,0.023159319534897804,-0.009554498828947544,-0.0003948959056288004
1789759674337748500,0.19474853515625,0.02601396106183529,-0.007929438725113869,-0.001295310677960515
1789759674347757600,0.204757568359375,0.02721291594207287,-0.011495943181216717,-0.0011805284302681684
1789759674357767700,0.214767578125,0.026658181101083755,-0.01343898568302393,-0.004089765716344118
1789759674367776500,0.224776611328125,0.02978021278977394,-0.01777987740933895,-0.00419898284599185
1789759674377785600,0.23478564453125,0.033529412001371384,-0.01820545084774494,-0.005137214437127113
1789759674387794700,0.244794677734375,0.036580320447683334,-0.02159305289387703,-0.004376321565359831
1789759674397804800,0.2548046875,0.04431893676519394,-0.024581652134656906,-0.007084490265697241
1789759674407813600,0.264813720703125,0.045778412371873856,-0.026860225945711136,-0.005615320522338152
1789759674417822700,0.27482275390625,0.0477968193590641,-0.026906300336122513,-0.006678454577922821
1789759674427831600,0.28483154296875,0.04567834362387657,-0.025469869375228882,-0.005355373956263065
1789759674437841700,0.294841552734375,0.04087186977267265,-0.02474389225244522,-0.004626200534403324
1789759674447850800,0.304850830078125,0.03900293633341789,-0.026088330894708633,-0.006460296455770731
1789759674457859800,0.31485986328125,0.038773905485868454,-0.0293206088244915,-0.004957208409905434
1789759674467869400,0.324869384765625,0.03956565633416176,-0.03441540151834488,-0.007721954956650734
1789759674477878500,0.33487841796875,0.04356146603822708,-0.03826446831226349,-0.009906811639666557
1789759674487887600,0.3448876953125,0.044737040996551514,-0.04050608351826668,-0.0122001264244318
1789759674497896700,0.354896728515625,0.0465056449174881,-0.03987358137965202,-0.010126855224370956
1789759674507906600,0.364906494140625,0.04678254947066307,-0.03839794918894768,-0.009262563660740852
1789759674517915600,0.37491552734375,0.046814508736133575,-0.03620031103491783,-0.007430574856698513
1789759674527924500,0.384924560546875,0.049712371081113815,-0.033858608454465866,-0.006216446869075298
1789759674537933600,0.39493359375,0.05562059208750725,-0.03293715417385101,-0.006638558115810156
1789759674547943700,0.404943603515625,0.061446864157915115,-0.03317638486623764,-0.006193787325173616
1789759674557952800,0.414952880859375,0.0714891105890274,-0.03192043676972389,-0.005624669604003429
1789759674567961600,0.424961669921875,0.08039671182632446,-0.03287423029541969,-0.004195396788418293
1789759674577970700,0.434970703125,0.08961684256792068,-0.029409989714622498,-0.0043248264119029045
1789759674587980800,0.444980712890625,0.09923066198825836,-0.02908509597182274,0.0005591411609202623
1789759674597989600,0.45498974609375,0.10085172951221466,-0.029750090092420578,-0.00044966419227421284
1789759674607998700,0.464998779296875,0.09406347572803497,-0.026271618902683258,0.0011586674954742193
1789759674618008600,0.475008544921875,0.09426508098840714,-0.024703819304704666,0.004839422181248665
1789759674628017700,0.485017578125,0.09048568457365036,-0.02878894843161106,-0.0019526444375514984
1789759674638026800,0.49502685546875,0.10710833966732025,-0.026400892063975334,-0.010061969980597496
1789759674648035600,0.50503564453125,0.15408805012702942,-0.02263391762971878,-0.019995642825961113
1789759674658045400,0.51504541015625,0.2312009483575821,-0.024295199662446976,-0.02213309518992901
1789759674668054500,0.525054443359375,0.30348825454711914,-0.031205646693706512,-0.012609874829649925
1789759674678063600,0.535063720703125,0.37321993708610535,-0.022188182920217514,-0.0014725354267284274
1789759674688072700,0.54507275390625,0.40711355209350586,-0.007257712073624134,0.015933722257614136
1789759674698082600,0.55508251953125,0.38798755407333374,0.018590662628412247,0.04100019112229347
1789759674708091600,0.565091552734375,0.4164951741695404,0.04391384497284889,0.028473207727074623
1789759674718100500,0.5751005859375,0.4157015383243561,0.04595942050218582,0.029195992276072502
1789759674728110600,0.585110595703125,0.4542718529701233,0.03997849300503731,0.01798355020582676
1789759674738119700,0.59511962890625,0.4950017035007477,0.02676202356815338,0.015541166067123413
1789759674748128800,0.605128662109375,0.5183967351913452,0.012513192370533943,0.011837033554911613
1789759674758137600,0.6151376953125,0.5151340961456299,0.018559899181127548,0.017147907987236977
1789759674768147700,0.625147705078125,0.5101999640464783,0.03374684974551201,0.025980178266763687
1789759674778156500,0.635156494140625,0.4922845959663391,0.04770021513104439,0.0343792550265789
1789759674788165600,0.64516552734375,0.4746715724468231,0.0689617320895195,0.0421798899769783
1789759674798174700,0.6551748046875,0.46029555797576904,0.07633017003536224,0.050685759633779526
1789759674808184600,0.6651845703125,0.45073094964027405,0.08288364112377167,0.05282425880432129
1789759674818193700,0.675193603515625,0.44810083508491516,0.0889897346496582,0.054427213966846466
1789759674828202800,0.68520263671875,0.44520682096481323,0.0895400121808052,0.05758633464574814
1789759674838211600,0.695211669921875,0.43955108523368835,0.09415500611066818,0.06380482017993927
1789759674848221400,0.705221435546875,0.4224928617477417,0.10108806937932968,0.07070594280958176
1789759674858230500,0.71523046875,0.3958045244216919,0.11114469915628433,0.07686423510313034
1789759674868239600,0.725239501953125,0.36918389797210693,0.11812476068735123,0.07759209722280502
1789759674878249700,0.735249755859375,0.3470679521560669,0.12478585541248322,0.08244757354259491
1789759674888258800,0.7452587890625,0.3320540487766266,0.13438206911087036,0.08172699064016342
1789759674898267600,0.755267578125,0.30540192127227783,0.14141574501991272,0.0932781845331192
1789759674908276500,0.7652763671875,0.2764342129230499,0.16057489812374115,0.10345293581485748
1789759674918286600,0.77528662109375,0.26126617193222046,0.1641768217086792,0.11303579062223434
1789759674928295700,0.785295654296875,0.24973367154598236,0.173928365111351,0.12010040879249573
1789759674938304800,0.7953046875,0.23259994387626648,0.18095138669013977,0.12409381568431854
1789759674948313600,0.805313720703125,0.21753059327602386,0.1936173439025879,0.1306307315826416
1789759674958323700,0.81532373046875,0.1987856775522232,0.19966964423656464,0.13322119414806366
1789759674968332500,0.82533251953125,0.18236607313156128,0.21124452352523804,0.1387992948293686
1789759674978341600,0.835341552734375,0.16502223908901215,0.21634767949581146,0.1439565122127533
1789759674988350700,0.845350830078125,0.14993910491466522,0.22501492500305176,0.1465766876935959
1789759674998360600,0.855360595703125,0.13266292214393616,0.23590005934238434,0.14741264283657074
1789759675008369700,0.86536962890625,0.11564240604639053,0.24400827288627625,0.14793924987316132
1789759675018378800,0.875378662109375,0.10457723587751389,0.2490304708480835,0.1468321681022644
1789759675028388900,0.885388916015625,0.08701539784669876,0.24644334614276886,0.14225248992443085
1789759675038397400,0.8953974609375,0.07377415895462036,0.24375195801258087,0.13695760071277618
1789759675048406500,0.905406494140625,0.048924073576927185,0.2442290484905243,0.12573747336864471
1789759675058415600,0.91541552734375,0.030328014865517616,0.2318567931652069,0.12193846702575684
1789759675068425700,0.92542578125,0.004583111964166164,0.22230148315429688,0.11816428601741791
1789759675078434800,0.935434814453125,-0.018270006403326988,0.2072301208972931,0.1244829073548317
1789759675088443600,0.945443603515625,-0.037893857806921005,0.1982729583978653,0.12332165241241455
1789759675098452500,0.955452392578125,-0.061780545860528946,0.200685515999794,0.10562974214553833
1789759675108462600,0.965462646484375,-0.09229497611522675,0.2069447785615921,0.09826254844665527
1789759675118472200,0.97547216796875,-0.113559789955616,0.18845444917678833,0.09344355762004852
1789759675128481000,0.98548095703125,-0.12052833288908005,0.1711784303188324,0.09993342310190201
1789759675138489900,0.99548974609375,-0.1363360583782196,0.14073291420936584,0.1114734336733818
1789759675148500000,1.0055,-0.15377125144004822,0.11592134088277817,0.11318042874336243
1789759675158509000,1.015509033203125,-0.17676711082458496,0.12176298350095749,0.1299133449792862
1789759675168518100,1.02551806640625,-0.17639592289924622,0.11547273397445679,0.11900205165147781
1789759675178528000,1.035528076171875,-0.17592428624629974,0.11807358264923096,0.1270727515220642
1789759675188537000,1.045537109375,-0.16895461082458496,0.10958173871040344,0.12024134397506714
1789759675198546000,1.0555458984375,-0.14238664507865906,0.09965826570987701,0.12123550474643707
1789759675208555000,1.065554931640625,-0.11069279164075851,0.08911348134279251,0.09692463278770447
1789759675218564900,1.07556494140625,-0.08984210342168808,0.10398270934820175,0.06518081575632095
1789759675228574000,1.085573974609375,-0.06452951580286026,0.10369722545146942,0.06602992862462997
1789759675238583000,1.0955830078125,-0.023274226114153862,0.1067739725112915,0.08544863760471344
1789759675248592000,1.105591796875,0.04134785011410713,0.1097150444984436,0.09574809670448303
1789759675258602000,1.11560205078125,0.10569354891777039,0.10945112258195877,0.10840077698230743
1789759675268611000,1.125611083984375,0.16651761531829834,0.11033330857753754,0.09568360447883606
1789759675278620000,1.135619873046875,0.22192175686359406,0.12350824475288391,0.07015214115381241
1789759675288629000,1.14562890625,0.25779297947883606,0.13917191326618195,0.03786441683769226
1789759675298639000,1.15563916015625,0.2841108739376068,0.1427200436592102,0.04395027458667755
1789759675308648200,1.165648193359375,0.3052854835987091,0.14529988169670105,0.0412241630256176
1789759675318657000,1.175656982421875,0.32045111060142517,0.14791244268417358,0.03769068047404289
1789759675328667000,1.1856669921875,0.3354841470718384,0.1296839565038681,0.022720225155353546
1789759675338676000,1.195676025390625,0.3368428945541382,0.13676902651786804,0.008289354853332043
1789759675348685000,1.20568505859375,0.3341636061668396,0.128007173538208,-0.006782612297683954
1789759675358694100,1.215694091796875,0.33560675382614136,0.12178336828947067,-0.04640458896756172
1789759675368704000,1.2257041015625,0.32714012265205383,0.10938418656587601,-0.022538740187883377
1789759675378713000,1.235713134765625,0.31299924850463867,0.06042064353823662,-0.0008965618908405304
1789759675388722000,1.245721923828125,0.2453254759311676,0.06174788251519203,0.005648978054523468
1789759675398731000,1.25573095703125,0.17536982893943787,0.06940101087093353,0.0008267923258244991
1789759675408741000,1.2657412109375,0.1136820837855339,0.09630239009857178,0.004148657433688641
1789759675418750000,1.27575,0.10870543867349625,0.1089223101735115,0.04351869970560074
1789759675428759000,1.285759033203125,0.07865679264068604,0.10507120192050934,0.043180886656045914
1789759675438767900,1.295767822265625,0.1006276085972786,0.08174829930067062,0.036083295941352844
1789759675448778000,1.305778076171875,0.12355010211467743,0.03759127855300903,0.025629395619034767
1789759675458787000,1.315787109375,0.15828144550323486,-0.011054822243750095,-0.00412530405446887
1789759675468796000,1.3257958984375,0.15403759479522705,-0.031141474843025208,-0.017416082322597504
1789759675478806000,1.335805908203125,0.11911343783140182,-0.02555869147181511,-0.021869421005249023
1789759675488815000,1.345815185546875,0.09290290623903275,-0.013707088306546211,0.0015995230060070753
1789759675498824200,1.35582421875,0.08720960468053818,-0.004491486586630344,0.02294689044356346
1789759675508833000,1.3658330078125,0.08414123952388763,-0.0008542528375983238,0.06282661855220795
1789759675518843000,1.3758427734375,0.11162399500608444,0.0018075767438858747,0.0506834052503109
1789759675528852000,1.38585205078125,0.13107441365718842,0.005197799298912287,0.04242127388715744
1789759675538861000,1.395861083984375,0.15949726104736328,-0.014765255153179169,0.01510363258421421
1789759675548870100,1.4058701171875,0.16639597713947296,-0.033442676067352295,-0.010854948312044144
1789759675558880000,1.4158798828125,0.16177380084991455,-0.04416323080658913,-0.024227479472756386
1789759675568888800,1.425888916015625,0.14275893568992615,-0.05107409507036209,-0.0074388934299349785
1789759675578898000,1.43589794921875,0.1385391652584076,-0.047659389674663544,0.00919174775481224
1789759675588907000,1.445906982421875,0.13472746312618256,-0.02470497228205204,0.027276942506432533
1789759675598917000,1.455917236328125,0.18647189438343048,-0.02422507107257843,0.017596617341041565
1789759675608926000,1.465926025390625,0.20752596855163574,-0.018885847181081772,0.01342945359647274
1789759675618935000,1.47593505859375,0.22317549586296082,-0.027081456035375595,0.00837717205286026
1789759675628945200,1.485945068359375,0.2180061936378479,-0.036439403891563416,0.004274421837180853
1789759675638954000,1.4959541015625,0.20430263876914978,-0.05219573527574539,-0.006912186276167631
1789759675648963000,1.505963134765625,0.1795150190591812,-0.05542546510696411,-0.011739803478121758
1789759675658972000,1.515971923828125,0.15301309525966644,-0.06491111218929291,-0.008682494051754475
1789759675668982000,1.52598193359375,0.12805376946926117,-0.07306381314992905,-0.007322779390960932
1789759675678991000,1.5359912109375,0.11030858755111694,-0.06746745109558105,-0.005995193496346474
1789759675689000200,1.546000244140625,0.08599253743886948,-0.054142825305461884,-0.013316693715751171
1789759675699009000,1.556009033203125,0.06756425648927689,-0.04159906879067421,-0.008336316794157028
1789759675709019000,1.566018798828125,0.0639372393488884,-0.030979473143815994,0.0006157292518764734
1789759675719028000,1.576028076171875,0.06637376546859741,-0.02421238273382187,0.005389711819589138
1789759675729037000,1.586037109375,0.08625265955924988,-0.03351597487926483,0.0004533943720161915
1789759675739047200,1.596047119140625,0.1137830913066864,-0.026139281690120697,0.003390860976651311
1789759675749056000,1.606055908203125,0.14832082390785217,-0.03018755465745926,0.007900658063590527
1789759675759064800,1.61606494140625,0.1747835874557495,-0.01015445776283741,0.015842735767364502
1789759675769074000,1.626073974609375,0.19387619197368622,0.00542322127148509,0.02673141099512577
1789759675779084000,1.636083984375,0.21835118532180786,0.015953892841935158,0.02817271277308464
1789759675789093000,1.646093017578125,0.24886487424373627,0.03676974028348923,0.04511752352118492
1789759675799102000,1.65610205078125,0.27988511323928833,0.05003414303064346,0.03736799210309982
1789759675809111000,1.666111083984375,0.31092777848243713,0.07194921374320984,0.038570962846279144
1789759675819121200,1.67612109375,0.33504268527030945,0.08586343377828598,0.052602361887693405
1789759675829130000,1.6861298828125,0.3596286177635193,0.09219714254140854,0.06849398463964462
1789759675839139000,1.69613916015625,0.38376086950302124,0.09167169779539108,0.08512089401483536
1789759675849148200,1.706148193359375,0.3911095857620239,0.09293563663959503,0.10278884321451187
1789759675859158000,1.716157958984375,0.4054970145225525,0.10037544369697571,0.10574281960725784
1789759675869167000,1.7261669921875,0.39972203969955444,0.12704835832118988,0.1130368560552597
1789759675879176000,1.736176025390625,0.3867513835430145,0.1447192281484604,0.1143047884106636
1789759675889185800,1.746185791015625,0.36821237206459045,0.1607545167207718,0.1156337559223175
1789759675899195000,1.75619482421875,0.35441240668296814,0.15917418897151947,0.11624148488044739
1789759675909204000,1.766203857421875,0.33915457129478455,0.16398033499717712,0.1276000589132309
1789759675919213000,1.776213134765625,0.32951366901397705,0.16235767304897308,0.12715557217597961
1789759675929223200,1.78622314453125,0.31739330291748047,0.17125627398490906,0.13023725152015686
1789759675939232000,1.79623193359375,0.3078349232673645,0.186149463057518,0.1119660958647728
1789759675949240800,1.80624072265625,0.2868883013725281,0.1902334988117218,0.12290714681148529
1789759675959250000,1.81625,0.2662293612957001,0.19589591026306152,0.11533231288194656
1789759675969260000,1.826260009765625,0.22337324917316437,0.192657932639122,0.10384169220924377
1789759675979269000,1.83626904296875,0.17604701220989227,0.19960692524909973,0.11338593065738678
1789759675989278000,1.84627783203125,0.13318155705928802,0.20772486925125122,0.10800675302743912
1789759675999287000,1.856287109375,0.09737402200698853,0.19613799452781677,0.11529342830181122
1789759676009297000,1.866296875,0.05489380285143852,0.19834813475608826,0.13378731906414032
1789759676019306000,1.876305908203125,0.008401401340961456,0.17443561553955078,0.13774770498275757
1789759676029315000,1.886315185546875,-0.053283050656318665,0.17444662749767303,0.12740935385227203
1789759676039325000,1.896324951171875,-0.14412720501422882,0.17620831727981567,0.1409882754087448
1789759676049334000,1.906333984375,-0.22392569482326508,0.16829140484333038,0.1257016807794571
1789759676059343000,1.916343017578125,-0.301139235496521,0.17457832396030426,0.12934115529060364
1789759676069352000,1.92635205078125,-0.3599802553653717,0.15741421282291412,0.11597319692373276
1789759676079361800,1.93636181640625,-0.39878571033477783,0.13484951853752136,0.11093582212924957
1789759676089371000,1.946370849609375,-0.4357885718345642,0.12407151609659195,0.08648639172315598
1789759676099380000,1.9563798828125,-0.47716185450553894,0.12632614374160767,0.053369443863630295
1789759676109389000,1.96638916015625,-0.5054228901863098,0.13038572669029236,0.01997670903801918
1789759676119399200,1.976399169921875,-0.5040907859802246,0.11953441798686981,0.020114660263061523
1789759676129408000,1.986407958984375,-0.4893966019153595,0.10881058126688004,0.02790878899395466
1789759676139416800,1.996416748046875,-0.4660787582397461,0.09481620043516159,0.06148352846503258
1789759676149426000,2.006426025390625,-0.42021995782852173,0.07959721237421036,0.09632152318954468
1789759676159436000,2.01643603515625,-0.4005378782749176,0.1025102511048317,0.09877616167068481
1789759676169445000,2.026445068359375,-0.3760252892971039,0.11913612484931946,0.08607784658670425
1789759676179454200,2.0364541015625,-0.35003817081451416,0.11818350851535797,0.09380101412534714
1789759676189463800,2.0464638671875,-0.32545697689056396,0.13720491528511047,0.06525918841362
1789759676199473000,2.056472900390625,-0.3113374412059784,0.13143384456634521,0.07368889451026917
1789759676209482000,2.06648193359375,-0.3218213617801666,0.1370740830898285,0.0714903175830841
1789759676219491000,2.076490966796875,-0.30563148856163025,0.13225722312927246,0.05568712204694748
1789759676229501000,2.0865009765625,-0.28915613889694214,0.1237417533993721,0.06324825435876846
1789759676239510000,2.096510009765625,-0.28164923191070557,0.1371885985136032,0.05897894501686096
1789759676249518800,2.106518798828125,-0.2617732584476471,0.10667488723993301,0.04596487432718277
1789759676259528000,2.11652783203125,-0.254615843296051,0.1098550334572792,0.03528951108455658
1789759676269538000,2.1265380859375,-0.23790375888347626,0.08301065862178802,0.024368485435843468
1789759676279547000,2.136546875,-0.24002496898174286,0.07809367775917053,0.05307522788643837
1789759676289556000,2.146555908203125,-0.2649427652359009,0.06923458725214005,0.03297903761267662
1789759676299566000,2.156566162109375,-0.2914082109928131,0.07759291678667068,0.03790774941444397
1789759676309575200,2.1665751953125,-0.31716302037239075,0.07274238765239716,0.04592238739132881
1789759676319584000,2.176583984375,-0.34358182549476624,0.05087623745203018,0.038596563041210175
1789759676329592800,2.1865927734375,-0.37281104922294617,0.035496652126312256,0.04103890433907509
1789759676339603000,2.19660302734375,-0.4221983253955841,0.02305276319384575,0.04900788143277168
1789759676349612000,2.206612060546875,-0.4619815945625305,0.004087517503648996,0.05352063104510307
1789759676359621000,2.21662109375,-0.4967361092567444,-0.005470833741128445,0.07082345336675644
1789759676369630000,2.2266298828125,-0.5130196213722229,-0.022261153906583786,0.057858165353536606
1789759676379639800,2.236639892578125,-0.5192673802375793,-0.042346980422735214,0.02479182556271553
1789759676389649000,2.24664892578125,-0.5301199555397034,-0.04391850531101227,0.01616036519408226
1789759676399658000,2.256657958984375,-0.507124125957489,-0.04710124433040619,0.02168855629861355
1789759676409667000,2.2666669921875,-0.47527262568473816,-0.034045323729515076,0.040471792221069336
1789759676419677000,2.276677001953125,-0.410204142332077,-0.03534308075904846,0.035099927335977554
1789759676429686000,2.28668603515625,-0.3306923806667328,-0.026629142463207245,0.0251452773809433
1789759676439694800,2.29669482421875,-0.22363513708114624,-0.01684868335723877,-0.006676035467535257
1789759676449704000,2.306703857421875,-0.10370168834924698,-0.018308043479919434,-0.009450708515942097
1789759676459714000,2.316714111328125,-0.012078296393156052,0.0011910893954336643,0.0009779634419828653
1789759676469723000,2.326722900390625,0.06893446296453476,0.018095050007104874,0.009432945400476456
1789759676479732000,2.33673193359375,0.14206193387508392,0.045112550258636475,0.028247645124793053
1789759676489742000,2.3467421875,0.19937503337860107,0.07681099325418472,0.06255593150854111
1789759676499751000,2.3567509765625,0.27511531114578247,0.10072112083435059,0.044808100908994675
1789759676509760000,2.366760009765625,0.34403687715530396,0.11446298658847809,0.04382415488362312
1789759676519768800,2.376768798828125,0.38787543773651123,0.12475396692752838,-0.003783046267926693
1789759676529779000,2.386779052734375,0.4428249001502991,0.1057213842868805,-0.021017394959926605
1789759676539788000,2.3967880859375,0.44034042954444885,0.10508541762828827,-0.031080948188900948
1789759676549797000,2.406797119140625,0.41554731130599976,0.1017361730337143,-0.028835976496338844
1789759676559806000,2.416805908203125,0.35047218203544617,0.11543281376361847,-0.04116028919816017
1789759676569815800,2.42681591796875,0.2808288037776947,0.1278415024280548,-0.0366809219121933
1789759676579825000,2.436824951171875,0.21794357895851135,0.13479207456111908,-0.06104964762926102
1789759676589834000,2.446833984375,0.17508932948112488,0.13235218822956085,-0.06380054354667664
1789759676599844000,2.456843994140625,0.14626939594745636,0.1250452697277069,-0.07461883872747421
1789759676609853000,2.46685302734375,0.1478862166404724,0.10063492506742477,-0.08407527208328247
1789759676619862000,2.476862060546875,0.12970589101314545,0.08363649994134903,-0.09919377416372299
1789759676629870800,2.486870849609375,0.1158939003944397,0.06920906156301498,-0.15645557641983032
1789759676639881000,2.496880859375,0.07877343147993088,0.0799810141324997,-0.19949625432491302
1789759676649890000,2.50689013671875,0.06106209382414818,0.07151233404874802,-0.24240893125534058
1789759676659899000,2.51689892578125,0.044679392129182816,0.05944102630019188,-0.2798367142677307
1789759676669908000,2.526907958984375,0.03012661635875702,0.043543312698602676,-0.3193051517009735
1789759676679918000,2.53691796875,0.06034630537033081,0.014290619641542435,-0.18172889947891235
1789759676689927000,2.546927001953125,0.09723807126283646,-0.051402777433395386,-0.023365844041109085
1789759676699936000,2.55693603515625,0.040370259433984756,0.00117867486551404,0.16794073581695557
1789759676709945000,2.566945068359375,-0.05964416265487671,0.10322058945894241,0.11509636044502258
1789759676719955000,2.576954833984375,-0.14204688370227814,0.2133588045835495,0.07185141742229462
1789759676729964000,2.586964111328125,-0.15213042497634888,0.22725097835063934,-0.032388195395469666
1789759676739973000,2.59697314453125,-0.053401172161102295,0.2012060582637787,-0.025524431839585304
1789759676749983000,2.60698291015625,0.04791633412241936,0.11932720988988876,0.04217159375548363
1789759676759991800,2.61699169921875,0.19598568975925446,0.0546100027859211,0.111569844186306
1789759676770001000,2.6270009765625,0.316779762506485,0.03273985907435417,0.1552392840385437
1789759676780010000,2.637010009765625,0.37576958537101746,0.05675145238637924,0.1650458425283432
1789759676790020000,2.64702001953125,0.3984479010105133,0.12882421910762787,0.15063214302062988
1789759676800029000,2.65702880859375,0.33893370628356934,0.228242427110672,0.09892740845680237
1789759676810038000,2.6670380859375,0.3066340982913971,0.26451361179351807,0.06798520684242249
1789759676820046800,2.677046875,0.2679990828037262,0.2636408805847168,0.05410454049706459
1789759676830057000,2.687056884765625,0.24693870544433594,0.2442704141139984,0.06643620878458023
1789759676840066000,2.697066162109375,0.2527422308921814,0.21680521965026855,0.1245674267411232
1789759676850075000,2.707074951171875,0.27311795949935913,0.17785392701625824,0.14330753684043884
1789759676860084000,2.717083984375,0.2921334505081177,0.16197723150253296,0.2460309863090515
1789759676870094000,2.727093994140625,0.31557443737983704,0.1716916412115097,0.23933853209018707
1789759676880103000,2.73710302734375,0.299701988697052,0.22455644607543945,0.22256487607955933
1789759676890112000,2.747112060546875,0.24952450394630432,0.26269224286079407,0.1580030620098114
1789759676900121900,2.757121826171875,0.17597651481628418,0.297295480966568,0.07124500721693039
1789759676910131000,2.767130859375,0.11592421680688858,0.3132406771183014,0.010487454012036324
1789759676920140000,2.77714013671875,0.06696652621030807,0.29297325015068054,0.050093453377485275
1789759676930149000,2.787149169921875,0.01378818042576313,0.2898294925689697,0.13277597725391388
1789759676940159000,2.797158935546875,-0.02796166203916073,0.2759765386581421,0.15704643726348877
1789759676950167800,2.807167724609375,-0.0864531397819519,0.28881779313087463,0.16505232453346252
1789759676960177000,2.817177001953125,-0.1478957235813141,0.28189677000045776,0.16357746720314026
1789759676970186000,2.82718603515625,-0.2319718450307846,0.28129568696022034,0.16972820460796356
1789759676980196000,2.837196044921875,-0.3576655983924866,0.28325337171554565,0.1947709619998932
1789759676990205000,2.847204833984375,-0.4972612261772156,0.28145337104797363,0.24620209634304047
1789759677000213800,2.8572138671875,-0.6050878763198853,0.2763374447822571,0.21380341053009033
1789759677010222800,2.867222900390625,-0.7189489006996155,0.26933860778808594,0.1176423579454422
1789759677020233000,2.87723291015625,-0.8296642303466797,0.2562832534313202,0.0753987655043602
1789759677030242000,2.887241943359375,-0.9225017428398132,0.2203505039215088,0.0635482519865036
1789759677040251100,2.897251220703125,-1.00545334815979,0.16480815410614014,0.02604721672832966
1789759677050261000,2.907260986328125,-1.1060091257095337,0.1358260065317154,0.027271300554275513
1789759677060270000,2.91727001953125,-1.229712724685669,0.11908537149429321,0.029630061239004135
1789759677070279000,2.92727880859375,-1.3555132150650024,0.11136245727539062,0.04922261834144592
1789759677080288000,2.9372880859375,-1.5083684921264648,0.1454743593931198,0.0739751011133194
1789759677090297900,2.9472978515625,-1.6205048561096191,0.14384712278842926,0.06568530201911926
1789759677100307000,2.957306884765625,-1.621119499206543,0.07812456786632538,0.09072567522525787
1789759677110316000,2.96731591796875,-1.5818041563034058,0.016757920384407043,0.04325447604060173
1789759677120324400,2.977324462890625,-1.621842622756958,-0.00724248681217432,0.03158903121948242
1789759677130334500,2.98733447265625,-1.7095578908920288,-0.03464841842651367,-0.0011211440432816744
1789759677140343600,2.997343505859375,-1.690401315689087,-0.0536482036113739,0.045512404292821884
1789759677150352100,3.00735205078125,-1.6663031578063965,-0.070230633020401,0.06167300045490265
1789759677160361200,3.017361328125,-1.678883671760559,-0.06606891006231308,0.10450275242328644
1789759677170371300,3.027371337890625,-1.6500794887542725,-0.0838000699877739,0.07640732824802399
1789759677180380400,3.03738037109375,-1.645869255065918,-0.0628495141863823,0.07029004395008087
1789759677190389500,3.047389404296875,-1.5451934337615967,-0.06702665239572525,0.06726592779159546
1789759677200399400,3.0573994140625,-1.3824527263641357,-0.09100575745105743,0.062367040663957596
1789759677210408400,3.067408447265625,-1.2192026376724243,-0.09309930354356766,0.05249783396720886
1789759677220417300,3.077417236328125,-1.0381017923355103,-0.0855705514550209,0.04627642408013344
1789759677230426400,3.08742626953125,-0.8430935144424438,-0.058286748826503754,0.05847662314772606
1789759677240436200,3.097436279296875,-0.6409603953361511,-0.005561484023928642,0.08862653374671936
1789759677250445300,3.1074453125,-0.4200919568538666,0.018756844103336334,0.07950524240732193
1789759677260454400,3.117454345703125,-0.24440348148345947,0.035078294575214386,0.0645233616232872
1789759677270463200,3.127463134765625,-0.07771004736423492,0.042085200548172,0.05174902826547623
1789759677280473300,3.137473388671875,0.04560789465904236,0.061752378940582275,0.030752133578062057
1789759677290482200,3.147482177734375,0.1464206576347351,0.10201346129179001,0.05567924678325653
1789759677300491300,3.1574912109375,0.24222442507743835,0.11352710425853729,0.03176619112491608
1789759677310500400,3.167500244140625,0.309288889169693,0.11696075648069382,0.030780090019106865
1789759677320510500,3.177510498046875,0.37032854557037354,0.12054723501205444,0.017015542834997177
1789759677330519600,3.18751953125,0.40878185629844666,0.10848741233348846,0.029507437720894814
1789759677340528000,3.197528076171875,0.3970431685447693,0.1031363233923912,0.0357418954372406
1789759677350538200,3.207538330078125,0.3406394422054291,0.08567332476377487,0.03218226879835129
1789759677360547300,3.21754736328125,0.2448609620332718,0.06507111340761185,0.039748840034008026
1789759677370556400,3.227556396484375,0.11145616322755814,0.044745489954948425,0.04496672376990318
1789759677380565500,3.2375654296875,-0.03295188397169113,0.024461258202791214,0.04033469036221504
1789759677390575400,3.247575439453125,-0.18560674786567688,0.007124097552150488,0.04142126813530922
1789759677400584400,3.25758447265625,-0.34726569056510925,0.0036827605217695236,0.04806692153215408
1789759677410593300,3.26759326171875,-0.44652247428894043,-0.025264080613851547,0.03982570767402649
1789759677420602400,3.277602294921875,-0.5076678395271301,-0.052635785192251205,0.05007541552186012
1789759677430612200,3.2876123046875,-0.5514261722564697,-0.05754522979259491,0.04926340654492378
1789759677440621300,3.297621337890625,-0.5607852935791016,-0.06371870636940002,0.03426341712474823
1789759677450630400,3.30763037109375,-0.561693012714386,-0.06561151891946793,0.029898719862103462
1789759677460639200,3.31763916015625,-0.5659551620483398,-0.06161704659461975,0.07192845642566681
1789759677470649300,3.3276494140625,-0.558955192565918,-0.07676346600055695,0.05336299538612366
1789759677480658200,3.337658203125,-0.5492945909500122,-0.04500340670347214,0.04349305108189583
1789759677490667300,3.347667236328125,-0.5026655197143555,-0.0552976056933403,-0.0012376694940030575
1789759677500677400,3.357677490234375,-0.447530061006546,-0.04860188439488411,-0.022963471710681915
1789759677510686500,3.3676865234375,-0.3959956467151642,-0.0007150019519031048,0.022605950012803078
1789759677520695600,3.377695556640625,-0.32780009508132935,0.021533843129873276,0.043959442526102066
1789759677530704400,3.387704345703125,-0.2222365140914917,0.030307680368423462,0.03608721122145653
1789759677540714200,3.39771435546875,-0.1257251501083374,0.015870682895183563,0.03981856629252434
1789759677550723300,3.407723388671875,-0.018930211663246155,0.01861407235264778,0.020212717354297638
1789759677560732400,3.417732421875,0.08439910411834717,0.03369821608066559,0.017892038449645042
1789759677570741500,3.427741455078125,0.10362452268600464,0.07592713087797165,0.027863383293151855
1789759677580751400,3.43775146484375,0.10607383400201797,0.11970789730548859,0.034827280789613724
1789759677590760200,3.44776025390625,0.12504473328590393,0.15136218070983887,0.04737735539674759
1789759677600769300,3.457769287109375,0.1336078643798828,0.14816905558109283,0.031117692589759827
1789759677610779400,3.467779296875,0.11701968312263489,0.13126489520072937,0.02249688096344471
1789759677620788200,3.477788330078125,0.07635880261659622,0.11686118692159653,0.03404567763209343
1789759677630797300,3.48779736328125,0.003940748982131481,0.10018216818571091,0.06556155532598495
1789759677640806400,3.497806396484375,-0.10638442635536194,0.07751999795436859,0.09057369828224182
1789759677650816500,3.50781640625,-0.24042850732803345,0.07362715154886246,0.10044535994529724
1789759677660825300,3.517825439453125,-0.35448771715164185,0.06004609540104866,0.11917776614427567
1789759677670834200,3.527834228515625,-0.49154484272003174,0.06267917901277542,0.1380554437637329
1789759677680843300,3.53784326171875,-0.6178191900253296,0.07386898249387741,0.15182077884674072
1789759677690853400,3.547853271484375,-0.721173882484436,0.07835797220468521,0.19715389609336853
1789759677700862500,3.557862548828125,-0.8331329226493835,0.08948652446269989,0.2101123034954071
1789759677710871600,3.56787158203125,-0.9183527827262878,0.09501190483570099,0.2522950768470764
1789759677720880400,3.57788037109375,-0.9753987789154053,0.09336713701486588,0.3002713918685913
1789759677730890200,3.58789013671875,-1.0120147466659546,0.049478866159915924,0.33552128076553345
1789759677740899300,3.5978994140625,-1.0074234008789062,0.04919923469424248,0.3825013041496277
1789759677750908400,3.607908447265625,-1.1615232229232788,-0.29288268089294434,-0.10512224584817886
1789759677760917500,3.61791748046875,-1.0756351947784424,-0.1917898952960968,-0.07133898138999939
1789759677770927400,3.62792724609375,-1.2185245752334595,-0.10708295553922653,-0.05997440218925476
1789759677780936200,3.637936279296875,-1.2571156024932861,-0.024591272696852684,0.03113420307636261
1789759677790945300,3.6479453125,-1.3268144130706787,0.03626006096601486,-0.04387347400188446
1789759677800955400,3.657955322265625,-1.2942761182785034,-0.03447083383798599,-0.0583895668387413
1789759677810964200,3.667964111328125,-1.256975531578064,-0.09606096893548965,-0.05524560809135437
1789759677820973300,3.677973388671875,-1.1536927223205566,-0.15779438614845276,-0.018678274005651474
1789759677830982400,3.687982421875,-1.164857029914856,-0.1137881726026535,0.026216547936201096
1789759677840992500,3.697992431640625,-1.230908751487732,-0.09275159984827042,-0.024028513580560684
1789759677851001300,3.70800146484375,-1.1973588466644287,-0.041538823395967484,-0.014025923795998096
1789759677861010400,3.718010498046875,-1.035565733909607,-0.05928346887230873,-0.0409771129488945
1789759677871019300,3.728019287109375,-0.9112462997436523,-0.0525071807205677,-0.07974453270435333
1789759677881029400,3.738029296875,-0.8125447034835815,-0.05999252572655678,-0.041307128965854645
1789759677891038500,3.74803857421875,-0.777000367641449,0.010525090619921684,-0.03799797594547272
1789759677901047300,3.75804736328125,-0.7158879637718201,0.028465740382671356,-0.0048615941777825356
1789759677911056400,3.768056396484375,-0.5931239128112793,0.02113930881023407,0.00846169050782919
1789759677921066200,3.778066162109375,-0.5220372080802917,-0.0023292656987905502,-0.010831846855580807
1789759677931075300,3.788075439453125,-0.4689325988292694,0.016600370407104492,-0.018774766474962234
1789759677941084400,3.79808447265625,-0.4396364688873291,0.027445828542113304,-0.047903891652822495
1789759677951094300,3.80809423828125,-0.4237452745437622,0.08837772905826569,-0.03860382363200188
1789759677961103400,3.818103271484375,-0.37379345297813416,0.08649595081806183,-0.059047847986221313
1789759677971112200,3.8281123046875,-0.35101282596588135,0.08612110465765,-0.06803259998559952
1789759677981121300,3.838121337890625,-0.43701961636543274,0.095208078622818,-0.08046050369739532
1789759677991131400,3.84813134765625,-0.48365283012390137,0.06841228902339935,-0.04559195786714554
1789759678001140500,3.858140380859375,-0.549888014793396,0.04375780001282692,-0.03388656675815582
1789759678011149300,3.8681494140625,-0.6311004161834717,0.014801166951656342,-0.0160408616065979
1789759678021158400,3.878158447265625,-0.7152829170227051,-0.03549422696232796,-0.01014089584350586
1789759678031168500,3.88816845703125,-0.8324442505836487,-0.04533887654542923,0.0007132415194064379
1789759678041177300,3.89817724609375,-0.9747853875160217,-0.04194148629903793,0.014114268124103546
1789759678051186400,3.9081865234375,-1.0707050561904907,-0.05334050953388214,0.026187853887677193
1789759678061195300,3.9181953125,-1.1491963863372803,-0.02187286503612995,0.031494736671447754
1789759678071205400,3.928205322265625,-1.1810033321380615,-0.02089647203683853,0.05181676149368286
1789759678081214500,3.93821435546875,-1.222806453704834,-0.02028154954314232,0.08410093188285828
1789759678091223300,3.948223388671875,-1.2381359338760376,-0.05307336896657944,0.10379839688539505
1789759678101233200,3.958233154296875,-1.3079578876495361,-0.07184546440839767,0.1462361365556717
1789759678111242200,3.9682421875,-1.4416630268096924,-0.090668223798275,0.16688576340675354
1789759678121251600,3.97825146484375,-1.411431074142456,-0.15523310005664825,0.24274006485939026
1789759678131260700,3.9882607421875,-1.406434178352356,-0.2247585505247116,0.2433178424835205
1789759678141270500,3.9982705078125,-1.433493733406067,-0.23302766680717468,0.23061136901378632
1789759678151279600,4.008279541015625,-1.4435968399047852,-0.2547607421875,0.1828269362449646
1789759678161288700,4.018288818359375,-1.4434950351715088,-0.2211950570344925,0.1613844931125641
1789759678171297500,4.028297607421875,-1.4765050411224365,-0.1787719577550888,0.1270398497581482
1789759678181307600,4.0383076171875,-1.4492472410202026,-0.15628688037395477,0.12081283330917358
1789759678191316500,4.04831640625,-1.4012047052383423,-0.14484912157058716,0.12865713238716125
1789759678201325600,4.05832568359375,-1.308658242225647,-0.13455386459827423,0.13453179597854614
1789759678211335700,4.068335693359375,-1.1945955753326416,-0.18081726133823395,0.13250240683555603
1789759678221344800,4.0783447265625,-1.0182404518127441,-0.20018909871578217,0.1394234299659729
1789759678231353600,4.088353515625,-0.8529694080352783,-0.22012101113796234,0.14377428591251373
1789759678241362700,4.09836279296875,-0.7030600905418396,-0.21558351814746857,0.14303019642829895
1789759678251372500,4.10837255859375,-0.5602696537971497,-0.1972074806690216,0.14520108699798584
1789759678261381600,4.118381591796875,-0.42055511474609375,-0.18181680142879486,0.14853721857070923
1789759678271390700,4.128390625,-0.3100891411304474,-0.15669268369674683,0.1374002993106842
1789759678281399800,4.13839990234375,-0.23923282325267792,-0.17044658958911896,0.1421862691640854
1789759678291409700,4.14840966796875,-0.20107629895210266,-0.18447589874267578,0.13381950557231903
1789759678301418500,4.15841845703125,-0.193430095911026,-0.21432141959667206,0.13825766742229462
1789759678311427600,4.168427490234375,-0.21380043029785156,-0.2577802538871765,0.1702214926481247
1789759678321436700,4.178436767578125,-0.3167867362499237,-0.24897931516170502,0.17057782411575317
1789759678331446500,4.188446533203125,-0.4069766402244568,-0.2910808324813843,0.22884847223758698
1789759678341455600,4.19845556640625,-0.5438170433044434,-0.28585463762283325,0.2199082374572754
1789759678351464700,4.208464599609375,-0.6206778287887573,-0.31935396790504456,0.25170519948005676
1789759678361473500,4.2184736328125,-0.6899290680885315,-0.3252936005592346,0.25190359354019165
1789759678371483600,4.228483642578125,-0.7228543162345886,-0.3508298695087433,0.25708770751953125
1789759678381492700,4.23849267578125,-0.7332227826118469,-0.3827537000179291,0.25307324528694153
1789759678391501600,4.24850146484375,-0.6924079060554504,-0.3866996467113495,0.2797091007232666
1789759678401511700,4.25851171875,-0.6299932599067688,-0.3980809450149536,0.3043159246444702
1789759678411520800,4.268520751953125,-0.4444001615047455,-0.41956523060798645,0.32903796434402466
1789759678421529600,4.278529541015625,-0.2859764099121094,-0.43727073073387146,0.3076903223991394
1789759678431538700,4.28853857421875,-0.08853139728307724,-0.43897849321365356,0.3266277611255646
1789759678441548500,4.298548583984375,0.08446221798658371,-0.4127623438835144,0.30132612586021423
1789759678451557600,4.3085576171875,0.27902618050575256,-0.3877437710762024,0.27720052003860474
1789759678461566700,4.318566650390625,0.5093709826469421,-0.38207098841667175,0.2593328654766083
1789759678471575800,4.328575927734375,0.728268563747406,-0.31695467233657837,0.23773664236068726
1789759678481585700,4.338585693359375,0.9438415765762329,-0.29308822751045227,0.2147466391324997
1789759678491594500,4.348594482421875,1.1142215728759766,-0.24338273704051971,0.17372064292430878
1789759678501603600,4.358603515625,1.3042857646942139,-0.2003556489944458,0.1615113765001297
1789759678511613700,4.36861376953125,1.4773792028427124,-0.16267690062522888,0.11193528771400452
1789759678521622800,4.378622802734375,1.5994411706924438,-0.14040568470954895,0.05796526372432709
1789759678531631600,4.388631591796875,1.6652336120605469,-0.09707266837358475,0.041633982211351395
1789759678541640400,4.398640380859375,1.7083158493041992,-0.07268024235963821,0.03281545639038086
1789759678551650600,4.408650634765625,1.6896758079528809,-0.04263988509774208,0.02583462931215763
1789759678561659600,4.41865966796875,1.6515032052993774,-0.0389506071805954,0.02553342655301094
1789759678571668700,4.428668701171875,1.549271821975708,-0.028706293553113937,0.024683797731995583
1789759678581677600,4.438677490234375,1.4368709325790405,-0.030801136046648026,0.011038027703762054
1789759678591687700,4.448687744140625,1.3134113550186157,-0.04622636362910271,-0.012536994181573391
1789759678601696800,4.45869677734375,1.1457326412200928,-0.01723599061369896,0.025308655574917793
1789759678611705600,4.46870556640625,0.9947963356971741,-0.025051673874258995,0.022839756682515144
1789759678621714700,4.478714599609375,0.8706392645835876,-0.021745625883340836,0.017654847353696823
1789759678631724500,4.488724609375,0.7551320791244507,-0.05849588289856911,0.013142457231879234
1789759678641733600,4.498733642578125,0.6739224791526794,-0.04448472708463669,0.012487318366765976
1789759678651742700,4.50874267578125,0.6073788404464722,-0.056595079600811005,0.03360367193818092
1789759678661751800,4.518751708984375,0.5595228672027588,-0.09786182641983032,0.030891507863998413
1789759678671761700,4.52876171875,0.5091447234153748,-0.12472137063741684,0.04873911663889885
1789759678681770500,4.5387705078125,0.4917292594909668,-0.15255753695964813,0.04763390123844147
1789759678691779600,4.548779541015625,0.44589343667030334,-0.16228137910366058,0.05700525641441345
1789759678701789700,4.558789794921875,0.34769392013549805,-0.13088403642177582,0.049208320677280426
1789759678711798800,4.568798828125,0.27901485562324524,-0.10132823884487152,0.06918742507696152
1789759678721807600,4.5788076171875,0.24968759715557098,-0.11364775151014328,0.052530158311128616
1789759678731816400,4.58881640625,0.2523318827152252,-0.11214321106672287,0.053637709468603134
1789759678741826600,4.59882666015625,0.23734572529792786,-0.13348044455051422,0.05343424156308174
1789759678751835600,4.608835693359375,0.22208519279956818,-0.14390884339809418,0.049671199172735214
1789759678761844700,4.6188447265625,0.18901219964027405,-0.13411720097064972,0.06604751199483871
1789759678771853600,4.628853515625,0.15046221017837524,-0.14542219042778015,0.06435059010982513
1789759678781863700,4.63886376953125,0.13876347243785858,-0.14901666343212128,0.07142315059900284
1789759678791872800,4.648872802734375,0.11377023905515671,-0.14073972404003143,0.054996125400066376
1789759678801881600,4.658881591796875,0.10728943347930908,-0.13980628550052643,0.06459788978099823
1789759678811891500,4.668891357421875,0.10021501034498215,-0.1510741114616394,0.03975911810994148
1789759678821900500,4.678900634765625,0.1101263239979744,-0.14588651061058044,0.027400149032473564
1789759678831909600,4.68890966796875,0.12612305581569672,-0.15378499031066895,-0.004835960920900106
1789759678841918700,4.698918701171875,0.13531282544136047,-0.16355693340301514,-0.04950889199972153
1789759678851928800,4.7089287109375,0.14004331827163696,-0.1626075953245163,-0.027833828702569008
1789759678861937400,4.7189375,0.14355230331420898,-0.14879858493804932,-0.025303825736045837
1789759678871946500,4.728946533203125,0.14774926006793976,-0.17455542087554932,-0.009001263417303562
1789759678881955600,4.73895556640625,0.14159202575683594,-0.1862189918756485,-0.028189072385430336
1789759678891965700,4.748965576171875,0.16982072591781616,-0.20155087113380432,-0.045738741755485535
1789759678901974800,4.758974853515625,0.2055440992116928,-0.24057629704475403,-0.05351969599723816
1789759678911983600,4.768983642578125,0.23454414308071136,-0.21419568359851837,-0.017429493367671967
1789759678921992400,4.778992431640625,0.25152578949928284,-0.19956746697425842,0.0019455354195088148
1789759678932002600,4.78900244140625,0.3064859211444855,-0.20286521315574646,0.044971104711294174
1789759678942011600,4.79901171875,0.3635137975215912,-0.19609838724136353,0.027693580836057663
1789759678952020700,4.809020751953125,0.4536249041557312,-0.20550383627414703,0.012317094020545483
1789759678962030600,4.819030517578125,0.5374465584754944,-0.22220265865325928,-0.005093054845929146
1789759678972039700,4.829039794921875,0.608574628829956,-0.22183334827423096,-0.004585860762745142
1789759678982048800,4.839048828125,0.6776621341705322,-0.20773537456989288,0.017572171986103058
1789759678992057600,4.8490576171875,0.7545978426933289,-0.20362116396427155,0.04627886414527893
1789759679002067500,4.8590673828125,0.8423705697059631,-0.1962524652481079,0.040593814104795456
1789759679012076500,4.86907666015625,0.9387958645820618,-0.18736909329891205,0.022236064076423645
1789759679022085600,4.879085693359375,1.0206820964813232,-0.17435449361801147,0.00042077922262251377
1789759679032094700,4.8890947265625,1.0881730318069458,-0.1332414448261261,0.011244761757552624
1789759679042104800,4.899104736328125,1.1522407531738281,-0.11823799461126328,0.015304750762879848
1789759679052113400,4.909113525390625,1.219254732131958,-0.10562041401863098,0.022110532969236374
1789759679062122500,4.91912255859375,1.2466943264007568,-0.10012951493263245,0.022002141922712326
1789759679072131600,4.929131591796875,1.2489575147628784,-0.09182009845972061,0.024344269186258316
1789759679082141700,4.9391416015625,1.237781286239624,-0.10583338141441345,0.02027602307498455
1789759679092150800,4.94915087890625,1.2140076160430908,-0.10007177293300629,-0.0050331056118011475
1789759679102159600,4.95915966796875,1.164401888847351,-0.09825922548770905,0.008292021229863167
1789759679112168400,4.96916845703125,1.1207388639450073,-0.09349124878644943,0.028590774163603783
1789759679122179000,4.979178955078125,1.0974385738372803,-0.10756392776966095,0.016645167022943497
1789759679132188200,4.989188232421875,1.0810519456863403,-0.10926488041877747,0.03208921104669571
1789759679142197200,4.999197265625,1.0509997606277466,-0.08874362707138062,0.019236262887716293
1789759679152207000,5.00920703125,1.0332204103469849,-0.07789654284715652,0.010977334342896938
1789759679162216200,5.01921630859375,1.0383107662200928,-0.07065913081169128,-0.009253368712961674
1789759679172225000,5.02922509765625,1.0582200288772583,-0.053663551807403564,-0.00400253850966692
1789759679182234000,5.039234130859375,1.073156714439392,-0.051687486469745636,-0.008480111137032509
1789759679192244000,5.049243896484375,1.1143324375152588,-0.06483305990695953,-0.007364173419773579
1789759679202253000,5.059253173828125,1.1355208158493042,-0.03527729958295822,0.016048476099967957
1789759679212262100,5.06926220703125,1.1629664897918701,-0.030629726126790047,0.009163922630250454
1789759679222271200,5.079271240234375,1.1854465007781982,-0.0015045967884361744,-0.0040530795231461525
1789759679232281000,5.089281005859375,1.2276115417480469,0.004818469285964966,-0.01954173669219017
1789759679242290000,5.0992900390625,1.2904493808746338,0.03257659822702408,0.0233647171407938
1789759679252299000,5.109299072265625,1.3207329511642456,0.030935995280742645,0.0061665731482207775
1789759679262308000,5.11930810546875,1.3531949520111084,0.06830041110515594,0.019873330369591713
1789759679272318200,5.129318115234375,1.3690619468688965,0.07337505370378494,0.033027052879333496
1789759679282327300,5.139327392578125,1.3557543754577637,0.09237218648195267,0.036932844668626785
1789759679292335900,5.1493359375,1.336151361465454,0.09891610592603683,0.05126917362213135
1789759679302346000,5.159345947265625,1.2673461437225342,0.11535126715898514,0.04409568011760712
1789759679312355000,5.16935498046875,1.1791096925735474,0.15510310232639313,0.011454141698777676
1789759679322364200,5.1793642578125,1.1074410676956177,0.12928400933742523,0.0314805805683136
1789759679332373200,5.189373291015625,1.026379942893982,0.12502579391002655,0.03467392176389694
1789759679342383000,5.199383056640625,0.9455575346946716,0.0964207798242569,0.02513767220079899
1789759679352392200,5.20939208984375,0.8651322722434998,0.1071639358997345,0.01271102949976921
1789759679362401000,5.219401123046875,0.7781856656074524,0.09834940731525421,0.02835949696600437
1789759679372410000,5.22941015625,0.7186720371246338,0.10319742560386658,0.049446139484643936
1789759679382420000,5.239419921875,0.6661001443862915,0.0756174623966217,0.03351910412311554
1789759679392429000,5.249428955078125,0.6128525137901306,0.07916004955768585,0.016183866187930107
1789759679402438100,5.259438232421875,0.5431602597236633,0.06997507065534592,0.04219123348593712
1789759679412447200,5.269447265625,0.4749358594417572,0.07961668074131012,0.04914582893252373
1789759679422457000,5.27945703125,0.4196683466434479,0.0780201107263565,0.049188971519470215
1789759679432466000,5.2894658203125,0.39774325489997864,0.07342387735843658,0.050271425396203995
1789759679442475000,5.29947509765625,0.37564992904663086,0.07395517826080322,0.06364422291517258
1789759679452485000,5.309485107421875,0.3675198554992676,0.0802382156252861,0.06831289082765579
1789759679462494200,5.319494140625,0.35384052991867065,0.08954250067472458,0.0429750457406044
1789759679472503300,5.32950341796875,0.37509873509407043,0.08981338143348694,0.040107328444719315
1789759679483765200,5.34076513671875,0.3846794664859772,0.09766945242881775,0.04344240203499794
1789759679494399000,5.35139892578125,0.41009029746055603,0.11534377932548523,0.06342649459838867
1789759679504409000,5.3614091796875,0.4275621175765991,0.117417111992836,0.052322354167699814
1789759679514418200,5.371418212890625,0.451475590467453,0.13876108825206757,0.03939630836248398
1789759679524427300,5.38142724609375,0.45802512764930725,0.14663845300674438,0.034447889775037766
1789759679534436000,5.39143603515625,0.45905911922454834,0.12743188440799713,0.047116611152887344
1789759679544446000,5.401446044921875,0.4480522572994232,0.12037744373083115,0.03601815178990364
1789759679554455000,5.411455078125,0.4289761781692505,0.10842694342136383,0.062192510813474655
1789759679564464000,5.421464111328125,0.4085729122161865,0.1124563068151474,0.07025496661663055
1789759679574473200,5.43147314453125,0.3737283945083618,0.13691487908363342,0.07657772302627563
1789759679584483000,5.441483154296875,0.3602232336997986,0.15261395275592804,0.06676850467920303
1789759679594492200,5.4514921875,0.3582170903682709,0.15165071189403534,0.05098215118050575
1789759679604501000,5.4615009765625,0.36116307973861694,0.1393357217311859,0.0605974979698658
1789759679614510000,5.471510009765625,0.37016761302948,0.13981305062770844,0.05525064095854759
1789759679624520000,5.48152001953125,0.36851271986961365,0.12099195271730423,0.08397842943668365
1789759679634529000,5.491529052734375,0.33599671721458435,0.11691923439502716,0.07259189337491989
1789759679644538000,5.5015380859375,0.313571572303772,0.154478058218956,0.07762180268764496
1789759679654547200,5.511547119140625,0.2663877010345459,0.15176814794540405,0.06051396578550339
1789759679664557000,5.52155712890625,0.23131226003170013,0.18930034339427948,0.06159733980894089
1789759679674566100,5.531566162109375,0.20735059678554535,0.17495495080947876,0.03080970235168934
1789759679684575000,5.541574951171875,0.2120252400636673,0.1556294560432434,0.038303304463624954
1789759679694585000,5.551585205078125,0.21689271926879883,0.1516028642654419,0.04866960272192955
1789759679704594200,5.56159423828125,0.2142905443906784,0.14039814472198486,0.0732005164027214
1789759679714603300,5.571603271484375,0.209005206823349,0.13484348356723785,0.061057090759277344
1789759679724612000,5.581612060546875,0.19490297138690948,0.15101152658462524,0.07232625037431717
1789759679734622000,5.5916220703125,0.17893701791763306,0.155593603849411,0.06125553324818611
1789759679744631000,5.601631103515625,0.14196088910102844,0.16380704939365387,0.07084530591964722
1789759679754640100,5.61164013671875,0.11714000999927521,0.15335500240325928,0.04917497932910919
1789759679764649200,5.621649169921875,0.0892425999045372,0.1502383053302765,0.05500943213701248
1789759679774659000,5.6316591796875,0.06239382550120354,0.11335194110870361,0.0513879656791687
1789759679784668200,5.641668212890625,0.014784756116569042,0.11708889156579971,0.05691908299922943
1789759679794677000,5.651677001953125,-0.040342625230550766,0.12175747752189636,0.04964633658528328
1789759679808440300,5.6654404296875,-0.09556379914283752,0.1029941737651825,0.0510128028690815
1789759679819074000,5.676073974609375,-0.12020683288574219,0.09653857350349426,0.04381013661623001
1789759679829083100,5.686083251953125,-0.14287832379341125,0.07677525281906128,0.03597778081893921
1789759679839092000,5.696092041015625,-0.1564466506242752,0.07403606176376343,0.03765925392508507
1789759679849102000,5.70610205078125,-0.16948363184928894,0.0705752819776535,0.03227567300200462
1789759679859111200,5.716111083984375,-0.16137276589870453,0.06772221624851227,0.04278114065527916
1789759679869120000,5.7261201171875,-0.16060204803943634,0.05032910779118538,0.03784044459462166
1789759679879129000,5.736129150390625,-0.16697096824645996,0.033004842698574066,0.04936575889587402
1789759679889139200,5.74613916015625,-0.17789152264595032,0.024330658838152885,0.04021114483475685
1789759679899148000,5.75614794921875,-0.19463562965393066,0.03761976957321167,0.021614044904708862
1789759679909157000,5.7661572265625,-0.19852358102798462,0.024998249486088753,0.02647404745221138
1789759679919166200,5.776166259765625,-0.2002197802066803,0.0022887159138917923,0.03001941740512848
1789759679929176000,5.786176025390625,-0.17794668674468994,-0.021456293761730194,0.031083617359399796
1789759679939185200,5.79618505859375,-0.16757246851921082,-0.02764499932527542,0.03966318443417549
1789759679949194200,5.8061943359375,-0.15645696222782135,-0.049517542123794556,0.03424764424562454
1789759679959203000,5.816203125,-0.16357719898223877,-0.051077090203762054,-0.0002450845204293728
1789759679969213000,5.826212890625,-0.15363481640815735,-0.05693444609642029,0.004356858320534229
1789759679979222000,5.836221923828125,-0.12254434078931808,-0.06273093819618225,0.0036662511993199587
1789759679989231000,5.846231201171875,-0.0875629261136055,-0.09506704658269882,0.0020707512740045786
1789759679999241200,5.8562412109375,-0.039806265383958817,-0.1263474076986313,0.011898159049451351
1789759680009250000,5.86625,0.017617879435420036,-0.16558268666267395,0.01625828631222248
1789759680019259100,5.876259033203125,0.06285500526428223,-0.15975451469421387,0.04085901379585266
1789759680029268000,5.88626806640625,0.08852308243513107,-0.15271897614002228,0.04934437945485115
1789759680039278000,5.896278076171875,0.1126353070139885,-0.08754263818264008,0.020268425345420837
1789759680049287200,5.906287109375,0.15548476576805115,-0.08591943979263306,-0.01148364506661892
1789759680059296300,5.916296142578125,0.2603054344654083,-0.10438043624162674,-0.012991361320018768
1789759680069305000,5.92630517578125,0.4084711968898773,-0.10240516811609268,0.007893946021795273
1789759680079315200,5.936315185546875,0.5583958029747009,-0.1370842158794403,0.026692913845181465
1789759680089324000,5.946323974609375,0.6637864112854004,-0.14868468046188354,0.0377812497317791
1789759680099333000,5.9563330078125,0.7331766486167908,-0.12199210375547409,0.029649188742041588
1789759680109342200,5.96634228515625,0.7986965179443359,-0.11933426558971405,0.012289374135434628
1789759680119352000,5.97635205078125,0.8719077110290527,-0.08622674643993378,0.006974988151341677
1789759680129360600,5.986360595703125,0.9395301342010498,-0.08982281386852264,0.019541913643479347
1789759680139369700,5.99636962890625,1.0166960954666138,-0.09573262929916382,0.01876853220164776
1789759680149378600,6.006378662109375,1.059951663017273,-0.09367001056671143,0.023727603256702423
1789759680159388400,6.016388427734375,1.105334758758545,-0.08459623903036118,0.033751096576452255
1789759680169397500,6.0263974609375,1.133435845375061,-0.061587855219841,0.025271061807870865
1789759680179406600,6.036406494140625,1.1691248416900635,-0.06834879517555237,0.00920017994940281
1789759680189416700,6.046416748046875,1.1955556869506836,-0.04821076616644859,0.009590597823262215
1789759680199425800,6.05642578125,1.2033360004425049,-0.03737379238009453,0.02142052911221981
1789759680209434600,6.0664345703125,1.2285449504852295,-0.030932404100894928,0.04692988470196724
1789759680219443500,6.076443359375,1.2422200441360474,-0.016702665016055107,0.05424188822507858
1789759680229453600,6.08645361328125,1.2624307870864868,0.0002835094928741455,0.04085284471511841
1789759680239462700,6.096462646484375,1.2939329147338867,0.01684490591287613,0.05300102010369301
1789759680249471700,6.1064716796875,1.3246586322784424,0.016806289553642273,0.05122149735689163
1789759680259480800,6.116480712890625,1.381805419921875,0.020761605352163315,0.0642540380358696
1789759680269490700,6.12649072265625,1.415772795677185,0.051387157291173935,0.08482855558395386
1789759680279499500,6.13649951171875,1.4395006895065308,0.049247704446315765,0.09871991723775864
1789759680289508600,6.146508544921875,1.4695401191711426,0.08284348249435425,0.13712802529335022
1789759680299517700,6.156517578125,1.4821580648422241,0.10333612561225891,0.13604487478733063
1789759680309527600,6.166527587890625,1.477980613708496,0.13884778320789337,0.12843462824821472
1789759680319536600,6.17653662109375,1.4917911291122437,0.17393115162849426,0.13050569593906403
1789759680329545700,6.186545654296875,1.5093061923980713,0.20287412405014038,0.13724642992019653
1789759680339554600,6.196554443359375,1.540734887123108,0.21448327600955963,0.14888711273670197
1789759680349564700,6.206564697265625,1.5655648708343506,0.2285548895597458,0.16132940351963043
1789759680359573500,6.216573486328125,1.5593554973602295,0.24771325290203094,0.19413906335830688
1789759680369582600,6.22658251953125,1.5411239862442017,0.2777087092399597,0.2238388955593109
1789759680379592700,6.2365927734375,1.510798454284668,0.3033202588558197,0.23035025596618652
1789759680389601800,6.246601806640625,1.481574296951294,0.35760000348091125,0.22764527797698975
1789759680399610600,6.256610595703125,1.4325456619262695,0.40917474031448364,0.23157666623592377
1789759680409619500,6.266619384765625,1.4133334159851074,0.4764387309551239,0.2574940025806427
1789759680419629600,6.276629638671875,1.3587827682495117,0.4725644588470459,0.26682889461517334
1789759680429638700,6.286638671875,1.3185451030731201,0.512096643447876,0.26604485511779785
1789759680439647700,6.296647705078125,1.2431261539459229,0.5104150176048279,0.268382728099823
1789759680449656800,6.30665673828125,1.1457980871200562,0.5174844264984131,0.28259867429733276
1789759680459666700,6.316666748046875,0.994317889213562,0.522229015827179,0.2612362504005432
1789759680469675500,6.326675537109375,0.8440394401550293,0.4941084384918213,0.2927475571632385
1789759680479684600,6.3366845703125,0.7070711851119995,0.5025157332420349,0.29964080452919006
1789759680489693700,6.346693603515625,0.5616905689239502,0.4855117201805115,0.3197162449359894
1789759680499703600,6.35670361328125,0.45943590998649597,0.48522987961769104,0.30889949202537537
1789759680509712600,6.366712646484375,0.3575817346572876,0.49743300676345825,0.27800628542900085
1789759680519721700,6.3767216796875,0.2576742470264435,0.4955829679965973,0.2619854807853699
1789759680529730600,6.38673046875,0.1959030032157898,0.4735589027404785,0.25707516074180603
1789759680539740700,6.39674072265625,0.1449684351682663,0.4804326593875885,0.2656812071800232
1789759680549749500,6.40674951171875,0.11058996617794037,0.4649154841899872,0.25192517042160034
1789759680559758600,6.416758544921875,0.08888355642557144,0.4781727194786072,0.24789918959140778
1789759680569768700,6.426768798828125,0.06844566017389297,0.46889904141426086,0.22076316177845
1789759680579777800,6.43677783203125,0.051425766199827194,0.48417213559150696,0.21331793069839478
1789759680589786600,6.44678662109375,0.055521707981824875,0.4800032377243042,0.20638172328472137
1789759680599795500,6.45679541015625,0.05155583843588829,0.470821350812912,0.21155083179473877
1789759680609805600,6.4668056640625,0.06597205996513367,0.49733978509902954,0.22155579924583435
1789759680619814700,6.476814697265625,0.08630149066448212,0.49632954597473145,0.20907074213027954
1789759680629823700,6.48682373046875,0.0900014266371727,0.42711904644966125,0.1616545021533966
1789759680639832800,6.496832763671875,0.09725997596979141,0.48187634348869324,0.19309845566749573
1789759680649842700,6.5068427734375,0.04217914491891861,0.5221318602561951,0.19283026456832886
1789759680659851500,6.5168515625,-0.0011563447769731283,0.5360642075538635,0.19502657651901245
1789759680669860600,6.526860595703125,-0.04360580071806908,0.5378125905990601,0.15361016988754272
1789759680679869700,6.53686962890625,-0.05430152267217636,0.49604570865631104,0.16990941762924194
1789759680689879600,6.546879638671875,-0.06708762049674988,0.4666723906993866,0.16217027604579926
1789759680699888600,6.556888671875,-0.1417386680841446,0.439246267080307,0.13816684484481812
1789759680709897700,6.566897705078125,-0.2449505478143692,0.4457313120365143,0.10558973252773285
1789759680719906600,6.576906494140625,-0.34259992837905884,0.4028599262237549,0.12004708498716354
1789759680729916700,6.586916748046875,-0.41388264298439026,0.39568030834198,0.11720602959394455
1789759680739925500,6.596925537109375,-0.46233659982681274,0.3654349446296692,0.11748508363962173
1789759680749934600,6.6069345703125,-0.5125598311424255,0.3531668186187744,0.11514469981193542
1789759680759944700,6.61694482421875,-0.5600810050964355,0.35990846157073975,0.11166595667600632
1789759680769953800,6.626953857421875,-0.5935841202735901,0.33171704411506653,0.10981345921754837
1789759680779962600,6.636962646484375,-0.6013357043266296,0.32627156376838684,0.08770108968019485
1789759680789971700,6.6469716796875,-0.6134740710258484,0.3315882980823517,0.0833209902048111
1789759680799981600,6.656981689453125,-0.6075089573860168,0.30952614545822144,0.09076718240976334
1789759680809990700,6.66699072265625,-0.6238653063774109,0.3363622725009918,0.09370731562376022
1789759680819999700,6.676999755859375,-0.6413905620574951,0.3232463002204895,0.06063935533165932
1789759680830008800,6.6870087890625,-0.6242704391479492,0.3205767571926117,0.050268206745386124
1789759680840018700,6.697018798828125,-0.6075999736785889,0.30113285779953003,0.04766341671347618
1789759680850027500,6.707027587890625,-0.5925309658050537,0.2903699576854706,0.015614137053489685
1789759680860036600,6.71703662109375,-0.5906649231910706,0.2865278124809265,-0.020356647670269012
1789759680870045700,6.727045654296875,-0.6059584021568298,0.26227253675460815,-0.040046993643045425
1789759680880055600,6.7370556640625,-0.6294084191322327,0.2535710036754608,-0.01751933991909027
1789759680890064600,6.747064697265625,-0.6487986445426941,0.23893721401691437,-0.0007315706461668015
1789759680900073500,6.757073486328125,-0.6796391010284424,0.20338433980941772,0.006885576993227005
1789759680910082600,6.76708251953125,-0.7187926173210144,0.17682276666164398,-0.003185166511684656
1789759680920092700,6.7770927734375,-0.7649129629135132,0.16237320005893707,-0.0053052837029099464
1789759680930101800,6.787101806640625,-0.7931936383247375,0.16252100467681885,-0.011353055946528912
1789759680940110600,6.797110595703125,-0.8212798833847046,0.13963182270526886,-0.0053911833092570305
1789759680950120700,6.80712060546875,-0.8127569556236267,0.12459481507539749,-0.013673881068825722
1789759680960129800,6.8171298828125,-0.7894668579101562,0.06503057479858398,-0.030096791684627533
1789759680970138600,6.827138671875,-0.720366358757019,0.04325736686587334,-0.015730103477835655
1789759680980147700,6.837147705078125,-0.6526080965995789,0.0038216044194996357,-0.0033079099375754595
1789759680990157600,6.847157470703125,-0.6224246025085449,-0.0319204106926918,-0.008943958207964897
1789759681000166700,6.857166748046875,-0.6103811264038086,-0.0015339595265686512,-0.0045964461751282215
1789759681010175700,6.86717578125,-0.5727131366729736,-0.013524043373763561,-0.031980134546756744
1789759681020184800,6.877184814453125,-0.4813510477542877,-0.01371639035642147,-0.025624575093388557
1789759681030194400,6.8871943359375,-0.3606453835964203,-0.05475250631570816,-0.013999875634908676
1789759681040203500,6.89720361328125,-0.24577580392360687,-0.05925833061337471,-0.0018234377494081855
1789759681050212600,6.907212646484375,-0.15970377624034882,-0.05053594335913658,0.021701063960790634
1789759681060221700,6.9172216796875,-0.0729159340262413,-0.047364186495542526,0.020443439483642578
1789759681070231600,6.9272314453125,-0.002450557891279459,-0.049542386084795,0.0024061156436800957
1789759681080240600,6.93724072265625,0.06722825765609741,-0.06148255616426468,-0.018368622288107872
1789759681090249500,6.94724951171875,0.12527026236057281,-0.07444576174020767,-0.024951158091425896
1789759681100258600,6.957258544921875,0.1599663645029068,-0.07878366112709045,0.012076783925294876
1789759681110268700,6.9672685546875,0.2013058215379715,-0.07384003698825836,0.016702692955732346
1789759681120277800,6.97727783203125,0.2354404330253601,-0.07395286858081818,0.02068905532360077
1789759681130286300,6.987286376953125,0.2644433081150055,-0.07076986134052277,0.0066834925673902035
1789759681140295400,6.99729541015625,0.3111264705657959,-0.10218531638383865,-0.020204048603773117
1789759681150305300,7.00730517578125,0.3431645631790161,-0.11571870744228363,0.002718844451010227
1789759681160314400,7.017314453125,0.3576945662498474,-0.10711321234703064,0.0017128714825958014
1789759681170323500,7.027323486328125,0.3513983190059662,-0.1010529175400734,0.012385489419102669
1789759681180333300,7.037333251953125,0.3474825918674469,-0.0952642560005188,0.010191311128437519
1789759681190342400,7.04734228515625,0.3747970461845398,-0.10787059366703033,-0.01008413266390562
1789759681200351500,7.0573515625,0.39862877130508423,-0.11041955649852753,0.0160515233874321
1789759681210360300,7.0673603515625,0.4157709777355194,-0.12949924170970917,0.002427324652671814
1789759681220370200,7.0773701171875,0.40758857131004333,-0.09688286483287811,0.02520645409822464
1789759681230379300,7.087379150390625,0.4136967957019806,-0.09386390447616577,0.028737008571624756
1789759681240388400,7.097388427734375,0.4599158763885498,-0.08199045807123184,0.03193386644124985
1789759681250397400,7.1073974609375,0.498048335313797,-0.10382171720266342,0.008322548121213913
1789759681260407600,7.117407470703125,0.5269274711608887,-0.10199949890375137,-0.006500995717942715
1789759681270416400,7.12741650390625,0.5501235723495483,-0.10758254677057266,0.001209654612466693
1789759681280425200,7.13742529296875,0.5604052543640137,-0.09049176424741745,0.028927596285939217
1789759681290434300,7.147434326171875,0.5623911619186401,-0.07010740041732788,0.042028747498989105
1789759681300444400,7.1574443359375,0.5576477646827698,-0.06725555658340454,0.02953634224832058
1789759681310453500,7.16745361328125,0.578319787979126,-0.04742405563592911,0.03910135477781296
1789759681320462600,7.177462646484375,0.6020815968513489,-0.05257345736026764,0.018156003206968307
1789759681330471200,7.18747119140625,0.5938665866851807,-0.037250958383083344,0.011348430067300797
1789759681340481300,7.197481201171875,0.6188583970069885,-0.032305024564266205,-0.015064679086208344
1789759681350490400,7.207490478515625,0.6248396039009094,-0.018059777095913887,-0.002916137920692563
1789759681360499500,7.21749951171875,0.6300597786903381,-0.025392675772309303,-0.0033520502038300037
1789759681370508500,7.227508544921875,0.6081464886665344,-0.0004495098255574703,0.014394722878932953
1789759681380518400,7.237518310546875,0.6038300395011902,-0.019746242091059685,-0.014528805390000343
1789759681390527500,7.247527587890625,0.5508809685707092,0.008490608073771,0.04090351611375809
1789759681400536300,7.257536376953125,0.524476945400238,-0.005732131190598011,0.005510054528713226
1789759681410546200,7.267546142578125,0.46728211641311646,0.0013180552050471306,0.013516049832105637
1789759681420555300,7.27755517578125,0.4357297122478485,-0.014742921106517315,0.008149515837430954
1789759681430564400,7.287564453125,0.38453203439712524,-0.017347227782011032,0.035292986780405045
1789759681440573400,7.297573486328125,0.35364830493927,-0.021809546276926994,0.042754508554935455
1789759681450583600,7.30758349609375,0.31775689125061035,-0.0025405101478099823,0.04152652621269226
1789759681460592400,7.31759228515625,0.3033228814601898,-0.021236244589090347,0.022646069526672363
1789759681470601200,7.327601318359375,0.29028111696243286,-0.013398561626672745,0.017794854938983917
1789759681480610300,7.3376103515625,0.30759191513061523,-0.03806887939572334,-0.00029595079831779003
1789759681490620400,7.347620361328125,0.31745412945747375,-0.026537925004959106,0.017180511727929115
1789759681500629500,7.35762939453125,0.3284744918346405,-0.01384489331394434,0.03640049323439598
1789759681510638600,7.367638671875,0.3386232554912567,-0.0007855496369302273,0.029108228161931038
1789759681520647200,7.377647216796875,0.36847978830337524,-0.009499858133494854,0.007092820014804602
1789759681530657300,7.3876572265625,0.423271119594574,0.01402304507791996,0.0014903279952704906
1789759681540666400,7.397666259765625,0.4795137643814087,0.012718578800559044,0.016384517773985863
1789759681550675500,7.407675537109375,0.5286088585853577,0.012318305671215057,0.02251031994819641
1789759681560684500,7.4176845703125,0.5447694063186646,0.039637189358472824,0.027843685820698738
1789759681570694400,7.4276943359375,0.5950146913528442,0.04376881569623947,0.041712094098329544
1789759681580703500,7.437703369140625,0.6353582739830017,0.07005170732736588,0.030506974086165428
1789759681590712300,7.44771240234375,0.6526808142662048,0.0943053811788559,0.016392752528190613
1789759681600721400,7.457721435546875,0.6785482168197632,0.1015663743019104,0.016710247844457626
1789759681610731300,7.467731201171875,0.6920483112335205,0.08971637487411499,0.018149418756365776
1789759681620740400,7.477740234375,0.7015410661697388,0.10892027616500854,0.03906194120645523
1789759681630749400,7.48774951171875,0.6938894987106323,0.12377113103866577,0.006260849069803953
1789759681640759600,7.497759521484375,0.6517218351364136,0.15226295590400696,-0.012541335076093674
1789759681650768400,7.507768310546875,0.628229558467865,0.166995570063591,0.003842964768409729
1789759681660777200,7.517777099609375,0.6127436757087708,0.14152806997299194,0.02767992578446865
1789759681670786300,7.527786376953125,0.5937318801879883,0.14852632582187653,0.05446680262684822
1789759681680796400,7.53779638671875,0.5451427102088928,0.14857612550258636,0.07032263278961182
1789759681690805500,7.547805419921875,0.482363760471344,0.18753816187381744,0.07362175732851028
1789759681700814600,7.557814697265625,0.4490741491317749,0.1780148297548294,0.07274652272462845
1789759681710823400,7.567823486328125,0.4299968481063843,0.19532723724842072,0.06472348421812057
1789759681720833300,7.577833251953125,0.4258279502391815,0.18560627102851868,0.03924329951405525
1789759681730842400,7.58784228515625,0.41285836696624756,0.19760887324810028,0.05910595506429672
1789759681740851500,7.5978515625,0.4122389256954193,0.159417062997818,0.07899894565343857
1789759681750860500,7.607860595703125,0.3787672519683838,0.19010068476200104,0.09901872277259827
1789759681760870400,7.617870361328125,0.372032105922699,0.20085366070270538,0.08957864344120026
1789759681770879200,7.627879150390625,0.363626092672348,0.21071188151836395,0.03985156863927841
1789759681780888300,7.637888427734375,0.3725893497467041,0.23928013443946838,0.02582426369190216
1789759681790897400,7.6478974609375,0.37923234701156616,0.21360087394714355,0.021444961428642273
1789759681800907300,7.6579072265625,0.38141176104545593,0.2223484069108963,0.06724631786346436
1789759681810916400,7.667916259765625,0.37398526072502136,0.20707277953624725,0.06926632672548294
1789759681820925400,7.677925537109375,0.33313244581222534,0.2655167281627655,0.09435290843248367
1789759681830934300,7.687934326171875,0.3237597346305847,0.24921579658985138,0.06847736984491348
1789759681840944400,7.6979443359375,0.3065304160118103,0.2639334797859192,0.0848773866891861
1789759681850953200,7.707953125,0.32248353958129883,0.2550310790538788,0.020890947431325912
1789759681860962300,7.71796240234375,0.29934611916542053,0.2668393850326538,0.024407070130109787
1789759681870972400,7.727972412109375,0.27811378240585327,0.2602648437023163,0.009213738143444061
1789759681880981500,7.7379814453125,0.23899821937084198,0.2693521976470947,0.04091179370880127
1789759681890990600,7.747990478515625,0.20099571347236633,0.2701825797557831,0.059236470609903336
1789759681900999400,7.75799951171875,0.1450725793838501,0.2815241515636444,0.07222304493188858
1789759681911009300,7.76800927734375,0.0940762385725975,0.2779581844806671,0.03267936035990715
1789759681921018400,7.778018310546875,0.031183769926428795,0.25137561559677124,0.04526819288730621
1789759681931027500,7.78802734375,-0.007972421124577522,0.26767203211784363,0.03696019574999809
1789759681941036500,7.79803662109375,-0.08192556351423264,0.2776087820529938,0.0550854355096817
1789759681951046400,7.80804638671875,-0.1125527173280716,0.26482319831848145,0.043494027107954025
1789759681961055200,7.81805517578125,-0.15339811146259308,0.2608911395072937,0.03630726411938667
1789759681971064300,7.828064208984375,-0.1804875135421753,0.23368346691131592,0.06083284318447113
1789759681981073400,7.838073486328125,-0.21581204235553741,0.26143500208854675,0.0397128202021122
1789759681991083300,7.848083251953125,-0.25242146849632263,0.24229831993579865,0.024834804236888885
1789759682001092400,7.85809228515625,-0.2617630660533905,0.24657568335533142,0.023569945245981216
1789759682011101400,7.868101318359375,-0.23738263547420502,0.22317661345005035,0.01360732689499855
1789759682021110300,7.8781103515625,-0.23979105055332184,0.21595081686973572,0.033731188625097275
1789759682031120400,7.888120361328125,-0.24300310015678406,0.19628337025642395,0.02773508056998253
1789759682041129500,7.89812939453125,-0.2700013518333435,0.2409580796957016,0.03337940573692322
1789759682051138300,7.90813818359375,-0.2629202902317047,0.21368491649627686,0.01792694814503193
1789759682061147400,7.9181474609375,-0.23126806318759918,0.23808081448078156,0.029836604371666908
1789759682071157500,7.928157470703125,-0.1849288046360016,0.1882764995098114,0.028203019872307777
1789759682081166600,7.93816650390625,-0.15637792646884918,0.20386293530464172,0.05268838629126549
1789759682091175400,7.948175537109375,-0.1451742798089981,0.22424542903900146,0.04669547453522682
1789759682101184300,7.958184326171875,-0.1291743367910385,0.22322611510753632,0.016989732161164284
1789759682111194400,7.9681943359375,-0.09023332595825195,0.23622313141822815,-0.0305013544857502
1789759682121203500,7.978203369140625,-0.032517120242118835,0.21414901316165924,-0.04038354381918907
1789759682131213000,7.988213134765625,0.006066492758691311,0.21198226511478424,-0.01882925070822239
1789759682141223000,7.998222900390625,0.012059946544468403,0.2112393081188202,0.012559538707137108
1789759682151232000,8.00823193359375,0.0026576565578579903,0.23766613006591797,0.050813447684049606
1789759682161241000,8.018240966796874,0.02064093016088009,0.23715326189994812,0.02732780948281288
1789759682171250200,8.028250244140626,0.03140436112880707,0.2228664606809616,0.04146812856197357
1789759682181260000,8.038260009765626,0.07866401225328445,0.23691074550151825,-0.011345406994223595
1789759682191268900,8.048268798828126,0.07376805692911148,0.21481743454933167,0.016394877806305885
1789759682201278000,8.05827783203125,0.10253983736038208,0.21443532407283783,-0.011865181848406792
1789759682211287000,8.068287109375,0.09042537957429886,0.22809095680713654,0.021155618131160736
1789759682221297200,8.078297119140625,0.0997423380613327,0.2123786360025406,0.004741370677947998
1789759682231306000,8.088305908203125,0.049879442900419235,0.21806581318378448,0.008843437768518925
1789759682241315000,8.098315185546875,0.01581314578652382,0.22528259456157684,-0.019119972363114357
1789759682251324000,8.108323974609375,-0.0521794855594635,0.20189523696899414,-0.0005857029464095831
1789759682261334000,8.118333984375,-0.09804905951023102,0.177021786570549,0.015070516616106033
1789759682271343000,8.128343017578125,-0.1685708910226822,0.13070569932460785,0.02148154377937317
1789759682281352000,8.13835205078125,-0.23302626609802246,0.12455835193395615,-0.011654932983219624
1789759682291361000,8.148361083984375,-0.31593552231788635,0.1291389763355255,-0.0048590791411697865
1789759682301371100,8.15837109375,-0.3843298554420471,0.17039139568805695,-0.00537682231515646
1789759682311380000,8.1683798828125,-0.42357420921325684,0.13767606019973755,0.018230503425002098
1789759682321389000,8.17838916015625,-0.40474507212638855,0.16742879152297974,0.007367681711912155
1789759682331398000,8.18839794921875,-0.35962390899658203,0.08474162220954895,0.0346112884581089
1789759682341408000,8.198407958984374,-0.3000537157058716,0.098505899310112,0.022418104112148285
1789759682351417000,8.2084169921875,-0.29300111532211304,0.08020332455635071,0.04965025931596756
1789759682361426200,8.21842626953125,-0.2826109826564789,0.11123818904161453,0.018818838521838188
1789759682371436000,8.22843603515625,-0.27782633900642395,0.06057368218898773,0.008401085622608662
1789759682381444900,8.23844482421875,-0.23405015468597412,0.07219772040843964,-0.0007080393843352795
1789759682391454000,8.248453857421875,-0.2178591936826706,0.06387241184711456,-0.0010084440000355244
1789759682401463000,8.258463134765625,-0.21156342327594757,0.07938598841428757,0.007262051105499268
1789759682411473200,8.26847314453125,-0.2105727344751358,0.09427758306264877,0.037203170359134674
1789759682421482000,8.27848193359375,-0.18008287250995636,0.058179281651973724,0.04602815955877304
1789759682431490800,8.28849072265625,-0.14306627213954926,0.06804469972848892,0.006573164369910955
1789759682441500000,8.2985,-0.13104043900966644,0.036961477249860764,0.04067206010222435
1789759682451510000,8.308510009765625,-0.09127437323331833,0.04603566601872444,-0.011579158715903759
1789759682461519000,8.31851904296875,-0.09003738313913345,0.019942212849855423,-0.02371765486896038
1789759682471528000,8.32852783203125,-0.06211334466934204,0.04439988732337952,-0.010310235433280468
1789759682481537000,8.338537109375,-0.07125931233167648,0.01850489154458046,-0.018520930781960487
1789759682491547100,8.348547119140624,-0.04810472950339317,0.016965318471193314,-0.007274667266756296
1789759682501556000,8.358555908203124,-0.03896031528711319,0.004263922106474638,-0.005423499271273613
1789759682511565000,8.36856494140625,-0.03512483090162277,0.012460598722100258,0.004621944390237331
1789759682521574100,8.37857421875,-0.03636779263615608,-0.00284408126026392,0.005329109728336334
1789759682531584000,8.388583984375,-0.033317673951387405,0.025378236547112465,-0.008849027566611767
1789759682541593000,8.398593017578126,-0.04101204872131348,-0.0021882248111069202,0.01041300781071186
1789759682551602200,8.408602294921875,-0.030600152909755707,0.040940336883068085,0.016445335000753403
1789759682561611000,8.418611083984375,-0.03401666507124901,-0.0037694834172725677,0.0010459183249622583
1789759682571620900,8.428620849609375,-0.023344578221440315,0.006368372123688459,0.00013165525160729885
1789759682581630000,8.4386298828125,-0.017562322318553925,-0.03400435298681259,-0.004642593674361706
1789759682591639000,8.44863916015625,-0.02198050729930401,0.006135878153145313,-0.007519073784351349
1789759682601648000,8.458648193359375,-0.008591138757765293,-0.04269331693649292,-0.021471325308084488
1789759682611658000,8.468657958984375,0.00174751877784729,0.004008140414953232,0.011730036698281765
1789759682621666800,8.478666748046875,0.03504720330238342,-0.03244088217616081,-0.011381330899894238
1789759682631676000,8.488676025390625,0.07395492494106293,-0.00681994017213583,0.028741054236888885
1789759682641686000,8.49868603515625,0.1308574378490448,-0.017669610679149628,-0.007894216105341911
1789759682651695000,8.508695068359375,0.15451456606388092,-0.011622105725109577,0.018212486058473587
1789759682661704000,8.518703857421874,0.18892355263233185,-0.00012522563338279724,-0.02455131523311138
1789759682671713000,8.528713134765624,0.2151988446712494,-0.02979283779859543,-0.005598396994173527
1789759682681723100,8.53872314453125,0.2527824938297272,0.0016130446456372738,-0.04731291905045509
1789759682691732000,8.54873193359375,0.24687400460243225,-0.006752477027475834,-0.04724660515785217
1789759682701741000,8.558740966796876,0.2516210675239563,0.0068322839215397835,-0.06332817673683167
1789759682711750100,8.568750244140626,0.2621264159679413,-0.02323800139129162,-0.044146228581666946
1789759682721760000,8.578760009765626,0.257507860660553,0.02273700013756752,-0.015853798016905785
1789759682731769000,8.58876904296875,0.2722841501235962,-0.02378522977232933,-0.018638931214809418
1789759682741778000,8.59877783203125,0.2543090581893921,0.04244430363178253,0.01267597172409296
1789759682751787000,8.608787109375,0.25784599781036377,0.021655403077602386,-0.018483811989426613
1789759682761796900,8.618796875,0.24984653294086456,0.052326034754514694,-0.0260598324239254
1789759682771806000,8.628805908203125,0.27249833941459656,0.029114190489053726,-0.04017804563045502
1789759682781815000,8.63881494140625,0.26428917050361633,0.05552978068590164,-0.012657811865210533
1789759682791824100,8.64882421875,0.24799197912216187,0.03644556924700737,-0.005069400649517775
1789759682801834000,8.658833984375,0.20969772338867188,0.08846334367990494,-0.005593196488916874
1789759682811842800,8.6688427734375,0.1923259198665619,0.06988885998725891,-0.021635012701153755
1789759682821852000,8.678851806640624,0.17814098298549652,0.08781112730503082,0.00442092027515173
1789759682831861000,8.688861083984374,0.14857855439186096,0.054783932864665985,0.0169186033308506
1789759682841871000,8.69887109375,0.11617694795131683,0.09191282093524933,-0.019774843007326126
1789759682851880200,8.708880126953124,0.05200675502419472,0.07391491532325745,-0.009763754904270172
1789759682861889000,8.718888916015626,0.027833998203277588,0.05962928757071495,-0.02887614630162716
1789759682871897900,8.72889794921875,-0.025482220575213432,0.08014202117919922,-0.017058901488780975
1789759682881908000,8.738907958984376,-0.06818921118974686,0.04694874584674835,0.0004030566196888685
1789759682891917000,8.7489169921875,-0.10516613721847534,0.07152758538722992,0.007814900018274784
1789759682901926100,8.758926025390625,-0.15231767296791077,0.03358840197324753,0.0017905866261571646
1789759682911936000,8.76893603515625,-0.18427321314811707,0.047898367047309875,-0.013497289270162582
1789759682921945000,8.778945068359375,-0.20878435671329498,0.00249442458152771,0.005115979351103306
1789759682931954000,8.788953857421875,-0.22896872460842133,0.036337606608867645,-0.017832480370998383
1789759682941963000,8.798962890625,-0.25745806097984314,-0.0013782167807221413,-0.014512533321976662
1789759682951972900,8.808972900390625,-0.265903502702713,0.023708492517471313,-0.0008457235526293516
1789759682961982000,8.81898193359375,-0.26728805899620056,-0.01622277870774269,-0.008067564107477665
1789759682971991000,8.828990966796875,-0.27645865082740784,0.02746637910604477,-0.019120747223496437
1789759682982000000,8.839000244140625,-0.2654866576194763,-0.025615394115447998,0.0028880268801003695
1789759682992010200,8.84901025390625,-0.23809149861335754,0.005766497924923897,0.03183259442448616
1789759683002018800,8.859018798828124,-0.20992343127727509,-0.031043294817209244,0.009491197764873505
1789759683012028000,8.86902783203125,-0.18856434524059296,-0.025085005909204483,-0.012238865718245506
1789759683022037000,8.879037109375,-0.1644323170185089,-0.03500142693519592,-0.02255377732217312
1789759683032047000,8.889047119140624,-0.15888042747974396,-0.0131941307336092,-0.005422459915280342
1789759683042056200,8.89905615234375,-0.1440591961145401,-0.019356774166226387,0.002319733612239361
1789759683052064800,8.909064697265626,-0.11897090077400208,-0.03208668529987335,-0.001029457664117217
1789759683062073900,8.919073974609375,-0.09034065902233124,-0.013986066915094852,0.019477268680930138
1789759683072084000,8.929083984375,-0.06704172492027283,-0.03204522654414177,0.01582101546227932
1789759683082093000,8.939093017578125,-0.019309747964143753,-0.0275652464479208,0.0202790517359972
1789759683092102100,8.94910205078125,0.008878214284777641,-0.02221868373453617,0.0020430563017725945
1789759683102111000,8.959111083984375,0.051998574286699295,-0.03372304514050484,0.010727282613515854
1789759683112121000,8.96912109375,0.07710712403059006,-0.023318607360124588,0.013557424768805504
1789759683122130000,8.9791298828125,0.08569807559251785,-0.00011513056233525276,0.008880866691470146
1789759683132139000,8.989138916015625,0.10258305072784424,-0.004519732668995857,0.009640665724873543
1789759683142147800,8.99914794921875,0.1188519075512886,-0.017639415338635445,0.018457109108567238
1789759683152157700,9.00915771484375,0.15738199651241302,-0.0339139923453331,0.0024587009102106094
1789759683162166800,9.019166748046874,0.15123499929904938,-0.020257581025362015,0.008705509826540947
1789759683172176000,9.02917578125,0.13094064593315125,-0.047403980046510696,0.0008545117452740669
1789759683182185000,9.03918505859375,0.11713492125272751,0.012577177956700325,0.02823815494775772
1789759683192194800,9.04919482421875,0.13259485363960266,-0.03473201394081116,0.022616755217313766
1789759683202204000,9.059203857421876,0.1568678766489029,-0.01690533570945263,0.03305181488394737
1789759683212212700,9.069212646484376,0.17997638881206512,-0.06853950023651123,0.03163714334368706
1789759683222221800,9.079221923828126,0.18162685632705688,-0.01166500337421894,0.0525570772588253
1789759683232232000,9.08923193359375,0.208740234375,-0.0255680363625288,0.03510671481490135
1789759683242241000,9.099240966796875,0.23385252058506012,-0.008945056237280369,0.009153380990028381
1789759683252249900,9.109249755859375,0.28250929713249207,-0.022732239216566086,-0.010777183808386326
1789759683262260000,9.119260009765625,0.30859142541885376,-0.013656316325068474,-0.03322874754667282
1789759683272268800,9.129268798828125,0.3269144892692566,0.004663036670535803,-0.01812436245381832
1789759683282278000,9.13927783203125,0.34163498878479004,0.011867267079651356,-0.028618765994906425
1789759683292287000,9.149286865234375,0.33308595418930054,0.02480011060833931,-0.011090905405580997
1789759683302296800,9.159296875,0.3425539433956146,0.012263558804988861,-0.006398241966962814
1789759683312306000,9.169305908203125,0.325381338596344,0.060728028416633606,-0.015050053596496582
1789759683322315000,9.17931494140625,0.3000023365020752,0.058695390820503235,-0.028547802940011024
1789759683332323800,9.18932373046875,0.30178558826446533,0.06396552175283432,-0.034514084458351135
1789759683342333700,9.199333740234374,0.3102947771549225,0.03743010014295578,0.008742116391658783
1789759683352342800,9.2093427734375,0.320344477891922,0.06329445540904999,0.02984819933772087
1789759683362351900,9.219351806640624,0.28793206810951233,0.07876028120517731,0.008164015598595142
1789759683372361000,9.22936083984375,0.25906607508659363,0.07590138167142868,-0.01919650286436081
1789759683382371000,9.23937109375,0.25923019647598267,0.12442728877067566,-0.01462063379585743
1789759683392380000,9.2493798828125,0.26984715461730957,0.08215972781181335,0.016517579555511475
1789759683402388700,9.259388671875,0.2593807876110077,0.1375633180141449,0.0253260787576437
1789759683412397800,9.269397705078125,0.21685728430747986,0.12783531844615936,0.018863119184970856
1789759683422408000,9.279407958984375,0.17620515823364258,0.14177919924259186,-0.008550608530640602
1789759683432417000,9.2894169921875,0.13156472146511078,0.12699200212955475,-0.0242475476115942
1789759683442425900,9.29942578125,0.09152655303478241,0.14225630462169647,-0.018976571038365364
1789759683452434700,9.3094345703125,0.054126184433698654,0.13697019219398499,-0.021267157047986984
1789759683462444800,9.31944482421875,-0.0014912114711478353,0.13550132513046265,0.010776842944324017
1789759683472454000,9.329453857421875,-0.032668571919202805,0.15037214756011963,0.006983703002333641
1789759683483715800,9.3407158203125,-0.05311179533600807,0.13921242952346802,-0.01372157596051693
1789759683494350000,9.35135009765625,-0.06272793561220169,0.14670976996421814,-0.028261635452508926
1789759683504358700,9.361358642578125,-0.07022998481988907,0.14603661000728607,-0.03122958168387413
1789759683514368800,9.37136865234375,-0.07608195394277573,0.14400793612003326,-0.042689915746450424
1789759683524377900,9.3813779296875,-0.09226439148187637,0.17130747437477112,-0.0343070849776268
1789759683534387000,9.391386962890625,-0.11032062023878098,0.15305790305137634,-0.023725546896457672
1789759683544396000,9.40139599609375,-0.1307033896446228,0.18688270449638367,-0.015006091445684433
1789759683554406000,9.411406005859375,-0.140868678689003,0.1513119339942932,-0.012028144672513008
1789759683564415000,9.4214150390625,-0.15281641483306885,0.1951475590467453,-0.0016490062698721886
1789759683574423800,9.431423828125,-0.1409207433462143,0.1509995013475418,-0.010278785601258278
1789759683584433000,9.441432861328124,-0.15371856093406677,0.18497130274772644,-0.019762035459280014
1789759683594442800,9.45144287109375,-0.15008428692817688,0.13433778285980225,-0.007411384955048561
1789759683604451800,9.461451904296876,-0.15778641402721405,0.15703538060188293,0.006565683521330357
1789759683614461000,9.4714609375,-0.17359919846057892,0.13736921548843384,0.02990465983748436
1789759683624470000,9.481469970703126,-0.19649891555309296,0.14289234578609467,0.01768101565539837
1789759683634479900,9.49147998046875,-0.22967205941677094,0.14011727273464203,0.035466160625219345
1789759683644488700,9.50148876953125,-0.22416889667510986,0.14341560006141663,0.016578225418925285
1789759683654497800,9.511497802734375,-0.22815942764282227,0.11964921653270721,-0.002168102655559778
1789759683664508000,9.5215078125,-0.22770988941192627,0.13057349622249603,-0.004110612440854311
1789759683674517000,9.53151708984375,-0.22743453085422516,0.09240192174911499,-0.010040772147476673
1789759683684526000,9.541526123046875,-0.2393748164176941,0.09820014983415604,-0.0019415670540183783
1789759683694534700,9.55153466796875,-0.2649804949760437,0.10120385885238647,-0.024348048493266106
1789759683704544800,9.561544677734375,-0.2844791114330292,0.09098690748214722,-0.022952552884817123
1789759683714553900,9.571553955078125,-0.2948942482471466,0.07350285351276398,-0.02131129428744316
1789759683724563000,9.58156298828125,-0.29765889048576355,0.049066755920648575,-0.024349961429834366
1789759683734572000,9.591572021484374,-0.3052659332752228,0.02834300324320793,-0.024648113176226616
1789759683744582000,9.601581787109374,-0.32607826590538025,0.031062889844179153,-0.018069837242364883
1789759683754591000,9.611591064453124,-0.3601086437702179,0.06064162030816078,-0.007252895273268223
1789759683764599800,9.621599853515624,-0.3507803976535797,0.05484231933951378,-0.003902904922142625
1789759683774609000,9.63160888671875,-0.3471602499485016,0.04523954167962074,0.022364456206560135
1789759683784618800,9.64161865234375,-0.3202250301837921,0.043816614896059036,0.007987648248672485
1789759683794627800,9.6516279296875,-0.32518452405929565,0.04754795506596565,0.024031419306993484
1789759683804637000,9.661636962890626,-0.31959134340286255,0.039812806993722916,0.010820543393492699
1789759683814646000,9.67164599609375,-0.30959010124206543,0.03996274247765541,-0.0033155151177197695
1789759683826530800,9.68353076171875,-0.29849812388420105,0.011470988392829895,-0.04370157793164253
1789759683836541000,9.693541015625,-0.32894766330718994,0.05470581352710724,-0.020849525928497314
1789759683846550000,9.703550048828125,-0.3423759937286377,0.01786203123629093,0.002048163441941142
1789759683856558800,9.713558837890625,-0.365036278963089,0.042853932827711105,0.00850952509790659
1789759683866568000,9.72356787109375,-0.377273827791214,0.047036364674568176,0.021072115749120712
1789759683876577800,9.733577880859375,-0.38628089427948,0.046733029186725616,0.03869372233748436
1789759683886587000,9.7435869140625,-0.37438255548477173,0.04041798785328865,0.02081943303346634
1789759683896596000,9.753595947265625,-0.3569148778915405,-0.007793215103447437,0.04983776807785034
1789759683906605000,9.76360498046875,-0.32485711574554443,-0.07701172679662704,-0.02321743592619896
1789759683916614700,9.77361474609375,-0.3672788739204407,-0.04339384287595749,0.046303849667310715
1789759683926623700,9.783623779296875,-0.3790786564350128,-0.050377603620290756,0.02485356107354164
1789759683936632800,9.7936328125,-0.4154750108718872,-0.019459635019302368,0.02737024985253811
1789759683946643000,9.803642822265624,-0.41037532687187195,-0.10688908398151398,0.003871048102155328
1789759683956652000,9.813652099609374,-0.3723054528236389,-0.04601311311125755,0.012227129191160202
1789759683966660900,9.823660888671874,-0.3318384885787964,-0.09516628086566925,0.020029032602906227
1789759683976669700,9.833669677734376,-0.2958346903324127,-0.07595556974411011,0.039269305765628815
1789759683986679800,9.8436796875,-0.24717319011688232,-0.12552973628044128,0.03961772844195366
1789759683996689000,9.85368896484375,-0.19306041300296783,-0.15706822276115417,0.0018959161825478077
1789759684006698000,9.863697998046876,-0.1534668207168579,-0.15979522466659546,-0.013015956617891788
1789759684016706800,9.873706787109375,-0.15779152512550354,-0.12614324688911438,0.01810441166162491
1789759684026717000,9.883717041015625,-0.1473522037267685,-0.11072210967540741,0.03308377414941788
1789759684036726000,9.89372607421875,-0.10201482474803925,-0.10612548887729645,0.03821195662021637
1789759684046734800,9.90373486328125,-0.0236727986484766,-0.0877530500292778,0.04094130918383598
1789759684056744000,9.913743896484375,0.0753997191786766,-0.11925984174013138,0.047336358577013016
1789759684066753800,9.92375390625,0.14808185398578644,-0.09742435067892075,0.03928492218255997
1789759684076763000,9.933762939453125,0.20642586052417755,-0.09299098700284958,0.041327834129333496
1789759684086772000,9.94377197265625,0.26322346925735474,-0.07090433686971664,0.029139967635273933
1789759684096780800,9.95378076171875,0.3124421536922455,-0.07748235017061234,0.0065896520391106606
1789759684106790700,9.963790771484375,0.3093656599521637,-0.019640184938907623,-0.0019038456957787275
1789759684116799700,9.9737998046875,0.2954684793949127,-0.0387590155005455,0.016411779448390007
1789759684126808800,9.983808837890624,0.2944493889808655,-0.0011469032615423203,0.006743340753018856
1789759684136817700,9.993817626953126,0.2937047481536865,-0.0014659501612186432,0.029897397384047508
1789759684146827800,10.003827880859374,0.29591184854507446,-0.030825018882751465,-0.0017900090897455812
1789759684156836600,10.013836669921876,0.25555482506752014,-0.015011169016361237,-0.01417184341698885
1789759684166845400,10.023845458984376,0.2182368040084839,-0.0036316197365522385,-0.011941663920879364
1789759684176854500,10.0338544921875,0.18693907558918,0.014812901616096497,0.009958574548363686
1789759684186864600,10.04386474609375,0.1591625064611435,-0.018226996064186096,0.006480461917817593
1789759684196873700,10.053873779296875,0.1340949684381485,-0.020260851830244064,0.010047766380012035
1789759684206882600,10.063882568359375,0.09377273172140121,-0.010769170708954334,-0.01227775402367115
1789759684216891600,10.0738916015625,0.04310715198516846,-0.02600058913230896,-0.01907946728169918
1789759684226901500,10.083901611328125,0.0216766819357872,0.0016904673539102077,-0.013883205130696297
1789759684236910600,10.09391064453125,0.008655156008899212,-0.006185298785567284,-0.0073118554428219795
1789759684246919700,10.103919677734375,0.018393423408269882,-0.01950092799961567,-0.01697564125061035
1789759684256928800,10.1139287109375,-0.0001983715919777751,0.001446431502699852,0.022728361189365387
1789759684266938600,10.123938720703125,-0.02843281254172325,0.009076807647943497,-0.0028359051793813705
1789759684276947500,10.133947509765624,-0.044358786195516586,0.04783538728952408,0.0028147900011390448
1789759684286956500,10.14395654296875,-0.02474113367497921,0.0004011918790638447,0.00041194213554263115
1789759684296966700,10.153966552734374,0.002573044039309025,0.010547569021582603,0.004977132193744183
1789759684306975500,10.1639755859375,-0.009047978557646275,-0.022442299872636795,0.006961265113204718
1789759684316984600,10.173984619140626,-0.034288085997104645,-0.005670243874192238,0.013901729136705399
1789759684326993700,10.18399365234375,-0.07587742060422897,0.004982576705515385,0.014769237488508224
1789759684337003800,10.194003662109376,-0.10217160731554031,0.03603210300207138,0.029097842052578926
1789759684347012600,10.2040126953125,-0.11357996612787247,0.01460553240031004,0.03438860923051834
1789759684357021700,10.214021728515625,-0.12606140971183777,0.019309740513563156,0.02343156933784485
1789759684367030500,10.224030517578125,-0.13813386857509613,-0.002652236260473728,0.024017352610826492
1789759684377040600,10.23404052734375,-0.1628757119178772,-0.0005736392922699451,0.021570440381765366
1789759684387049700,10.2440498046875,-0.20016200840473175,-0.01837671920657158,0.002570777665823698
1789759684397058600,10.25405859375,-0.21107430756092072,-0.02867143228650093,-0.014559473842382431
1789759684407067600,10.264067626953125,-0.2547015845775604,-0.03538203984498978,-0.03104764223098755
1789759684417077500,10.274077392578125,-0.29863840341567993,-0.0515117421746254,-0.02112630195915699
1789759684427086600,10.284086669921875,-0.3348906636238098,-0.07273035496473312,-0.012115275487303734
1789759684437095700,10.294095703125,-0.3834070861339569,-0.05283280834555626,-0.0026935443747788668
1789759684447104800,10.304104736328124,-0.4122547507286072,-0.04907914623618126,0.04358547180891037
1789759684457114600,10.314114501953124,-0.4146374762058258,-0.03481286019086838,0.02391403540968895
1789759684467123500,10.32412353515625,-0.40906408429145813,-0.05576563626527786,0.013554718345403671
1789759684477132500,10.334132568359376,-0.36894384026527405,-0.09134892374277115,0.011317398399114609
1789759684487141600,10.3441416015625,-0.3125097453594208,-0.13683685660362244,0.007512921467423439
1789759684497151500,10.3541513671875,-0.29789966344833374,-0.12950117886066437,0.033231865614652634
1789759684507160600,10.36416064453125,-0.30830511450767517,-0.1188279390335083,0.01628783531486988
1789759684517169700,10.374169677734375,-0.3434569835662842,-0.07357843965291977,0.03275522589683533
1789759684527178500,10.384178466796875,-0.31513822078704834,-0.08520590513944626,0.007090545259416103
1789759684537188600,10.394188720703125,-0.2856501042842865,-0.07780977338552475,0.006689473055303097
1789759684547197700,10.40419775390625,-0.22291310131549835,-0.08845677226781845,0.0298824030905962
1789759684557206500,10.41420654296875,-0.1648525893688202,-0.09410561621189117,0.06107112392783165
1789759684567215600,10.424215576171875,-0.11279896646738052,-0.068275086581707,0.05902182310819626
1789759684577225700,10.434225830078125,-0.07113967090845108,-0.10455825924873352,0.04330171272158623
1789759684587234600,10.444234619140625,-0.014123328030109406,-0.09742331504821777,0.011238297447562218
1789759684597243600,10.45424365234375,-0.0006826206808909774,-0.09162160754203796,0.009951191022992134
1789759684607252500,10.46425244140625,0.03074699640274048,-0.07580247521400452,-0.0012895481195300817
1789759684617262600,10.4742626953125,0.03611459955573082,-0.06542733311653137,0.02768404595553875
1789759684627271700,10.484271728515624,0.06448940932750702,-0.06665374338626862,0.03350118547677994
1789759684637280800,10.49428076171875,0.08339545875787735,-0.1150878518819809,0.025291725993156433
1789759684647289600,10.50428955078125,0.10694558918476105,-0.09290380030870438,0.009246472269296646
1789759684657299500,10.514299560546876,0.09193415194749832,-0.10683266073465347,0.015666287392377853
1789759684667308500,10.52430859375,0.1063416376709938,-0.06423533707857132,0.019887734204530716
1789759684677317600,10.534317626953126,0.12860912084579468,-0.1149994507431984,0.007840126752853394
1789759684687327700,10.54432763671875,0.13849952816963196,-0.09710216522216797,-0.00013863039202988148
1789759684697336600,10.554336669921875,0.13032229244709015,-0.10520510375499725,0.005942963995039463
1789759684707345400,10.564345458984375,0.13369537889957428,-0.07810363173484802,0.021071292459964752
1789759684717354500,10.5743544921875,0.1481131911277771,-0.10794701427221298,0.022397546097636223
1789759684727364600,10.584364501953125,0.1611296683549881,-0.09141938388347626,0.03299957141280174
1789759684737373700,10.594373779296875,0.18409463763237,-0.10142593085765839,0.001148695359006524
1789759684747382500,10.604382568359375,0.17630834877490997,-0.07594551146030426,-0.016557985916733742
1789759684757391600,10.6143916015625,0.18643447756767273,-0.11432831734418869,-0.015791794285178185
1789759684767401700,10.624401611328125,0.1860046684741974,-0.0709712952375412,0.00873522274196148
1789759684777410600,10.63441064453125,0.18668511509895325,-0.08145935833454132,-0.01713445596396923
1789759684787419600,10.644419677734374,0.18605081737041473,-0.06789302825927734,0.014822970144450665
1789759684797428500,10.654428466796874,0.1810922771692276,-0.04426998272538185,0.012241036631166935
1789759684807438600,10.6644384765625,0.15618829429149628,-0.04645281285047531,0.03661742061376572
1789759684817447700,10.67444775390625,0.1826377511024475,-0.0333724319934845,0.016143571585416794
1789759684827456800,10.684456787109376,0.19947637617588043,-0.03391434624791145,-0.008992503397166729
1789759684837465600,10.694465576171876,0.2230410873889923,-0.026827141642570496,0.00010139285586774349
1789759684847475500,10.704475341796876,0.21520709991455078,-0.0031287381425499916,-0.003332846099510789
1789759684857484500,10.714484619140626,0.20497550070285797,0.015222571790218353,-0.014686700887978077
1789759684867493600,10.72449365234375,0.19790025055408478,0.05495377629995346,-0.011563712731003761
1789759684877502700,10.734502685546875,0.20677097141742706,0.024312511086463928,0.000535027589648962
1789759684887512600,10.7445126953125,0.21311384439468384,0.03505123779177666,-0.0020085794385522604
1789759684897521400,10.754521484375,0.17394566535949707,0.029382698237895966,-0.019947100430727005
1789759684907530500,10.764530517578125,0.1282481700181961,0.052460361272096634,-0.0019413892878219485
1789759684917539600,10.77453955078125,0.08884429931640625,0.08630567789077759,0.011569359339773655
1789759684927549700,10.7845498046875,0.07101020961999893,0.06354496628046036,-0.022471874952316284
1789759684937558500,10.79455859375,0.044499244540929794,0.07490814477205276,0.006680949591100216
1789759684947567600,10.804567626953125,0.023606501519680023,0.08775908499956131,0.01399820763617754
1789759684957576400,10.814576416015624,-0.014795482158660889,0.06796674430370331,0.02714410424232483
1789759684967586600,10.824586669921874,-0.05893334001302719,0.08814781159162521,0.024894211441278458
1789759684977595600,10.834595703125,-0.0930795967578888,0.09448293596506119,0.012248457409441471
1789759684987604700,10.844604736328124,-0.09943315386772156,0.07447437942028046,-0.0004243873991072178
1789759684997613600,10.854613525390626,-0.14776445925235748,0.09102486073970795,-0.041429344564676285
1789759685007623700,10.864623779296876,-0.1949363499879837,0.08815325796604156,-0.0022133411839604378
1789759685017632500,10.874632568359376,-0.23189888894557953,0.10146106779575348,0.011085153557360172
1789759685027641600,10.8846416015625,-0.25655055046081543,0.07728579640388489,0.01372075080871582
1789759685037650700,10.894650634765625,-0.26691022515296936,0.09186021238565445,0.018394865095615387
1789759685047660500,10.90466064453125,-0.29186397790908813,0.0635564997792244,-0.004003501497209072
1789759685057669600,10.914669677734375,-0.33459585905075073,0.1157146617770195,0.01936754770576954
1789759685067678700,10.9246787109375,-0.3154975473880768,0.06696442514657974,-0.03723554313182831
1789759685077687600,10.9346875,-0.32479357719421387,0.07585752755403519,0.004237332381308079
1789759685087697400,10.944697509765625,-0.3116956651210785,0.039807986468076706,0.005487927235662937
1789759685097706500,10.95470654296875,-0.3104647397994995,0.07442774623632431,0.007345748133957386
1789759685107715600,10.964715576171875,-0.3368546962738037,0.02623710036277771,0.0016032462008297443
1789759685117725700,10.9747255859375,-0.3188895285129547,0.056780628859996796,-0.045579444617033005
1789759685127734800,10.98473486328125,-0.3011806011199951,0.008185028098523617,-0.02955028973519802
1789759685137744000,10.994743896484374,-0.2638816833496094,0.04959159344434738,-0.0028984390664845705
1789759685147753000,11.0047529296875,-0.2431299388408661,0.028736427426338196,0.022495673969388008
1789759685157763000,11.01476318359375,-0.2209242284297943,0.05037487670779228,0.02111855335533619
1789759685167772200,11.024772216796874,-0.18814685940742493,-0.02795621007680893,0.0024135971907526255
1789759685177781000,11.034781005859376,-0.16405296325683594,0.001230170950293541,-0.0024543951731175184
1789759685187789800,11.044789794921876,-0.18792054057121277,-0.00159173971042037,0.0034408746287226677
1789759685197800000,11.054800048828126,-0.20395277440547943,0.021577229723334312,0.005497367586940527
1789759685207809000,11.06480908203125,-0.20666898787021637,0.013253023847937584,0.02094617299735546
1789759685217818000,11.074818115234375,-0.1692582219839096,-0.022235728800296783,0.008228780701756477
1789759685227827200,11.0848271484375,-0.10567925125360489,-0.0010796771384775639,0.010316556319594383
1789759685237837000,11.094837158203125,-0.11247217655181885,-0.08716315776109695,0.00489435950294137
1789759685247846000,11.104845947265625,-0.1109984740614891,-0.003098505549132824,-0.0013554053148254752
1789759685257855000,11.11485498046875,-0.11944682151079178,-0.0661778673529625,0.03379485756158829
1789759685267864000,11.124864013671875,-0.07582688331604004,0.007297537289559841,0.02365855872631073
1789759685277874000,11.1348740234375,-0.0591680072247982,-0.08864124864339828,0.029524702578783035
1789759685287883000,11.144883056640625,-0.06803213804960251,-0.019388161599636078,0.022195514291524887
1789759685297891800,11.154891845703125,-0.04301360622048378,-0.07892020046710968,0.008176900446414948
1789759685307901000,11.16490087890625,-0.07350261509418488,-0.043643951416015625,0.009070652537047863
1789759685317910800,11.174910888671874,-0.04403740540146828,-0.06660093367099762,0.009537238627672195
1789759685327919900,11.184919921875,-0.03391658887267113,-0.06463615596294403,-0.008383583277463913
1789759685337929000,11.194928955078124,-0.019817812368273735,-0.0893031507730484,-0.00197095749899745
1789759685347938000,11.20493798828125,-0.024763042107224464,-0.06173480674624443,-0.018809447064995766
1789759685357948200,11.2149482421875,-0.007429326884448528,-0.07286602258682251,0.005717466585338116
1789759685367957000,11.22495703125,-0.01745164953172207,-0.06415222585201263,0.006729134824126959
1789759685377965800,11.2349658203125,-0.007678646128624678,-0.06752857565879822,0.013473857194185257
1789759685387975000,11.244974853515625,-0.011603203602135181,-0.09045667946338654,0.019089985638856888
1789759685397985000,11.254985107421875,-0.002587071852758527,-0.06836576014757156,0.040847476571798325
1789759685407994000,11.264994140625,-0.019304029643535614,-0.045754753053188324,0.021737081930041313
1789759685418003200,11.275003173828125,-0.0392116941511631,-0.0014032642357051373,0.003302947385236621
1789759685428011800,11.28501171875,-0.017605246976017952,-0.04337687790393829,0.03539317101240158
1789759685438022000,11.29502197265625,0.017759401351213455,-0.05055968835949898,0.04074133187532425
1789759685448031000,11.305031005859375,0.07717582583427429,-0.08600718528032303,0.004885518457740545
1789759685458040000,11.3150400390625,0.08125525712966919,-0.05338692665100098,0.004146225284785032
1789759685468049200,11.325049072265625,0.054225772619247437,-0.0756876990199089,0.016078518703579903
1789759685478059000,11.33505908203125,0.014407784678041935,-0.016472849994897842,0.012167399749159813
1789759685488067800,11.34506787109375,-0.012546319514513016,-0.042089834809303284,0.028423432260751724
1789759685498077000,11.355076904296874,-0.0009399967384524643,-0.02545892633497715,0.027107300236821175
1789759685508086000,11.3650859375,0.015164079144597054,-0.04401355981826782,0.03564508259296417
1789759685518096000,11.375095947265624,0.037914130836725235,-0.06211560219526291,0.022043785080313683
1789759685528105000,11.38510498046875,0.024112621322274208,-0.03880685195326805,0.025046156719326973
1789759685538114000,11.395114013671876,0.0007013037684373558,-0.02345160022377968,0.0270784143358469
1789759685548124200,11.405124267578126,-0.010371995158493519,-0.023602183908224106,0.040824804455041885
1789759685558133000,11.415133056640625,-0.01819141022861004,-0.0407659150660038,0.018617387861013412
1789759685568141800,11.425141845703125,-0.02023139037191868,-0.03602628409862518,0.009374622255563736
1789759685578151000,11.43515087890625,-0.02307138592004776,-0.05193920433521271,-0.015774939209222794
1789759685588161000,11.4451611328125,-0.05168253928422928,-0.041846852749586105,-0.024024449288845062
1789759685598170000,11.455170166015625,-0.07473619282245636,-0.04735799878835678,-0.013708962127566338
1789759685608179000,11.465178955078125,-0.062085386365652084,-0.029686223715543747,-0.02473084069788456
1789759685618188000,11.47518798828125,-0.05102554336190224,-0.06409347057342529,-0.0076746270060539246
1789759685628198000,11.485197998046875,-0.03041013889014721,-0.026748910546302795,0.00845405925065279
1789759685638207000,11.49520703125,-0.03758043423295021,-0.06277482211589813,0.007034061476588249
1789759685648216000,11.505216064453125,-0.04241354018449783,-0.01330394297838211,0.009422916918992996
1789759685658225200,11.51522509765625,-0.04423247650265694,-0.04195556044578552,0.008205852471292019
1789759685668235000,11.525235107421874,-0.022883454337716103,-0.038649119436740875,0.0036910425405949354
1789759685678243800,11.535243896484374,-0.018288560211658478,-0.04388744384050369,0.02498093619942665
1789759685688253000,11.5452529296875,-0.013438412919640541,-0.032831329852342606,0.0055361296981573105
1789759685698262000,11.555261962890626,-0.009210377931594849,-0.02852793037891388,-0.02069227769970894
1789759685708271900,11.56527197265625,0.0037093337159603834,-0.04099443927407265,-0.04003109037876129
1789759685718281000,11.575281005859376,0.03710430860519409,-0.004062785767018795,-0.03477400913834572
1789759685728290000,11.5852900390625,0.039415765553712845,-0.04201314598321915,0.020506927743554115
1789759685738299000,11.595298828125,0.0644255131483078,0.013411762192845345,0.018339648842811584
1789759685748309000,11.60530908203125,0.06020670756697655,-0.03050018846988678,0.010841920971870422
1789759685758317800,11.61531787109375,0.06621693074703217,-0.010825819335877895,-0.008917136117815971
1789759685768327000,11.625326904296875,0.034850627183914185,-0.029775694012641907,0.015794651582837105
1789759685778336000,11.6353359375,-0.0018701029475778341,0.0018368258606642485,-0.01624903455376625
1789759685788346000,11.64534619140625,-0.05710873007774353,-0.007389009930193424,0.030301107093691826
1789759685798355000,11.65535498046875,-0.06828761845827103,-0.017399832606315613,0.02616867981851101
1789759685808364000,11.665364013671875,-0.06593147665262222,-0.0650678500533104,0.021095313131809235
1789759685818372900,11.675372802734374,-0.09016890078783035,-0.047621216624975204,-0.006892913021147251
1789759685828383000,11.685383056640624,-0.13207665085792542,-0.06511203944683075,0.028072332963347435
1789759685838392000,11.69539208984375,-0.16658669710159302,-0.055696699768304825,0.032100893557071686
1789759685848401200,11.705401123046874,-0.17296746373176575,-0.06967534869909286,0.014013413339853287
1789759685858410000,11.715409912109376,-0.16473430395126343,-0.10391907393932343,0.018949849531054497
1789759685868419800,11.725419921875,-0.16221778094768524,-0.10002820938825607,0.008545768447220325
1789759685878429000,11.735428955078126,-0.19020706415176392,-0.10326874256134033,0.009993462823331356
1789759685888438000,11.74543798828125,-0.18755626678466797,-0.06669288128614426,-0.008605346083641052
1789759685898447000,11.755447021484375,-0.1546662300825119,-0.13000579178333282,0.007221287582069635
1789759685908457000,11.76545703125,-0.12931765615940094,-0.08522465825080872,-0.010400697588920593
1789759685918465800,11.7754658203125,-0.1059606671333313,-0.15043587982654572,-0.04101799428462982
1789759685928475000,11.785474853515625,-0.1115502268075943,-0.0797521099448204,-0.032102081924676895
1789759685938484000,11.79548388671875,-0.09908556193113327,-0.10559569299221039,-0.0018565612845122814
1789759685948494000,11.805494140625,-0.05937854200601578,-0.08833765983581543,0.026202768087387085
1789759685958503000,11.8155029296875,-0.03484630212187767,-0.11232954263687134,0.01467900350689888
1789759685968512000,11.825511962890625,-0.011484185233712196,-0.10969255864620209,0.00010541221126914024
1789759685978520800,11.835520751953124,-0.03028290532529354,-0.10578063875436783,0.02592555806040764
1789759685988531000,11.845531005859375,-0.022602669894695282,-0.08174636960029602,0.034089021384716034
1789759685998540000,11.8555400390625,0.018298424780368805,-0.08020678907632828,0.028878014534711838
1789759686008548900,11.865548828125,0.03540248051285744,-0.09292157739400864,0.02099587582051754
1789759686018559000,11.87555908203125,0.046402666717767715,-0.07626297324895859,0.025293419137597084
1789759686028568000,11.885568115234374,0.04718120023608208,-0.08133028447628021,0.03147287294268608
1789759686038577200,11.8955771484375,0.06011297553777695,-0.05794266611337662,-0.014818189665675163
1789759686048586000,11.9055859375,0.05862013250589371,-0.057209085673093796,0.007514229044318199
1789759686058595800,11.915595947265626,0.08613431453704834,-0.07406449317932129,-0.002126946346834302
1789759686068605000,11.92560498046875,0.1120881512761116,-0.07258191704750061,-0.018382880836725235
1789759686078614000,11.935614013671875,0.1073421761393547,-0.07462076097726822,-0.004063524771481752
1789759686088623000,11.945623046875,0.09872978180646896,-0.050533805042505264,-0.002991069806739688
1789759686098633000,11.955633056640625,0.09222207963466644,-0.04611215740442276,0.00511159747838974
1789759686108641800,11.965641845703125,0.09688042104244232,-0.03918849676847458,0.00603101821616292
1789759686118651000,11.97565087890625,0.105692557990551,-0.05037537217140198,0.00771493511274457
1789759686128660000,11.985659912109375,0.11830995231866837,-0.06946772336959839,0.00581694720312953
1789759686138670000,11.995670166015625,0.10035359114408493,-0.06047316640615463,0.004366589710116386
1789759686148679000,12.005678955078125,0.07146848738193512,-0.040825240314006805,0.006579434499144554
1789759686158688000,12.01568798828125,0.04035796597599983,-0.02260921709239483,-0.004499848000705242
1789759686168697000,12.025697021484374,0.047729071229696274,-0.038249000906944275,-0.014522266574203968
1789759686178707200,12.035707275390624,0.04376974701881409,-0.0426514707505703,-0.018607022240757942
1789759686188716300,12.04571630859375,0.035694196820259094,-0.041649118065834045,-0.022696904838085175
1789759686198724900,12.055724853515626,0.020602332428097725,-0.0586981400847435,-0.037321917712688446
1789759686208734000,12.06573388671875,0.023637235164642334,-0.013790247030556202,-0.007298709359019995
1789759686218744000,12.075744140625,0.00926202442497015,-0.07920040935277939,0.016747504472732544
1789759686228753200,12.085753173828126,-0.009572383016347885,-0.004830574616789818,0.013289390131831169
1789759686238762200,12.09576220703125,-0.03605671972036362,-0.05561119690537453,0.016512347385287285
1789759686248771000,12.10577099609375,-0.020237278193235397,-0.009613079018890858,-0.00444007245823741
1789759686258781200,12.11578125,-0.023487400263547897,-0.0703083798289299,-0.034097034484148026
1789759686268790000,12.1257900390625,-0.016334550455212593,-0.022327758371829987,0.01943577267229557
1789759686278799000,12.135799072265625,-0.026835661381483078,-0.025972560048103333,-0.01794515550136566
1789759686288808200,12.14580810546875,-0.01890295185148716,-0.03435971960425377,-0.002501289825886488
1789759686298818000,12.155818115234375,-0.020782876759767532,-0.020792774856090546,-0.060271911323070526
1789759686308827100,12.1658271484375,0.0011440038215368986,-0.04338910058140755,-0.049186788499355316
1789759686318836200,12.175836181640625,-0.0034616668708622456,-0.027368854731321335,-0.014154770411550999
1789759686328845000,12.185844970703124,0.00971995759755373,-0.024670377373695374,-0.009002672508358955
1789759686338855000,12.19585498046875,-0.014434115029871464,-0.01420655008405447,-0.015026209875941277
1789759686348864000,12.205864013671874,-0.01729106530547142,-0.01397896371781826,0.011312045156955719
1789759686358873000,12.215873046875,-0.03935813531279564,-0.030273500829935074,-0.032745249569416046
1789759686368882200,12.225882080078126,-0.04917587712407112,-0.022527163848280907,-0.008185045793652534
1789759686378892300,12.235892333984374,-0.06652744114398956,-0.009470750577747822,0.027982812374830246
1789759686388901000,12.245901123046876,-0.06136665493249893,-0.02360326237976551,0.026700465008616447
