time,seconds_elapsed,z,y,x
1789582854102744300,0.040744384765625,-0.9278717041015625,-0.288299560546875,0.0664520263671875
1789582854112712200,0.050712158203125,-0.8368072509765625,-0.3766632080078125,0.084716796875
1789582854122680000,0.06068017578125,-0.9282684326171875,-0.322357177734375,0.167755126953125
1789582854132649200,0.070649169921875,-0.9386138916015625,-0.296356201171875,0.0504608154296875
1789582854142617300,0.080617431640625,-0.8960113525390625,-0.3320770263671875,-0.050506591796875
1789582854152585200,0.090585205078125,-0.9744415283203125,-0.300689697265625,-0.0025177001953125
1789582854162554400,0.100554443359375,-0.9659576416015625,-0.2791290283203125,-0.034454345703125
1789582854172522200,0.110522216796875,-0.9016265869140625,-0.3473968505859375,-0.075408935546875
1789582854182490400,0.120490478515625,-0.937225341796875,-0.301055908203125,-0.04815673828125
1789582854192459300,0.130459228515625,-1.0284881591796875,-0.214630126953125,0.0070953369140625
1789582854202427100,0.14042724609375,-0.9167327880859375,-0.2469482421875,-0.037261962890625
1789582854212395300,0.150395263671875,-0.8369140625,-0.337005615234375,-0.0161590576171875
1789582854222363100,0.160363037109375,-0.964202880859375,-0.2694091796875,0.0906829833984375
1789582854232332300,0.170332275390625,-1.0503082275390625,-0.2093658447265625,0.0803375244140625
1789582854242300200,0.180300048828125,-0.9696044921875,-0.25799560546875,-0.020477294921875
1789582854252268300,0.190268310546875,-0.9199066162109375,-0.315643310546875,0.0266876220703125
1789582854262236400,0.200236328125,-1.0332183837890625,-0.16949462890625,0.1033935546875
1789582854272205300,0.210205322265625,-0.9794921875,-0.1849212646484375,0.080780029296875
1789582854282173200,0.220173095703125,-0.9735870361328125,-0.2457733154296875,0.091949462890625
1789582854292141300,0.230141357421875,-1.0529022216796875,-0.2376861572265625,0.1046600341796875
1789582854302110200,0.240110107421875,-1.044708251953125,-0.22906494140625,0.078521728515625
1789582854312078300,0.250078369140625,-0.9707794189453125,-0.2649383544921875,-0.0029144287109375
1789582854322046200,0.260046142578125,-0.9504852294921875,-0.2835845947265625,0.00665283203125
1789582854332014300,0.270014404296875,-0.9505462646484375,-0.3037109375,0.031402587890625
1789582854341983200,0.279983154296875,-0.9986419677734375,-0.3273162841796875,-0.056549072265625
1789582854351951400,0.289951416015625,-0.9501190185546875,-0.3710479736328125,-0.0833740234375
1789582854361919200,0.299919189453125,-0.8859405517578125,-0.3769073486328125,-0.0673370361328125
1789582854371888000,0.30988818359375,-0.9146728515625,-0.380584716796875,0.05877685546875
1789582854381856300,0.319856201171875,-0.9843292236328125,-0.2962799072265625,0.094482421875
1789582854391824100,0.32982421875,-0.911651611328125,-0.3546600341796875,0.1479644775390625
1789582854401792300,0.339792236328125,-0.922027587890625,-0.3677825927734375,0.207550048828125
1789582854411761400,0.349761474609375,-0.9238739013671875,-0.3290863037109375,0.33331298828125
1789582854421729300,0.359729248046875,-0.88092041015625,-0.31475830078125,0.3125152587890625
1789582854431697200,0.369697265625,-0.820648193359375,-0.366851806640625,0.2678375244140625
1789582854441666000,0.379666015625,-0.923065185546875,-0.327972412109375,0.264434814453125
1789582854451634200,0.38963427734375,-0.9534759521484375,-0.3055267333984375,0.2805938720703125
1789582854461602300,0.399602294921875,-0.9941558837890625,-0.3123626708984375,0.2119140625
1789582854471570200,0.409570068359375,-0.8972320556640625,-0.3523406982421875,0.1891021728515625
1789582854481539300,0.419539306640625,-0.97845458984375,-0.3262176513671875,0.0695953369140625
1789582854491507200,0.429507080078125,-1.0488128662109375,-0.2692413330078125,0.022735595703125
1789582854501475300,0.439475341796875,-0.9731292724609375,-0.311431884765625,-0.001800537109375
1789582854511443200,0.449443115234375,-0.974822998046875,-0.290863037109375,0.1240692138671875
1789582854521412000,0.459412109375,-0.9613800048828125,-0.2923126220703125,0.121551513671875
1789582854531380200,0.469380126953125,-0.946258544921875,-0.346405029296875,0.0745697021484375
1789582854541348000,0.47934814453125,-0.9034271240234375,-0.3457183837890625,0.2979583740234375
1789582854551317200,0.489317138671875,-0.9269256591796875,-0.2817535400390625,0.310272216796875
1789582854561285400,0.499285400390625,-0.9113311767578125,-0.19140625,0.176055908203125
1789582854571253200,0.509253173828125,-0.7392120361328125,-0.4409332275390625,-0.1726531982421875
1789582854581221400,0.519221435546875,-1.070648193359375,-0.28411865234375,0.91595458984375
1789582854591190000,0.52918994140625,-0.91510009765625,-0.304718017578125,-0.041656494140625
1789582854601158000,0.539157958984375,-0.9110260009765625,-0.3480072021484375,-0.20404052734375
1789582854611126000,0.5491259765625,-0.9601287841796875,-0.27740478515625,0.390533447265625
1789582854621095000,0.559094970703125,-0.8932647705078125,-0.3477325439453125,0.20745849609375
1789582854631063000,0.56906298828125,-0.8842315673828125,-0.365570068359375,-0.0080108642578125
1789582854641031000,0.579031005859375,-0.90814208984375,-0.32745361328125,0.2941741943359375
1789582854650999000,0.5889990234375,-0.8612518310546875,-0.3905792236328125,0.166961669921875
1789582854660968200,0.59896826171875,-0.9329681396484375,-0.3289031982421875,-0.1182403564453125
1789582854670936000,0.60893603515625,-0.93927001953125,-0.266387939453125,-0.008758544921875
1789582854680904000,0.618904052734375,-0.9890899658203125,-0.264617919921875,0.0435638427734375
1789582854690872000,0.6288720703125,-0.99151611328125,-0.3232574462890625,-0.0134429931640625
1789582854700841000,0.638841064453125,-0.96661376953125,-0.328338623046875,-0.0115509033203125
1789582854710809000,0.64880908203125,-0.9560089111328125,-0.34478759765625,0.07794189453125
1789582854720777000,0.65877685546875,-1.0702056884765625,-0.2940826416015625,0.1952667236328125
1789582854730746000,0.66874609375,-1.053924560546875,-0.26312255859375,0.25286865234375
1789582854740714000,0.6787138671875,-0.9773406982421875,-0.3258819580078125,0.2378692626953125
1789582854750681900,0.688681884765625,-0.8252716064453125,-0.404541015625,0.1666412353515625
1789582854760650000,0.69864990234375,-0.7909088134765625,-0.3604278564453125,0.1668701171875
1789582854770619000,0.708618896484375,-0.7555084228515625,-0.4176788330078125,0.1868896484375
1789582854780587000,0.7185869140625,-0.925140380859375,-0.3408203125,0.070465087890625
1789582854790555000,0.728554931640625,-1.016143798828125,-0.2856903076171875,0.044464111328125
1789582854800523000,0.73852294921875,-0.9823150634765625,-0.3563690185546875,0.02557373046875
1789582854810492200,0.7484921875,-0.9913330078125,-0.300628662109375,0.062255859375
1789582854820460000,0.7584599609375,-0.8971710205078125,-0.34332275390625,0.0843353271484375
1789582854830428000,0.768427978515625,-0.94598388671875,-0.3173065185546875,0.1143798828125
1789582854840396800,0.778396728515625,-0.9293670654296875,-0.2843017578125,0.0559844970703125
1789582854850365000,0.788364990234375,-0.9161224365234375,-0.340606689453125,0.0989990234375
1789582854860333000,0.7983330078125,-0.950531005859375,-0.3101959228515625,0.1807403564453125
1789582854870301000,0.808301025390625,-0.94708251953125,-0.2410888671875,0.1363525390625
1789582854880270000,0.81827001953125,-0.9432373046875,-0.1924591064453125,0.162109375
1789582854890238000,0.828238037109375,-0.995208740234375,-0.1837615966796875,-0.0083160400390625
1789582854900206000,0.8382060546875,-0.9813079833984375,-0.1923370361328125,-0.0208892822265625
1789582854910174000,0.848174072265625,-1.023284912109375,-0.1912384033203125,-0.0240478515625
1789582854920142800,0.858142822265625,-0.962310791015625,-0.2502288818359375,0.064056396484375
1789582854930111000,0.868111083984375,-0.9846954345703125,-0.2619171142578125,0.0538482666015625
1789582854940078800,0.878078857421875,-1.0853424072265625,-0.226531982421875,-0.016387939453125
1789582854950047000,0.888046875,-1.066162109375,-0.2122039794921875,-0.0822601318359375
1789582854960016100,0.89801611328125,-1.0449371337890625,-0.182525634765625,-0.0995025634765625
1789582854969984000,0.90798388671875,-1.035400390625,-0.162078857421875,-0.0950775146484375
1789582854979952000,0.9179521484375,-1.0693511962890625,-0.1330718994140625,-0.164154052734375
1789582854989921000,0.927921142578125,-0.9603271484375,-0.251220703125,-0.27581787109375
1789582854999889000,0.937888916015625,-0.8865966796875,-0.2255859375,-0.2002410888671875
1789582855009857000,0.94785693359375,-0.8288726806640625,-0.2621002197265625,-0.3447723388671875
1789582855019825000,0.957824951171875,-0.763580322265625,-0.3506927490234375,-0.2023773193359375
1789582855029794000,0.9677939453125,-0.7901611328125,-0.3370208740234375,-0.0813446044921875
1789582855039762000,0.977761962890625,-0.8257598876953125,-0.4070587158203125,-0.3006744384765625
1789582855049730000,0.98772998046875,-0.974029541015625,-0.341400146484375,-0.2163848876953125
1789582855059698200,0.9976982421875,-1.05908203125,-0.2891693115234375,0.0162506103515625
1789582855069667000,1.0076669921875,-1.0465545654296875,-0.346771240234375,0.104766845703125
1789582855079635000,1.017635009765625,-0.9954071044921875,-0.3209991455078125,0.0437774658203125
1789582855089603000,1.02760302734375,-0.97650146484375,-0.25225830078125,0.1631011962890625
1789582855099571000,1.037571044921875,-0.9404449462890625,-0.2378997802734375,0.0229034423828125
1789582855109540000,1.0475400390625,-0.913116455078125,-0.248779296875,-0.1631317138671875
1789582855119508000,1.057508056640625,-0.9403228759765625,-0.347381591796875,-0.0534515380859375
1789582855129476000,1.06747607421875,-1.136932373046875,-0.2518463134765625,0.01654052734375
1789582855139444200,1.0774443359375,-1.032989501953125,-0.3419189453125,-0.071197509765625
1789582855149413000,1.0874130859375,-0.953704833984375,-0.3443756103515625,-0.00323486328125
1789582855159381000,1.097381103515625,-0.90045166015625,-0.3409576416015625,0.0703582763671875
1789582855169348900,1.107348876953125,-0.7689208984375,-0.4576263427734375,0.185455322265625
1789582855179317000,1.11731689453125,-0.7654876708984375,-0.42950439453125,0.26495361328125
1789582855189286000,1.127285888671875,-0.88409423828125,-0.3253936767578125,0.2205963134765625
1789582855199254000,1.13725390625,-0.841400146484375,-0.346282958984375,0.206573486328125
1789582855209222100,1.14722216796875,-0.98468017578125,-0.32891845703125,0.294586181640625
1789582855219191000,1.15719091796875,-1.1411285400390625,-0.3166351318359375,0.0877227783203125
1789582855229159000,1.167158935546875,-1.2061767578125,-0.2586669921875,0.2111053466796875
1789582855239127000,1.177126953125,-1.0704193115234375,-0.2498016357421875,0.3079833984375
1789582855249095000,1.187094970703125,-0.9118194580078125,-0.3473358154296875,0.22119140625
1789582855259064000,1.19706396484375,-0.8649444580078125,-0.3957977294921875,0.198638916015625
1789582855269032000,1.207031982421875,-0.84820556640625,-0.3495330810546875,0.332672119140625
1789582855279000000,1.217,-0.8709259033203125,-0.2995758056640625,0.4842376708984375
1789582855288968200,1.22696826171875,-0.81829833984375,-0.33892822265625,0.3709716796875
1789582855298937000,1.23693701171875,-0.846405029296875,-0.3918304443359375,0.2655029296875
1789582855308905000,1.246905029296875,-1.0662689208984375,-0.2616119384765625,0.37493896484375
1789582855318872800,1.256872802734375,-1.0945587158203125,-0.245269775390625,0.178466796875
1789582855328841000,1.266841064453125,-1.0587005615234375,-0.2508392333984375,-0.0188140869140625
1789582855338809900,1.276809814453125,-0.934173583984375,-0.336669921875,0.10400390625
1789582855348778000,1.286778076171875,-0.958160400390625,-0.3262176513671875,0.2204437255859375
1789582855358746000,1.29674609375,-0.96563720703125,-0.278045654296875,0.06396484375
1789582855368714000,1.3067138671875,-1.0154876708984375,-0.2284088134765625,-0.1457977294921875
1789582855378683100,1.31668310546875,-0.9776611328125,-0.281646728515625,-0.1450042724609375
1789582855388651000,1.326651123046875,-0.9615936279296875,-0.369415283203125,-0.1647491455078125
1789582855398619000,1.336618896484375,-0.9167327880859375,-0.3607177734375,-0.2677764892578125
1789582855408587000,1.3465869140625,-0.87969970703125,-0.3458709716796875,-0.3070526123046875
1789582855418556000,1.356555908203125,-0.883575439453125,-0.2973175048828125,-0.1334991455078125
1789582855428524000,1.36652392578125,-0.8978271484375,-0.338836669921875,-0.1586761474609375
1789582855438492200,1.3764921875,-0.83013916015625,-0.4631500244140625,-0.2257537841796875
1789582855448460000,1.3864599609375,-0.9781646728515625,-0.36920166015625,-0.0211029052734375
1789582855458429200,1.39642919921875,-1.0235443115234375,-0.231109619140625,0.078338623046875
1789582855468396800,1.406396728515625,-0.973541259765625,-0.2190093994140625,-0.217620849609375
1789582855478365000,1.416364990234375,-1.0169219970703125,-0.234161376953125,-0.3216400146484375
1789582855488333000,1.4263330078125,-1.0114898681640625,-0.2557220458984375,-0.1533203125
1789582855498302000,1.436302001953125,-0.98101806640625,-0.2579345703125,-0.2898406982421875
1789582855508270000,1.44627001953125,-1.1080169677734375,-0.20068359375,-0.3328094482421875
1789582855518238000,1.456238037109375,-0.9748077392578125,-0.2089691162109375,-0.30010986328125
1789582855528206000,1.4662060546875,-0.9542694091796875,-0.18841552734375,-0.0946502685546875
1789582855538175200,1.47617529296875,-0.9718170166015625,-0.184844970703125,-0.1107177734375
1789582855548142800,1.486142822265625,-0.9183349609375,-0.284423828125,-0.14593505859375
1789582855558111000,1.496111083984375,-1.007415771484375,-0.191619873046875,-0.0994110107421875
1789582855568079000,1.5060791015625,-1.075531005859375,-0.160125732421875,-0.1331024169921875
1789582855578048000,1.516048095703125,-1.0182342529296875,-0.2436370849609375,-0.2688751220703125
1789582855588015900,1.526015869140625,-0.96234130859375,-0.2504425048828125,-0.2037353515625
1789582855597983700,1.535983642578125,-0.9348297119140625,-0.28033447265625,-0.2059326171875
1789582855607951600,1.54595166015625,-0.8360748291015625,-0.266998291015625,-0.4458160400390625
1789582855617920500,1.55592041015625,-0.8267974853515625,-0.2633056640625,-0.473480224609375
1789582855627888600,1.565888671875,-0.8645172119140625,-0.27813720703125,-0.394073486328125
1789582855637856800,1.575856689453125,-0.9060516357421875,-0.2819976806640625,-0.3936309814453125
1789582855647824600,1.58582470703125,-0.9215240478515625,-0.2484283447265625,-0.380645751953125
1789582855657793800,1.595793701171875,-0.977813720703125,-0.1886138916015625,-0.2984619140625
1789582855667762000,1.605761962890625,-0.9897308349609375,-0.1650848388671875,-0.2275390625
1789582855677729800,1.615729736328125,-0.9653778076171875,-0.17742919921875,-0.230743408203125
1789582855687697700,1.62569775390625,-0.960052490234375,-0.23663330078125,-0.125457763671875
1789582855697666600,1.63566650390625,-0.9403076171875,-0.212738037109375,-0.0815277099609375
1789582855707634700,1.645634765625,-0.925384521484375,-0.177642822265625,-0.1620635986328125
1789582855717602800,1.655602783203125,-0.900238037109375,-0.1732635498046875,-0.204498291015625
1789582855727570700,1.66557080078125,-0.9585723876953125,-0.22760009765625,-0.080596923828125
1789582855737539800,1.675539794921875,-1.0046234130859375,-0.2669830322265625,-0.096160888671875
1789582855747507700,1.6855078125,-1.01654052734375,-0.1993408203125,-0.215728759765625
1789582855757475800,1.695475830078125,-0.97454833984375,-0.2350311279296875,-0.0144805908203125
1789582855767443700,1.705443603515625,-0.9196319580078125,-0.2315521240234375,0.0994720458984375
1789582855777412600,1.71541259765625,-0.8878936767578125,-0.2659149169921875,0.179412841796875
1789582855787380700,1.725380615234375,-0.828704833984375,-0.33221435546875,0.198272705078125
1789582855797348900,1.735348876953125,-0.8164215087890625,-0.292572021484375,0.078582763671875
1789582855807316700,1.745316650390625,-0.872283935546875,-0.3466796875,-0.1264495849609375
1789582855817286000,1.755285888671875,-0.96612548828125,-0.3083038330078125,-0.2243194580078125
1789582855827253800,1.765253662109375,-0.9418182373046875,-0.332733154296875,-0.0867767333984375
1789582855837222000,1.775221923828125,-1.0137786865234375,-0.19720458984375,-0.0647125244140625
1789582855847189800,1.785189697265625,-0.942047119140625,-0.2032470703125,-0.261077880859375
1789582855857158700,1.79515869140625,-0.9582672119140625,-0.2258758544921875,-0.1529998779296875
1789582855867126800,1.805126708984375,-0.980621337890625,-0.28387451171875,0.0402984619140625
1789582855877094700,1.8150947265625,-1.0291290283203125,-0.2939605712890625,0.0580596923828125
1789582855887062800,1.825062744140625,-1.0159912109375,-0.2793121337890625,-0.065826416015625
1789582855897031700,1.83503173828125,-1.0526275634765625,-0.175872802734375,0.082916259765625
1789582855906999800,1.844999755859375,-1.001678466796875,-0.2784423828125,0.1748199462890625
1789582855916967700,1.8549677734375,-0.941925048828125,-0.3587799072265625,0.03857421875
1789582855926935600,1.864935546875,-0.9606781005859375,-0.2717742919921875,0.0850372314453125
1789582855936904700,1.87490478515625,-0.9362640380859375,-0.2843475341796875,0.0479888916015625
1789582855946872800,1.884872802734375,-0.8925323486328125,-0.3064117431640625,0.1060028076171875
1789582855956840700,1.8948408203125,-0.8066558837890625,-0.419525146484375,0.189056396484375
1789582855966808800,1.904808837890625,-0.909820556640625,-0.3060150146484375,0.294677734375
1789582855976777700,1.91477783203125,-0.9491729736328125,-0.230255126953125,0.149993896484375
1789582855986745900,1.924745849609375,-1.0402984619140625,-0.2088165283203125,0.0286407470703125
1789582855996713700,1.934713623046875,-1.0578155517578125,-0.243743896484375,0.1462249755859375
1789582856006681600,1.944681640625,-1.1318206787109375,-0.2448883056640625,0.229278564453125
1789582856016650800,1.954650634765625,-1.1149749755859375,-0.185028076171875,0.01812744140625
1789582856026618600,1.96461865234375,-1.0312347412109375,-0.19287109375,0.0106048583984375
1789582856036586800,1.974586669921875,-0.907073974609375,-0.309906005859375,0.1109771728515625
1789582856046555000,1.984554931640625,-0.8917694091796875,-0.3386993408203125,0.103668212890625
1789582856056522800,1.994522705078125,-0.8594818115234375,-0.34429931640625,0.16253662109375
1789582856066492000,2.004491943359375,-0.949005126953125,-0.2866973876953125,0.23602294921875
1789582856076459500,2.01445947265625,-0.9629974365234375,-0.28662109375,0.173248291015625
1789582856086427600,2.024427734375,-1.00103759765625,-0.304046630859375,0.09759521484375
1789582856096395800,2.034395751953125,-1.0485076904296875,-0.285614013671875,0.3026580810546875
1789582856106364700,2.04436474609375,-1.0951385498046875,-0.185455322265625,0.182037353515625
1789582856116332800,2.054332763671875,-1.0211029052734375,-0.2111663818359375,0.08184814453125
1789582856126301000,2.064301025390625,-0.9314727783203125,-0.28900146484375,0.2987823486328125
1789582856136268800,2.074268798828125,-0.9786224365234375,-0.21014404296875,0.3580322265625
1789582856146238000,2.084238037109375,-0.9345245361328125,-0.2253570556640625,0.226348876953125
1789582856156205600,2.09420556640625,-0.9520416259765625,-0.2023773193359375,0.13909912109375
1789582856166173700,2.104173583984375,-1.045806884765625,-0.14825439453125,0.1241455078125
1789582856176141800,2.114141845703125,-1.0565032958984375,-0.21368408203125,0.0762481689453125
1789582856186110700,2.12411083984375,-0.92449951171875,-0.30865478515625,0.161956787109375
1789582856196078800,2.134078857421875,-0.92138671875,-0.2802276611328125,0.1716156005859375
1789582856206046700,2.144046630859375,-0.9073333740234375,-0.2401123046875,0.2196044921875
1789582856216014800,2.154014892578125,-0.8310394287109375,-0.332916259765625,0.203948974609375
1789582856225983700,2.163983642578125,-0.8880767822265625,-0.31219482421875,0.2151947021484375
1789582856235951600,2.17395166015625,-0.9366607666015625,-0.2557373046875,0.2162628173828125
1789582856245919700,2.183919677734375,-0.95159912109375,-0.248626708984375,0.26513671875
1789582856255888000,2.193887939453125,-1.0605010986328125,-0.23455810546875,0.2427215576171875
1789582856265856800,2.203856689453125,-1.009552001953125,-0.251007080078125,0.176666259765625
1789582856275825000,2.213824951171875,-0.9374847412109375,-0.313232421875,0.1126708984375
1789582856285792800,2.223792724609375,-0.9526824951171875,-0.2391357421875,0.1268463134765625
1789582856295760600,2.2337607421875,-0.88134765625,-0.2701873779296875,0.1502685546875
1789582856305729500,2.2437294921875,-0.8780364990234375,-0.2577056884765625,0.0579681396484375
1789582856315697700,2.25369775390625,-0.95458984375,-0.3219757080078125,0.114227294921875
1789582856325665800,2.263665771484375,-1.0321502685546875,-0.2375335693359375,0.16680908203125
1789582856335633700,2.273633544921875,-0.996826171875,-0.2070159912109375,0.092071533203125
1789582856345601800,2.283601806640625,-0.9992828369140625,-0.2947845458984375,0.2408294677734375
1789582856355570700,2.29357080078125,-0.9643402099609375,-0.2190399169921875,0.1538848876953125
1789582856365538800,2.303538818359375,-0.762542724609375,-0.3189239501953125,-0.2038116455078125
1789582856375506700,2.313506591796875,-0.754608154296875,-0.396209716796875,-0.07012939453125
1789582856385474600,2.323474609375,-0.893798828125,-0.27203369140625,0.137664794921875
1789582856395443700,2.333443603515625,-1.0258026123046875,-0.394256591796875,-0.02276611328125
1789582856405411800,2.343411865234375,-1.0772857666015625,-0.263946533203125,-0.163421630859375
1789582856415379700,2.353379638671875,-0.9783477783203125,-0.32220458984375,-0.0051422119140625
1789582856425347800,2.363347900390625,-0.9769744873046875,-0.217132568359375,-0.0848541259765625
1789582856435316700,2.373316650390625,-0.804046630859375,-0.305450439453125,-0.05072021484375
1789582856445284900,2.383284912109375,-0.8203887939453125,-0.38226318359375,-0.048004150390625
1789582856455252700,2.393252685546875,-0.9613494873046875,-0.356658935546875,0.109466552734375
1789582856465220600,2.403220703125,-1.0083770751953125,-0.3278350830078125,0.1051788330078125
1789582856475189800,2.413189697265625,-1.0268707275390625,-0.275390625,0.0914459228515625
1789582856485157600,2.42315771484375,-0.9235382080078125,-0.3380126953125,0.2280731201171875
1789582856495125800,2.433125732421875,-0.83453369140625,-0.33203125,0.2540435791015625
1789582856505094000,2.443093994140625,-0.925994873046875,-0.2497406005859375,0.0960235595703125
1789582856515062800,2.453062744140625,-0.9127655029296875,-0.28912353515625,0.178680419921875
1789582856525031000,2.463031005859375,-0.821380615234375,-0.4260406494140625,0.3651275634765625
1789582856534998500,2.47299853515625,-0.8946685791015625,-0.328399658203125,0.3739471435546875
1789582856544966700,2.482966552734375,-0.869049072265625,-0.2695465087890625,0.1945037841796875
1789582856554934800,2.492934814453125,-0.91864013671875,-0.2486114501953125,0.05810546875
1789582856564903700,2.502903564453125,-1.0362548828125,-0.2443084716796875,-0.0180511474609375
1789582856574871800,2.512871826171875,-1.0896148681640625,-0.225067138671875,-0.017608642578125
1789582856584840000,2.52283984375,-1.0650482177734375,-0.247589111328125,0.0904998779296875
1789582856594808000,2.53280810546875,-1.0243377685546875,-0.2099609375,0.01202392578125
1789582856604777200,2.542777099609375,-0.8414154052734375,-0.3392181396484375,0.06280517578125
1789582856614745000,2.5527451171875,-0.8491973876953125,-0.3288421630859375,0.0024566650390625
1789582856624713200,2.562713134765625,-0.8951263427734375,-0.2628631591796875,0.1129302978515625
1789582856634681300,2.572681396484375,-0.9678192138671875,-0.270233154296875,0.1147918701171875
1789582856644650200,2.582650146484375,-1.0735931396484375,-0.276031494140625,0.0013275146484375
1789582856654618000,2.5926181640625,-1.0881195068359375,-0.2936859130859375,-0.1014404296875
1789582856664586000,2.6025859375,-0.98486328125,-0.3641204833984375,-0.0292510986328125
1789582856674554000,2.61255419921875,-0.901092529296875,-0.374114990234375,-0.0057220458984375
1789582856684523000,2.62252294921875,-0.737640380859375,-0.4371795654296875,-0.1118011474609375
1789582856694491100,2.6324912109375,-0.89324951171875,-0.3229827880859375,0.0593109130859375
1789582856704459300,2.642459228515625,-1.004608154296875,-0.2984619140625,0.090545654296875
1789582856714427100,2.65242724609375,-1.1139984130859375,-0.2121124267578125,0.0528106689453125
1789582856724395000,2.66239501953125,-1.0079803466796875,-0.30596923828125,-0.0836334228515625
1789582856734364200,2.6723642578125,-1.0100555419921875,-0.20916748046875,-0.092254638671875
1789582856744332000,2.68233203125,-0.813262939453125,-0.2935791015625,-0.1096954345703125
1789582856754300200,2.692300048828125,-0.9342498779296875,-0.1713409423828125,-0.092987060546875
1789582856764268000,2.70226806640625,-0.8784942626953125,-0.1961517333984375,-0.1125335693359375
1789582856774237200,2.7122373046875,-0.95684814453125,-0.1733856201171875,-0.0457305908203125
1789582856784205300,2.722205322265625,-1.0538787841796875,-0.144561767578125,-0.0843505859375
1789582856794173000,2.7321728515625,-0.959686279296875,-0.1829071044921875,-0.180419921875
1789582856804141000,2.74214111328125,-0.9368743896484375,-0.1830291748046875,-0.0948486328125
1789582856814110000,2.75210986328125,-0.981292724609375,-0.1699981689453125,-0.189666748046875
1789582856824078000,2.762078125,-0.9669647216796875,-0.22210693359375,-0.2526092529296875
1789582856834046200,2.772046142578125,-1.1399078369140625,-0.171539306640625,-0.1425323486328125
1789582856844014000,2.78201416015625,-1.1089630126953125,-0.2491607666015625,-0.1684112548828125
1789582856853982200,2.791982177734375,-1.0741119384765625,-0.238861083984375,-0.097137451171875
1789582856863951000,2.801951171875,-1.0212249755859375,-0.280670166015625,-0.052093505859375
1789582856873919000,2.8119189453125,-0.9560089111328125,-0.2936553955078125,-0.0213775634765625
1789582856883887000,2.82188720703125,-0.8060150146484375,-0.36114501953125,0.0274810791015625
1789582856893855000,2.83185498046875,-0.8881378173828125,-0.322174072265625,-0.06683349609375
1789582856903824100,2.84182421875,-0.8911895751953125,-0.3290863037109375,0.008453369140625
1789582856913792300,2.851792236328125,-0.9184722900390625,-0.3164520263671875,-0.06243896484375
1789582856923760000,2.861760009765625,-0.912261962890625,-0.3915252685546875,-0.089447021484375
1789582856933728300,2.871728271484375,-0.9488983154296875,-0.336334228515625,0.03118896484375
1789582856943697200,2.881697265625,-0.952667236328125,-0.2691802978515625,-0.00970458984375
1789582856953665000,2.8916650390625,-0.9045867919921875,-0.260223388671875,0.0645751953125
1789582856963633200,2.901633056640625,-1.0192413330078125,-0.20220947265625,-0.089263916015625
1789582856973601000,2.91160107421875,-0.980499267578125,-0.288726806640625,-0.1918792724609375
1789582856983569200,2.921569091796875,-0.9835205078125,-0.3431396484375,-0.0635986328125
1789582856993538000,2.9315380859375,-1.01519775390625,-0.2978668212890625,-0.205108642578125
1789582857003506200,2.941506103515625,-0.917999267578125,-0.2646484375,-0.0787506103515625
1789582857013474300,2.951474365234375,-0.8990020751953125,-0.2432708740234375,-0.0215301513671875
1789582857023442000,2.96144189453125,-0.843658447265625,-0.3676605224609375,-0.184051513671875
1789582857033411000,2.9714111328125,-0.9123992919921875,-0.29180908203125,-0.136810302734375
1789582857043379000,2.98137890625,-0.9139404296875,-0.28839111328125,-0.102325439453125
1789582857053347000,2.99134716796875,-0.792877197265625,-0.429107666015625,-0.224029541015625
1789582857063315200,3.001315185546875,-0.7513427734375,-0.2542877197265625,-0.072296142578125
1789582857073283000,3.011282958984375,-0.95745849609375,-0.221099853515625,-0.125244140625
1789582857083252200,3.021252197265625,-0.942779541015625,-0.292022705078125,0.0107269287109375
1789582857093220400,3.031220458984375,-1.0842437744140625,-0.126373291015625,0.0292816162109375
1789582857103188000,3.04118798828125,-1.0425567626953125,-0.1761627197265625,0.0988922119140625
1789582857113156000,3.051156005859375,-0.9338836669921875,-0.330322265625,0.0294952392578125
1789582857123125000,3.061125,-1.122314453125,-0.216583251953125,0.1963043212890625
1789582857133093000,3.071093017578125,-1.0233306884765625,-0.2858428955078125,0.1451568603515625
1789582857143061200,3.081061279296875,-0.9023284912109375,-0.29473876953125,0.0894775390625
1789582857153029000,3.091029052734375,-0.936309814453125,-0.262969970703125,0.0523223876953125
1789582857162997000,3.1009970703125,-0.9294281005859375,-0.329864501953125,-0.06085205078125
1789582857172966000,3.1109658203125,-0.905731201171875,-0.37567138671875,-0.1761627197265625
1789582857182934000,3.12093408203125,-0.991363525390625,-0.28271484375,-0.1309661865234375
1789582857192902100,3.130902099609375,-0.8639984130859375,-0.381744384765625,-0.131500244140625
1789582857202870000,3.1408701171875,-1.0430450439453125,-0.2821044921875,-0.1225128173828125
1789582857212839200,3.150839111328125,-1.0416259765625,-0.3100433349609375,0.0793304443359375
1789582857222807300,3.160807373046875,-1.076873779296875,-0.34326171875,0.0339813232421875
1789582857232775200,3.170775146484375,-1.0847015380859375,-0.2880096435546875,0.1290130615234375
1789582857242743000,3.180742919921875,-1.023712158203125,-0.302215576171875,0.1212158203125
1789582857252712000,3.1907119140625,-0.985931396484375,-0.3178863525390625,0.040008544921875
1789582857262680000,3.20068017578125,-0.9564971923828125,-0.30377197265625,0.06439208984375
1789582857272648200,3.210648193359375,-0.924530029296875,-0.300811767578125,0.124298095703125
1789582857282616000,3.220615966796875,-0.85980224609375,-0.3229217529296875,0.0121307373046875
1789582857292584200,3.230584228515625,-0.8572998046875,-0.2772064208984375,0.0829925537109375
1789582857302553000,3.240552978515625,-0.897735595703125,-0.2259368896484375,0.0652313232421875
1789582857312521200,3.250521240234375,-0.8117523193359375,-0.30535888671875,0.001129150390625
1789582857322489000,3.260489013671875,-0.9770660400390625,-0.16912841796875,0.066864013671875
1789582857332457000,3.27045703125,-0.993377685546875,-0.194854736328125,0.0596466064453125
1789582857342426000,3.280426025390625,-1.1397247314453125,-0.147186279296875,0.041015625
1789582857352394000,3.29039404296875,-1.062042236328125,-0.2407684326171875,0.173004150390625
1789582857362362000,3.300362060546875,-1.021514892578125,-0.2488250732421875,0.073150634765625
1789582857372330200,3.310330322265625,-1.0422210693359375,-0.2150726318359375,0.115020751953125
1789582857382298000,3.320298095703125,-1.061004638671875,-0.2521820068359375,0.0693206787109375
1789582857392267300,3.330267333984375,-0.931549072265625,-0.3512725830078125,0.0538177490234375
1789582857402235100,3.340235107421875,-0.9365386962890625,-0.2918243408203125,0.0334625244140625
1789582857412203000,3.350203125,-0.9780426025390625,-0.2444610595703125,-0.0135040283203125
1789582857422171100,3.360171142578125,-0.8781585693359375,-0.3165130615234375,-0.039276123046875
1789582857432139300,3.37013916015625,-0.9153594970703125,-0.2745361328125,0.099273681640625
1789582857442108200,3.380108154296875,-0.9854278564453125,-0.288970947265625,0.0075225830078125
1789582857452076300,3.390076171875,-0.9995269775390625,-0.285614013671875,0.132171630859375
1789582857462044000,3.4000439453125,-0.95660400390625,-0.2855682373046875,0.1077728271484375
1789582857472012000,3.410011962890625,-1.01031494140625,-0.256500244140625,0.0908203125
1789582857481981000,3.41998095703125,-0.9704742431640625,-0.303741455078125,0.082427978515625
1789582857491949000,3.429948974609375,-1.0110321044921875,-0.284454345703125,0.0314788818359375
1789582857501917200,3.439917236328125,-1.0980377197265625,-0.17779541015625,-0.0339202880859375
1789582857511885000,3.449885009765625,-0.961395263671875,-0.2290191650390625,0.061676025390625
1789582857521853200,3.459853271484375,-0.87664794921875,-0.3420562744140625,0.005828857421875
1789582857531822000,3.469822021484375,-0.8337860107421875,-0.3007659912109375,-0.04217529296875
1789582857541790000,3.4797900390625,-0.8095245361328125,-0.3929901123046875,-0.1519775390625
1789582857551758000,3.489758056640625,-0.8283843994140625,-0.3922119140625,-0.08551025390625
1789582857561726200,3.499726318359375,-0.8560638427734375,-0.306884765625,-0.0557861328125
1789582857571695000,3.509695068359375,-0.9231109619140625,-0.261810302734375,-0.02685546875
1789582857581663200,3.519663330078125,-0.8349761962890625,-0.3681793212890625,-0.0633392333984375
1789582857591630800,3.529630859375,-0.8910675048828125,-0.322235107421875,-0.03924560546875
1789582857601599000,3.539598876953125,-1.009552001953125,-0.2654571533203125,0.1294708251953125
1789582857611566800,3.54956689453125,-1.0315704345703125,-0.2451324462890625,0.040740966796875
1789582857621535700,3.55953564453125,-0.9213104248046875,-0.333984375,0.2439117431640625
1789582857631504000,3.56950390625,-0.960479736328125,-0.3213653564453125,0.1226806640625
1789582857641471700,3.5794716796875,-0.947418212890625,-0.2010650634765625,0.188751220703125
1789582857651439900,3.58943994140625,-0.8984527587890625,-0.294769287109375,0.1263885498046875
1789582857661408000,3.599407958984375,-0.91497802734375,-0.372955322265625,-0.032623291015625
1789582857671377000,3.609376953125,-1.073333740234375,-0.2776641845703125,-0.099090576171875
1789582857681345000,3.619344970703125,-1.0235137939453125,-0.31640625,0.0671539306640625
1789582857691313000,3.62931298828125,-0.980804443359375,-0.308837890625,-0.122894287109375
1789582857701280800,3.63928076171875,-0.913787841796875,-0.2726593017578125,0.06597900390625
1789582857711250000,3.64925,-0.9342193603515625,-0.2899017333984375,0.072967529296875
1789582857721217800,3.6592177734375,-0.88330078125,-0.3482513427734375,0.14837646484375
1789582857731186000,3.66918603515625,-0.9292144775390625,-0.3108062744140625,0.0697784423828125
1789582857741154000,3.679154052734375,-1.03204345703125,-0.238677978515625,0.0805511474609375
1789582857751121700,3.68912158203125,-1.0938720703125,-0.2664031982421875,-0.0195465087890625
1789582857761090800,3.6990908203125,-1.025787353515625,-0.301055908203125,0.149749755859375
1789582857771058700,3.70905859375,-1.0452728271484375,-0.2476043701171875,0.0298614501953125
1789582857781026800,3.71902685546875,-0.995269775390625,-0.2538909912109375,0.1609649658203125
1789582857790995000,3.728994873046875,-0.876068115234375,-0.3094635009765625,0.0276641845703125
1789582857800963800,3.7389638671875,-0.839141845703125,-0.2640380859375,0.0001678466796875
1789582857810932000,3.748931884765625,-0.829681396484375,-0.2876129150390625,-0.0476226806640625
1789582857820899800,3.75889990234375,-0.924041748046875,-0.18603515625,0.0027618408203125
1789582857830867700,3.76886767578125,-0.956695556640625,-0.196380615234375,0.005462646484375
1789582857840835800,3.7788359375,-1.0185394287109375,-0.1880340576171875,0.0783233642578125
1789582857850804700,3.7888046875,-1.1284637451171875,-0.17431640625,0.0305633544921875
1789582857860772900,3.79877294921875,-1.1970062255859375,-0.1766815185546875,0.053955078125
1789582857870741000,3.808740966796875,-1.04888916015625,-0.313201904296875,0.147979736328125
1789582857880708900,3.818708984375,-0.887054443359375,-0.3535919189453125,0.0238494873046875
1789582857890677000,3.828677001953125,-0.814300537109375,-0.300811767578125,0.1025238037109375
1789582857900646000,3.83864599609375,-0.667999267578125,-0.385955810546875,0.0059967041015625
1789582857910613800,3.84861376953125,-0.678314208984375,-0.4056854248046875,0.1016693115234375
1789582857920582000,3.858581787109375,-0.8505859375,-0.2602691650390625,0.074676513671875
1789582857930549800,3.8685498046875,-1.03753662109375,-0.1756744384765625,0.0777587890625
1789582857940518000,3.878517822265625,-0.9974517822265625,-0.2225494384765625,0.0254974365234375
1789582857950486800,3.88848681640625,-1.0554656982421875,-0.2425384521484375,0.0078582763671875
1789582857960455000,3.898454833984375,-1.129241943359375,-0.19732666015625,-0.1827239990234375
1789582857970423000,3.908423095703125,-1.08203125,-0.2535858154296875,-0.0456390380859375
1789582857980391000,3.918390869140625,-1.1890869140625,-0.163818359375,-0.0709991455078125
1789582857990359800,3.92835986328125,-0.99737548828125,-0.2996978759765625,-0.0275115966796875
1789582858000328000,3.938327880859375,-0.9228363037109375,-0.3474578857421875,0.08270263671875
1789582858010295800,3.9482958984375,-0.88470458984375,-0.286224365234375,-0.1524200439453125
1789582858020264000,3.958263916015625,-0.78729248046875,-0.411956787109375,-0.0129547119140625
1789582858030232000,3.968232177734375,-0.8601837158203125,-0.3083343505859375,-0.0153656005859375
1789582858040201000,3.978200927734375,-0.908477783203125,-0.2247314453125,-0.0152740478515625
1789582858050168800,3.9881689453125,-0.85247802734375,-0.307464599609375,0.011505126953125
1789582858060136700,3.99813671875,-0.933441162109375,-0.2673797607421875,-0.13037109375
1789582858070104800,4.008104736328125,-0.9818572998046875,-0.2738037109375,0.042724609375
1789582858080073000,4.018072998046875,-1.105133056640625,-0.2709197998046875,0.0462646484375
1789582858090041900,4.028041748046875,-0.9665985107421875,-0.375701904296875,0.0111846923828125
1789582858100010000,4.038010009765625,-0.960601806640625,-0.355499267578125,0.0748443603515625
1789582858109977900,4.047977783203125,-1.03302001953125,-0.232940673828125,0.0026397705078125
1789582858119945700,4.05794580078125,-0.8602752685546875,-0.350799560546875,-0.028472900390625
1789582858129913900,4.067913818359375,-0.834197998046875,-0.3223724365234375,0.043975830078125
1789582858139882800,4.0778828125,-0.961578369140625,-0.2353363037109375,-0.08270263671875
1789582858149851000,4.087850830078125,-0.992218017578125,-0.30267333984375,-0.0947723388671875
1789582858159819000,4.097819091796875,-0.9824066162109375,-0.3593902587890625,-0.0103302001953125
1789582858169787000,4.107786865234375,-1.060882568359375,-0.3108978271484375,0.0431365966796875
1789582858179755000,4.117755126953125,-0.96002197265625,-0.3524169921875,0.08514404296875
1789582858189724000,4.127723876953125,-0.9282379150390625,-0.3139495849609375,0.1106109619140625
1789582858199691800,4.13769189453125,-0.9673614501953125,-0.325592041015625,-0.02642822265625
1789582858209660000,4.147659912109375,-0.972015380859375,-0.3214263916015625,0.0625762939453125
1789582858219627800,4.157627685546875,-0.988677978515625,-0.3207244873046875,-0.0890045166015625
1789582858229597000,4.167596923828125,-0.8759765625,-0.34320068359375,0.061859130859375
1789582858239564800,4.177564697265625,-0.9919891357421875,-0.2356414794921875,0.0135345458984375
1789582858249533000,4.187532958984375,-0.985076904296875,-0.249237060546875,0.061065673828125
1789582858259501000,4.1975009765625,-0.9428558349609375,-0.2646331787109375,0.0687255859375
1789582858269468700,4.20746875,-0.913421630859375,-0.24700927734375,-0.1043701171875
1789582858279437800,4.217437744140625,-1.23406982421875,-0.0948333740234375,-0.0154876708984375
1789582858289405700,4.22740576171875,-1.3144683837890625,-0.0973968505859375,-0.004364013671875
1789582858299373800,4.237373779296875,0.079833984375,-0.633270263671875,-0.0650482177734375
1789582858309342000,4.247342041015625,-1.455169677734375,0.1897735595703125,-0.0220794677734375
1789582858319309800,4.257309814453125,-0.4295501708984375,-0.6884918212890625,-0.04217529296875
1789582858329279000,4.267279052734375,-0.9766082763671875,-0.315643310546875,-0.11431884765625
1789582858339246800,4.277246826171875,-1.2591552734375,0.0976715087890625,-0.007659912109375
1789582858349214700,4.287214599609375,-1.142333984375,-0.035980224609375,-0.2061004638671875
1789582858359182800,4.297182861328125,-0.9815826416015625,-0.4081878662109375,-0.1771392822265625
1789582858369151000,4.30715087890625,-1.0256195068359375,-0.3897705078125,-0.01617431640625
1789582858379119900,4.317119873046875,-0.985687255859375,-0.19927978515625,-0.1670684814453125
1789582858389088000,4.327087890625,-0.875152587890625,-0.11370849609375,-0.1355438232421875
1789582858399056000,4.337055908203125,-0.7539215087890625,-0.2515106201171875,-0.245513916015625
1789582858409023700,4.347023681640625,-0.9065399169921875,-0.3067779541015625,-0.1912384033203125
1789582858418991900,4.356991943359375,-1.0847015380859375,-0.188232421875,-0.1894989013671875
1789582858428960800,4.366960693359375,-1.16534423828125,-0.07550048828125,-0.1573486328125
1789582858438929000,4.376928955078125,-1.174652099609375,-0.128662109375,-0.1202850341796875
1789582858448896800,4.386896728515625,-0.95037841796875,-0.2994384765625,-0.088470458984375
1789582858458865000,4.396864990234375,-1.043731689453125,-0.2395172119140625,-0.0901031494140625
1789582858468833000,4.4068330078125,-0.906829833984375,-0.2694091796875,-0.1157379150390625
1789582858478802000,4.416802001953125,-0.8694305419921875,-0.312469482421875,0.00787353515625
1789582858488769800,4.426769775390625,-0.8483428955078125,-0.3044586181640625,-0.000762939453125
1789582858498738000,4.436738037109375,-0.78314208984375,-0.425933837890625,0.1040802001953125
1789582858508705800,4.446705810546875,-0.8383636474609375,-0.45025634765625,-0.017974853515625
1789582858518674000,4.456673828125,-1.016387939453125,-0.1945953369140625,-0.1482391357421875
1789582858528642800,4.466642822265625,-1.18243408203125,-0.0590667724609375,-0.037353515625
1789582858538611000,4.47661083984375,-0.9382781982421875,-0.4384918212890625,0.18658447265625
1789582858548579000,4.4865791015625,-0.962646484375,-0.3646697998046875,0.15045166015625
1789582858558546700,4.496546630859375,-1.0738983154296875,-0.1053924560546875,0.294891357421875
1789582858568514800,4.506514892578125,-0.912567138671875,-0.5586090087890625,-0.0084381103515625
1789582858578483700,4.516483642578125,-0.9105987548828125,-0.4535675048828125,0.004638671875
1789582858588452000,4.5264521484375,-0.95404052734375,-0.161102294921875,-0.070770263671875
1789582858598420000,4.536419921875,-0.9062652587890625,-0.2830047607421875,-0.051727294921875
1789582858608387800,4.546387939453125,-0.955169677734375,-0.3322601318359375,-0.076934814453125
1789582858618356000,4.55635595703125,-1.040283203125,-0.3130950927734375,0.0122528076171875
1789582858628324900,4.566324951171875,-0.9813385009765625,-0.2803192138671875,-0.0972137451171875
1789582858638293000,4.57629296875,-0.9498291015625,-0.2888946533203125,0.170166015625
1789582858648261000,4.58626123046875,-0.9507293701171875,-0.32403564453125,0.026702880859375
1789582858658229000,4.59622900390625,-0.9288177490234375,-0.3558349609375,0.0076751708984375
1789582858668196900,4.60619677734375,-0.9755096435546875,-0.3491363525390625,0.027679443359375
1789582858678166000,4.616166015625,-0.9262542724609375,-0.2542572021484375,0.0220794677734375
1789582858688134000,4.6261337890625,-0.871673583984375,-0.32855224609375,0.080474853515625
1789582858698102000,4.63610205078125,-0.8176116943359375,-0.34869384765625,0.0943603515625
1789582858708070100,4.646070068359375,-0.92266845703125,-0.2846221923828125,0.0669403076171875
1789582858718038000,4.6560380859375,-0.9273681640625,-0.233062744140625,0.0060577392578125
1789582858728007200,4.666007080078125,-1.03631591796875,-0.153839111328125,0.1400146484375
1789582858737974800,4.675974853515625,-1.0361328125,-0.1965789794921875,0.086334228515625
1789582858747943000,4.68594287109375,-1.038543701171875,-0.199920654296875,0.205078125
1789582858757911000,4.6959111328125,-1.01678466796875,-0.2023773193359375,0.133056640625
1789582858767879000,4.70587890625,-0.9072723388671875,-0.303680419921875,0.0847015380859375
1789582858777848000,4.71584814453125,-0.9063873291015625,-0.2823333740234375,0.0949249267578125
1789582858787816000,4.72581591796875,-1.00335693359375,-0.203521728515625,0.1183319091796875
1789582858797784000,4.7357841796875,-0.9758758544921875,-0.2382354736328125,0.0649871826171875
1789582858807752000,4.745751953125,-0.9540557861328125,-0.3551025390625,0.0581512451171875
1789582858817720000,4.755719970703125,-0.982421875,-0.28289794921875,0.0660552978515625
1789582858827689000,4.76568896484375,-0.985809326171875,-0.2367095947265625,0.1940460205078125
1789582858837657000,4.775656982421875,-0.9395294189453125,-0.2608795166015625,0.14666748046875
1789582858847625000,4.785625,-0.9974212646484375,-0.2489471435546875,0.1145782470703125
1789582858857593000,4.795593017578125,-0.928863525390625,-0.298126220703125,0.0475006103515625
1789582858867561200,4.805561279296875,-0.9966888427734375,-0.2147979736328125,0.1118316650390625
1789582858877530000,4.815530029296875,-1.018890380859375,-0.2288818359375,0.1398162841796875
1789582858887498000,4.825498046875,-0.9293975830078125,-0.2703857421875,-0.0681610107421875
1789582858897465900,4.8354658203125,-0.9297637939453125,-0.2045745849609375,0.108154296875
1789582858907434000,4.84543408203125,-0.77508544921875,-0.3648681640625,-0.0796051025390625
1789582858917402000,4.855402099609375,-0.9063720703125,-0.282867431640625,0.029327392578125
1789582858927370000,4.865369873046875,-0.9377288818359375,-0.1802215576171875,-0.021148681640625
1789582858937339100,4.875339111328125,-0.8912506103515625,-0.32275390625,-0.089630126953125
1789582858947307000,4.88530712890625,-0.949249267578125,-0.2569427490234375,0.0170745849609375
1789582858957275000,4.89527490234375,-1.067169189453125,-0.2261810302734375,-0.01055908203125
1789582858967243000,4.905242919921875,-0.9859466552734375,-0.274017333984375,0.0301361083984375
1789582858977211000,4.9152109375,-0.8733978271484375,-0.3158111572265625,0.0979766845703125
1789582858987180000,4.925179931640625,-0.799652099609375,-0.3111419677734375,0.09613037109375
1789582858997148200,4.935148193359375,-0.9561614990234375,-0.196014404296875,0.0767059326171875
1789582859007116000,4.945115966796875,-0.910308837890625,-0.3270416259765625,0.10272216796875
1789582859017084000,4.955083984375,-0.989349365234375,-0.2705535888671875,0.0727386474609375
1789582859027052000,4.965052001953125,-1.0518646240234375,-0.2905426025390625,0.1223297119140625
1789582859037021000,4.97502099609375,-1.0726776123046875,-0.2267303466796875,0.1887969970703125
1789582859046989000,4.984989013671875,-1.041900634765625,-0.2639923095703125,0.2342376708984375
1789582859056957000,4.99495703125,-1.0189361572265625,-0.2372283935546875,0.0652618408203125
1789582859066925000,5.004925048828125,-0.7635650634765625,-0.3784942626953125,0.1841278076171875
1789582859076893200,5.01489306640625,-0.8943939208984375,-0.2479095458984375,0.130828857421875
1789582859086862000,5.024862060546875,-0.9831390380859375,-0.2931365966796875,0.1451263427734375
1789582859096830000,5.034829833984375,-1.215118408203125,-0.231048583984375,0.1652374267578125
1789582859106797800,5.0447978515625,-0.8663482666015625,-0.3332366943359375,0.0980682373046875
1789582859116766000,5.054765869140625,-0.8583526611328125,-0.3579254150390625,0.020294189453125
1789582859126734000,5.064734130859375,-0.833404541015625,-0.3932952880859375,-0.11102294921875
1789582859136703000,5.074702880859375,-1.0092010498046875,-0.2998199462890625,-0.0279083251953125
1789582859146671000,5.084671142578125,-1.0023956298828125,-0.2586822509765625,-0.1345062255859375
1789582859156639000,5.094638916015625,-1.028656005859375,-0.2784576416015625,-0.1626434326171875
1789582859166606800,5.10460693359375,-1.034393310546875,-0.298797607421875,-0.0839385986328125
1789582859176575000,5.114574951171875,-0.9310760498046875,-0.2706451416015625,-0.0603485107421875
1789582859186543000,5.124543212890625,-0.96630859375,-0.199462890625,0.0249481201171875
1789582859196512000,5.134511962890625,-0.8525238037109375,-0.2570953369140625,-0.03948974609375
1789582859206480100,5.144480224609375,-0.9350738525390625,-0.161346435546875,-0.0428924560546875
1789582859216448000,5.154447998046875,-1.019012451171875,-0.200653076171875,-0.1071624755859375
1789582859226416000,5.164416015625,-1.0295257568359375,-0.217041015625,-0.0166015625
1789582859236384000,5.174384033203125,-1.0753326416015625,-0.20709228515625,0.0850830078125
1789582859246353000,5.184352783203125,-1.0139923095703125,-0.2324981689453125,-0.0248870849609375
1789582859256321000,5.194321044921875,-0.8495330810546875,-0.28271484375,-0.0152435302734375
1789582859266289000,5.204288818359375,-0.7442626953125,-0.276214599609375,-0.0368194580078125
1789582859276257000,5.214257080078125,-0.8046722412109375,-0.2614898681640625,-0.064208984375
1789582859286225200,5.22422509765625,-0.9417266845703125,-0.2238922119140625,-0.038909912109375
1789582859296194000,5.234194091796875,-1.176025390625,-0.1148529052734375,-0.2021331787109375
1789582859306162000,5.244161865234375,-1.1851806640625,-0.2420501708984375,-0.034515380859375
1789582859316130000,5.254130126953125,-1.17828369140625,-0.2279510498046875,0.0057830810546875
1789582859326098000,5.264097900390625,-1.030120849609375,-0.223541259765625,0.0054168701171875
1789582859336066000,5.274066162109375,-0.7309722900390625,-0.390289306640625,0.0416412353515625
1789582859346034200,5.2840341796875,-0.7326202392578125,-0.292083740234375,0.1212005615234375
1789582859356003000,5.294003173828125,-0.7180938720703125,-0.3079376220703125,0.1544189453125
1789582859365971200,5.30397119140625,-0.7854156494140625,-0.33392333984375,0.057769775390625
1789582859375938800,5.313938720703125,-0.947052001953125,-0.2072296142578125,0.0316314697265625
1789582859385907000,5.323906982421875,-1.0905609130859375,-0.1758575439453125,-0.050323486328125
1789582859395875000,5.333875,-1.2238616943359375,-0.1893768310546875,0.0055694580078125
1789582859405844000,5.343843994140625,-1.295379638671875,-0.170928955078125,0.091949462890625
1789582859415812000,5.35381201171875,-0.6176910400390625,-0.44561767578125,-0.1082000732421875
1789582859425780000,5.363780029296875,-0.8162994384765625,-0.4120330810546875,-0.062164306640625
1789582859435748000,5.373748046875,-0.882476806640625,-0.4061431884765625,-0.0811920166015625
1789582859445716000,5.383716064453125,-1.1573944091796875,-0.201751708984375,-0.0432891845703125
1789582859455684900,5.393684814453125,-1.228546142578125,-0.2172088623046875,0.0546722412109375
1789582859465653000,5.403653076171875,-0.9374847412109375,-0.3701324462890625,-0.045379638671875
1789582859475620900,5.413620849609375,-0.812835693359375,-0.38226318359375,-0.040130615234375
1789582859485589000,5.423589111328125,-0.86285400390625,-0.1937255859375,0.0357818603515625
1789582859495557000,5.43355712890625,-0.938507080078125,-0.2015228271484375,0.0357208251953125
1789582859505525000,5.44352490234375,-0.8514862060546875,-0.4078369140625,0.062103271484375
1789582859515494100,5.453494140625,-1.0914154052734375,-0.3907928466796875,-0.0926971435546875
1789582859525462000,5.4634619140625,-1.1061248779296875,-0.3248138427734375,-0.091278076171875
1789582859535430000,5.473429931640625,-1.002410888671875,-0.3017578125,-0.0395050048828125
1789582859545398000,5.48339794921875,-0.9372711181640625,-0.3413238525390625,-0.12725830078125
1789582859555366100,5.4933662109375,-0.846099853515625,-0.43731689453125,-0.1738128662109375
1789582859565334000,5.503333984375,-0.855133056640625,-0.3803558349609375,-0.1939239501953125
1789582859575303200,5.51330322265625,-0.8355865478515625,-0.329833984375,-0.1641693115234375
1789582859585270800,5.523270751953125,-0.90155029296875,-0.3152618408203125,0.0257415771484375
1789582859595239400,5.533239501953125,-0.9889984130859375,-0.228057861328125,-0.15997314453125
1789582859605207600,5.54320751953125,-0.9378814697265625,-0.4141387939453125,-0.0010833740234375
1789582859615175400,5.553175537109375,-1.037445068359375,-0.1472625732421875,-0.042022705078125
1789582859625144600,5.56314453125,-1.06298828125,-0.0502471923828125,-0.093414306640625
1789582859635112200,5.5731123046875,-0.896240234375,-0.3689422607421875,-0.1266326904296875
1789582859645080300,5.583080322265625,-1.091217041015625,-0.049041748046875,-0.117095947265625
1789582859655048400,5.59304833984375,-0.82354736328125,-0.281829833984375,-0.0337371826171875
1789582859665016300,5.603016357421875,-0.9597930908203125,-0.2360992431640625,-0.2065887451171875
1789582859674984400,5.612984375,-0.894561767578125,-0.1933441162109375,0.048614501953125
1789582859684953300,5.622953369140625,-0.88006591796875,-0.2086639404296875,-0.1379852294921875
1789582859694921200,5.632921142578125,-0.9555511474609375,-0.131866455078125,-0.047698974609375
1789582859704889300,5.642889404296875,-1.0094757080078125,-0.1945648193359375,-0.004638671875
1789582859714857200,5.652857177734375,-1.1234588623046875,-0.23223876953125,-0.0507354736328125
1789582859724825300,5.662825439453125,-1.3168182373046875,-0.140838623046875,0.0148468017578125
1789582859734794500,5.67279443359375,-1.1404876708984375,-0.2332611083984375,0.052764892578125
1789582859744762400,5.682762451171875,-0.8888702392578125,-0.4404449462890625,0.1093292236328125
1789582859754730500,5.69273046875,-0.757598876953125,-0.3584136962890625,0.1178131103515625
1789582859764698400,5.702698486328125,-0.739776611328125,-0.2735443115234375,0.0163116455078125
1789582859774666200,5.712666259765625,-0.7097320556640625,-0.2891082763671875,-0.028350830078125
1789582859784634400,5.72263427734375,-0.9013671875,-0.1418914794921875,-0.0293426513671875
1789582859794603300,5.732603271484375,-1.015960693359375,-0.2182159423828125,-0.0098876953125
1789582859804571400,5.7425712890625,-1.1209869384765625,-0.2388458251953125,0.028411865234375
1789582859814539500,5.75253955078125,-1.1439208984375,-0.1687469482421875,0.0297698974609375
1789582859824507400,5.76250732421875,-1.0894622802734375,-0.140472412109375,-0.0396270751953125
1789582859834475300,5.772475341796875,-0.9317474365234375,-0.348724365234375,0.0646514892578125
1789582859844444200,5.782444091796875,-0.9302978515625,-0.304107666015625,-0.0082550048828125
1789582859854412300,5.792412353515625,-0.90765380859375,-0.3300933837890625,0.118804931640625
1789582859864380400,5.80238037109375,-0.880340576171875,-0.290252685546875,0.1348724365234375
1789582859874348300,5.812348388671875,-0.9340667724609375,-0.287384033203125,0.0201416015625
1789582859884316400,5.82231640625,-0.990692138671875,-0.2636260986328125,0.1103515625
1789582859894284500,5.832284423828125,-0.9976348876953125,-0.2697601318359375,-0.032470703125
1789582859904253400,5.84225341796875,-0.867523193359375,-0.366851806640625,0.095306396484375
1789582859914221300,5.85222119140625,-0.844207763671875,-0.3607940673828125,0.0569915771484375
1789582859924189400,5.862189453125,-0.911224365234375,-0.34588623046875,0.088531494140625
1789582859934157300,5.8721572265625,-1.04803466796875,-0.2415313720703125,-0.03533935546875
1789582859944125400,5.88212548828125,-0.952362060546875,-0.325103759765625,-0.0645599365234375
1789582859954093600,5.892093505859375,-0.9771270751953125,-0.294036865234375,0.011566162109375
1789582859964062500,5.9020625,-1.0420074462890625,-0.20111083984375,0.0382537841796875
1789582859974030300,5.9120302734375,-1.0509033203125,-0.1529693603515625,-0.0828094482421875
1789582859983998200,5.921998291015625,-1.007232666015625,-0.2720489501953125,0.113006591796875
1789582859993966300,5.93196630859375,-1.0978546142578125,-0.2722320556640625,0.073638916015625
1789582860003934500,5.9419345703125,-1.0208282470703125,-0.2954864501953125,0.1851806640625
1789582860013902300,5.95190234375,-0.8246917724609375,-0.37615966796875,0.1322174072265625
1789582860023871500,5.96187158203125,-0.784576416015625,-0.322784423828125,0.1226806640625
1789582860033839400,5.97183935546875,-0.9265899658203125,-0.232269287109375,0.1063385009765625
1789582860043807200,5.98180712890625,-1.006439208984375,-0.273284912109375,0.1059417724609375
1789582860053775400,5.991775390625,-1.1153564453125,-0.220916748046875,0.108245849609375
1789582860063743200,6.0017431640625,-1.05706787109375,-0.29254150390625,-0.03533935546875
1789582860073711400,6.01171142578125,-0.90496826171875,-0.351470947265625,0.08135986328125
1789582860083680500,6.021680419921875,-0.89453125,-0.3112640380859375,0.030609130859375
1789582860093648400,6.0316484375,-0.833831787109375,-0.359527587890625,0.0584259033203125
1789582860103616500,6.041616455078125,-0.896575927734375,-0.2489471435546875,0.0144195556640625
1789582860113584400,6.05158447265625,-0.9943389892578125,-0.251922607421875,-0.1267242431640625
1789582860123552300,6.06155224609375,-1.1299285888671875,-0.2193603515625,-0.00872802734375
1789582860133521400,6.071521484375,-1.1474609375,-0.189910888671875,-0.1186370849609375
1789582860143489300,6.0814892578125,-0.868408203125,-0.397216796875,-0.02166748046875
1789582860153457400,6.09145751953125,-0.8408050537109375,-0.2842864990234375,-0.00140380859375
1789582860163425500,6.101425537109375,-0.820648193359375,-0.2497100830078125,-0.0206146240234375
1789582860173393400,6.111393310546875,-0.7433624267578125,-0.2326507568359375,0.0111541748046875
1789582860183361300,6.121361328125,-0.79345703125,-0.1602630615234375,-0.032318115234375
1789582860193330200,6.131330078125,-0.9244232177734375,-0.1977386474609375,-0.017913818359375
1789582860203298300,6.14129833984375,-1.038421630859375,-0.1790924072265625,0.06549072265625
1789582860213266400,6.151266357421875,-1.08740234375,-0.082733154296875,0.115264892578125
1789582860223234300,6.161234375,-1.1741790771484375,-0.0639190673828125,0.0742034912109375
1789582860233202400,6.171202392578125,-1.105987548828125,-0.197296142578125,0.0929107666015625
1789582860243170300,6.18117041015625,-1.121612548828125,-0.2418670654296875,0.0368804931640625
1789582860253139200,6.19113916015625,-0.9998626708984375,-0.321136474609375,0.0948638916015625
1789582860263107300,6.201107421875,-0.938079833984375,-0.2728424072265625,0.0814361572265625
1789582860273075500,6.211075439453125,-0.7856292724609375,-0.2996368408203125,0.049285888671875
1789582860283043300,6.221043212890625,-0.858734130859375,-0.2808380126953125,0.0505218505859375
1789582860293011500,6.231011474609375,-0.9292755126953125,-0.295379638671875,0.0179901123046875
1789582860302979600,6.2409794921875,-1.0011444091796875,-0.3382568359375,0.127685546875
1789582860312948500,6.250948486328125,-1.0295257568359375,-0.3543701171875,0.0811309814453125
1789582860322916400,6.260916259765625,-1.0320892333984375,-0.314361572265625,0.07720947265625
1789582860332884200,6.27088427734375,-0.8951568603515625,-0.38690185546875,-0.0626373291015625
1789582860342852400,6.280852294921875,-0.8093109130859375,-0.4041900634765625,-0.0183563232421875
1789582860352820500,6.290820556640625,-0.9732208251953125,-0.3031005859375,-0.1365203857421875
1789582860362788400,6.300788330078125,-0.958465576171875,-0.3091888427734375,-0.116546630859375
1789582860372757500,6.310757568359375,-0.92388916015625,-0.33270263671875,-0.145233154296875
1789582860382725400,6.320725341796875,-0.876922607421875,-0.334136962890625,0.0384979248046875
1789582860392693200,6.330693359375,-0.880859375,-0.2860565185546875,-0.1318359375
1789582860402661400,6.340661376953125,-0.8885345458984375,-0.3157196044921875,-0.0801849365234375
1789582860412629200,6.350629150390625,-0.9244842529296875,-0.3110504150390625,-0.0639190673828125
1789582860422597400,6.360597412109375,-1.0181884765625,-0.227081298828125,-0.0206756591796875
1789582860432566500,6.37056640625,-1.0769805908203125,-0.24542236328125,0.0066680908203125
1789582860442534400,6.380534423828125,-1.08154296875,-0.282257080078125,-0.0583648681640625
1789582860452502300,6.390502197265625,-1.1400604248046875,-0.1919097900390625,0.00750732421875
1789582860462470400,6.400470458984375,-0.9872283935546875,-0.2455902099609375,0.00531005859375
1789582860472438300,6.410438232421875,-0.8543243408203125,-0.2544097900390625,0.0520172119140625
1789582860482406400,6.420406494140625,-0.789886474609375,-0.3113861083984375,-0.013946533203125
1789582860492375300,6.430375244140625,-0.88665771484375,-0.2142791748046875,0.0448150634765625
1789582860502343400,6.440343505859375,-0.952972412109375,-0.227508544921875,0.0154876708984375
1789582860512311600,6.4503115234375,-1.1172332763671875,-0.1736602783203125,0.021209716796875
1789582860522279200,6.460279052734375,-1.216888427734375,-0.1380767822265625,-0.0800628662109375
1789582860532247300,6.470247314453125,-0.984100341796875,-0.332763671875,-0.0054779052734375
1789582860542215400,6.48021533203125,-1.079193115234375,-0.15570068359375,0.126312255859375
1789582860552184300,6.490184326171875,-0.937591552734375,-0.2897796630859375,-0.0283660888671875
1789582860562152400,6.50015234375,-0.8072967529296875,-0.3498382568359375,0.03204345703125
1789582860572120300,6.510120361328125,-0.83172607421875,-0.2372589111328125,-0.049407958984375
1789582860582088400,6.52008837890625,-0.8341827392578125,-0.251983642578125,0.11651611328125
1789582860592055800,6.530055908203125,-0.867523193359375,-0.2629241943359375,0.0501556396484375
1789582860602024000,6.54002392578125,-1.0238800048828125,-0.161041259765625,0.0060272216796875
1789582860611991800,6.54999169921875,-1.08123779296875,-0.2021026611328125,-0.1154327392578125
1789582860621961000,6.5599609375,-1.0515899658203125,-0.310638427734375,-0.0714111328125
1789582860631928600,6.569928466796875,-1.0217132568359375,-0.2502593994140625,-0.1288604736328125
1789582860641896700,6.579896728515625,-0.944122314453125,-0.27301025390625,-0.0235595703125
1789582860651864800,6.58986474609375,-1.0030975341796875,-0.141082763671875,-0.0665283203125
1789582860661832700,6.599832763671875,-0.88153076171875,-0.193328857421875,-0.05419921875
1789582860671800800,6.60980078125,-0.985504150390625,-0.183624267578125,-0.0165252685546875
1789582860681769700,6.619769775390625,-1.0296783447265625,-0.2046966552734375,-0.0684661865234375
1789582860691737900,6.62973779296875,-0.8836212158203125,-0.2783050537109375,0.077484130859375
1789582860701705700,6.639705810546875,-0.8099365234375,-0.393890380859375,0.2070465087890625
1789582860711673900,6.649673828125,-0.987884521484375,-0.2607879638671875,0.0157470703125
1789582860721641700,6.659641845703125,-1.0143585205078125,-0.2333831787109375,-0.0114898681640625
1789582860731609900,6.66960986328125,-0.90179443359375,-0.4156494140625,-0.027191162109375
1789582860741578800,6.679578857421875,-1.034637451171875,-0.32147216796875,0.0314788818359375
1789582860751547000,6.689546875,-0.973480224609375,-0.3221893310546875,0.00732421875
1789582860761515000,6.699514892578125,-0.8927001953125,-0.33331298828125,-0.0169525146484375
1789582860771482600,6.709482666015625,-0.892608642578125,-0.265380859375,0.0083770751953125
1789582860781450800,6.71945068359375,-0.924163818359375,-0.3370361328125,0.0215606689453125
1789582860791419000,6.7294189453125,-0.938690185546875,-0.389007568359375,0.0887451171875
1789582860801387800,6.7393876953125,-1.0125885009765625,-0.303741455078125,0.0028839111328125
1789582860811356000,6.74935595703125,-1.020782470703125,-0.312255859375,-0.0036468505859375
1789582860821323800,6.75932373046875,-1.09332275390625,-0.22735595703125,0.1318206787109375
1789582860831291600,6.769291748046875,-0.9960784912109375,-0.3070526123046875,0.0872955322265625
1789582860841259800,6.779259765625,-1.0302581787109375,-0.212982177734375,0.01861572265625
1789582860851227600,6.7892275390625,-0.9213104248046875,-0.269134521484375,0.0154876708984375
1789582860861195800,6.79919580078125,-0.84136962890625,-0.311981201171875,-0.0406341552734375
1789582860871164700,6.80916455078125,-0.834197998046875,-0.208526611328125,0.0034942626953125
1789582860881132800,6.8191328125,-0.9886474609375,-0.1292877197265625,0.1333160400390625
1789582860891101000,6.829100830078125,-1.0486602783203125,-0.19610595703125,-0.0794525146484375
1789582860901068800,6.83906884765625,-1.136505126953125,-0.119384765625,0.007080078125
1789582860911036700,6.84903662109375,-1.0780487060546875,-0.2830657958984375,-0.0575103759765625
1789582860921004800,6.8590048828125,-0.95867919921875,-0.279052734375,0.0173187255859375
1789582860930973700,6.8689736328125,-0.85894775390625,-0.318206787109375,0.0696258544921875
1789582860940941800,6.87894189453125,-0.87689208984375,-0.315887451171875,0.0332489013671875
1789582860950910000,6.888909912109375,-0.8919677734375,-0.2337493896484375,-0.029754638671875
1789582860960877800,6.8988779296875,-0.866912841796875,-0.2641754150390625,-0.0798187255859375
1789582860970845700,6.908845703125,-0.86932373046875,-0.2840576171875,-0.0495147705078125
1789582860980813800,6.918813720703125,-0.9107513427734375,-0.2474517822265625,0.0288848876953125
1789582860990781700,6.92878173828125,-0.9586029052734375,-0.20599365234375,-0.0007781982421875
1789582861000750800,6.938750732421875,-1.0445098876953125,-0.2354583740234375,0.000762939453125
1789582861010718700,6.94871875,-1.1464385986328125,-0.1539459228515625,-0.0087127685546875
1789582861020686800,6.958686767578125,-1.1085662841796875,-0.2073211669921875,0.0511322021484375
1789582861030654700,6.96865478515625,-1.06439208984375,-0.1814727783203125,0.133575439453125
1789582861040622600,6.97862255859375,-0.9871978759765625,-0.1903228759765625,0.1373443603515625
1789582861050590700,6.9885908203125,-0.906707763671875,-0.23150634765625,0.087371826171875
1789582861060560000,6.998559814453125,-0.9253692626953125,-0.252044677734375,0.1085357666015625
1789582861070527700,7.00852783203125,-0.92645263671875,-0.2972869873046875,0.1479339599609375
1789582861080495900,7.018495849609375,-0.9105072021484375,-0.347747802734375,0.0717926025390625
1789582861090464000,7.028464111328125,-0.99713134765625,-0.3156280517578125,0.09027099609375
1789582861100431600,7.038431640625,-0.9921722412109375,-0.2701416015625,0.093780517578125
1789582861110399700,7.048399658203125,-0.9150390625,-0.311981201171875,0.021636962890625
1789582861120367900,7.058367919921875,-0.92205810546875,-0.308837890625,-0.0499420166015625
1789582861130336800,7.068336669921875,-0.914306640625,-0.320770263671875,-0.0813446044921875
1789582861140305000,7.078304931640625,-0.8780670166015625,-0.3301239013671875,-0.0230560302734375
1789582861150895900,7.088895751953125,-0.81402587890625,-0.347412109375,-0.0634613037109375
1789582861160864000,7.098864013671875,-0.9530792236328125,-0.293426513671875,-0.063262939453125
1789582861170831600,7.10883154296875,-1.02337646484375,-0.312408447265625,-0.16680908203125
1789582861180799700,7.1187998046875,-0.9961395263671875,-0.3173980712890625,-0.131591796875
1789582861190767900,7.128767822265625,-0.9740753173828125,-0.3267974853515625,-0.13836669921875
1789582861200736800,7.13873681640625,-1.0261688232421875,-0.3560333251953125,-0.0642242431640625
1789582861210705000,7.148704833984375,-0.97283935546875,-0.37060546875,-0.1932220458984375
1789582861220672800,7.1586728515625,-0.97003173828125,-0.289398193359375,0.0357818603515625
1789582861230641000,7.168640869140625,-0.9394073486328125,-0.268707275390625,-0.050933837890625
1789582861240608800,7.17860888671875,-0.896270751953125,-0.30157470703125,-0.13604736328125
1789582861250576600,7.18857666015625,-0.940643310546875,-0.171600341796875,0.0081634521484375
1789582861260545800,7.1985458984375,-0.9862518310546875,-0.20745849609375,0.0220794677734375
1789582861270513700,7.208513671875,-1.0519866943359375,-0.1584930419921875,0.063995361328125
1789582861280481800,7.218481689453125,-1.1534423828125,-0.1761016845703125,0.0347137451171875
1789582861290450000,7.228449951171875,-1.1309356689453125,-0.2425689697265625,-0.0635833740234375
1789582861300417800,7.238417724609375,-0.9998016357421875,-0.2049102783203125,0.0906829833984375
1789582861310385700,7.2483857421875,-0.711761474609375,-0.3360748291015625,0.0579986572265625
1789582861320353800,7.258353759765625,-0.8143768310546875,-0.2311553955078125,-0.01092529296875
1789582861330322700,7.26832275390625,-0.8021392822265625,-0.217681884765625,0.0458221435546875
1789582861340290800,7.278290771484375,-0.9549560546875,-0.2009735107421875,-0.0422515869140625
1789582861350259000,7.288259033203125,-0.985504150390625,-0.258392333984375,0.205291748046875
1789582861360226800,7.298226806640625,-1.1057281494140625,-0.1874237060546875,-0.0132293701171875
1789582861370194700,7.308194580078125,-0.99163818359375,-0.3448333740234375,-0.004364013671875
1789582861380162800,7.318162841796875,-1.0189971923828125,-0.2240142822265625,-0.0185546875
1789582861390130700,7.328130615234375,-1.0244598388671875,-0.2191619873046875,0.0466156005859375
1789582861400099800,7.338099853515625,-1.0050811767578125,-0.2007598876953125,0.1050262451171875
1789582861410067700,7.348067626953125,-0.986114501953125,-0.1707000732421875,0.084320068359375
1789582861420035800,7.358035888671875,-0.9832763671875,-0.2029876708984375,0.0382080078125
1789582861430004000,7.36800390625,-0.9484405517578125,-0.21563720703125,-0.0174560546875
1789582861439971600,7.3779716796875,-0.94140625,-0.233917236328125,0.0257415771484375
1789582861449939700,7.387939697265625,-0.942169189453125,-0.24298095703125,0.0293121337890625
1789582861459907800,7.397907958984375,-0.924652099609375,-0.27215576171875,0.0518798828125
1789582861469876700,7.407876708984375,-0.948699951171875,-0.2485504150390625,-0.012786865234375
1789582861479844900,7.417844970703125,-0.9345550537109375,-0.2118988037109375,-0.0548095703125
1789582861489812700,7.427812744140625,-0.9577484130859375,-0.2334442138671875,-0.055633544921875
1789582861499780900,7.43778076171875,-1.0370941162109375,-0.16876220703125,-0.18145751953125
1789582861509748700,7.447748779296875,-1.024688720703125,-0.2846221923828125,0.102081298828125
1789582861519716900,7.457716796875,-0.9354248046875,-0.3977508544921875,-0.029754638671875
1789582861529685800,7.467685791015625,-0.9231719970703125,-0.3272857666015625,0.047607421875
1789582861539654000,7.47765380859375,-0.847991943359375,-0.3550872802734375,0.0399932861328125
1789582861549621800,7.487621826171875,-0.855194091796875,-0.3433837890625,-0.0936279296875
1789582861559590000,7.49758984375,-0.861083984375,-0.262603759765625,0.1874542236328125
1789582861570180900,7.508180908203125,-1.0206298828125,-0.23974609375,0.069580078125
1789582861580148700,7.518148681640625,-1.0455169677734375,-0.2706298828125,0.0357513427734375
1789582861590116400,7.528116455078125,-1.089935302734375,-0.2515106201171875,0.09033203125
1789582861600085200,7.538085205078125,-1.011566162109375,-0.334716796875,0.0891876220703125
1789582861610053400,7.548053466796875,-0.917510986328125,-0.3312225341796875,-0.006988525390625
1789582861620021200,7.558021240234375,-0.9214630126953125,-0.238006591796875,0.1739501953125
1789582861629989400,7.5679892578125,-1.00177001953125,-0.2220916748046875,0.028076171875
1789582861639957500,7.57795751953125,-1.057098388671875,-0.2295684814453125,0.0789337158203125
1789582861649925400,7.58792529296875,-1.153594970703125,-0.255645751953125,0.1000518798828125
1789582861659893200,7.597893310546875,-1.1583709716796875,-0.3144989013671875,0.107696533203125
1789582861669862100,7.607862060546875,-1.0240478515625,-0.2478179931640625,0.1119384765625
1789582861679830300,7.617830322265625,-0.8007965087890625,-0.3607940673828125,0.02325439453125
1789582861689798400,7.62779833984375,-0.7848663330078125,-0.3286895751953125,0.0412139892578125
1789582861699766300,7.637766357421875,-0.9169158935546875,-0.24188232421875,0.0926971435546875
1789582861709734400,7.647734375,-0.8673858642578125,-0.3248291015625,0.077056884765625
1789582861719702500,7.65770263671875,-0.81396484375,-0.2957000732421875,0.1191864013671875
1789582861729670400,7.66767041015625,-0.98590087890625,-0.21649169921875,0.0064239501953125
1789582861739639300,7.677639404296875,-1.059478759765625,-0.250030517578125,-0.0269775390625
1789582861749607400,7.687607421875,-1.138458251953125,-0.1731414794921875,0.0031890869140625
1789582861759575300,7.6975751953125,-1.051605224609375,-0.2342376708984375,0.015777587890625
1789582861769543400,7.70754345703125,-1.03118896484375,-0.1744384765625,-0.0145263671875
1789582861779511600,7.717511474609375,-0.9378662109375,-0.1489105224609375,0.01190185546875
1789582861789479200,7.727479248046875,-1.0012359619140625,-0.092620849609375,-0.044403076171875
1789582861799448300,7.7374482421875,-0.9564971923828125,-0.1207427978515625,-0.02789306640625
1789582861809416200,7.747416259765625,-0.834991455078125,-0.244659423828125,0.0405120849609375
1789582861819384300,7.75738427734375,-0.916473388671875,-0.25872802734375,-0.069122314453125
1789582861829352400,7.7673525390625,-1.1603851318359375,-0.1690673828125,0.1051483154296875
1789582861839320300,7.7773203125,-1.273529052734375,-0.1235809326171875,0.1425018310546875
1789582861849288400,7.787288330078125,-1.0125885009765625,-0.2481231689453125,0.1175994873046875
1789582861859256300,7.79725634765625,-0.756072998046875,-0.3633575439453125,-0.127105712890625
1789582861869225200,7.80722509765625,-0.72552490234375,-0.332763671875,-0.09576416015625
1789582861879193300,7.817193359375,-0.72515869140625,-0.2984771728515625,-0.0052490234375
1789582861889161500,7.827161376953125,-0.766082763671875,-0.29833984375,-0.0805511474609375
1789582861899129300,7.83712939453125,-0.9115447998046875,-0.3296661376953125,0.0169525146484375
1789582861909097500,7.847097412109375,-1.13555908203125,-0.3243560791015625,-0.1778411865234375
1789582861919065600,7.857065673828125,-1.1691741943359375,-0.2474517822265625,-0.0255126953125
1789582861929034500,7.867034423828125,-1.044952392578125,-0.2847747802734375,-0.018035888671875
1789582861939002400,7.87700244140625,-1.01617431640625,-0.383575439453125,-0.1360015869140625
1789582861948970200,7.88697021484375,-1.0061492919921875,-0.366485595703125,-0.103546142578125
1789582861958938400,7.8969384765625,-0.9447784423828125,-0.3382110595703125,-0.0963287353515625
1789582861968906500,7.906906494140625,-0.7588653564453125,-0.4223785400390625,-0.09466552734375
1789582861978874400,7.916874267578125,-0.72540283203125,-0.3701324462890625,-0.0718231201171875
1789582861988842500,7.926842529296875,-0.908935546875,-0.230072021484375,-0.04534912109375
1789582861998811400,7.936811279296875,-0.9267120361328125,-0.2601470947265625,-0.020172119140625
1789582862008779300,7.946779296875,-0.955841064453125,-0.2373199462890625,0.017913818359375
1789582862018747400,7.956747314453125,-0.9839324951171875,-0.32281494140625,-0.0853118896484375
1789582862028715300,7.96671533203125,-1.2005462646484375,-0.16778564453125,0.03118896484375
1789582862038683400,7.976683349609375,-1.0502166748046875,-0.1778717041015625,0.081939697265625
1789582862048651500,7.986651611328125,-0.842254638671875,-0.24041748046875,0.0320587158203125
1789582862058620400,7.996620361328125,-0.9411468505859375,-0.1101531982421875,-0.0078277587890625
1789582862068588300,8.00658837890625,-0.929107666015625,-0.1818695068359375,-0.041351318359375
1789582862078556400,8.016556396484376,-0.9181365966796875,-0.2597808837890625,0.063323974609375
1789582862088524300,8.026524169921874,-0.994354248046875,-0.21063232421875,0.1031036376953125
1789582862098492400,8.036492431640625,-0.937591552734375,-0.340850830078125,-0.0968017578125
1789582862108460500,8.04646044921875,-1.0889892578125,-0.264068603515625,-0.0218048095703125
1789582862118428400,8.056428466796875,-1.3265380859375,-0.129547119140625,-0.0167236328125
1789582862128397600,8.0663974609375,-1.1608428955078125,-0.2059783935546875,0.0540924072265625
1789582862138365200,8.076365234375,-0.8326416015625,-0.25775146484375,-0.0412139892578125
1789582862148333300,8.086333251953125,-0.7118377685546875,-0.19561767578125,-0.003814697265625
1789582862158301400,8.096301513671875,-0.71844482421875,-0.105133056640625,0.027587890625
1789582862168269300,8.106269287109376,-0.87060546875,-0.0921478271484375,0.027435302734375
1789582862178237400,8.116237548828124,-1.037933349609375,-0.1656036376953125,-0.08038330078125
1789582862188206300,8.126206298828125,-1.1076812744140625,-0.2105560302734375,-0.0210418701171875
1789582862198174500,8.136174560546875,-1.01171875,-0.224334716796875,0.0343017578125
1789582862208142300,8.146142333984375,-1.0139923095703125,-0.1852569580078125,-0.147613525390625
1789582862218110200,8.156110107421876,-0.9485626220703125,-0.2033538818359375,-0.060150146484375
1789582862228078300,8.166078369140624,-0.965728759765625,-0.2121124267578125,-0.167144775390625
1789582862238046500,8.17604638671875,-0.946929931640625,-0.277679443359375,-0.125640869140625
1789582862248014300,8.186014404296875,-0.871307373046875,-0.284881591796875,-0.0024261474609375
1789582862257983500,8.1959833984375,-0.90679931640625,-0.3818206787109375,-0.1048736572265625
1789582862267951400,8.205951416015624,-0.9542083740234375,-0.491943359375,0.1150360107421875
1789582862277919200,8.215919189453125,-1.000213623046875,-0.337188720703125,-0.0737457275390625
1789582862287887400,8.225887451171875,-0.8155517578125,-0.3953399658203125,-0.0473175048828125
1789582862297855500,8.23585546875,-0.77508544921875,-0.424896240234375,0.0642242431640625
1789582862307823400,8.2458232421875,-0.993988037109375,-0.3026580810546875,0.1728363037109375
1789582862317792500,8.25579248046875,-1.1119842529296875,-0.2601776123046875,0.109466552734375
1789582862327760400,8.265760498046875,-1.1594696044921875,-0.1934967041015625,0.060516357421875
1789582862337728300,8.275728271484375,-1.053924560546875,-0.2335968017578125,-0.0941314697265625
1789582862347696400,8.2856962890625,-0.924560546875,-0.2957611083984375,0.0568389892578125
1789582862357664300,8.295664306640624,-0.86944580078125,-0.3590240478515625,0.001434326171875
1789582862367632400,8.30563232421875,-0.850006103515625,-0.29119873046875,0.0822906494140625
1789582862377600500,8.3156005859375,-1.00848388671875,-0.1719512939453125,-0.082916259765625
1789582862387569400,8.3255693359375,-1.10400390625,-0.1511688232421875,0.1129608154296875
1789582862397537500,8.33553759765625,-1.0811767578125,-0.2012786865234375,-0.02349853515625
1789582862407505200,8.345505126953125,-0.8453369140625,-0.2803192138671875,0.111053466796875
1789582862417473300,8.355473388671875,-0.8497314453125,-0.2123565673828125,0.080902099609375
1789582862427441400,8.36544140625,-0.9323883056640625,-0.193572998046875,0.1513519287109375
1789582862437409300,8.3754091796875,-0.9665679931640625,-0.218170166015625,0.0959930419921875
1789582862447378400,8.38537841796875,-0.9713134765625,-0.22210693359375,0.1815643310546875
1789582862457346600,8.3953466796875,-0.990814208984375,-0.312652587890625,-0.056427001953125
1789582862467314400,8.405314453125,-1.0730438232421875,-0.26141357421875,0.066925048828125
1789582862477282300,8.4152822265625,-1.1158447265625,-0.2089691162109375,0.008819580078125
1789582862487250400,8.42525048828125,-1.0247039794921875,-0.270904541015625,0.0444793701171875
1789582862497218300,8.43521826171875,-0.9422149658203125,-0.3174591064453125,0.023193359375
1789582862507186400,8.4451865234375,-0.896881103515625,-0.27142333984375,0.0176849365234375
1789582862517155300,8.4551552734375,-0.83697509765625,-0.2335662841796875,0.0503387451171875
1789582862527123500,8.46512353515625,-0.781707763671875,-0.2516937255859375,0.07244873046875
1789582862537091300,8.47509130859375,-0.7262725830078125,-0.313018798828125,0.073883056640625
1789582862547059200,8.48505908203125,-0.7704315185546875,-0.229736328125,0.042144775390625
1789582862557027300,8.49502734375,-0.9061279296875,-0.191314697265625,0.156585693359375
1789582862566995500,8.504995361328126,-1.159698486328125,-0.070587158203125,0.15875244140625
1789582862576964400,8.51496435546875,-1.26776123046875,-0.0755462646484375,0.013671875
1789582862586932500,8.524932373046875,-1.2861175537109375,-0.1185302734375,-0.021636962890625
1789582862596901400,8.5349013671875,-1.1543731689453125,-0.204620361328125,0.0604400634765625
1789582862606869500,8.544869384765626,-0.964996337890625,-0.2136688232421875,0.0588836669921875
1789582862616837400,8.55483740234375,-0.7463531494140625,-0.3814849853515625,-0.0264739990234375
1789582862626805200,8.56480517578125,-0.7452850341796875,-0.4315338134765625,0.0171356201171875
1789582862636773400,8.5747734375,-0.8850555419921875,-0.3788299560546875,-0.113250732421875
1789582862646742300,8.5847421875,-0.8725433349609375,-0.3878021240234375,0.0348358154296875
1789582862656710400,8.59471044921875,-0.8936004638671875,-0.4058380126953125,-0.039886474609375
1789582862666678500,8.604678466796875,-1.0311737060546875,-0.3446807861328125,-0.0759735107421875
1789582862676646400,8.614646484375,-1.0089263916015625,-0.3010406494140625,-0.00927734375
1789582862686614500,8.624614501953126,-1.0620574951171875,-0.2962188720703125,-0.1175689697265625
1789582862696582400,8.63458251953125,-0.9887847900390625,-0.276702880859375,-0.1915130615234375
1789582862706550300,8.64455029296875,-0.9552764892578125,-0.2858123779296875,-0.1403350830078125
1789582862716519400,8.65451953125,-0.9007720947265625,-0.297576904296875,-0.0896453857421875
1789582862726487300,8.6644873046875,-0.9019775390625,-0.2352752685546875,-0.1508026123046875
1789582862736455400,8.674455322265626,-0.914642333984375,-0.332122802734375,-0.21820068359375
1789582862746423600,8.684423583984374,-1.157470703125,-0.2643280029296875,-0.1179351806640625
1789582862756391400,8.694391357421875,-1.2446441650390625,-0.282318115234375,-0.0651092529296875
1789582862766359300,8.704359375,-1.0158843994140625,-0.410064697265625,0.0367889404296875
1789582862776328400,8.714328369140626,-0.7391510009765625,-0.364288330078125,0.0314178466796875
1789582862786296300,8.72429638671875,-0.5541534423828125,-0.397705078125,0.0412139892578125
1789582862796264400,8.734264404296875,-0.60589599609375,-0.2623443603515625,0.23046875
1789582862806232600,8.744232666015625,-0.913330078125,-0.115936279296875,0.054412841796875
1789582862816200400,8.754200439453125,-1.0092926025390625,-0.2098541259765625,0.0513458251953125
1789582862826168300,8.764168212890626,-1.2115020751953125,-0.1239013671875,0.1290740966796875
1789582862836137200,8.77413720703125,-1.145233154296875,-0.1952972412109375,0.0693206787109375
1789582862846105300,8.784105224609375,-1.192108154296875,-0.1471099853515625,0.132843017578125
1789582862856073500,8.794073486328125,-1.1283111572265625,-0.12310791015625,0.124359130859375
1789582862866041300,8.804041259765626,-1.007843017578125,-0.154876708984375,0.1590728759765625
1789582862876009500,8.814009521484374,-1.000152587890625,-0.2133636474609375,0.139923095703125
1789582862885977600,8.8239775390625,-0.9485931396484375,-0.288360595703125,0.0238037109375
1789582862895945200,8.8339453125,-0.83892822265625,-0.253173828125,0.016387939453125
1789582862905914400,8.843914306640626,-0.8390655517578125,-0.2298431396484375,0.16937255859375
1789582862915882200,8.85388232421875,-0.8276824951171875,-0.2326812744140625,0.1798095703125
1789582862925850400,8.863850341796875,-1.0158233642578125,-0.18951416015625,-0.0141754150390625
1789582862935818500,8.873818603515625,-1.022430419921875,-0.1676788330078125,-0.0711517333984375
1789582862945786400,8.883786376953125,-1.040924072265625,-0.1660308837890625,-0.0435638427734375
1789582862955754500,8.89375439453125,-0.9351043701171875,-0.182830810546875,0.0239715576171875
1789582862965722400,8.903722412109374,-0.947784423828125,-0.1652374267578125,-0.01043701171875
1789582862975691300,8.913691162109375,-0.9441375732421875,-0.3031005859375,-0.039642333984375
1789582862985659400,8.923659423828125,-1.0329437255859375,-0.303497314453125,-0.0016632080078125
1789582862995627500,8.93362744140625,-0.9765472412109375,-0.3934783935546875,-0.1317138671875
1789582863005595400,8.943595458984374,-0.8885955810546875,-0.5186309814453125,-0.108642578125
1789582863015563500,8.9535634765625,-0.820648193359375,-0.4441680908203125,-0.03118896484375
1789582863025531400,8.963531494140625,-0.9050140380859375,-0.296875,-0.1281585693359375
1789582863035500500,8.97350048828125,-0.8992919921875,-0.3797760009765625,-0.055084228515625
1789582863045468400,8.983468505859374,-0.986785888671875,-0.3675537109375,0.0439453125
1789582863055436300,8.993436279296875,-0.9243011474609375,-0.427703857421875,0.0964508056640625
1789582863065404400,9.003404296875,-0.8716278076171875,-0.3923492431640625,-0.020111083984375
1789582863075372500,9.01337255859375,-0.8129425048828125,-0.25592041015625,0.0905303955078125
1789582863085340400,9.02334033203125,-0.8734588623046875,-0.2388763427734375,-0.0773162841796875
1789582863095308300,9.033308349609374,-1.0888671875,-0.174896240234375,0.0887908935546875
1789582863105277200,9.043277099609375,-1.3014678955078125,-0.1381988525390625,0.02691650390625
1789582863115245300,9.053245361328125,-1.0447998046875,-0.2841339111328125,0.0796966552734375
1789582863125213400,9.06321337890625,-0.87353515625,-0.2142791748046875,0.0523834228515625
1789582863135181300,9.073181396484374,-0.8388671875,-0.152801513671875,-0.1068115234375
1789582863145149400,9.0831494140625,-0.7427520751953125,-0.287017822265625,0.0150909423828125
1789582863155117600,9.09311767578125,-1.001739501953125,-0.18389892578125,-0.0993194580078125
1789582863165086500,9.10308642578125,-1.05401611328125,-0.2674560546875,-0.044097900390625
1789582863175054300,9.113054443359376,-1.0816802978515625,-0.1630706787109375,-0.107940673828125
1789582863185022500,9.1230224609375,-0.9505767822265625,-0.2576751708984375,-0.0558624267578125
1789582863194990300,9.132990234375,-1.1084136962890625,-0.1191864013671875,0.0589752197265625
1789582863204958500,9.14295849609375,-1.0712127685546875,-0.170257568359375,0.0493621826171875
1789582863214926600,9.152926513671876,-1.0234527587890625,-0.281005859375,0.0774078369140625
1789582863224894500,9.16289453125,-1.1461334228515625,-0.261138916015625,0.0803070068359375
1789582863234863600,9.172863525390625,-0.994354248046875,-0.3261871337890625,0.0664825439453125
1789582863244831200,9.182831298828125,-0.90020751953125,-0.3122711181640625,-0.001861572265625
1789582863254799400,9.19279931640625,-0.7957611083984375,-0.2984466552734375,0.0223541259765625
1789582863264767500,9.202767578125,-0.7468719482421875,-0.3554840087890625,0.0367889404296875
1789582863274735400,9.2127353515625,-0.9122314453125,-0.2102813720703125,-0.0080413818359375
1789582863284703500,9.222703369140625,-0.994781494140625,-0.170562744140625,-0.0723876953125
1789582863294672400,9.23267236328125,-1.0130615234375,-0.185638427734375,-0.1011505126953125
1789582863304640300,9.24264013671875,-1.0370330810546875,-0.1894683837890625,-0.0834503173828125
1789582863314608400,9.2526083984375,-1.0028228759765625,-0.256256103515625,0.018280029296875
1789582863324576300,9.262576171875,-0.9941864013671875,-0.327484130859375,-0.039031982421875
1789582863334544400,9.27254443359375,-1.2028961181640625,-0.2045440673828125,0.070953369140625
1789582863344512500,9.282512451171876,-1.1230316162109375,-0.3042144775390625,-0.06072998046875
1789582863354480400,9.29248046875,-0.826873779296875,-0.3732452392578125,-0.0301055908203125
1789582863364449500,9.302449462890625,-0.685791015625,-0.287811279296875,-0.1201171875
1789582863374417400,9.31241748046875,-0.7286224365234375,-0.201080322265625,-0.11016845703125
1789582863384385300,9.32238525390625,-0.863037109375,-0.2089080810546875,-0.0798797607421875
1789582863394353400,9.332353515625,-1.1451263427734375,-0.1646575927734375,-0.04150390625
1789582863404321500,9.342321533203124,-1.2267913818359375,-0.2242279052734375,0.0092010498046875
1789582863414289400,9.352289306640625,-1.0558013916015625,-0.2732696533203125,0.064239501953125
1789582863424257500,9.362257568359375,-0.87255859375,-0.1788787841796875,0.11358642578125
1789582863434226400,9.372226318359376,-0.7915191650390625,-0.2432708740234375,0.0486602783203125
1789582863444194300,9.3821943359375,-0.9854888916015625,-0.16131591796875,0.0765838623046875
1789582863454162400,9.392162353515625,-1.2299652099609375,-0.22564697265625,0.0777130126953125
1789582863464130300,9.40213037109375,-1.1733551025390625,-0.304168701171875,0.12579345703125
1789582863474098400,9.412098388671875,-0.9749603271484375,-0.311248779296875,-0.0030059814453125
1789582863484066600,9.422066650390626,-0.8138885498046875,-0.3628082275390625,0.0595550537109375
1789582863494035500,9.432035400390625,-0.7217254638671875,-0.3654022216796875,0.046539306640625
1789582863504003600,9.442003662109375,-0.6881103515625,-0.4624176025390625,-0.106353759765625
1789582863513971500,9.451971435546875,-0.86669921875,-0.3738555908203125,-0.0846405029296875
1789582863523939300,9.461939208984376,-1.1546478271484375,-0.1372833251953125,-0.1075897216796875
1789582863533907500,9.471907470703124,-1.1522216796875,-0.082366943359375,-0.082275390625
1789582863543875300,9.481875244140625,-1.0391845703125,-0.1209869384765625,-0.0014190673828125
1789582863553843500,9.491843505859375,-1.0248565673828125,-0.13433837890625,-0.024688720703125
1789582863563812600,9.5018125,-1.017974853515625,-0.1913604736328125,0.1302490234375
1789582863573780200,9.5117802734375,-1.041778564453125,-0.23333740234375,0.1326141357421875
1789582863583748400,9.521748291015625,-1.00439453125,-0.2626495361328125,0.1100921630859375
1789582863593717200,9.53171728515625,-1.0462646484375,-0.2144775390625,0.013214111328125
1789582863603685400,9.541685302734376,-1.020660400390625,-0.153839111328125,0.01373291015625
1789582863613653500,9.551653564453124,-0.888916015625,-0.2170562744140625,0.1349029541015625
1789582863623621400,9.561621337890625,-0.84710693359375,-0.2502593994140625,0.009490966796875
1789582863633590500,9.571590576171875,-0.7201080322265625,-0.33233642578125,0.022979736328125
1789582863643558400,9.581558349609375,-0.674896240234375,-0.3267669677734375,0.0404510498046875
1789582863653526300,9.5915263671875,-0.8650360107421875,-0.2043914794921875,0.0080413818359375
1789582863663494400,9.601494384765624,-1.0311431884765625,-0.2029876708984375,0.12591552734375
1789582863673462300,9.611462158203125,-1.1056976318359375,-0.2287750244140625,0.0764312744140625
1789582863683430400,9.621430419921875,-1.079559326171875,-0.31243896484375,0.0654296875
1789582863693399600,9.631399658203126,-1.0294952392578125,-0.37408447265625,0.0891571044921875
1789582863703367400,9.641367431640624,-0.9833831787109375,-0.3153076171875,0.068695068359375
1789582863713335600,9.65133544921875,-0.8773651123046875,-0.355255126953125,0.0326080322265625
1789582863723303400,9.661303466796875,-0.9844512939453125,-0.3069000244140625,0.003021240234375
1789582863733271300,9.671271240234375,-0.985687255859375,-0.3596649169921875,-0.1484527587890625
1789582863743239400,9.681239501953126,-1.06988525390625,-0.271575927734375,-0.097625732421875
1789582863753207600,9.69120751953125,-0.926788330078125,-0.3284149169921875,-0.1092529296875
1789582863763176400,9.701176513671875,-0.8621063232421875,-0.27484130859375,-0.080047607421875
1789582863773144600,9.71114453125,-0.7317047119140625,-0.370849609375,-0.1060943603515625
1789582863783112400,9.721112548828126,-0.9267730712890625,-0.180633544921875,-0.1086578369140625
1789582863793080300,9.731080322265624,-1.0978546142578125,-0.11517333984375,-0.0727081298828125
1789582863803048400,9.74104833984375,-1.1303863525390625,-0.09222412109375,-0.0194549560546875
1789582863813016300,9.751016357421875,-0.945953369140625,-0.1209564208984375,0.0865325927734375
1789582863822984400,9.760984375,-0.8306732177734375,-0.21868896484375,0.0814971923828125
1789582863832953300,9.770953369140624,-0.9696197509765625,-0.19158935546875,0.204803466796875
1789582863842921500,9.78092138671875,-1.011383056640625,-0.2317352294921875,0.128570556640625
1789582863852889300,9.790889404296875,-0.90850830078125,-0.3874053955078125,0.0208282470703125
1789582863862857200,9.800857177734375,-0.9190521240234375,-0.2608489990234375,0.075775146484375
1789582863872825300,9.810825439453126,-0.8773345947265625,-0.185791015625,0.090606689453125
1789582863882793500,9.82079345703125,-1.03948974609375,-0.0734405517578125,0.1165771484375
1789582863892761300,9.83076123046875,-1.2238006591796875,-0.0636138916015625,0.17254638671875
1789582863902730500,9.84073046875,-1.2045745849609375,-0.201934814453125,0.0909271240234375
1789582863912698600,9.85069873046875,-1.1184539794921875,-0.299285888671875,0.2324676513671875
1789582863922666200,9.860666259765624,-0.880096435546875,-0.40435791015625,0.1648712158203125
1789582863932634400,9.87063427734375,-0.7788238525390625,-0.3441009521484375,0.124237060546875
1789582863942602500,9.8806025390625,-0.878997802734375,-0.2538604736328125,0.043609619140625
1789582863952570400,9.8905703125,-0.881561279296875,-0.29229736328125,0.1213531494140625
1789582863962539500,9.90053955078125,-0.87274169921875,-0.2718505859375,0.116424560546875
1789582863972507400,9.91050732421875,-0.9043426513671875,-0.3076934814453125,-0.0209197998046875
1789582863982475500,9.9204755859375,-0.8995513916015625,-0.2512664794921875,0.037322998046875
1789582863992443400,9.930443359375,-0.8945465087890625,-0.2140960693359375,0.035400390625
1789582864002411300,9.940411376953126,-0.9097137451171875,-0.324249267578125,-0.0301971435546875
1789582864012379400,9.95037939453125,-0.999481201171875,-0.3520355224609375,-0.0240936279296875
1789582864022347500,9.960347412109375,-1.1689453125,-0.204742431640625,-0.021636962890625
1789582864032316400,9.97031640625,-1.200775146484375,-0.2192840576171875,-0.028961181640625
1789582864042284500,9.980284423828126,-1.0366058349609375,-0.21710205078125,0.034912109375
1789582864052252400,9.99025244140625,-0.9176788330078125,-0.3011474609375,-0.0703582763671875
1789582864062220300,10.00022021484375,-0.868743896484375,-0.34832763671875,0.011810302734375
1789582864072188400,10.0101884765625,-0.750946044921875,-0.4378509521484375,-0.047760009765625
1789582864082156500,10.020156494140625,-0.928955078125,-0.2632904052734375,-0.0630950927734375
1789582864092124400,10.03012451171875,-0.97161865234375,-0.1534881591796875,-0.0386505126953125
1789582864102093600,10.040093505859375,-1.0102081298828125,-0.071044921875,-0.01690673828125
1789582864112061400,10.0500615234375,-0.8241119384765625,-0.282928466796875,-0.0932159423828125
1789582864122029300,10.060029296875,-0.83160400390625,-0.309356689453125,0.000396728515625
1789582864131997400,10.06999755859375,-1.1495819091796875,-0.1299591064453125,-0.08990478515625
1789582864141965300,10.07996533203125,-1.4696044921875,0.0054779052734375,-0.00885009765625
1789582864151933400,10.089933349609375,-1.480010986328125,-0.0244598388671875,-0.00189208984375
1789582864161901600,10.099901611328125,-1.18499755859375,-0.2630615234375,-0.0451812744140625
1789582864171870500,10.109870361328126,-0.823455810546875,-0.4160919189453125,0.0749969482421875
1789582864181838600,10.119838623046874,-0.685577392578125,-0.39825439453125,-0.0219573974609375
1789582864191806200,10.12980615234375,-0.397308349609375,-0.5702362060546875,-0.1114959716796875
1789582864201774300,10.1397744140625,-0.5892333984375,-0.4101104736328125,-0.0091552734375
1789582864211742500,10.149742431640625,-1.0331268310546875,-0.1444854736328125,-0.0040435791015625
1789582864221710300,10.15971044921875,-1.5229949951171875,0.1254119873046875,0.001312255859375
1789582864231678500,10.169678466796874,-1.3658599853515625,0.038970947265625,-0.00665283203125
1789582864241647400,10.1796474609375,-0.8251953125,-0.23211669921875,-0.0680999755859375
1789582864251615500,10.189615478515625,-0.3715667724609375,-0.4497222900390625,0.023834228515625
1789582864261583400,10.199583251953126,-0.5155792236328125,-0.321929931640625,0.03619384765625
1789582864271551500,10.209551513671874,-1.0110015869140625,-0.1529693603515625,0.0020751953125
1789582864281519400,10.219519287109375,-1.508636474609375,-0.057708740234375,-0.1279449462890625
1789582864291487500,10.229487548828125,-1.490570068359375,-0.2014312744140625,0.0620574951171875
1789582864301455600,10.23945556640625,-1.034576416015625,-0.3741302490234375,0.0673980712890625
1789582864311424500,10.249424560546874,-0.639434814453125,-0.4997406005859375,-0.0955963134765625
1789582864321392400,10.259392333984374,-0.5720367431640625,-0.45062255859375,-0.1277618408203125
1789582864331360300,10.2693603515625,-0.7634429931640625,-0.3932647705078125,-0.02825927734375
1789582864341328400,10.279328369140625,-1.0478515625,-0.3122100830078125,-0.1048583984375
1789582864351296500,10.289296630859376,-1.18389892578125,-0.1409759521484375,-0.0465545654296875
1789582864361264400,10.299264404296874,-1.0474853515625,-0.1027069091796875,0.0664825439453125
1789582864371232500,10.309232421875,-0.83905029296875,-0.2161712646484375,0.104034423828125
1789582864381201400,10.319201416015625,-0.806121826171875,-0.2811279296875,-0.089630126953125
1789582864391169300,10.329169189453125,-0.9731903076171875,-0.2551727294921875,0.0311737060546875
1789582864401137400,10.339137451171876,-1.1607208251953125,-0.2122802734375,0.016387939453125
1789582864411105300,10.349105224609374,-1.11370849609375,-0.2225799560546875,-0.0369873046875
1789582864421073400,10.359073486328125,-1.090667724609375,-0.0897369384765625,0.029388427734375
1789582864431041500,10.36904150390625,-0.8721160888671875,-0.1808319091796875,0.0415496826171875
1789582864441009400,10.379009521484376,-0.84222412109375,-0.2238006591796875,0.0069732666015625
1789582864450978600,10.388978515625,-0.8177642822265625,-0.3919830322265625,0.011474609375
1789582864460946400,10.398946533203125,-0.9442901611328125,-0.4044189453125,0.083892822265625
1789582864470914300,10.408914306640625,-1.09552001953125,-0.3301239013671875,-0.0899200439453125
1789582864480882400,10.41888232421875,-1.01751708984375,-0.236419677734375,0.146514892578125
1789582864490850600,10.4288505859375,-0.8403167724609375,-0.181427001953125,-0.00653076171875
1789582864500818400,10.438818359375,-0.8109588623046875,-0.1695404052734375,0.03741455078125
1789582864510786300,10.448786376953125,-1.07061767578125,-0.140869140625,0.0944061279296875
1789582864520755500,10.45875537109375,-1.3057861328125,-0.18017578125,-0.04693603515625
1789582864530723300,10.468723388671876,-1.0838775634765625,-0.423919677734375,-0.0482635498046875
1789582864540691500,10.47869140625,-0.855499267578125,-0.4013824462890625,0.0312652587890625
1789582864550659300,10.488659423828125,-0.8714752197265625,-0.21612548828125,-0.0195465087890625
1789582864560627500,10.49862744140625,-1.1348724365234375,0.00079345703125,0.0433197021484375
1789582864570595600,10.508595703125,-1.2763214111328125,-0.03167724609375,-0.017486572265625
1789582864580563200,10.518563232421876,-1.1710357666015625,-0.254974365234375,-0.038665771484375
1789582864590532400,10.528532470703125,-0.9332275390625,-0.4332275390625,0.079559326171875
1789582864600499000,10.5384990234375,-0.7661285400390625,-0.42138671875,0.124969482421875
1789582864610467000,10.548467041015625,-0.6616668701171875,-0.39288330078125,0.0667724609375
1789582864620434700,10.5584345703125,-0.7744293212890625,-0.3292999267578125,-0.0467987060546875
1789582864630402800,10.56840283203125,-0.9185638427734375,-0.23931884765625,-0.0057373046875
1789582864640371000,10.578370849609374,-0.943267822265625,-0.22003173828125,0.031402587890625
1789582864650338800,10.5883388671875,-1.022308349609375,-0.145050048828125,-0.085693359375
1789582864660308000,10.598307861328125,-0.8569488525390625,-0.145751953125,-0.0866546630859375
1789582864670275800,10.60827587890625,-0.61663818359375,-0.30816650390625,-0.01953125
1789582864680244000,10.618243896484374,-0.45050048828125,-0.540283203125,-0.03985595703125
1789582864690211800,10.6282119140625,-0.59149169921875,-0.4488525390625,-0.0500946044921875
1789582864700179700,10.6381796875,-0.9418792724609375,-0.2215423583984375,-0.070465087890625
1789582864710147800,10.64814794921875,-1.3125762939453125,0.0380096435546875,-0.00146484375
1789582864720116000,10.658115966796874,-1.5125732421875,0.1304931640625,-0.0700225830078125
1789582864730084900,10.6680849609375,-1.326690673828125,-0.1356201171875,-0.083251953125
1789582864740053000,10.678052978515625,-1.04510498046875,-0.38262939453125,-0.0253753662109375
1789582864750020900,10.688020751953125,-0.8431243896484375,-0.3740692138671875,0.01470947265625
1789582864759988700,10.69798876953125,-0.707794189453125,-0.3327789306640625,0.1085052490234375
1789582864769956900,10.707956787109374,-1.8314208984375,0.310882568359375,0.0222930908203125
1789582864779925000,10.717925048828125,-1.10565185546875,-0.1267852783203125,-0.0806121826171875
1789582864789892900,10.727892822265625,-0.2525177001953125,-0.657135009765625,-0.0358123779296875
1789582864799862000,10.737862060546876,0.4852447509765625,-0.9724884033203125,0.411712646484375
1789582864809830000,10.747829833984374,-1.2756500244140625,0.0991363525390625,-0.322906494140625
1789582864819797800,10.7577978515625,-2.7114105224609375,0.88079833984375,0.0748291015625
1789582864829766000,10.767765869140625,-1.8450164794921875,-0.099517822265625,0.011932373046875
1789582864839733800,10.777733642578125,-0.3856658935546875,-1.0754852294921875,-0.1998443603515625
1789582864849702000,10.787701904296876,-0.248321533203125,-0.5587921142578125,0.308349609375
1789582864859670000,10.797669921875,-0.743865966796875,0.14862060546875,-0.0316619873046875
1789582864869638000,10.807637939453125,-0.7671966552734375,-0.0290069580078125,-0.10552978515625
1789582864879607000,10.81760693359375,-0.5831451416015625,-0.6261749267578125,0.005645751953125
1789582864889574700,10.82757470703125,-0.803253173828125,-0.7376556396484375,-0.0020751953125
1789582864899542800,10.837542724609374,-1.1511993408203125,-0.2470703125,0.0618896484375
1789582864909511000,10.847510986328125,-1.168975830078125,0.095367431640625,0.1259765625
1789582864919478800,10.857478759765625,-0.9151153564453125,-0.087066650390625,0.037139892578125
1789582864929447000,10.867447021484375,-0.8386993408203125,-0.31683349609375,0.0678558349609375
1789582864939415000,10.8774150390625,-0.7599334716796875,-0.5519561767578125,0.05419921875
1789582864949384000,10.887384033203125,-1.4242095947265625,-0.0361175537109375,-0.053863525390625
1789582864959351800,10.897351806640625,-1.307403564453125,-0.0169830322265625,-0.2056427001953125
1789582864969320000,10.90731982421875,-1.1508026123046875,0.1167144775390625,-0.0035552978515625
1789582864979287800,10.917287841796876,-0.629241943359375,-0.4962615966796875,0.230010986328125
1789582864989256000,10.927255859375,-0.826507568359375,-0.582275390625,-0.0430450439453125
1789582864999224000,10.93722412109375,-1.045623779296875,-0.3755950927734375,-0.0848541259765625
1789582865009191700,10.947191650390625,-1.2657623291015625,-0.1219329833984375,-0.048431396484375
1789582865019161000,10.9571611328125,-1.0206451416015625,-0.2408599853515625,-0.018798828125
1789582865029128700,10.967128662109374,-0.77130126953125,-0.3346405029296875,0.0966339111328125
1789582865039096800,10.977096923828125,-0.7911529541015625,-0.3211212158203125,0.0373992919921875
1789582865049065000,10.98706494140625,-0.964508056640625,-0.196746826171875,-0.0647125244140625
1789582865059032800,10.99703271484375,-1.0664520263671875,-0.1069793701171875,-0.00506591796875
1789582865069001000,11.0070009765625,-1.001220703125,-0.22357177734375,0.017059326171875
1789582865078968800,11.01696875,-0.8903045654296875,-0.327972412109375,0.0352783203125
1789582865088937700,11.026937744140625,-0.997314453125,-0.208160400390625,-0.012542724609375
1789582865098905900,11.03690576171875,-1.1682586669921875,-0.1288909912109375,-0.0205841064453125
1789582865108873700,11.046873779296876,-1.085205078125,-0.13818359375,0.0140228271484375
1789582865118841900,11.056841796875,-0.8409271240234375,-0.3831329345703125,-0.037445068359375
1789582865128810000,11.06681005859375,-0.78228759765625,-0.4209747314453125,0.0601806640625
1789582865138777900,11.07677783203125,-1.00836181640625,-0.2059478759765625,0.0074920654296875
1789582865148745700,11.086745849609375,-1.2010650634765625,-0.1194000244140625,-0.06036376953125
1789582865158713900,11.0967138671875,-1.2694854736328125,-0.0846405029296875,0.0850830078125
1789582865169305900,11.107305908203125,-0.78619384765625,-0.4757080078125,0.0167083740234375
1789582865179273700,11.117273681640626,-0.5584716796875,-0.49371337890625,0.1401824951171875
1789582865189241900,11.127241943359374,-0.78997802734375,-0.2279052734375,0.0214996337890625
1789582865199210000,11.1372099609375,-0.684906005859375,-0.28515625,0.06976318359375
1789582865209177900,11.147177734375,-0.90850830078125,-0.1841583251953125,-0.0368804931640625
1789582865219145700,11.157145751953125,-1.0910797119140625,-0.1804351806640625,-0.0329742431640625
1789582865229113900,11.16711376953125,-1.2408599853515625,-0.0696563720703125,0.063232421875
1789582865239082000,11.17708203125,-1.141265869140625,-0.0696563720703125,-0.0323638916015625
1789582865249051000,11.18705078125,-0.9456634521484375,-0.1992034912109375,0.0741119384765625
1789582865259019000,11.19701904296875,-0.9175567626953125,-0.2945709228515625,0.0908203125
1789582865268987000,11.20698681640625,-0.9362335205078125,-0.362396240234375,0.04046630859375
1789582865278955000,11.216955078125,-0.96697998046875,-0.3855438232421875,0.036224365234375
1789582865288923000,11.2269228515625,-0.948699951171875,-0.3218994140625,0.0270843505859375
1789582865298890800,11.236890869140625,-0.9482574462890625,-0.2591705322265625,-0.125213623046875
1789582865308859000,11.24685888671875,-0.8895416259765625,-0.283050537109375,-0.0037841796875
1789582865318827800,11.256827880859374,-0.901092529296875,-0.306640625,0.0758819580078125
1789582865328796000,11.2667958984375,-1.136627197265625,-0.1573944091796875,-0.090362548828125
1789582865338764000,11.276763916015625,-1.2730255126953125,-0.0980224609375,-0.028961181640625
1789582865348731600,11.286731689453125,-1.158416748046875,-0.214691162109375,-0.000213623046875
1789582865358699800,11.29669970703125,-0.9118499755859375,-0.324676513671875,-0.026397705078125
1789582865368668000,11.30666796875,-0.7471160888671875,-0.358734130859375,-0.0117034912109375
1789582865378635800,11.3166357421875,-0.7783966064453125,-0.3089141845703125,0.0144805908203125
1789582865388605000,11.32660498046875,-0.9843292236328125,-0.202911376953125,-0.0124664306640625
1789582865398572800,11.33657275390625,-1.22418212890625,-0.1427459716796875,-0.0367279052734375
1789582865408541000,11.346541015625,-1.287322998046875,-0.19622802734375,-0.0388641357421875
1789582865418508800,11.3565087890625,-1.0939483642578125,-0.2911224365234375,0.0104522705078125
1789582865428477000,11.366476806640625,-0.7982940673828125,-0.3475494384765625,-0.0066070556640625
1789582865438444800,11.37644482421875,-0.637420654296875,-0.302642822265625,-0.0284271240234375
1789582865448413000,11.386412841796876,-0.7212371826171875,-0.2527923583984375,-0.0072021484375
1789582865458381000,11.396381103515624,-0.982452392578125,-0.1953582763671875,-0.0161895751953125
1789582865468350000,11.406349853515625,-1.0962371826171875,-0.1993255615234375,0.011688232421875
1789582865478318000,11.416318115234375,-1.088287353515625,-0.267242431640625,-0.0277557373046875
1789582865488285700,11.42628564453125,-1.28515625,-0.159210205078125,0.0734710693359375
1789582865498253800,11.43625390625,-1.274017333984375,-0.2021942138671875,-0.01055908203125
1789582865508222000,11.446221923828125,-0.8878631591796875,-0.3842010498046875,0.0581817626953125
1789582865518189800,11.45618994140625,-0.5587615966796875,-0.507568359375,0.022430419921875
1789582865528158000,11.466157958984375,-0.4073944091796875,-0.518646240234375,0.1246337890625
1789582865538125800,11.476125732421876,-0.7222900390625,-0.188812255859375,-0.066162109375
1789582865548095000,11.486094970703125,-0.9788818359375,-0.0501556396484375,-0.0166168212890625
1789582865558062800,11.496062744140625,-1.2482452392578125,-0.06170654296875,-0.0171966552734375
1789582865568652800,11.50665283203125,-1.2625274658203125,-0.2047882080078125,-0.01165771484375
1789582865578621000,11.516620849609374,-1.226226806640625,-0.2620697021484375,0.0812225341796875
1789582865588589000,11.526589111328125,-1.2417144775390625,-0.1069793701171875,0.092742919921875
1789582865598557200,11.53655712890625,-0.93658447265625,-0.2014617919921875,0.0327606201171875
1789582865608525000,11.546525146484376,-0.14080810546875,-0.5064544677734375,0.1153717041015625
1789582865618494000,11.556493896484374,1.6336822509765625,-1.3015289306640625,0.0113525390625
1789582865628462000,11.566462158203125,0.9838104248046875,-0.7807159423828125,-0.222991943359375
1789582865638430200,11.57643017578125,-3.9945220947265625,1.85528564453125,0.05615234375
1789582865648398000,11.586398193359376,-6.935150146484375,2.494384765625,0.2653656005859375
1789582865658366200,11.5963662109375,-1.443206787109375,-1.52838134765625,-0.6949462890625
1789582865668334000,11.606333984375,3.2511749267578125,-2.954376220703125,0.6563568115234375
1789582865678302000,11.616302001953125,0.527252197265625,-0.4227447509765625,-0.351348876953125
1789582865688271000,11.62627099609375,-0.9608917236328125,1.111785888671875,0.2883148193359375
1789582865698239000,11.636239013671876,-1.2559814453125,0.1518402099609375,-0.09368896484375
1789582865708207000,11.64620703125,-1.3657989501953125,-0.7835540771484375,-0.233551025390625
1789582865718175200,11.65617529296875,-1.273529052734375,-0.767852783203125,0.32080078125
1789582865728143000,11.66614306640625,-1.1712493896484375,0.0288848876953125,-0.2674713134765625
1789582865738111000,11.676111083984376,-0.842559814453125,0.2625885009765625,0.0406951904296875
1789582865748079000,11.6860791015625,-0.468048095703125,-0.4024810791015625,0.1397247314453125
1789582865758048000,11.696048095703125,-0.832122802734375,-0.8029327392578125,-0.062530517578125
1789582865768016100,11.70601611328125,-1.464080810546875,-0.272003173828125,-0.068389892578125
1789582865777984300,11.715984375,-1.513092041015625,0.7490234375,-0.10052490234375
1789582865787952000,11.7259521484375,-0.82293701171875,0.56170654296875,-0.32159423828125
1789582865797920300,11.735920166015624,-0.3275604248046875,-0.58642578125,0.14556884765625
1789582865807888100,11.74588818359375,-0.37677001953125,-1.7236480712890625,0.1161956787109375
1789582865817856000,11.75585595703125,-1.35443115234375,-1.337188720703125,-0.17425537109375
1789582865827824000,11.76582421875,-1.6539306640625,-0.025238037109375,0.2400360107421875
1789582865837793000,11.77579296875,-1.486541748046875,1.068756103515625,-0.1528778076171875
1789582865847761200,11.78576123046875,-0.2109375,0.0479736328125,-0.066497802734375
1789582865857729300,11.795729248046875,-0.0110321044921875,-0.9162445068359375,0.337432861328125
1789582865867697000,11.80569677734375,-0.8535614013671875,-0.47540283203125,-0.1908721923828125
1789582865877665000,11.8156650390625,-1.378082275390625,0.019134521484375,-0.1782989501953125
1789582865887633200,11.825633056640624,-1.5376739501953125,0.1326141357421875,0.1612091064453125
1789582865897601000,11.83560107421875,-1.103118896484375,-0.25018310546875,0.114227294921875
1789582865907570200,11.845570068359375,-0.921875,-0.3714752197265625,0.133056640625
1789582865917538000,11.8555380859375,-0.94403076171875,-0.2314605712890625,0.0685882568359375
1789582865927506200,11.865506103515624,-0.9329071044921875,-0.0915679931640625,-0.0718231201171875
1789582865937474000,11.87547412109375,-0.753662109375,-0.2729644775390625,0.125885009765625
1789582865947442200,11.885442138671875,-0.7803802490234375,-0.421173095703125,0.0079345703125
1789582865957410000,11.89541015625,-1.073699951171875,-0.30218505859375,0.0106964111328125
1789582865967378200,11.905378173828124,-1.5230865478515625,0.065399169921875,-0.0872039794921875
1789582865977347000,11.91534716796875,-1.39068603515625,-0.04144287109375,0.01708984375
1789582865987315200,11.925315185546875,-0.8072357177734375,-0.4552459716796875,-0.0055389404296875
1789582865997283300,11.935283447265626,-0.5002593994140625,-0.599639892578125,0.0347900390625
1789582866007251000,11.9452509765625,-0.532623291015625,-0.4292144775390625,0.0693817138671875
1789582866017219000,11.955218994140624,-0.8353118896484375,-0.098175048828125,-0.007080078125
1789582866027187200,11.965187255859375,-0.98797607421875,-0.1033935546875,-0.0574798583984375
1789582866037155000,11.975155029296875,-1.037689208984375,-0.3022003173828125,-0.05499267578125
1789582866047123200,11.985123291015626,-0.9882965087890625,-0.3728485107421875,-0.0269927978515625
1789582866057092000,11.995092041015624,-1.051055908203125,-0.185943603515625,0.0113525390625
1789582866067060200,12.005060302734375,-1.0028076171875,-0.106597900390625,0.018646240234375
1789582866077028000,12.015028076171875,-0.9865875244140625,-0.142425537109375,-0.0849151611328125
1789582866086996000,12.024995849609375,-0.94000244140625,-0.3192901611328125,0.0161590576171875
1789582866096964000,12.034964111328126,-1.09698486328125,-0.246917724609375,-0.0032501220703125
1789582866106932200,12.04493212890625,-1.0813751220703125,-0.189666748046875,-0.1084747314453125
1789582866116900000,12.054900146484375,-0.855621337890625,-0.20684814453125,0.035369873046875
1789582866126869200,12.064869140625,-0.780059814453125,-0.37384033203125,0.0393829345703125
1789582866136837000,12.074837158203126,-0.914459228515625,-0.4866485595703125,0.1378021240234375
1789582866146805000,12.084804931640624,-1.5305938720703125,-0.140838623046875,0.0498046875
1789582866156773000,12.094773193359375,-1.5724029541015625,-0.026031494140625,0.0106658935546875
1789582866166741200,12.1047412109375,-0.715545654296875,-0.3206634521484375,0.0722198486328125
1789582866176709000,12.114709228515625,-0.2193450927734375,-0.4989013671875,0.129852294921875
1789582866186677200,12.12467724609375,-0.36248779296875,-0.461944580078125,0.103057861328125
1789582866196646100,12.134646240234375,-0.93267822265625,-0.1717376708984375,-0.0314483642578125
1789582866206614000,12.144614013671875,-1.2734375,-0.0415802001953125,-0.0088653564453125
1789582866216582100,12.15458203125,-1.297027587890625,-0.132171630859375,0.0000152587890625
1789582866226550000,12.164550048828126,-1.0943145751953125,-0.220123291015625,0.0579833984375
1789582866236518100,12.17451806640625,-0.914886474609375,-0.226531982421875,0.1118927001953125
1789582866246486300,12.184486328125,-0.921295166015625,-0.153656005859375,0.1165771484375
1789582866256454100,12.1944541015625,-1.031158447265625,-0.1744537353515625,0.016876220703125
1789582866266422000,12.204422119140625,-1.1004486083984375,-0.303009033203125,0.0989227294921875
1789582866276391000,12.214390869140624,-1.1857147216796875,-0.3153228759765625,-0.011505126953125
1789582866286359000,12.224359130859375,-1.15924072265625,-0.2264862060546875,0.0312347412109375
1789582866296327200,12.2343271484375,-0.9491424560546875,-0.2622222900390625,-0.0717315673828125
1789582866306295000,12.244294921875,-0.7454681396484375,-0.4460296630859375,0.0381622314453125
1789582866316263200,12.25426318359375,-0.850311279296875,-0.4315948486328125,0.0468292236328125
1789582866326231000,12.26423095703125,-1.0037994384765625,-0.2666473388671875,-0.0052032470703125
1789582866336199200,12.27419921875,-1.0226898193359375,-0.1243896484375,0.0185546875
1789582866346167000,12.2841669921875,-1.006988525390625,-0.0401153564453125,-0.037872314453125
1789582866356136200,12.29413623046875,-0.7577667236328125,-0.3394317626953125,0.0152130126953125
1789582866366104000,12.30410400390625,-0.7714691162109375,-0.428924560546875,-0.0133209228515625
1789582866376072200,12.314072265625,-1.087860107421875,-0.218719482421875,-0.0533905029296875
1789582866386040300,12.324040283203125,-1.12249755859375,-0.1700439453125,-0.0115203857421875
1789582866396008000,12.334008056640625,-0.8515167236328125,-0.291717529296875,-0.0458984375
1789582866405976000,12.34397607421875,-0.891082763671875,-0.2294769287109375,-0.0186309814453125
1789582866415944200,12.353944091796874,-1.0341033935546875,-0.22021484375,-0.0945587158203125
1789582866425913000,12.3639130859375,-1.251922607421875,-0.0962982177734375,-0.1047210693359375
1789582866435881200,12.373881103515625,-1.0129241943359375,-0.32958984375,-0.028289794921875
1789582866445849000,12.38384912109375,-0.860992431640625,-0.372222900390625,0.02685546875
1789582866455817200,12.393817138671874,-0.7606658935546875,-0.3673553466796875,0.001617431640625
1789582866465785000,12.40378515625,-0.811920166015625,-0.2370758056640625,0.02105712890625
1789582866475753000,12.4137529296875,-1.0276336669921875,-0.1420745849609375,-0.0575714111328125
1789582866485721000,12.42372119140625,-1.0349884033203125,-0.2205657958984375,0.071136474609375
1789582866495689200,12.433689208984376,-0.9957122802734375,-0.2619781494140625,0.036865234375
1789582866505658000,12.443658203125,-0.76959228515625,-0.3390960693359375,0.0532684326171875
1789582866515626200,12.453626220703125,-0.84527587890625,-0.2465972900390625,-0.0634002685546875
1789582866525594000,12.463593994140625,-1.0282135009765625,-0.158966064453125,-0.06024169921875
1789582866535562000,12.47356201171875,-1.000152587890625,-0.1778564453125,0.0306854248046875
1789582866545530000,12.483530029296874,-0.9120330810546875,-0.249908447265625,-0.0296783447265625
1789582866555498200,12.493498291015625,-1.0367584228515625,-0.1919097900390625,0.0450592041015625
1789582866565466000,12.503466064453125,-1.2693939208984375,-0.0274658203125,0.110992431640625
1789582866575434200,12.513434326171875,-1.177978515625,-0.173095703125,0.0845489501953125
1789582866585403100,12.523403076171874,-0.91912841796875,-0.4008941650390625,0.086273193359375
1789582866595371000,12.53337109375,-0.834716796875,-0.4451446533203125,0.1014556884765625
1789582866605339000,12.5433388671875,-0.827667236328125,-0.34222412109375,0.0055084228515625
1789582866615306800,12.553306640625,-0.859344482421875,-0.1552581787109375,0.008026123046875
1789582866625275000,12.56327490234375,-0.87945556640625,-0.1827392578125,0.0204315185546875
1789582866635243000,12.573242919921874,-0.932525634765625,-0.257965087890625,0.0390777587890625
1789582866645211000,12.5832109375,-1.003631591796875,-0.2578582763671875,-0.0058746337890625
1789582866655179000,12.593178955078125,-1.067901611328125,-0.2479095458984375,0.02862548828125
1789582866665148000,12.60314794921875,-1.1637115478515625,-0.1633148193359375,-0.0029754638671875
1789582866675115800,12.61311572265625,-1.13397216796875,-0.2098236083984375,-0.028533935546875
1789582866685084000,12.623083984375,-0.9718170166015625,-0.3964691162109375,0.0810546875
1789582866695052000,12.633052001953125,-0.889190673828125,-0.384185791015625,-0.0028228759765625
1789582866705020000,12.64302001953125,-0.9903717041015625,-0.215972900390625,0.123626708984375
1789582866714988000,12.652988037109376,-0.947418212890625,-0.2188568115234375,0.01055908203125
1789582866724956000,12.662955810546874,-0.7292022705078125,-0.335662841796875,-0.0961151123046875
1789582866734923800,12.672923828125,-0.84619140625,-0.3392486572265625,0.0440673828125
1789582866744893000,12.682892822265625,-1.1148681640625,-0.2108612060546875,-0.060791015625
1789582866754860800,12.69286083984375,-1.2457275390625,-0.08209228515625,-0.0527496337890625
1789582866764829000,12.702828857421874,-1.0504150390625,-0.186920166015625,0.0090484619140625
1789582866774797000,12.712797119140625,-0.8812103271484375,-0.2877655029296875,-0.1016998291015625
1789582866784765000,12.722764892578125,-0.774871826171875,-0.328216552734375,0.0406646728515625
1789582866794732800,12.73273291015625,-0.9373321533203125,-0.21490478515625,0.0788726806640625
1789582866804701000,12.742700927734376,-1.20904541015625,-0.0983428955078125,-0.0570220947265625
1789582866814668800,12.752668701171874,-1.3200225830078125,-0.0963134765625,0.0927734375
1789582866824638000,12.762637939453125,-1.1048583984375,-0.3092041015625,0.049041748046875
1789582866834605800,12.772605712890625,-0.9517669677734375,-0.440826416015625,-0.02569580078125
1789582866844574000,12.782573974609376,-1.0347137451171875,-0.291107177734375,0.0079193115234375
