time,seconds_elapsed,z,y,x
1789582854097760300,0.03576025390625,-0.35175326466560364,-0.01622634381055832,-0.03932054340839386
1789582854107728100,0.04572802734375,-0.38170158863067627,-0.0441618375480175,-0.04690788686275482
1789582854117696300,0.0556962890625,-0.2865813374519348,-0.14204169809818268,0.11983876675367355
1789582854127665400,0.06566552734375,-0.26514503359794617,-0.07973703742027283,-0.0038493480533361435
1789582854137633300,0.07563330078125,-0.3049863874912262,-0.021728383377194405,-0.09400348365306854
1789582854147601200,0.08560107421875,-0.22087018191814423,-0.11014293134212494,0.06624557822942734
1789582854157569300,0.0955693359375,-0.19522656500339508,-0.07103494554758072,0.05998546630144119
1789582854167538200,0.1055380859375,-0.22614000737667084,0.013774486258625984,-0.13740749657154083
1789582854177506300,0.11550634765625,-0.2172093242406845,-0.049234893172979355,0.009107443504035473
1789582854187474200,0.12547412109375,-0.15330570936203003,-0.10792803764343262,0.13519905507564545
1789582854197443300,0.135443359375,-0.1900414228439331,-0.00382235343568027,-0.030193880200386047
1789582854207411200,0.1454111328125,-0.24841977655887604,0.029225610196590424,-0.07781119644641876
1789582854217379300,0.15537939453125,-0.18698610365390778,-0.0758339986205101,0.12196877598762512
1789582854227347200,0.16534716796875,-0.1541794240474701,-0.07300411909818649,0.07723645865917206
1789582854237316000,0.175316162109375,-0.226303830742836,0.018775761127471924,-0.091469407081604
1789582854247284200,0.1852841796875,-0.23915545642375946,-0.034821949899196625,0.008991951122879982
1789582854257252000,0.195252197265625,-0.22161522507667542,-0.0981515645980835,0.1623792052268982
1789582854267221200,0.20522119140625,-0.31441229581832886,-0.011533316224813461,-0.03186856582760811
1789582854277189400,0.215189453125,-0.4009924530982971,-0.009464306756854057,-0.09176784753799438
1789582854287157200,0.2251572265625,-0.39882713556289673,-0.11748473346233368,0.1301739662885666
1789582854297125400,0.23512548828125,-0.410310298204422,-0.1283406913280487,0.1092679351568222
1789582854307094300,0.24509423828125,-0.5215875506401062,-0.03550102561712265,-0.06675928831100464
1789582854317062100,0.255062255859375,-0.5521261096000671,-0.06282862275838852,-0.013057731091976166
1789582854327030300,0.2650302734375,-0.5131896138191223,-0.1404259353876114,0.1290924847126007
1789582854336999200,0.274999267578125,-0.5356720089912415,-0.12192816287279129,0.1129063218832016
1789582854346967300,0.28496728515625,-0.540928304195404,-0.05138235539197922,-0.018715349957346916
1789582854356935200,0.29493505859375,-0.5039454102516174,-0.0397530235350132,-0.01277416292577982
1789582854366903300,0.3049033203125,-0.426120400428772,-0.10026110708713531,0.13218888640403748
1789582854376872200,0.3148720703125,-0.3915424942970276,-0.09902327507734299,0.09120672196149826
1789582854386840300,0.32484033203125,-0.44595807790756226,-0.060274019837379456,-0.03270883113145828
1789582854396808200,0.33480810546875,-0.41994234919548035,-0.12040065973997116,0.08062197268009186
1789582854406777000,0.344777099609375,-0.2946943938732147,-0.15878638625144958,0.09697990864515305
1789582854416745200,0.3547451171875,-0.28277039527893066,-0.13667210936546326,-0.03082328289747238
1789582854426713300,0.36471337890625,-0.31900909543037415,-0.16280917823314667,0.007025294937193394
1789582854436681200,0.37468115234375,-0.2170194834470749,-0.23934897780418396,0.12879063189029694
1789582854446650400,0.384650390625,-0.10191285610198975,-0.2247580587863922,0.05625810846686363
1789582854456618200,0.3946181640625,-0.12666866183280945,-0.1744663566350937,0.005719468463212252
1789582854466586400,0.40458642578125,-0.058901596814394,-0.19955839216709137,-0.03511318191885948
1789582854476555300,0.41455517578125,0.013757212087512016,-0.23319417238235474,0.05558962747454643
1789582854486523100,0.424523193359375,0.024417046457529068,-0.2083577960729599,0.0402708575129509
1789582854496491300,0.4344912109375,-0.020035691559314728,-0.1438300758600235,0.036815643310546875
1789582854506459100,0.444459228515625,0.09903157502412796,-0.21517962217330933,0.09873253852128983
1789582854516428300,0.45442822265625,0.1520799994468689,-0.20004884898662567,0.08442415297031403
1789582854526396200,0.464396240234375,0.15741831064224243,-0.14664234220981598,0.07249611616134644
1789582854536364300,0.4743642578125,0.25985875725746155,-0.18510502576828003,0.018829649314284325
1789582854546332400,0.48433251953125,0.25890427827835083,-0.1492125391960144,-0.042357008904218674
1789582854556301300,0.49430126953125,0.2091241329908371,-0.22550639510154724,0.03949716314673424
1789582854566269200,0.504269287109375,-0.12640966475009918,0.04335596412420273,0.11829876154661179
1789582854576237300,0.5142373046875,0.6895909905433655,-0.3652857840061188,0.19592326879501343
1789582854586206000,0.5242060546875,0.28710776567459106,-0.13050174713134766,-0.11730948090553284
1789582854596174000,0.534174072265625,0.08812139928340912,-0.008319850079715252,-0.01829470507800579
1789582854606142000,0.544141845703125,0.4699244499206543,-0.3548903167247772,0.1349899172782898
1789582854616110000,0.554110107421875,0.29096168279647827,-0.18598289787769318,-0.00196025799959898
1789582854626079000,0.564078857421875,0.13310439884662628,-0.13857996463775635,-0.010614999569952488
1789582854636046800,0.574046875,0.3710710108280182,-0.31002378463745117,0.0364324226975441
1789582854646015000,0.584014892578125,0.30466535687446594,-0.226801335811615,0.004048118833452463
1789582854655982800,0.59398291015625,0.2698029577732086,-0.20129646360874176,0.013147726655006409
1789582854665952000,0.603951904296875,0.41690289974212646,-0.2090153694152832,-0.04242578521370888
1789582854675920100,0.613920166015625,0.3845270276069641,-0.1558298021554947,-0.024025611579418182
1789582854685888000,0.623887939453125,0.39439165592193604,-0.1564822643995285,-0.020018886774778366
1789582854695857200,0.633857177734375,0.439623087644577,-0.1870913803577423,-0.030717454850673676
1789582854705825000,0.643824951171875,0.31842076778411865,-0.13172878324985504,-0.028318479657173157
1789582854715793000,0.65379296875,0.2300797551870346,-0.18311020731925964,0.08855604380369186
1789582854725761000,0.663760986328125,0.26802343130111694,-0.18264788389205933,0.04286126792430878
1789582854735730000,0.67372998046875,0.25361984968185425,-0.13718608021736145,-0.07262121886014938
1789582854745698000,0.683697998046875,0.19601140916347504,-0.14281228184700012,-0.04340341314673424
1789582854755666000,0.693666015625,0.26565641164779663,-0.22813759744167328,0.08475331962108612
1789582854765634000,0.703634033203125,0.3187619745731354,-0.2099332958459854,0.003851815592497587
1789582854775603000,0.71360302734375,0.3181482255458832,-0.17991097271442413,0.0037419290747493505
1789582854785571000,0.723571044921875,0.4181499183177948,-0.20646828413009644,0.04830539971590042
1789582854795539000,0.7335390625,0.47309279441833496,-0.1541135311126709,0.007133688777685165
1789582854805507800,0.7435078125,0.45532044768333435,-0.13238480687141418,0.004300351720303297
1789582854815476000,0.75347607421875,0.4730299413204193,-0.13591435551643372,-0.013978905975818634
1789582854825444000,0.763444091796875,0.461131751537323,-0.14633476734161377,0.01282048411667347
1789582854835412000,0.773411865234375,0.4279946982860565,-0.1296408474445343,-0.017517121508717537
1789582854845381000,0.783381103515625,0.3988831639289856,-0.1109585091471672,-0.040186215192079544
1789582854855349000,0.793348876953125,0.3892357647418976,-0.14944958686828613,-0.021731257438659668
1789582854865317000,0.803317138671875,0.37835249304771423,-0.1344863474369049,-0.021112605929374695
1789582854875285000,0.813284912109375,0.4289759397506714,-0.17643249034881592,-0.0252001341432333
1789582854885254000,0.82325390625,0.40491586923599243,-0.14173975586891174,-0.011020399630069733
1789582854895222000,0.833221923828125,0.4027172327041626,-0.13717249035835266,-0.01764174923300743
1789582854905190000,0.84318994140625,0.36515572667121887,-0.12021640688180923,0.028228003531694412
1789582854915159000,0.853158935546875,0.338059663772583,-0.10098157823085785,0.0079683568328619
1789582854925127000,0.863126953125,0.35528552532196045,-0.12703555822372437,0.00026250025257468224
1789582854935095000,0.873094970703125,0.32452744245529175,-0.1377575695514679,0.026051968336105347
1789582854945063000,0.88306298828125,0.28479573130607605,-0.12838482856750488,0.030981479212641716
1789582854955032000,0.893031982421875,0.22217202186584473,-0.11750687658786774,0.043244004249572754
1789582854965000000,0.903,0.15361027419567108,-0.1229272112250328,0.03951398283243179
1789582854974968000,0.912968017578125,0.06690884381532669,-0.12169306725263596,0.05842224508523941
1789582854984936000,0.92293603515625,-0.03510913625359535,-0.0838404968380928,0.08174967020750046
1789582854994905000,0.932905029296875,0.04989495128393173,-0.11157552897930145,-0.01622346043586731
1789582855004873000,0.942873046875,-0.09286193549633026,-0.054788414388895035,0.009478441439568996
1789582855014841000,0.952841064453125,-0.12154360115528107,-0.035438597202301025,0.04552554339170456
1789582855024809000,0.96280908203125,0.049533069133758545,-0.09335516393184662,-0.0298664141446352
1789582855034777900,0.97277783203125,-0.04841155186295509,-0.013121630065143108,-0.03775223344564438
1789582855044746000,0.98274609375,-0.1744115650653839,0.028974691405892372,-0.0060939062386751175
1789582855054713900,0.9927138671875,-0.15829159319400787,-0.03351043537259102,0.05078111216425896
1789582855064683000,1.00268310546875,-0.20081081986427307,-0.05107558146119118,0.05428769811987877
1789582855074651000,1.01265087890625,-0.3085697889328003,-0.02412777580320835,0.0016671381890773773
1789582855084619000,1.022618896484375,-0.19039545953273773,-0.11161555349826813,0.00968884490430355
1789582855094587100,1.032587158203125,-0.20036640763282776,-0.11864624172449112,0.04145690053701401
1789582855104556000,1.04255615234375,-0.20822113752365112,-0.017128411680459976,-0.0325387567281723
1789582855114524000,1.05252392578125,-0.10732726007699966,-0.023299744352698326,-0.06234893202781677
1789582855124492000,1.062491943359375,-0.08447440713644028,-0.0409567691385746,0.04569125175476074
1789582855134460000,1.0724599609375,-0.07093320041894913,0.0034235608763992786,0.010883034206926823
1789582855144429000,1.082428955078125,0.02345934510231018,-0.034345388412475586,0.056363433599472046
1789582855154397000,1.09239697265625,0.045292697846889496,-0.05032433196902275,0.09741877764463425
1789582855164365000,1.102364990234375,0.11106211692094803,-0.07296572625637054,0.0347018726170063
1789582855174333200,1.112333251953125,0.28001120686531067,-0.1003170907497406,-0.012184495106339455
1789582855184302000,1.122302001953125,0.2843566834926605,-0.10079272836446762,0.04387318342924118
1789582855194270000,1.13227001953125,0.3142796456813812,-0.06349775195121765,-0.049377016723155975
1789582855204237800,1.14223779296875,0.4546127915382385,-0.10463932901620865,-0.027180101722478867
1789582855214206000,1.1522060546875,0.4757331311702728,-0.08088189363479614,0.07545837014913559
1789582855224175000,1.162175048828125,0.5290699005126953,-0.06854666024446487,0.0521695613861084
1789582855234143000,1.17214306640625,0.5556772947311401,-0.0608895979821682,0.06578157842159271
1789582855244111000,1.182111083984375,0.632806658744812,-0.10715162754058838,0.0674082413315773
1789582855254079000,1.192078857421875,0.6500701308250427,-0.09407569468021393,0.10225388407707214
1789582855264048000,1.202048095703125,0.7230886816978455,-0.05968549847602844,0.08484799414873123
1789582855274016000,1.21201611328125,0.8959088921546936,-0.09369893372058868,0.00013271858915686607
1789582855283984000,1.22198388671875,1.0476617813110352,-0.10630980134010315,-0.011879201978445053
1789582855293952000,1.231951904296875,1.0952284336090088,-0.07291936129331589,-0.05302203446626663
1789582855303921000,1.2419208984375,1.1433296203613281,-0.09270264953374863,-0.08561353385448456
1789582855313889000,1.251888916015625,1.1125438213348389,-0.12282110750675201,-0.015550206415355206
1789582855323857200,1.261857177734375,1.0406649112701416,-0.09804332256317139,0.041945312172174454
1789582855333825000,1.271824951171875,0.9295957088470459,-0.04348127916455269,-0.008564735762774944
1789582855343794200,1.281794189453125,0.9011270403862,-0.07478966563940048,-0.037481602281332016
1789582855353761800,1.29176171875,0.9260197281837463,-0.11051461845636368,-0.043512728065252304
1789582855363730000,1.30172998046875,0.8748998641967773,-0.08455545455217361,0.007982954382896423
1789582855373698000,1.311697998046875,0.8075535297393799,-0.014328444376587868,-0.0053910985589027405
1789582855383667000,1.3216669921875,0.8310692310333252,0.007306010462343693,0.017225798219442368
1789582855393635000,1.331635009765625,0.8499566912651062,0.03293665125966072,0.030099621042609215
1789582855403603200,1.341603271484375,0.7646747827529907,0.1544702798128128,-0.011000145226716995
1789582855413570800,1.35157080078125,0.7636715173721313,0.14398260414600372,0.0025013338308781385
1789582855423540000,1.3615400390625,0.8001775741577148,0.12724196910858154,0.04606185853481293
1789582855433507800,1.3715078125,0.6899730563163757,0.21957767009735107,-0.004338960628956556
1789582855443476000,1.38147607421875,0.6768758893013,0.18814410269260406,0.03311653435230255
1789582855453444900,1.39144482421875,0.6594635248184204,0.13606537878513336,0.044542279094457626
1789582855463413000,1.4014130859375,0.5809934735298157,0.23117192089557648,-0.014435820281505585
1789582855473381000,1.411381103515625,0.5580007433891296,0.24715274572372437,0.06182760000228882
1789582855483349000,1.421348876953125,0.5509297847747803,0.2709403336048126,0.05974927172064781
1789582855493318100,1.431318115234375,0.5522697567939758,0.3212939202785492,0.00654716556891799
1789582855503285800,1.44128564453125,0.49243471026420593,0.2826562523841858,0.11880926042795181
1789582855513254000,1.45125390625,0.39911291003227234,0.3714801073074341,0.11365313827991486
1789582855523222000,1.461221923828125,0.4059140682220459,0.39473670721054077,0.04641444608569145
1789582855533191000,1.47119091796875,0.29613253474235535,0.3969281017780304,0.10070338845252991
1789582855543159000,1.481158935546875,0.21537990868091583,0.4280836284160614,0.07126720249652863
1789582855553127200,1.491127197265625,0.12801824510097504,0.42386049032211304,0.038067642599344254
1789582855563095000,1.501094970703125,-0.010886107571423054,0.400519996881485,0.10841531306505203
1789582855573064200,1.511064208984375,-0.15253916382789612,0.4275837540626526,0.12699350714683533
1789582855583031600,1.521031494140625,-0.28670892119407654,0.44792497158050537,0.09508217126131058
1789582855592999700,1.530999755859375,-0.3855646252632141,0.42953959107398987,0.08415520191192627
1789582855602967800,1.5409677734375,-0.440856397151947,0.4646986424922943,0.07694442570209503
1789582855612936700,1.550936767578125,-0.49396562576293945,0.4954392611980438,0.05957140773534775
1789582855622904800,1.56090478515625,-0.5093656182289124,0.5145983099937439,0.015756547451019287
1789582855632872700,1.570872802734375,-0.5260348320007324,0.5010285973548889,-0.0018645748496055603
1789582855642840800,1.5808408203125,-0.5820690989494324,0.48205649852752686,0.018019650131464005
1789582855652810000,1.59081005859375,-0.6633391976356506,0.4793379604816437,-0.0038907076232135296
1789582855662777600,1.600777587890625,-0.7120928764343262,0.4384637475013733,0.0032660048454999924
1789582855672745700,1.610745849609375,-0.8318514227867126,0.4704088866710663,-0.020624155178666115
1789582855682713900,1.6207138671875,-0.8982828855514526,0.46403592824935913,-0.03845002502202988
1789582855692682800,1.630682861328125,-0.8400747179985046,0.3968569040298462,0.009947868064045906
1789582855702651000,1.64065087890625,-0.8841028809547424,0.4016372561454773,-0.0019159824587404728
1789582855712618800,1.65061865234375,-0.9312778115272522,0.43400293588638306,-0.007142513990402222
1789582855722586600,1.660586669921875,-0.8585226535797119,0.342410683631897,0.017194250598549843
1789582855732554800,1.6705546875,-0.8523364663124084,0.3659760653972626,0.0042939516715705395
1789582855742523600,1.680523681640625,-0.8895562291145325,0.37800291180610657,0.05951593071222305
1789582855752491800,1.69049169921875,-0.900500476360321,0.3626159727573395,0.06471947580575943
1789582855762459600,1.700459716796875,-1.0073730945587158,0.41008150577545166,0.027529127895832062
1789582855772427800,1.710427734375,-0.9879767298698425,0.3307574689388275,0.027226638048887253
1789582855782396700,1.720396728515625,-0.9582619667053223,0.2417956292629242,0.035056598484516144
1789582855792364800,1.73036474609375,-0.9415023326873779,0.2245207279920578,-0.00014667212963104248
1789582855802332700,1.740332763671875,-0.8841676712036133,0.18807511031627655,-0.030672091990709305
1789582855812300800,1.75030078125,-0.9285438656806946,0.20436421036720276,0.005644851829856634
1789582855822269700,1.760269775390625,-0.937098503112793,0.23028582334518433,-0.040126364678144455
1789582855832237800,1.77023779296875,-0.8545359373092651,0.1616450548171997,-0.014221221208572388
1789582855842205700,1.780205810546875,-0.8964822888374329,0.19273985922336578,-0.009536986239254475
1789582855852173800,1.790173828125,-0.9533382058143616,0.2158544808626175,0.008770535700023174
1789582855862142700,1.800142822265625,-0.9483594298362732,0.16603019833564758,0.016868941485881805
1789582855872110800,1.81011083984375,-0.9002451300621033,0.12676480412483215,-0.009138157591223717
1789582855882078700,1.82007861328125,-0.9480496048927307,0.14762692153453827,0.022474810481071472
1789582855892046600,1.830046630859375,-0.8856790065765381,0.10383452475070953,0.07923443615436554
1789582855902015700,1.840015625,-0.8211937546730042,0.06666558980941772,0.08459991216659546
1789582855911983600,1.849983642578125,-0.8072541952133179,0.09775898605585098,0.05290444195270538
1789582855921951700,1.85995166015625,-0.6882021427154541,0.041739657521247864,0.024587582796812057
1789582855931920000,1.869919921875,-0.6720274686813354,0.05116013064980507,0.0863618552684784
1789582855941888800,1.879888671875,-0.6349964737892151,0.028568003326654434,0.07166333496570587
1789582855951857000,1.88985693359375,-0.6372016668319702,0.05001421272754669,-0.015410304069519043
1789582855961824800,1.89982470703125,-0.5898746252059937,-0.022819513455033302,0.006275815889239311
1789582855971792600,1.909792724609375,-0.5532907247543335,-0.035863928496837616,-0.02882632240653038
1789582855981761800,1.91976171875,-0.6847885847091675,-0.005605890415608883,-0.0053002238273620605
1789582855991729700,1.929729736328125,-0.6734291315078735,-0.01404324546456337,0.004923239815980196
1789582856001697800,1.93969775390625,-0.616007387638092,-0.10594519972801208,0.056948624551296234
1789582856011666000,1.949666015625,-0.6985146999359131,-0.082154780626297,0.07585728168487549
1789582856021634800,1.959634765625,-0.6915806531906128,-0.10476288944482803,0.05660076066851616
1789582856031603000,1.96960302734375,-0.712992250919342,-0.13481676578521729,0.10743321478366852
1789582856041570600,1.979570556640625,-0.6896339058876038,-0.14990302920341492,0.09333577007055283
1789582856051538700,1.98953857421875,-0.6364918947219849,-0.1460646688938141,0.013081833720207214
1789582856061507600,1.999507568359375,-0.5663924813270569,-0.17792832851409912,0.01750028505921364
1789582856071475700,2.009475830078125,-0.48658788204193115,-0.21275091171264648,0.060551658272743225
1789582856081443800,2.01944384765625,-0.4766862392425537,-0.18723437190055847,0.05827998369932175
1789582856091411700,2.02941162109375,-0.4128725826740265,-0.21627521514892578,0.014388373121619225
1789582856101380900,2.039380859375,-0.3637276589870453,-0.24591459333896637,0.05039937049150467
1789582856111348700,2.0493486328125,-0.40294474363327026,-0.23065470159053802,0.10710597783327103
1789582856121316600,2.059316650390625,-0.352087140083313,-0.2690891921520233,0.1314411461353302
1789582856131284700,2.06928466796875,-0.33021754026412964,-0.3304360508918762,0.15548665821552277
1789582856141253600,2.079253662109375,-0.28655126690864563,-0.321595698595047,0.02847198396921158
1789582856151221800,2.0892216796875,-0.2681042551994324,-0.3197811245918274,0.016970194876194
1789582856161190000,2.09918994140625,-0.24117544293403625,-0.3410089313983917,0.09729459136724472
1789582856171157800,2.10915771484375,-0.23911210894584656,-0.34669801592826843,0.13099420070648193
1789582856181125600,2.119125732421875,-0.22297601401805878,-0.34695765376091003,0.09800136834383011
1789582856191094500,2.129094482421875,-0.195463627576828,-0.3409214913845062,0.08748336136341095
1789582856201062700,2.139062744140625,-0.10112515836954117,-0.3782736659049988,0.0927918404340744
1789582856211030800,2.14903076171875,-0.013361269608139992,-0.3754400908946991,0.06747891753911972
1789582856220998700,2.15899853515625,0.08730381727218628,-0.40538227558135986,0.08431968092918396
1789582856230967800,2.1689677734375,0.17816896736621857,-0.3944355845451355,0.05565835162997246
1789582856240935700,2.178935791015625,0.24497994780540466,-0.36204034090042114,0.009561963379383087
1789582856250903800,2.18890380859375,0.29353925585746765,-0.37982919812202454,0.06725594401359558
1789582856260871700,2.19887158203125,0.3541378676891327,-0.35417789220809937,0.062173031270504
1789582856270840600,2.208840576171875,0.38511425256729126,-0.30119431018829346,0.013107666745781898
1789582856280808700,2.21880859375,0.3668324649333954,-0.33527877926826477,0.08879896253347397
1789582856290776800,2.22877685546875,0.45389288663864136,-0.3439064025878906,0.03943639248609543
1789582856300744700,2.23874462890625,0.4209946095943451,-0.33373844623565674,0.03570317104458809
1789582856310713900,2.2487138671875,0.38401058316230774,-0.3267150819301605,0.05235201492905617
1789582856320681700,2.258681640625,0.4710077941417694,-0.3466475307941437,-0.007690814323723316
1789582856330649900,2.26864990234375,0.31971701979637146,-0.2834567725658417,0.03196651488542557
1789582856340617700,2.27861767578125,0.2812409996986389,-0.3161475956439972,0.08901248872280121
1789582856350586600,2.288586669921875,0.4446168541908264,-0.3823411464691162,0.06598624587059021
1789582856360554800,2.2985546875,0.2848077416419983,-0.28068163990974426,0.05929984524846077
1789582856370522600,2.308522705078125,0.22950732707977295,-0.23774151504039764,0.04164089635014534
1789582856380490800,2.31849072265625,0.31850966811180115,-0.3230705261230469,0.062242843210697174
1789582856390459600,2.328459716796875,0.3688966929912567,-0.27827364206314087,-0.010667291469871998
1789582856400427800,2.338427734375,0.2762482464313507,-0.23359298706054688,0.014538994058966637
1789582856410396000,2.34839599609375,0.2874162197113037,-0.2602880001068115,0.018984287977218628
1789582856420363800,2.35836376953125,0.32988083362579346,-0.23564575612545013,0.07910647988319397
1789582856430331600,2.36833154296875,0.34581080079078674,-0.19876383244991302,-0.03407396003603935
1789582856440300800,2.37830078125,0.20896907150745392,-0.198598712682724,0.07041489332914352
1789582856450268700,2.3882685546875,0.346295028924942,-0.20461775362491608,0.02645808644592762
1789582856460236800,2.39823681640625,0.34914809465408325,-0.23114843666553497,-0.017095515504479408
1789582856470205000,2.408204833984375,0.18938404321670532,-0.2407790869474411,0.08195378631353378
1789582856480173800,2.418173828125,0.24620285630226135,-0.2551359236240387,0.011122751981019974
1789582856490141700,2.4281416015625,0.24339057505130768,-0.30931082367897034,-0.046745993196964264
1789582856500109600,2.438109619140625,0.174383282661438,-0.2688896358013153,0.06516855955123901
1789582856510077700,2.44807763671875,0.2611864507198334,-0.22445419430732727,0.023316750302910805
1789582856520046600,2.458046630859375,0.3423928916454315,-0.2140100747346878,-0.09278695285320282
1789582856530014700,2.4680146484375,0.35734567046165466,-0.2571133077144623,-0.01329164020717144
1789582856539982800,2.47798291015625,0.5341718196868896,-0.2877465784549713,-0.030785411596298218
1789582856549950700,2.48795068359375,0.5521144866943359,-0.27876418828964233,-0.021911021322011948
1789582856559919900,2.497919921875,0.4591480493545532,-0.18113642930984497,-0.002329596783965826
1789582856569887700,2.5078876953125,0.5711421966552734,-0.17428801953792572,-0.012172466143965721
1789582856579855600,2.517855712890625,0.5848545432090759,-0.17188052833080292,-0.016937127336859703
1789582856589824300,2.52782421875,0.5389844179153442,-0.11943622678518295,-0.00799252837896347
1789582856599793200,2.537793212890625,0.6433038711547852,-0.15199391543865204,-0.07181545346975327
1789582856609761300,2.54776123046875,0.5998716950416565,-0.15879769623279572,0.041336338967084885
1789582856619729200,2.557729248046875,0.586911141872406,-0.12522615492343903,0.0052917832508683205
1789582856629697000,2.567697021484375,0.6516830325126648,-0.08282849937677383,-0.1040978729724884
1789582856639665200,2.5776650390625,0.6821756958961487,-0.09690090268850327,-0.03698595240712166
1789582856649634000,2.587634033203125,0.5756614208221436,-0.07081910967826843,0.034233152866363525
1789582856659602200,2.597602294921875,0.5940015316009521,-0.012917720712721348,-0.02577878348529339
1789582856669570300,2.6075703125,0.5954083800315857,-0.08793223649263382,0.022225772961974144
1789582856679538000,2.617537841796875,0.4726715087890625,0.0293432604521513,-0.018930982798337936
1789582856689507000,2.627507080078125,0.5109189748764038,0.012200815603137016,-0.02646460384130478
1789582856699475000,2.637474853515625,0.48283061385154724,-0.002271068748086691,0.00993788056075573
1789582856709443000,2.647443115234375,0.4894188642501831,-0.012472136877477169,0.012009081430733204
1789582856719411200,2.6574111328125,0.4945220351219177,0.013600743375718594,-0.0462249293923378
1789582856729380000,2.667380126953125,0.4499516785144806,-0.007824253290891647,0.04780085012316704
1789582856739348200,2.67734814453125,0.4422399699687958,0.04151533171534538,0.029110781848430634
1789582856749316000,2.687316162109375,0.4214935004711151,0.05524647608399391,0.03706125542521477
1789582856759284000,2.697283935546875,0.41159480810165405,0.06902993470430374,-0.023615406826138496
1789582856769252000,2.707252197265625,0.3874762952327728,0.06704001873731613,0.0253642275929451
1789582856779221000,2.717220947265625,0.4128357172012329,0.11163198202848434,-0.011119215749204159
1789582856789189000,2.727189208984375,0.4516203999519348,0.1463228464126587,-0.030124332755804062
1789582856799157200,2.7371572265625,0.36461517214775085,0.14059333503246307,-0.01552621554583311
1789582856809125000,2.747125,0.3311081528663635,0.1514430195093155,0.013525988906621933
1789582856819094300,2.75709423828125,0.3847820460796356,0.16107115149497986,-0.018065493553876877
1789582856829062100,2.767062255859375,0.3084444999694824,0.2053716480731964,0.032869674265384674
1789582856839030000,2.777030029296875,0.32343438267707825,0.25010716915130615,0.023629572242498398
1789582856848998100,2.786998046875,0.32847392559051514,0.2361762821674347,0.07451480627059937
1789582856858967000,2.796967041015625,0.1953827142715454,0.28539976477622986,0.04011848196387291
1789582856868935200,2.80693505859375,0.18872375786304474,0.24297943711280823,0.034980759024620056
1789582856878903000,2.816903076171875,0.13503390550613403,0.21338319778442383,0.04607149213552475
1789582856888871200,2.82687109375,0.0410027876496315,0.244938924908638,0.06544552743434906
1789582856898840000,2.836840087890625,0.08868882060050964,0.22631783783435822,0.039156924933195114
1789582856908808200,2.84680810546875,-0.019158724695444107,0.2181873619556427,0.09766325354576111
1789582856918776000,2.856776123046875,-0.09212534129619598,0.24470631778240204,0.04599552974104881
1789582856928744200,2.866744140625,-0.03631112724542618,0.22869253158569336,0.01476164162158966
1789582856938712000,2.876712158203125,-0.07950493693351746,0.2917622923851013,0.03466317802667618
1789582856948681200,2.88668115234375,-0.007624181918799877,0.22217828035354614,0.005544837564229965
1789582856958649000,2.896649169921875,-0.0677623525261879,0.1835203766822815,0.042724162340164185
1789582856968617200,2.9066171875,-0.11500177532434464,0.270495742559433,-0.006813561078161001
1789582856978585000,2.916585205078125,-0.06334763020277023,0.22341692447662354,0.039052195847034454
1789582856988554000,2.926553955078125,-0.14950212836265564,0.33245566487312317,0.052037909626960754
1789582856998522000,2.936522216796875,-0.08857539296150208,0.30523842573165894,0.03227938339114189
1789582857008490000,2.946489990234375,-0.10596395283937454,0.19932816922664642,0.07255743443965912
1789582857018458000,2.9564580078125,-0.22465012967586517,0.2638871967792511,0.0068543278612196445
1789582857028426200,2.96642626953125,-0.1642458587884903,0.22973394393920898,0.03261541947722435
1789582857038395100,2.97639501953125,-0.192584827542305,0.24309955537319183,0.026590818539261818
1789582857048363300,2.98636328125,-0.24020229279994965,0.2697676420211792,-0.024715330451726913
1789582857058331100,2.9963310546875,-0.2289842665195465,0.2289682775735855,0.007146196439862251
1789582857068299000,3.006299072265625,-0.35280007123947144,0.2806667983531952,-0.006086990237236023
1789582857078268200,3.01626806640625,-0.2494257688522339,0.2761732339859009,-0.0997261255979538
1789582857088236000,3.026236083984375,-0.3059873878955841,0.23029252886772156,0.05501646548509598
1789582857098204200,3.0362041015625,-0.3350145220756531,0.23782315850257874,0.008593570441007614
1789582857108172300,3.04617236328125,-0.3272762894630432,0.2899898588657379,-0.06214844435453415
1789582857118140200,3.05614013671875,-0.3584810793399811,0.22545534372329712,0.08435790240764618
1789582857128109300,3.066109375,-0.3726402819156647,0.22607916593551636,0.019740846008062363
1789582857138077000,3.076076904296875,-0.3392607271671295,0.17098449170589447,-0.0626099556684494
1789582857148045000,3.086045166015625,-0.4452153742313385,0.13019242882728577,0.03734590858221054
1789582857158013200,3.09601318359375,-0.4121066927909851,0.11341585218906403,0.008209063671529293
1789582857167982000,3.105982177734375,-0.4384578466415405,0.14585158228874207,-0.05341815948486328
1789582857177950200,3.1159501953125,-0.5019955039024353,0.1024356558918953,-0.001613016240298748
1789582857187918000,3.12591796875,-0.5314942002296448,0.11502811312675476,-0.04289761185646057
1789582857197886200,3.13588623046875,-0.5306110978126526,0.1253635734319687,0.014027722179889679
1789582857207855000,3.145855224609375,-0.4824310839176178,0.0929236114025116,-0.010323423892259598
1789582857217823000,3.155822998046875,-0.5609948039054871,0.07604929059743881,0.03425389528274536
1789582857227791000,3.165791015625,-0.5199510455131531,0.025197993963956833,0.05229463800787926
1789582857237759200,3.17575927734375,-0.42805734276771545,0.019293231889605522,-0.019687410444021225
1789582857247727000,3.18572705078125,-0.5309802293777466,0.03716660663485527,0.0667167603969574
1789582857257696300,3.1956962890625,-0.49018594622612,-0.021337449550628662,0.08249039947986603
1789582857267664100,3.2056640625,-0.4048785865306854,-0.04535087198019028,0.05314317345619202
1789582857277632300,3.21563232421875,-0.4273202419281006,0.0346616730093956,0.04429721459746361
1789582857287600000,3.22560009765625,-0.3800410330295563,-0.028456775471568108,0.016225676983594894
1789582857297569000,3.235569091796875,-0.36075282096862793,-0.07728743553161621,0.04491644352674484
1789582857307537200,3.245537109375,-0.3359522521495819,-0.034101519733667374,-0.002656197175383568
1789582857317505000,3.255505126953125,-0.3190630078315735,-0.06029903516173363,0.03066900372505188
1789582857327473200,3.26547314453125,-0.27446249127388,-0.10863671451807022,-0.012412231415510178
1789582857337441300,3.275441162109375,-0.2829909920692444,-0.08474337309598923,0.03545409440994263
1789582857347410200,3.28541015625,-0.23140394687652588,-0.09923557192087173,0.03800578787922859
1789582857357378000,3.2953779296875,-0.18052159249782562,-0.10438798367977142,0.00555836595594883
1789582857367346200,3.30534619140625,-0.17424876987934113,-0.13633222877979279,0.03539140895009041
1789582857377314000,3.31531396484375,-0.17804750800132751,-0.15086936950683594,0.09939488768577576
1789582857387283200,3.325283203125,-0.07901711761951447,-0.12841114401817322,0.043994445353746414
1789582857397251000,3.3352509765625,-0.08935471624135971,-0.13620515167713165,0.03126000612974167
1789582857407219200,3.34521923828125,-0.05593561381101608,-0.17906951904296875,0.1006745845079422
1789582857417187300,3.355187255859375,-0.047537337988615036,-0.10069481283426285,0.04922923445701599
1789582857427155000,3.365155029296875,-0.015433134511113167,-0.11043732613325119,0.008199987933039665
1789582857437124000,3.3751240234375,-0.03201131150126457,-0.1432032585144043,0.06059502065181732
1789582857447092000,3.385092041015625,0.0016000374453142285,-0.14393244683742523,0.08437293767929077
1789582857457060000,3.39506005859375,0.01752707175910473,-0.09931544214487076,-0.0013214540667831898
1789582857467028200,3.4050283203125,0.0051641459576785564,-0.14516602456569672,0.034039467573165894
1789582857476996000,3.41499609375,0.016120124608278275,-0.16479599475860596,0.06456505507230759
1789582857486965200,3.42496533203125,0.027631809934973717,-0.13210797309875488,0.008087260648608208
1789582857496933000,3.43493310546875,-0.0366867259144783,-0.11675645411014557,0.02809292823076248
1789582857506901000,3.44490087890625,-0.05004817619919777,-0.17410822212696075,0.08939515054225922
1789582857516869000,3.454869140625,-0.06450328230857849,-0.12968990206718445,0.06988563388586044
1789582857526838000,3.464838134765625,-0.0346326120197773,-0.12353800237178802,0.01718316599726677
1789582857536806100,3.47480615234375,-0.043767254799604416,-0.14983884990215302,0.041874129325151443
1789582857546774300,3.484774169921875,-0.015287050046026707,-0.12030655145645142,0.00364628410898149
1789582857556742100,3.4947421875,-0.06148224323987961,-0.08100548386573792,-0.0015420862473547459
1789582857566710300,3.504710205078125,-0.05737575888633728,-0.14375264942646027,0.018003009259700775
1789582857576679200,3.51467919921875,0.02306901477277279,-0.10625693947076797,-0.04755842685699463
1789582857586646800,3.524646728515625,-0.007469326723366976,-0.05565369129180908,-0.035110652446746826
1789582857596615000,3.534614990234375,-0.08833381533622742,-0.10610301792621613,-0.002898387610912323
1789582857606582800,3.544582763671875,-0.03076009452342987,-0.08795887231826782,-0.050528720021247864
1789582857616552000,3.554552001953125,-0.05625959858298302,-0.09851138293743134,-0.050777994096279144
1789582857626519800,3.564519775390625,-0.1333107054233551,-0.12500610947608948,0.012771952897310257
1789582857636488000,3.574488037109375,-0.024242540821433067,-0.19744354486465454,-0.0024091308005154133
1789582857646455800,3.584455810546875,-0.06771375983953476,-0.15293478965759277,-0.023862089961767197
1789582857656423700,3.594423583984375,-0.01595255918800831,-0.1682647466659546,-0.02948029339313507
1789582857666392800,3.604392822265625,0.016318874433636665,-0.15677210688591003,-0.0028277458623051643
1789582857676361000,3.61436083984375,0.07040048390626907,-0.189273864030838,-0.0009880340658128262
1789582857686328800,3.624328857421875,0.06640521436929703,-0.08373899757862091,-0.07346285879611969
1789582857696297000,3.634296875,0.1411321759223938,-0.12857943773269653,-0.07010248303413391
1789582857706265000,3.64426513671875,0.0587400384247303,-0.1294834464788437,0.01024913415312767
1789582857716234000,3.65423388671875,0.17611141502857208,-0.12626448273658752,-0.059528615325689316
1789582857726201900,3.664201904296875,0.18897853791713715,-0.09972531348466873,-0.09527410566806793
1789582857736169700,3.674169677734375,0.18859238922595978,-0.1869630068540573,-0.02388753741979599
1789582857746137900,3.684137939453125,0.2010461986064911,-0.12899979948997498,0.0038576284423470497
1789582857756106800,3.694106689453125,0.2055291086435318,-0.10400976240634918,-0.05242748185992241
1789582857766075000,3.704074951171875,0.19823899865150452,-0.12080103904008865,-0.03041769005358219
1789582857776043000,3.71404296875,0.2951676845550537,-0.1457844227552414,-0.009571263566613197
1789582857786011000,3.724010986328125,0.2750287353992462,-0.09561331570148468,-0.010382819920778275
1789582857795978800,3.733978759765625,0.35733774304389954,-0.17480453848838806,-0.009164955466985703
1789582857805948000,3.743947998046875,0.2976320683956146,-0.05691603571176529,-0.04307355731725693
1789582857815915800,3.753915771484375,0.31735679507255554,-0.07522553205490112,0.0073818932287395
1789582857825884000,3.7638837890625,0.33466026186943054,-0.0884324386715889,-0.0471685454249382
1789582857835852000,3.77385205078125,0.26942187547683716,-0.024389537051320076,-0.049453005194664
1789582857845820000,3.78381982421875,0.3319023549556732,-0.07208539545536041,0.01782792992889881
1789582857855789000,3.7937890625,0.3327348530292511,-0.06789251416921616,0.06526974588632584
1789582857865756700,3.803756591796875,0.2924077808856964,-0.035939548164606094,0.03699812665581703
1789582857875724800,3.813724853515625,0.2907257378101349,-0.05524933338165283,0.05607115477323532
1789582857885693000,3.82369287109375,0.3062504827976227,-0.1031370535492897,0.11836788058280945
1789582857895661800,3.833661865234375,0.28660887479782104,0.002272991230711341,0.02257663942873478
1789582857905630000,3.8436298828125,0.2813204228878021,-0.0491604320704937,-0.04985914006829262
1789582857915597800,3.853597900390625,0.26525038480758667,-0.050999876111745834,-0.049070846289396286
1789582857925566000,3.86356591796875,0.27230560779571533,-0.01305942889302969,-0.03487715870141983
1789582857935533800,3.873533935546875,0.3241828978061676,-0.03566061332821846,-0.006708904635161161
1789582857945502700,3.883502685546875,0.34714579582214355,-0.03981388360261917,-0.0017537884414196014
1789582857955470800,3.893470947265625,0.33118918538093567,0.053863875567913055,-0.025360314175486565
1789582857965438700,3.903438720703125,0.3221774399280548,0.05335935205221176,-0.03280717507004738
1789582857975406800,3.91340673828125,0.32005250453948975,0.03849385306239128,0.09337632358074188
1789582857985375000,3.923375,0.33374959230422974,0.11081491410732269,0.06129865720868111
1789582857995344000,3.93334375,0.31139424443244934,0.03408417850732803,0.05217786133289337
1789582858005312000,3.94331201171875,0.2755033075809479,0.06141945347189903,0.0631185919046402
1789582858015279900,3.95327978515625,0.26536065340042114,0.08626142144203186,0.008875858038663864
1789582858025247700,3.963247802734375,0.20250946283340454,0.0927530899643898,-0.012144854292273521
1789582858035216000,3.9732158203125,0.23136374354362488,0.09473475068807602,0.05117525905370712
1789582858045184800,3.983184814453125,0.210981547832489,0.09209123998880386,-0.01446892786771059
1789582858055153000,3.99315283203125,0.14587418735027313,0.15215536952018738,-0.028986617922782898
1789582858065121000,4.00312109375,0.1740904450416565,0.1484866589307785,-0.027431214228272438
1789582858075089000,4.0130888671875,0.08702825009822845,0.11668717861175537,0.04434151202440262
1789582858085058000,4.02305810546875,0.05389252305030823,0.15674856305122375,-0.015997042879462242
1789582858095025700,4.033025634765625,0.09014692902565002,0.12554563581943512,-0.01971747912466526
1789582858104993800,4.042993896484375,0.03209057077765465,0.08732245117425919,0.07044734805822372
1789582858114962000,4.0529619140625,0.037307437509298325,0.16300763189792633,-0.029904020950198174
1789582858124929800,4.0629296875,0.09404520690441132,0.11534107476472855,-0.05850822851061821
1789582858134899000,4.07289892578125,0.08492574095726013,0.09115078300237656,0.031950563192367554
1789582858144866800,4.08286669921875,0.08392441272735596,0.1365916132926941,0.022868702188134193
1789582858154835000,4.0928349609375,0.10707180947065353,0.18501053750514984,-0.058338798582553864
1789582858164802800,4.102802734375,0.08410683274269104,0.14143866300582886,0.03850451111793518
1789582858174771000,4.11277099609375,0.05991147831082344,0.17127059400081635,0.010303499177098274
1789582858184739800,4.12273974609375,0.08556202799081802,0.12748415768146515,-0.013190308585762978
1789582858194708000,4.1327080078125,0.07488194853067398,0.14836014807224274,0.004580966662615538
1789582858204675800,4.14267578125,0.09444805234670639,0.10741695761680603,0.02003198303282261
1789582858214644000,4.15264404296875,0.06313913315534592,0.13949953019618988,0.013259564526379108
1789582858224611800,4.16261181640625,0.06227816268801689,0.15473362803459167,-0.039986152201890945
1789582858234580700,4.172580810546875,0.010753985494375229,0.1357032209634781,0.03675895556807518
1789582858244548900,4.182548828125,0.03035224787890911,0.15285861492156982,-0.004441532306373119
1789582858254516700,4.192516845703125,0.052634917199611664,0.1170865073800087,-0.014156476594507694
1789582858264484900,4.20248486328125,-0.037028685212135315,0.15057513117790222,0.0110095776617527
1789582858274453000,4.212452880859375,-0.007717664819210768,0.2034551203250885,-0.18942178785800934
1789582858284422000,4.222421875,-0.1827918291091919,-0.05786610767245293,0.4478059411048889
1789582858294390000,4.23239013671875,-0.13318993151187897,0.23817406594753265,-0.20014861226081848
1789582858304358000,4.24235791015625,-0.1705564558506012,0.06791117787361145,0.06894558668136597
1789582858314325800,4.25232568359375,-0.3094163239002228,0.09480058401823044,0.03418387845158577
1789582858324294000,4.2622939453125,-0.24939678609371185,0.05784241482615471,0.02782730758190155
1789582858334262800,4.2722626953125,-0.21883274614810944,0.09668727964162827,-0.11653812229633331
1789582858344231000,4.28223095703125,-0.3537367284297943,0.14648380875587463,0.059308603405952454
1789582858354199000,4.292198974609375,-0.2938414216041565,0.13079805672168732,0.03247113153338432
1789582858364167000,4.3021669921875,-0.4005132019519806,0.1373479813337326,-0.005900889169424772
1789582858374134800,4.312134765625,-0.472962349653244,0.13117744028568268,0.04027672857046127
1789582858384103700,4.322103759765625,-0.3451538383960724,0.0039017479866743088,0.04026881232857704
1789582858394071800,4.33207177734375,-0.48075586557388306,0.09606709331274033,0.03303007408976555
1789582858404040000,4.3420400390625,-0.43275880813598633,0.06471908092498779,-0.02484447881579399
1789582858414007800,4.3520078125,-0.4113991856575012,0.058111246675252914,-0.0701882615685463
1789582858423976000,4.361975830078125,-0.4865381717681885,0.14048591256141663,-0.04286584630608559
1789582858433944800,4.37194482421875,-0.45526522397994995,0.05846774950623512,0.05958383157849312
1789582858443913000,4.381912841796875,-0.4344788193702698,0.0936918705701828,0.0038478043861687183
1789582858453880800,4.391880859375,-0.4515957534313202,0.07258392125368118,0.028782714158296585
1789582858463848700,4.4018486328125,-0.3630068302154541,0.09105432778596878,-0.05024029687047005
1789582858473817900,4.41181787109375,-0.447480171918869,0.09447462111711502,0.004863702692091465
1789582858483786000,4.421785888671875,-0.45749157667160034,0.05166420340538025,0.08945217728614807
1789582858493753900,4.43175390625,-0.3766992688179016,0.01586066372692585,-0.008245355449616909
1789582858503722000,4.441721923828125,-0.3476628363132477,-0.010189133696258068,-0.060590602457523346
1789582858513689900,4.45168994140625,-0.39674675464630127,0.05988342687487602,-0.18195751309394836
1789582858523658800,4.46165869140625,-0.5286403298377991,0.042358849197626114,0.04961315169930458
1789582858533627000,4.471626953125,-0.4920485019683838,-0.04513930529356003,0.06205970048904419
1789582858543594800,4.4815947265625,-0.4837164878845215,-0.008395398035645485,-0.06623446196317673
1789582858553563000,4.49156298828125,-0.5060750842094421,-0.13075965642929077,0.14819633960723877
1789582858563531000,4.501531005859375,-0.4112582504749298,-0.11441093683242798,0.11598892509937286
1789582858573500000,4.5115,-0.3633274734020233,-0.07223871350288391,0.010488062165677547
1789582858583468000,4.521468017578125,-0.31094983220100403,-0.04656154662370682,0.05464167892932892
1789582858593436000,4.531435791015625,-0.25898972153663635,-0.08141140639781952,0.07308273762464523
1789582858603404000,4.541404052734375,-0.265563040971756,-0.0780085101723671,0.07483462989330292
1789582858613372200,4.5513720703125,-0.23181495070457458,-0.10381481051445007,0.02922666445374489
1789582858623339800,4.56133984375,-0.30338260531425476,-0.025366224348545074,0.014405690133571625
1789582858633309000,4.571308837890625,-0.17417266964912415,-0.12113988399505615,0.05113520845770836
1789582858643277000,4.581277099609375,-0.23427167534828186,-0.09268205612897873,0.024394160136580467
1789582858653245000,4.591244873046875,-0.18378905951976776,-0.11454634368419647,0.03813473880290985
1789582858663213000,4.601213134765625,-0.12330695986747742,-0.1425352841615677,0.029987642541527748
1789582858673181200,4.61118115234375,-0.14513209462165833,-0.08699718117713928,0.053357675671577454
1789582858683150000,4.621150146484375,-0.09819130599498749,-0.09979817271232605,0.02959403209388256
1789582858693118200,4.6311181640625,-0.018619779497385025,-0.12227418273687363,0.019631147384643555
1789582858703085800,4.6410859375,-0.009632709436118603,-0.13398891687393188,0.04058816656470299
1789582858713054000,4.651053955078125,-0.005339694209396839,-0.1292325109243393,-0.013930467888712883
1789582858723022000,4.66102197265625,-0.021307265385985374,-0.1353701651096344,-0.012961020693182945
1789582858732991000,4.670990966796875,-0.024131814017891884,-0.1521904170513153,-0.009782005101442337
1789582858742959000,4.680958984375,0.06011124327778816,-0.1580193042755127,-0.02125224657356739
1789582858752927000,4.690927001953125,0.06556539982557297,-0.16576138138771057,0.019278667867183685
1789582858762895000,4.70089501953125,0.1516253650188446,-0.13896143436431885,-0.041593730449676514
1789582858772863000,4.710863037109375,0.1520024687051773,-0.1539025753736496,0.007330668158829212
1789582858782831900,4.720831787109375,0.17130409181118011,-0.16608211398124695,0.04506033658981323
1789582858792800000,4.730800048828125,0.24175775051116943,-0.13592475652694702,-0.07509935647249222
1789582858802768000,4.740767822265625,0.18631651997566223,-0.1529722362756729,-0.04043630510568619
1789582858812736000,4.750736083984375,0.14483565092086792,-0.14376994967460632,-0.004564322531223297
1789582858822704000,4.7607041015625,0.17433354258537292,-0.21350769698619843,-0.030269380658864975
1789582858832673000,4.770673095703125,0.1516932100057602,-0.16234463453292847,-0.03505028784275055
1789582858842641000,4.780640869140625,0.15983568131923676,-0.20362523198127747,0.021273093298077583
1789582858852609000,4.790609130859375,0.23034445941448212,-0.14775210618972778,-0.029129892587661743
1789582858862577000,4.800576904296875,0.19851143658161163,-0.1395817995071411,0.0041977036744356155
1789582858872545000,4.810544921875,0.19680728018283844,-0.18434980511665344,0.02136657014489174
1789582858882514000,4.820513916015625,0.15929017961025238,-0.14165805280208588,-0.025267522782087326
1789582858892482000,4.83048193359375,0.21116109192371368,-0.19960737228393555,0.0216379351913929
1789582858902450200,4.8404501953125,0.19444911181926727,-0.10198850184679031,-0.029986156150698662
1789582858912417800,4.850417724609375,0.24680446088314056,-0.13360102474689484,-0.033497534692287445
1789582858922386000,4.860385986328125,0.26326653361320496,-0.13526266813278198,0.03197748586535454
1789582858932354800,4.870354736328125,0.2485496550798416,-0.0941045731306076,0.0033208089880645275
1789582858942323000,4.880322998046875,0.30095604062080383,-0.08561044186353683,-0.03770766779780388
1789582858952291000,4.890291015625,0.28273123502731323,-0.08792659640312195,0.02720022387802601
1789582858962259000,4.900259033203125,0.26829785108566284,-0.04753638058900833,0.047306884080171585
1789582858972227000,4.91022705078125,0.28781190514564514,-0.05957333743572235,0.005230007693171501
1789582858982196000,4.920196044921875,0.25363796949386597,-0.012072048150002956,-0.046274714171886444
1789582858992163800,4.930163818359375,0.1963842511177063,-0.05320749804377556,0.08270377665758133
1789582859002132000,4.940132080078125,0.2520270347595215,-0.07054562121629715,-0.03475861996412277
1789582859012100000,4.95010009765625,0.16848766803741455,-0.028440779075026512,-0.03119211457669735
1789582859022068000,4.96006787109375,0.20972782373428345,-0.06025326997041702,0.00825189147144556
1789582859032037000,4.970037109375,0.2918455898761749,-0.049588643014431,-0.09927723556756973
1789582859042005000,4.9800048828125,0.2777252793312073,-0.08755168318748474,-0.023740146309137344
1789582859051973000,4.98997314453125,0.2836382985115051,-0.11564510315656662,0.10655900835990906
1789582859061941000,4.99994091796875,0.29999756813049316,-0.06857027113437653,-0.052337173372507095
1789582859071908900,5.009908935546875,0.2275022715330124,-0.04681215435266495,0.0019191084429621696
1789582859081877000,5.019876953125,0.26261013746261597,-0.07737373560667038,-0.008333597332239151
1789582859091846000,5.029845947265625,0.27514004707336426,-0.07209481298923492,-0.020742330700159073
1789582859101814000,5.03981396484375,0.26381197571754456,-0.06985177844762802,-0.07456159591674805
1789582859111782100,5.0497822265625,0.24219481647014618,-0.10526463389396667,0.017928656190633774
1789582859121749800,5.059749755859375,0.19003470242023468,-0.07582487165927887,-0.03711004555225372
1789582859131718000,5.0697177734375,0.12363197654485703,-0.03356130048632622,-0.06916224956512451
1789582859141687000,5.07968701171875,0.14567327499389648,-0.08932138979434967,-0.02106543444097042
1789582859151655000,5.089655029296875,0.05310525372624397,-0.03985822573304176,0.054857559502124786
1789582859161623000,5.099623046875,0.12012308835983276,-0.029092635959386826,-0.010084947571158409
1789582859171591200,5.109591064453125,0.13150037825107574,0.015334216877818108,-0.0536409467458725
1789582859181559000,5.11955908203125,0.11632046103477478,-0.037356942892074585,0.042591873556375504
1789582859191528200,5.129528076171875,0.1775563806295395,-0.004611244425177574,-0.05061823129653931
1789582859201495800,5.139495849609375,0.15350334346294403,-0.0051276725716888905,-0.05765734985470772
1789582859211464000,5.1494638671875,0.10419066250324249,0.029169581830501556,0.0417291596531868
1789582859221432000,5.15943212890625,0.1706976592540741,0.025288285687565804,-0.018090415745973587
1789582859231400000,5.16939990234375,0.07961249351501465,0.06767383217811584,-0.02340928092598915
1789582859241368000,5.1793681640625,0.09563997387886047,0.005599742755293846,0.024314099922776222
1789582859251337000,5.1893369140625,0.13200943171977997,0.00995507650077343,-0.013741673901677132
1789582859261305000,5.19930517578125,0.05687515437602997,0.031064487993717194,-0.013443957082927227
1789582859271273000,5.20927294921875,0.05685970559716225,0.04249557480216026,-0.01638435199856758
1789582859281240800,5.21924072265625,0.09465599060058594,0.01262524165213108,-0.08041873574256897
1789582859291209000,5.229208984375,-0.032379187643527985,0.09240582585334778,-0.009312072768807411
1789582859301177900,5.239177734375,0.014415677636861801,0.08220681548118591,-0.038651831448078156
1789582859311146000,5.24914599609375,0.016783494502305984,0.05360260605812073,0.041980694979429245
1789582859321114000,5.259114013671875,0.008667411282658577,0.02410285174846649,0.10703568905591965
1789582859331082000,5.26908203125,0.021719031035900116,0.055362772196531296,0.04890953749418259
1789582859341049900,5.2790498046875,-0.0628545731306076,0.029771875590085983,0.04754476621747017
1789582859351019000,5.28901904296875,-0.06708100438117981,0.010085255838930607,0.01570960320532322
1789582859360987000,5.29898681640625,-0.04120071232318878,-0.00794437900185585,-0.0662219449877739
1789582859370955000,5.308955078125,-0.05465447157621384,0.017371896654367447,-0.1107044592499733
1789582859380923100,5.318923095703125,-0.10260763764381409,0.0021080072037875652,-0.04893418774008751
1789582859390891000,5.32889111328125,-0.09084711968898773,0.031727682799100876,-0.06550224125385284
1789582859400859000,5.33885888671875,-0.01902618259191513,-0.1028379499912262,0.21820764243602753
1789582859410827800,5.348827880859375,0.03261490538716316,0.08746594935655594,-0.13364388048648834
1789582859420796000,5.3587958984375,0.003070033621042967,0.01480493601411581,0.10389432311058044
1789582859430764000,5.368763916015625,0.15666331350803375,0.040620818734169006,-0.010983520187437534
1789582859440732000,5.37873193359375,0.1133759543299675,0.10224639624357224,-0.06325524300336838
1789582859450700000,5.388699951171875,0.15906833112239838,0.05621711537241936,-0.05076208710670471
1789582859460669000,5.3986689453125,0.16007846593856812,0.05008705332875252,0.03408622369170189
1789582859470637000,5.408636962890625,0.15808437764644623,0.017437031492590904,0.06782353669404984
1789582859480605000,5.41860498046875,0.04589252546429634,0.10915958136320114,-0.03402315452694893
1789582859490573000,5.428572998046875,0.05632279813289642,0.04338961839675903,0.008863324299454689
1789582859500541000,5.438541015625,0.1231464073061943,0.023985417559742928,0.000722330529242754
1789582859510509000,5.448509033203125,0.0012117173755541444,0.06475868076086044,0.03431358188390732
1789582859520478000,5.45847802734375,0.09641744941473007,0.08691192418336868,-0.028245482593774796
1789582859530446000,5.468446044921875,0.03863431513309479,0.09931293874979019,0.006503709126263857
1789582859540414200,5.478414306640625,0.05790802091360092,0.09971000254154205,0.04877747595310211
1789582859550381800,5.4883818359375,0.09415310621261597,0.08618993312120438,0.05868496745824814
1789582859560350000,5.498349853515625,0.01952233351767063,0.1434165984392166,0.033725764602422714
1789582859570318800,5.50831884765625,0.0006775407819077373,0.15789620578289032,-0.000624221283942461
1789582859580287000,5.518286865234375,0.006168815307319164,0.10642531514167786,0.006027057766914368
1789582859590255400,5.52825537109375,-0.07922305166721344,0.17459982633590698,0.0020690676756203175
1789582859600223200,5.53822314453125,-0.09375553578138351,0.11663083732128143,0.0378141812980175
1789582859610191400,5.54819140625,-0.043446559458971024,0.19815713167190552,-0.1456693559885025
1789582859620159500,5.558159423828125,-0.11948008090257645,0.16408003866672516,-0.02986288256943226
1789582859630128400,5.56812841796875,-0.15702666342258453,0.14630956947803497,0.055365461856126785
1789582859640096500,5.578096435546875,-0.08446580916643143,0.15063634514808655,-0.026043226942420006
1789582859650064400,5.588064453125,-0.1596204787492752,0.1749315708875656,-0.133341446518898
1789582859660032300,5.5980322265625,-0.28413188457489014,0.13126972317695618,0.11290717869997025
1789582859670000400,5.60800048828125,-0.1130051463842392,0.08087019622325897,-0.042892806231975555
1789582859679969300,5.61796923828125,-0.23448599874973297,0.1965489685535431,-0.06267029792070389
1789582859689937400,5.6279375,-0.17222101986408234,0.11357791721820831,0.031041814014315605
1789582859699905300,5.6379052734375,-0.07138029485940933,0.1296551674604416,-0.057659100741147995
1789582859709873400,5.647873291015625,-0.20559296011924744,0.19376571476459503,-0.058685485273599625
1789582859719841500,5.657841552734375,-0.17087359726428986,0.1311754733324051,0.02034342661499977
1789582859729809400,5.667809326171875,-0.1699974238872528,0.13226310908794403,0.02977527678012848
1789582859739778300,5.6777783203125,-0.21053268015384674,0.10685241222381592,0.07060033828020096
1789582859749746400,5.687746337890625,-0.1686432957649231,0.060906220227479935,0.042585745453834534
1789582859759714300,5.69771435546875,-0.18231900036334991,0.06310784816741943,0.012617005035281181
1789582859769682400,5.707682373046875,-0.1947879195213318,0.08348795771598816,-0.00214782590046525
1789582859779650600,5.717650634765625,-0.20032398402690887,0.08348441123962402,-0.025331910699605942
1789582859789619500,5.727619384765625,-0.20829854905605316,0.11065104603767395,-0.06710945814847946
1789582859799587300,5.73758740234375,-0.20023086667060852,0.07479412108659744,-0.02086687833070755
1789582859809555200,5.74755517578125,-0.15920567512512207,0.053632110357284546,-0.019022107124328613
1789582859819523300,5.7575234375,-0.13108745217323303,0.06350528448820114,0.029546689242124557
1789582859829491500,5.767491455078125,-0.14349059760570526,0.05311523377895355,0.009230497293174267
1789582859839459300,5.777459228515625,-0.1652042120695114,0.09630823880434036,-0.024552341550588608
1789582859849428500,5.787428466796875,-0.1207272857427597,0.019722117111086845,0.023853540420532227
1789582859859396400,5.797396240234375,-0.09745514392852783,0.04198598861694336,-0.06793305277824402
1789582859869364200,5.8073642578125,-0.1537410467863083,0.0563790425658226,-0.05141399800777435
1789582859879332400,5.817332275390625,-0.0810324177145958,-0.017079906538128853,0.008481121622025967
1789582859889300200,5.82730029296875,-0.15822866559028625,0.01296987198293209,0.05225763097405434
1789582859899268400,5.837268310546875,-0.17493918538093567,0.01461150124669075,0.012658062390983105
1789582859909237500,5.847237548828125,-0.17024163901805878,-0.015261176973581314,0.041995178908109665
1789582859919205400,5.857205322265625,-0.1370592713356018,-0.04574263095855713,0.03271060436964035
1789582859929173500,5.867173583984375,-0.1283848136663437,-0.04365471005439758,0.04834362864494324
1789582859939141400,5.877141357421875,-0.15910522639751434,0.01872670091688633,-0.040654756128787994
1789582859949109200,5.887109130859375,-0.1004088893532753,-0.006999167613685131,0.005007803440093994
1789582859959077400,5.897077392578125,-0.06598908454179764,-0.04587551951408386,0.03781375288963318
1789582859969046300,5.90704638671875,-0.08594521880149841,0.0021327505819499493,0.015312439762055874
1789582859979014400,5.917014404296875,-0.05758078768849373,-0.0352606400847435,-0.0034552710130810738
1789582859988982500,5.926982421875,-0.10617867857217789,-0.05444445461034775,0.05241598188877106
1789582859998950400,5.936950439453125,-0.09116696566343307,-0.06968442350625992,0.07257573306560516
1789582860008918300,5.946918212890625,-0.052346862852573395,-0.08497443050146103,0.011714779771864414
1789582860018887200,5.95688720703125,-0.05875794216990471,-0.0991489514708519,0.008721711114048958
1789582860028855300,5.966855224609375,-0.07033497095108032,-0.08805821090936661,0.01655939593911171
1789582860038823400,5.976823486328125,-0.044054724276065826,-0.07851668447256088,-0.04007726162672043
1789582860048791300,5.986791259765625,0.001003031968139112,-0.13513468205928802,0.015731409192085266
1789582860058759400,5.996759521484375,-0.04980052262544632,-0.07899735122919083,0.023650404065847397
1789582860068727300,6.006727294921875,0.01452253945171833,-0.10960133373737335,-0.016436295583844185
1789582860078696200,6.0166962890625,-0.02704966999590397,-0.10763565450906754,0.048063069581985474
1789582860088664300,6.026664306640625,0.0015593372518196702,-0.1270439773797989,0.006765163969248533
1789582860098632400,6.036632568359375,0.0632481575012207,-0.1395517885684967,-0.044037193059921265
1789582860108600300,6.046600341796875,0.00020447734277695417,-0.08096384257078171,-0.01752249337732792
1789582860118568400,6.056568359375,0.06803205609321594,-0.1013706773519516,-0.042875565588474274
1789582860128536600,6.06653662109375,0.06972981989383698,-0.08277568966150284,0.04537147283554077
1789582860138505500,6.07650537109375,0.03320105001330376,-0.049678727984428406,0.0375899001955986
1789582860148473300,6.086473388671875,0.0538642480969429,-0.06221476197242737,0.027678146958351135
1789582860158441200,6.096441162109375,0.042374491691589355,-0.07551413029432297,0.028440754860639572
1789582860168409300,6.106409423828125,0.049643054604530334,-0.0600704587996006,-0.051932115107774734
1789582860178377500,6.11637744140625,0.022023363038897514,-0.0906955823302269,-0.06871982663869858
1789582860188345300,6.126345458984375,-0.07319210469722748,-0.0818895772099495,-0.04904545471072197
1789582860198314500,6.136314453125,-0.10522917658090591,-0.05823967978358269,-0.08747798949480057
1789582860208282400,6.146282470703125,-0.06459386646747589,-0.07337868958711624,-0.09833650290966034
1789582860218250200,6.156250244140625,-0.048970792442560196,-0.10203823447227478,-0.0018077129498124123
1789582860228218400,6.16621826171875,-0.05031196027994156,-0.042147476226091385,-0.019061800092458725
1789582860238186200,6.176186279296875,0.009254309348762035,-0.09497138857841492,0.025875795632600784
1789582860248154400,6.186154296875,0.013108436018228531,-0.07593298703432083,0.030941925942897797
1789582860258123500,6.19612353515625,0.027632692828774452,-0.09239839017391205,0.011854383163154125
1789582860268091400,6.20609130859375,0.08849630504846573,-0.08058913052082062,-0.026498865336179733
1789582860278059500,6.2160595703125,0.09192553907632828,-0.11314629018306732,0.0569247342646122
1789582860288027400,6.22602734375,0.07062318176031113,-0.07177168875932693,0.021687917411327362
1789582860297995300,6.235995361328125,0.10363232344388962,-0.06631635874509811,-0.02563595212996006
1789582860307963400,6.24596337890625,0.11741338670253754,-0.07992856949567795,0.0042612263932824135
1789582860317932300,6.255932373046875,0.1644008755683899,-0.12103652954101562,0.04905587434768677
1789582860327900400,6.265900390625,0.11945364624261856,-0.06030447408556938,0.025975320488214493
1789582860337868500,6.27586865234375,0.10886336117982864,-0.06091200187802315,-0.00543340016156435
1789582860347836200,6.285836181640625,0.18032023310661316,-0.08927653729915619,0.040962591767311096
1789582860357804300,6.29580419921875,0.11281965672969818,-0.020784230902791023,-0.020825551822781563
1789582860367772400,6.3057724609375,0.06955580413341522,0.00540662556886673,-0.02128574624657631
1789582860377741300,6.3157412109375,0.11185245215892792,-0.05180393159389496,0.03155810758471489
1789582860387709400,6.32570947265625,0.09520210325717926,-0.00021583819761872292,-0.006969312205910683
1789582860397677300,6.33567724609375,0.07010180503129959,0.0009342156117781997,-0.0046980413608253
1789582860407645400,6.3456455078125,0.07114975899457932,0.013854275457561016,0.028969375416636467
1789582860417613300,6.35561328125,0.1016262099146843,0.017911212518811226,-0.019809560850262642
1789582860427581200,6.365581298828125,0.07680182158946991,0.04947899281978607,-0.037159256637096405
1789582860437550300,6.37555029296875,0.024405818432569504,0.04907609522342682,-0.02881316840648651
1789582860447518500,6.3855185546875,0.07688393443822861,-0.0035389121621847153,0.019949045032262802
1789582860457486300,6.395486328125,0.037339016795158386,0.07760997861623764,-0.020138990134000778
1789582860467454500,6.405454345703125,0.06778986006975174,0.043531373143196106,-0.0006065675988793373
1789582860477422600,6.415422607421875,0.06237521395087242,0.028344841673970222,0.02592930570244789
1789582860487390200,6.42539013671875,0.029056407511234283,0.041379414498806,0.002892429009079933
1789582860497359400,6.435359375,0.07471595704555511,0.04075169563293457,-0.08346733450889587
1789582860507327200,6.4453271484375,0.05488606542348862,0.008400682359933853,-0.03205128386616707
1789582860517295400,6.45529541015625,0.030597448348999023,0.0486999936401844,-0.012560626491904259
1789582860527263500,6.465263427734375,0.033244095742702484,0.06857304275035858,-0.04542962834239006
1789582860537231400,6.4752314453125,0.051715604960918427,-0.021996665745973587,0.10571715235710144
1789582860547199500,6.485199462890625,0.06486523151397705,0.06488816440105438,-0.006551601458340883
1789582860557168400,6.49516845703125,0.0840754583477974,0.05051901936531067,-0.09132980555295944
1789582860567136300,6.50513623046875,0.0029265396296977997,0.04077504575252533,0.06373168528079987
1789582860577104400,6.5151044921875,0.029109280556440353,0.026185963302850723,0.04735145345330238
1789582860587072000,6.525072021484375,0.015924502164125443,0.07376892864704132,-0.08101397752761841
1789582860597039600,6.53503955078125,0.030193131417036057,0.04381442815065384,-0.055166758596897125
1789582860607007700,6.5450078125,0.024758949875831604,0.020160764455795288,0.06968383491039276
1789582860616976600,6.5549765625,-0.04988532140851021,0.04593391343951225,0.04744132608175278
1789582860626944800,6.56494482421875,0.03198850527405739,0.09509134292602539,-0.041631292551755905
1789582860636913000,6.574912841796875,0.07131318747997284,0.07080386579036713,-0.00047532934695482254
1789582860646880800,6.584880859375,-0.040819209069013596,0.09461598843336105,0.06933757662773132
1789582860656848600,6.5948486328125,0.043476853519678116,0.10283704102039337,-0.024917952716350555
1789582860666816800,6.604816650390625,0.020915884524583817,0.042938292026519775,0.0549079030752182
1789582860676784600,6.61478466796875,-0.11818461865186691,0.10248152911663055,0.0884050726890564
1789582860686753800,6.62475390625,-0.0696176216006279,0.11021535098552704,0.021484091877937317
1789582860696722000,6.634721923828125,-0.06259943544864655,0.057198263704776764,0.019136711955070496
1789582860706689800,6.644689697265625,-0.10986761748790741,0.039816610515117645,0.06275183707475662
1789582860716658000,6.654657958984375,-0.048989437520504,0.03260446712374687,0.015245029702782631
1789582860726625800,6.664625732421875,-0.15111634135246277,0.10608401149511337,-0.045856673270463943
1789582860736593700,6.67459375,-0.1277962028980255,0.02388284169137478,0.04418346285820007
1789582860746562800,6.684562744140625,-0.09713469445705414,0.032592177391052246,0.012310218065977097
1789582860756530700,6.69453076171875,-0.11942972987890244,0.0442131832242012,-0.008808828890323639
1789582860766498800,6.704498779296875,-0.14368847012519836,0.026346569880843163,-0.002186613157391548
1789582860776467000,6.714467041015625,-0.13954588770866394,0.03198585286736488,0.028707314282655716
1789582860786434800,6.724434814453125,-0.12442605197429657,-0.02014818601310253,-0.000046568457037210464
1789582860796402700,6.734402587890625,-0.180399090051651,-0.005746874492615461,-0.000696458388119936
1789582860806371600,6.74437158203125,-0.16550269722938538,0.010138348676264286,-0.04901392385363579
1789582860816339700,6.754339599609375,-0.12667757272720337,-0.0635027289390564,0.027639519423246384
1789582860826307800,6.764307861328125,-0.1990274041891098,-0.009411529637873173,-0.025371767580509186
1789582860836275700,6.774275634765625,-0.13328702747821808,-0.04016276076436043,-0.021897057071328163
1789582860846243800,6.784243896484375,-0.07356911897659302,-0.10130360722541809,0.05732506141066551
1789582860856212000,6.7942119140625,-0.16067305207252502,-0.02536531537771225,0.01879015751183033
1789582860866179600,6.8041796875,-0.12142737954854965,-0.004182533826678991,-0.10651982575654984
1789582860876148700,6.814148681640625,-0.06587787717580795,-0.07932339608669281,-0.030231110751628876
1789582860886116900,6.824116943359375,-0.1264999508857727,-0.044401101768016815,-0.023721011355519295
1789582860896084700,6.834084716796875,-0.04259324073791504,-0.06990733742713928,-0.05798126012086868
1789582860906052900,6.844052978515625,-0.08933863788843155,-0.04377826303243637,0.010263572447001934
1789582860916021000,6.85402099609375,-0.08135559409856796,-0.01486298069357872,0.01937379501760006
1789582860925988600,6.863988525390625,-0.0038133938796818256,-0.045039255172014236,0.016885602846741676
1789582860935957800,6.873957763671875,0.015890762209892273,-0.06294462829828262,0.018901560455560684
1789582860945925600,6.883925537109375,0.030267838388681412,-0.04195572808384895,-0.002717715222388506
1789582860955893800,6.893893798828125,0.0444425493478775,-0.024916203692555428,-0.010566803626716137
1789582860965862000,6.90386181640625,0.009516257792711258,-0.006491121836006641,0.019782844930887222
1789582860975829800,6.913829833984375,0.034861788153648376,0.006588474847376347,-0.045045334845781326
1789582860985798000,6.9237978515625,0.008578252047300339,-0.011789732612669468,-0.01240217313170433
1789582860995766800,6.933766845703125,0.0060586752369999886,-0.03899580240249634,-0.005337154492735863
1789582861005734700,6.943734619140625,-0.0001715238904580474,-0.017813285812735558,-0.02620089054107666
1789582861015702800,6.953702880859375,-0.045914553105831146,0.015267553739249706,-0.01683487556874752
1789582861025670700,6.963670654296875,-0.031952664256095886,-0.03698340058326721,0.0245013777166605
1789582861035638800,6.973638671875,0.01069648191332817,-0.050959765911102295,0.013095119036734104
1789582861045607000,6.98360693359375,-0.06767662614583969,-0.026840584352612495,0.05562393739819527
1789582861055574800,6.99357470703125,-0.014544070698320866,-0.0662170946598053,0.0793476328253746
1789582861065544000,7.0035439453125,0.05785875394940376,-0.061604756861925125,0.005102959927171469
1789582861075511800,7.01351171875,-0.0190512053668499,-0.004953040275722742,0.004343297798186541
1789582861085479700,7.023479736328125,0.0759275034070015,-0.08197058737277985,0.04432506859302521
1789582861095447800,7.03344775390625,0.11763615906238556,-0.10128742456436157,0.018711186945438385
1789582861105416000,7.043416015625,0.05432642623782158,-0.0583743117749691,-0.004720903001725674
1789582861115383800,7.0533837890625,0.09644050151109695,-0.07782942801713943,0.009103580377995968
1789582861125353000,7.06335302734375,0.09374378621578217,-0.06632138043642044,0.04153182730078697
1789582861135320800,7.07332080078125,0.056694820523262024,-0.013826080597937107,0.05751990154385567
1789582861145911800,7.083911865234375,0.09612292051315308,0.0062512243166565895,-0.014739379286766052
1789582861155879700,7.093879638671875,0.14659647643566132,-0.04038626328110695,0.025534283369779587
1789582861165847800,7.103847900390625,0.08328089118003845,-0.004829068668186665,0.06014712154865265
1789582861175816000,7.11381591796875,0.061972539871931076,0.035916414111852646,0.006417377851903439
1789582861185783800,7.12378369140625,0.07707559317350388,0.04529047757387161,-0.01850741356611252
1789582861195753000,7.1337529296875,-0.000665939471218735,0.033918701112270355,0.05284299701452255
1789582861205720800,7.143720947265625,-0.012105814181268215,0.08206678181886673,0.02700607292354107
1789582861215688700,7.153688720703125,0.014530768617987633,0.05838507413864136,-0.03435796871781349
1789582861225656800,7.16365673828125,-0.06985895335674286,0.03254389017820358,0.011795146390795708
1789582861235624700,7.173624755859375,-0.019651303067803383,0.04008012264966965,-0.044805996119976044
1789582861245592800,7.1835927734375,-0.07912155985832214,0.029670095071196556,-0.009851476177573204
1789582861255561000,7.19356103515625,-0.2004704475402832,0.058852020651102066,0.013759434223175049
1789582861265529900,7.20352978515625,-0.0245518758893013,0.0027743710670620203,-0.058238327503204346
1789582861275497700,7.213497802734375,-0.04984445124864578,0.0028557563200592995,-0.003444449044764042
1789582861285465600,7.223465576171875,-0.1767565906047821,0.0465792678296566,0.02283003181219101
1789582861295433700,7.233433837890625,-0.07786215096712112,-0.023304276168346405,0.017502788454294205
1789582861305401900,7.24340185546875,-0.0789356678724289,-0.016023194417357445,-0.01094882469624281
1789582861315369700,7.25336962890625,-0.10220667719841003,-0.02442748472094536,0.057472359389066696
1789582861325337900,7.263337890625,-0.02468152716755867,-0.03510649502277374,-0.06598113477230072
1789582861335307000,7.27330712890625,-0.12437132745981216,0.04446081817150116,-0.05199028551578522
1789582861345274600,7.283274658203125,-0.008965636603534222,-0.02696037106215954,-0.043618641793727875
1789582861355242800,7.29324267578125,-0.03154338523745537,-0.03831694275140762,0.026326235383749008
1789582861365211000,7.3032109375,-0.010120116174221039,-0.02415984682738781,-0.014771666377782822
1789582861375178800,7.3131787109375,-0.006737769581377506,0.0027044443413615227,-0.035339195281267166
1789582861385147000,7.32314697265625,-0.07617649435997009,0.021808896213769913,-0.010189100168645382
1789582861395115000,7.333114990234375,-0.02643805369734764,-0.034567154943943024,-0.0003314325585961342
1789582861405084000,7.343083984375,0.009587591513991356,-0.043293800204992294,0.014664028771221638
1789582861415051800,7.3530517578125,-0.022312777116894722,-0.02609342336654663,0.031238306313753128
1789582861425019600,7.36301953125,0.002597898244857788,-0.05683828890323639,0.03872258588671684
1789582861434987800,7.37298779296875,0.014617144130170345,-0.03141540661454201,0.037323832511901855
1789582861444956000,7.382955810546875,-0.03335916996002197,-0.030440155416727066,0.04245947301387787
1789582861454923800,7.392923828125,-0.012403776869177818,-0.07026389986276627,0.03578004240989685
1789582861464893000,7.402892822265625,0.020781073719263077,-0.04975968971848488,0.006693531293421984
1789582861474860500,7.412860595703125,0.06811796128749847,-0.042188435792922974,-0.027638737112283707
1789582861484828700,7.42282861328125,0.0050330027006566525,-0.04602977633476257,0.0006725285202264786
1789582861494796800,7.432796875,-0.0032339817844331264,-0.04071863368153572,0.012789910659193993
1789582861504764700,7.4427646484375,0.004296416882425547,-0.06380750983953476,0.0166611485183239
1789582861514732800,7.45273291015625,-0.0864998921751976,-0.029374197125434875,0.033485665917396545
1789582861524701000,7.462700927734375,0.014300227165222168,-0.10381834208965302,0.05641254782676697
1789582861534669800,7.472669921875,-0.050539176911115646,-0.08889756351709366,-0.005107054486870766
1789582861544637700,7.4826376953125,-0.1371190845966339,-0.0033666836097836494,-0.03987036272883415
1789582861554605800,7.492605712890625,-0.0284738689661026,-0.11446107923984528,-0.0451207235455513
1789582861565196800,7.50319677734375,-0.11769349128007889,-0.0971238985657692,-0.007581868674606085
1789582861575164700,7.51316455078125,-0.09254153817892075,-0.09077290445566177,-0.042819079011678696
1789582861585132800,7.5231328125,-0.008477257564663887,-0.1264677792787552,-0.04232373088598251
1789582861595100400,7.533100341796875,-0.12610024213790894,-0.11807089298963547,0.017997998744249344
1789582861605069300,7.5430693359375,-0.043077800422906876,-0.10973147302865982,-0.032416172325611115
1789582861615037400,7.553037353515625,0.047249432653188705,-0.14405189454555511,-0.04550134763121605
1789582861625005600,7.563005615234375,-0.07321026921272278,-0.09612327069044113,0.025175558403134346
1789582861634973200,7.57297314453125,0.07975033670663834,-0.1684129387140274,-0.012619495391845703
1789582861644941300,7.58294140625,0.11316128820180893,-0.1289435625076294,0.013293329626321793
1789582861654909400,7.592909423828125,0.11587207764387131,-0.10001501441001892,-0.0005416129715740681
1789582861664878300,7.60287841796875,0.22429735958576202,-0.15327344834804535,0.04259440302848816
1789582861674846500,7.612846435546875,0.22871659696102142,-0.15175113081932068,0.08794884383678436
1789582861684814300,7.622814453125,0.21606925129890442,-0.0890486016869545,0.03010845184326172
1789582861694782200,7.6327822265625,0.2752189040184021,-0.07991679012775421,-0.011103494092822075
1789582861704750300,7.642750244140625,0.2293643355369568,-0.06377457082271576,0.010059048421680927
1789582861714718500,7.652718505859375,0.28963229060173035,-0.1027245968580246,-0.020282603800296783
1789582861724686300,7.662686279296875,0.2763897478580475,-0.09382883459329605,0.005239000078290701
1789582861734655500,7.672655517578125,0.2337910383939743,-0.026434391736984253,-0.04615096002817154
1789582861744623400,7.682623291015625,0.25333651900291443,-0.03703989461064339,-0.044749606400728226
1789582861754591500,7.692591552734375,0.2181677371263504,-0.0567493811249733,0.022393032908439636
1789582861764559400,7.702559326171875,0.17948266863822937,-0.02704980969429016,0.054808229207992554
1789582861774527200,7.71252734375,0.27403417229652405,-0.022876042872667313,-0.02848166786134243
1789582861784495400,7.722495361328125,0.16838042438030243,-0.026313116773962975,0.033596884459257126
1789582861794463500,7.73246337890625,0.12181922793388367,-0.04319547116756439,0.10184384137392044
1789582861804432400,7.742432373046875,0.21803897619247437,-0.0581163614988327,0.038912009447813034
1789582861814400500,7.752400390625,0.1348349004983902,0.046893779188394547,-0.02102096937596798
1789582861824368400,7.762368408203125,0.09001975506544113,-0.004357156343758106,0.04341980814933777
1789582861834336300,7.772336181640625,0.17203016579151154,-0.04093661904335022,0.07805788516998291
1789582861844304400,7.782304443359375,0.19058014452457428,-0.028091125190258026,0.051370084285736084
1789582861854272300,7.792272216796875,0.14394725859165192,0.022787466645240784,0.044842325150966644
1789582861864241400,7.802241455078125,0.18715304136276245,-0.009197897277772427,0.07673873752355576
1789582861874209300,7.812209228515625,0.1488921344280243,0.04526761546730995,0.05024776980280876
1789582861884177400,7.822177490234375,0.17427338659763336,0.07147178798913956,-0.05546454340219498
1789582861894145300,7.832145263671875,0.23455283045768738,0.008233655244112015,-0.05876562371850014
1789582861904113400,7.842113525390625,0.11258751153945923,0.046683307737112045,0.029815644025802612
1789582861914081300,7.852081298828125,0.16816359758377075,0.04673696309328079,0.005890735425055027
1789582861924049400,7.86204931640625,0.15738072991371155,0.08669157326221466,-0.025219779461622238
1789582861934018300,7.872018310546875,0.1163676530122757,0.10708966106176376,0.036710381507873535
1789582861943986400,7.881986328125,0.16648301482200623,0.08271827548742294,0.09217896312475204
1789582861953954600,7.89195458984375,0.10877329111099243,0.15582790970802307,0.04605365917086601
1789582861963922200,7.901922119140625,0.11853138357400894,0.17134535312652588,0.00332883233204484
1789582861973890300,7.911890380859375,0.14151738584041595,0.15608838200569153,-0.0024665785022079945
1789582861983858400,7.9218583984375,0.07244858145713806,0.1724039763212204,-0.0012678899802267551
1789582861993827300,7.931827392578125,0.04248344153165817,0.19834928214550018,-0.05402465537190437
1789582862003795500,7.94179541015625,0.0901404395699501,0.15936699509620667,-0.0674150288105011
1789582862013763300,7.951763427734375,-0.022702353075146675,0.19507937133312225,-0.0567370243370533
1789582862023731500,7.9617314453125,0.001782749081030488,0.14708654582500458,-0.024696264415979385
1789582862033699300,7.97169921875,-0.011753211729228497,0.18326477706432343,-0.0969073474407196
1789582862043667200,7.981667236328125,-0.04321473091840744,0.1569940149784088,-0.0569348968565464
1789582862053635300,7.99163525390625,0.0011163807939738035,0.10248329490423203,0.038590624928474426
1789582862063604500,8.0016044921875,0.015307566151022911,0.1764797568321228,-0.03457706421613693
1789582862073572400,8.011572265625,-0.05041711777448654,0.2072511464357376,-0.042862821370363235
1789582862083540500,8.02154052734375,0.011846257373690605,0.12494242936372757,0.016484392806887627
1789582862093508600,8.031508544921875,-0.010389759205281734,0.18010510504245758,-0.05133892223238945
1789582862103476200,8.041476318359376,-0.02326933853328228,0.15986216068267822,-0.08839733898639679
1789582862113444400,8.0514443359375,-0.0999615415930748,0.17270398139953613,0.006572434213012457
1789582862123413200,8.061413330078125,-0.07127983123064041,0.14524120092391968,0.028797045350074768
1789582862133381400,8.07138134765625,-0.06866162270307541,0.1483592987060547,-0.019657747820019722
1789582862143349500,8.081349609375,-0.11973679065704346,0.1426715850830078,0.017692819237709045
1789582862153317400,8.0913173828125,-0.10168802738189697,0.1356174349784851,-0.008819365873932838
1789582862163285200,8.10128515625,-0.13131409883499146,0.12828175723552704,-0.028977099806070328
1789582862173253400,8.11125341796875,-0.21407563984394073,0.13009358942508698,0.005991020239889622
1789582862183221200,8.12122119140625,-0.148528054356575,0.08948784321546555,0.015364548191428185
1789582862193190400,8.1311904296875,-0.16117195785045624,0.12557335197925568,-0.05014842376112938
1789582862203158300,8.141158203125,-0.21235737204551697,0.1190190389752388,0.024685602635145187
1789582862213126400,8.15112646484375,-0.0986395925283432,0.03820158913731575,0.05981389805674553
1789582862223094500,8.161094482421875,-0.1821528673171997,0.11933931708335876,0.039521411061286926
1789582862233062100,8.171062255859376,-0.17818862199783325,0.16648581624031067,0.04492728412151337
1789582862243030300,8.1810302734375,-0.07928521186113358,0.08310756832361221,0.05013909190893173
1789582862252999400,8.19099951171875,-0.14776311814785004,0.13208939135074615,0.049477092921733856
1789582862262967300,8.20096728515625,-0.08451835811138153,0.06112786754965782,0.02591504156589508
1789582862272935400,8.210935302734375,-0.1534709334373474,0.09397697448730469,0.028888927772641182
1789582862282903600,8.220903564453126,-0.22345508635044098,0.12767794728279114,-0.0043811434879899025
1789582862292871400,8.230871337890624,-0.2808290123939514,0.08881063014268875,0.007115254178643227
1789582862302839300,8.24083935546875,-0.3212036192417145,0.04494064301252365,-0.009308460168540478
1789582862312807400,8.250807373046875,-0.24129422008991241,0.042184822261333466,-0.07718977332115173
1789582862322776300,8.2607763671875,-0.2238643616437912,-0.005358994472771883,-0.02017734944820404
1789582862332744400,8.270744384765624,-0.30641821026802063,0.015856891870498657,0.07483752071857452
1789582862342712300,8.28071240234375,-0.2308931052684784,-0.03684600070118904,0.06024818494915962
1789582862352680400,8.290680419921875,-0.2528093159198761,0.01435529813170433,0.02015816420316696
1789582862362648600,8.300648681640626,-0.22285223007202148,-0.0368032269179821,-0.04325809329748154
1789582862372616200,8.3106162109375,-0.2097313106060028,-0.04442402720451355,-0.015165798366069794
1789582862382585300,8.32058544921875,-0.17304520308971405,-0.06821990758180618,-0.03826525807380676
1789582862392553200,8.33055322265625,-0.17765727639198303,-0.0455729179084301,-0.0005202768370509148
1789582862402521300,8.340521240234375,-0.1146404892206192,-0.062079451978206635,-0.00910204742103815
1789582862412489500,8.350489501953126,-0.0889672189950943,-0.044331859797239304,-0.0473800003528595
1789582862422457300,8.360457275390624,-0.08515703678131104,-0.07927919179201126,-0.025390546768903732
1789582862432425200,8.37042529296875,-0.07320960611104965,-0.07577909529209137,-0.027545250952243805
1789582862442393300,8.380393310546875,-0.004373014904558659,-0.09826523065567017,-0.05289934575557709
1789582862452362200,8.3903623046875,-0.035449303686618805,-0.050273600965738297,-0.06967838108539581
1789582862462330400,8.400330322265624,0.04593290388584137,-0.09758385270833969,-0.06067848578095436
1789582862472298500,8.410298583984375,0.03315833583474159,-0.07774940133094788,-0.011533733457326889
1789582862482266400,8.420266357421875,0.033172983676195145,-0.04632756486535072,-0.003269412089139223
1789582862492234500,8.430234375,0.13189560174942017,-0.056866928935050964,0.005178340245038271
1789582862502202400,8.440202392578126,0.11663249880075455,-0.04425579309463501,0.045744676142930984
1789582862512171300,8.450171142578125,0.11204973608255386,-0.02176523581147194,-0.007859026081860065
1789582862522139400,8.460139404296875,0.1246158629655838,-0.035933785140514374,-0.0022826334461569786
1789582862532107300,8.470107177734375,0.10446514934301376,-0.04941236972808838,0.007577600888907909
1789582862542075400,8.480075439453126,0.02206934057176113,-0.006882489658892155,-0.06531045585870743
1789582862552043500,8.49004345703125,0.03966328501701355,-0.044269297271966934,-0.07326672971248627
1789582862562011400,8.500011474609375,0.09059224277734756,-0.06521932035684586,-0.06446710973978043
1789582862571979300,8.509979248046875,0.044175662100315094,-0.03517468646168709,-0.0619601346552372
1789582862581948200,8.5199482421875,-0.014377132058143616,-0.031540803611278534,0.030230509117245674
1789582862591917600,8.52991748046875,0.02105560153722763,-0.08924105018377304,0.08530426025390625
1789582862601885400,8.539885498046875,-0.0024289521388709545,-0.07907363772392273,0.11296066641807556
1789582862611853300,8.549853271484375,0.03351883962750435,-0.07426095753908157,0.1117386594414711
1789582862621821400,8.559821533203126,0.08611121028661728,-0.0914524644613266,0.07112572342157364
1789582862631789600,8.56978955078125,0.026817617937922478,-0.03312675282359123,0.05112060531973839
1789582862641758500,8.579758544921875,0.1233111321926117,-0.042591892182826996,-0.027790458872914314
1789582862651726600,8.5897265625,0.06091175973415375,-0.02279205247759819,-0.0077314130030572414
1789582862661694500,8.599694580078125,0.055965203791856766,-0.016751471906900406,-0.00330044561997056
1789582862671662300,8.609662353515626,0.08319065719842911,-0.024401288479566574,-0.036504000425338745
1789582862681630500,8.61963037109375,0.03880001977086067,-0.025269480422139168,0.0015440527349710464
1789582862691598300,8.629598388671875,-0.03385220840573311,0.021487243473529816,-0.012026937678456306
1789582862701566500,8.63956640625,-0.06913509964942932,0.05029332637786865,0.004164283163845539
1789582862711535400,8.649535400390626,-0.059562765061855316,0.03659511357545853,0.051991384476423264
1789582862721503500,8.65950341796875,-0.0052880775183439255,0.02951589785516262,0.036841459572315216
1789582862731471400,8.669471435546875,-0.0016630269819870591,0.07059148699045181,0.0028237723745405674
1789582862741439200,8.679439208984375,-0.05730844661593437,0.1184556856751442,0.00920630432665348
1789582862751407400,8.689407470703125,-0.07205818593502045,0.07275096327066422,0.09177615493535995
1789582862761375500,8.69937548828125,-0.06064840033650398,0.06038297712802887,0.09392133355140686
1789582862771344400,8.709344482421875,-0.10199416428804398,0.07330924272537231,0.015234368853271008
1789582862781312500,8.7193125,-0.10702167451381683,0.04333510622382164,-0.009399870410561562
1789582862791280400,8.7292802734375,-0.08138302713632584,-0.00581691600382328,-0.06817802786827087
1789582862801248300,8.739248291015626,-0.12068542093038559,0.0008492427878081799,-0.05330507457256317
1789582862811216400,8.74921630859375,-0.10573705285787582,0.027233969420194626,-0.11890599876642227
1789582862821184500,8.7591845703125,-0.12804368138313293,0.0019232874037697911,-0.09605767577886581
1789582862831152400,8.76915234375,-0.1313915103673935,-0.009196428582072258,-0.09106496721506119
1789582862841121500,8.77912158203125,-0.06659306585788727,-0.05719245225191116,0.016980014741420746
1789582862851089400,8.78908935546875,-0.09107852727174759,-0.019707372412085533,0.01870148628950119
1789582862861057500,8.7990576171875,-0.06509459763765335,-0.025749284774065018,-0.001312169712036848
1789582862871025400,8.809025390625,0.019406085833907127,-0.09682697057723999,0.08335717022418976
1789582862880993300,8.8189931640625,0.0284589696675539,-0.09173793345689774,0.08927684277296066
1789582862890961400,8.82896142578125,0.016539057716727257,-0.03553295508027077,0.0002664700150489807
1789582862900930300,8.838930419921875,0.056972235441207886,-0.04287688806653023,0.011022444814443588
1789582862910898400,8.8488984375,0.09601341933012009,-0.0996738150715828,-0.010759088210761547
1789582862920866600,8.858866455078125,0.11189518123865128,-0.09275466203689575,-0.030089378356933594
1789582862930834200,8.868834228515626,0.1485687792301178,-0.09803815186023712,-0.06343306601047516
1789582862940802300,8.87880224609375,0.05669211596250534,-0.031689755618572235,-0.04095865413546562
1789582862950770400,8.8887705078125,0.098014697432518,-0.037808239459991455,-0.04072123393416405
1789582862960738300,8.89873828125,0.14114804565906525,-0.062423039227724075,0.027653561905026436
1789582862970707500,8.90870751953125,0.1041787639260292,-0.019886432215571404,0.00774841895326972
1789582862980675600,8.918675537109374,0.14932972192764282,-0.05317727476358414,0.006010972894728184
1789582862990643500,8.9286435546875,0.07035080343484879,-0.023385830223560333,0.07803703844547272
1789582863000611300,8.938611328125,0.0772758200764656,-0.0060925958678126335,0.09723524004220963
1789582863010579500,8.948579345703125,0.09567706286907196,0.047182582318782806,-0.013395488262176514
1789582863020547300,8.95854736328125,0.03349784389138222,0.05705385282635689,0.045141324400901794
1789582863030515500,8.968515380859374,0.03197682648897171,0.05882759019732475,0.05715938284993172
1789582863040484400,8.978484375,0.03407246619462967,0.06724797934293747,0.026580169796943665
1789582863050452500,8.988452392578125,-0.037867944687604904,0.05500040203332901,0.019985124468803406
1789582863060420600,8.998420654296876,-0.040462661534547806,0.023065105080604553,0.011958624236285686
1789582863070388200,9.00838818359375,-0.07643456012010574,0.004141706041991711,-0.0529225654900074
1789582863080356400,9.0183564453125,-0.16976423561573029,0.027292832732200623,-0.041101325303316116
1789582863090324500,9.028324462890625,-0.14924462139606476,-0.03493533283472061,0.016164666041731834
1789582863100293400,9.03829345703125,-0.1491418182849884,-0.033932652324438095,0.06001148372888565
1789582863110261500,9.048261474609374,-0.1194610744714737,0.035104453563690186,-0.07710281014442444
1789582863120229400,9.0582294921875,-0.0705513283610344,-0.036382243037223816,-0.01040607038885355
1789582863130197500,9.068197509765625,-0.1107354462146759,-0.036173731088638306,0.0892685130238533
1789582863140165400,9.078165283203125,-0.05541573837399483,0.015647655352950096,-0.08956781774759293
1789582863150133200,9.08813330078125,-0.01203954592347145,-0.011000670492649078,-0.01628195121884346
1789582863160101400,9.098101318359374,-0.0221457090228796,0.0029154110234230757,-0.04552612453699112
1789582863170070500,9.108070556640625,-0.040202610194683075,0.05278477817773819,-0.11660755425691605
1789582863180038400,9.118038330078125,-0.022083526477217674,0.06272902339696884,-0.142564594745636
1789582863190006500,9.128006591796876,-0.0817263051867485,-0.005204334389418364,0.033314622938632965
1789582863199974400,9.137974365234374,-0.07905542105436325,0.006341534201055765,-0.052193086594343185
1789582863209942300,9.1479423828125,-0.11054912209510803,0.03245813399553299,-0.06166735664010048
1789582863219910400,9.157910400390625,-0.07214926928281784,-0.030760249122977257,0.083427794277668
1789582863229879300,9.16787939453125,-0.04863106831908226,-0.0013301547151058912,0.05185708403587341
1789582863239847400,9.177847412109376,-0.08539840579032898,0.03427790477871895,0.020752694457769394
1789582863249815600,9.187815673828124,-0.06645813584327698,0.00046308443415910006,0.023624595254659653
1789582863259783400,9.197783447265625,-0.08817754685878754,-0.0161752812564373,0.010428897105157375
1789582863269751300,9.207751220703125,-0.022066080942749977,-0.034147270023822784,-0.025348149240016937
1789582863279719400,9.217719482421876,-0.009155075997114182,-0.026519708335399628,-0.0036947866901755333
1789582863289687300,9.227687255859376,-0.055051591247320175,-0.010575761087238789,0.037843815982341766
1789582863299656400,9.237656494140625,-0.020930638536810875,-0.003221707884222269,0.021110374480485916
1789582863309624300,9.247624267578125,-0.03561415523290634,-0.0035293223336338997,0.0418715737760067
1789582863319592400,9.257592529296875,-0.022829918190836906,0.007367267739027739,0.03040214069187641
1789582863329560600,9.267560546875,0.03778842091560364,-0.02817448228597641,0.0559421181678772
1789582863339528400,9.277528564453124,0.02570938877761364,0.04528908431529999,0.04043027013540268
1789582863349496300,9.287496337890625,0.11222417652606964,0.015354911796748638,0.08338618278503418
1789582863359464400,9.29746435546875,0.06426170468330383,0.06865274906158447,0.07425420731306076
1789582863369433300,9.307433349609376,0.08090247213840485,0.07782547920942307,0.013335464522242546
1789582863379401500,9.3174013671875,0.14253492653369904,0.04457085579633713,-0.008076882921159267
1789582863389369600,9.32736962890625,0.053375326097011566,0.05898647755384445,0.045336417853832245
1789582863399337200,9.337337158203125,-0.012280914932489395,0.060697026550769806,0.05483485013246536
1789582863409305300,9.347305419921875,-0.0025302402209490538,0.08174722641706467,0.01877584494650364
1789582863419273500,9.3572734375,-0.04963570088148117,0.03309766575694084,0.06383732706308365
1789582863429242400,9.367242431640625,-0.11015678942203522,0.047400109469890594,0.02291632816195488
1789582863439210500,9.37721044921875,-0.15079502761363983,0.03540150448679924,0.003153276164084673
1789582863449178400,9.387178466796875,-0.15553458034992218,-0.01056765764951706,0.07763388752937317
1789582863459146500,9.397146484375,-0.16135545074939728,0.006043809466063976,0.010834352113306522
1789582863469114400,9.4071142578125,-0.18880456686019897,0.01854110136628151,0.029971694573760033
1789582863479082200,9.417082275390625,-0.14513590931892395,-0.021276086568832397,0.12844528257846832
1789582863489050400,9.42705029296875,-0.07817573100328445,-0.004708464257419109,0.03057803586125374
1789582863499019300,9.437019287109376,-0.058387912809848785,-0.0015829785261303186,-0.047421421855688095
1789582863508987400,9.4469873046875,0.004749597981572151,-0.010415636003017426,-0.06057903915643692
1789582863518955500,9.45695556640625,0.025599487125873566,0.012523234821856022,-0.06849075853824615
1789582863528923400,9.46692333984375,0.0312285665422678,0.08214525133371353,-0.12479590624570847
1789582863538891300,9.476891357421875,0.01956365443766117,0.0963558778166771,-0.12874670326709747
1789582863548859400,9.486859375,-0.009003231301903725,0.045347921550273895,0.020505564287304878
1789582863558828300,9.496828369140625,-0.05259385332465172,0.03904927894473076,0.004387314431369305
1789582863568796400,9.50679638671875,-0.034703269600868225,0.032829415053129196,-0.07244116067886353
1789582863578764500,9.5167646484375,-0.04478413239121437,-0.020668433979153633,-0.015925157815217972
1789582863588733400,9.5267333984375,-0.1291455775499344,-0.03749232739210129,0.0807696282863617
1789582863598701600,9.53670166015625,-0.11569926887750626,-0.00701723899692297,0.030524836853146553
1789582863608669400,9.54666943359375,-0.10616067796945572,0.009403929114341736,-0.06081338971853256
1789582863618637300,9.55663720703125,-0.13028332591056824,-0.04924606904387474,0.044662173837423325
1789582863628606200,9.566606201171876,-0.06857872009277344,-0.06434239447116852,0.04483015090227127
1789582863638574300,9.57657421875,-0.0825994685292244,-0.01778448559343815,-0.07030922174453735
1789582863648542500,9.58654248046875,-0.08460837602615356,-0.023880017921328545,-0.06497732549905777
1789582863658510300,9.59651025390625,-0.0594170056283474,-0.06351584196090698,-0.03957130014896393
1789582863668478500,9.606478515625,-0.13327550888061523,-0.06712858378887177,-0.04863694682717323
1789582863678446300,9.6164462890625,-0.1074865311384201,-0.10266793519258499,-0.015230521559715271
1789582863688414200,9.626414306640624,-0.1147797703742981,-0.10990461707115173,0.039700623601675034
1789582863698383400,9.63638330078125,-0.11968105286359787,-0.1194552481174469,0.04123273864388466
1789582863708351500,9.6463515625,-0.10940125584602356,-0.07836836576461792,-0.00716501334682107
1789582863718319400,9.6563193359375,-0.07349199056625366,-0.11952325701713562,0.07895468920469284
1789582863728287500,9.66628759765625,-0.04100239649415016,-0.0895320326089859,0.047721147537231445
1789582863738255600,9.676255615234375,-0.08639118820428848,-0.051832590252161026,0.04481616988778114
1789582863748223200,9.68622314453125,-0.06391925364732742,-0.07136622071266174,0.03225709870457649
1789582863758191400,9.69619140625,-0.020491085946559906,-0.1002146452665329,0.055568814277648926
1789582863768160300,9.70616015625,-0.06715095788240433,-0.062478143721818924,-0.02890033647418022
1789582863778128400,9.71612841796875,-0.005654039792716503,-0.10361652821302414,-0.041064854711294174
1789582863788096500,9.726096435546875,-0.06384890526533127,-0.0755852609872818,-0.026187768206000328
1789582863798064400,9.736064453125,-0.08701254427433014,-0.05550716072320938,-0.004555176477879286
1789582863808032500,9.746032470703126,-0.029740778729319572,-0.08497966080904007,-0.03687497228384018
1789582863818000400,9.75600048828125,-0.10778097808361053,-0.05513361468911171,-0.041779980063438416
1789582863827969300,9.76596923828125,-0.07177069783210754,-0.10708855092525482,-0.006351016461849213
1789582863837937400,9.7759375,-0.004677414428442717,-0.15992486476898193,0.030278366059064865
1789582863847905300,9.7859052734375,0.004259177949279547,-0.10688281059265137,-0.028471097350120544
1789582863857873400,9.795873291015624,0.03304794803261757,-0.10168565064668655,-0.09228096902370453
1789582863867841500,9.805841552734375,0.015591947361826897,-0.09374196827411652,-0.11706362664699554
1789582863877809400,9.815809326171875,0.03644822910428047,-0.12321251630783081,-0.042745716869831085
1789582863887777300,9.82577734375,0.12616528570652008,-0.1777324229478836,-0.02333853207528591
1789582863897746400,9.835746337890624,0.05348069593310356,-0.10145335644483566,-0.0460321269929409
1789582863907714300,9.84571435546875,0.11072765290737152,-0.18463318049907684,0.1017051413655281
1789582863917682400,9.855682373046875,0.19970758259296417,-0.1645183265209198,0.09071267396211624
1789582863927650600,9.865650634765625,0.2133527398109436,-0.11035216599702835,0.004220259841531515
1789582863937618400,9.875618408203126,0.23751719295978546,-0.11972382664680481,0.04110770300030708
1789582863947586300,9.88558642578125,0.2452532798051834,-0.11221907287836075,0.026370376348495483
1789582863957554400,9.895554443359375,0.2507479190826416,-0.10016320645809174,-0.011732533574104309
1789582863967523300,9.9055234375,0.2567248046398163,-0.09898965060710907,0.00002698088064789772
1789582863977491500,9.915491455078126,0.23666693270206451,-0.10362062603235245,0.05707721784710884
1789582863987459300,9.925459228515624,0.252238929271698,-0.09130887687206268,-0.00169441569596529
1789582863997427500,9.935427490234375,0.23707541823387146,-0.07772834599018097,-0.02301648259162903
1789582864007395600,9.9453955078125,0.2820022702217102,-0.1141137033700943,0.022593282163143158
1789582864017363200,9.95536328125,0.20135830342769623,-0.0710192322731018,0.04936604201793671
1789582864027331300,9.965331298828126,0.21512742340564728,-0.03352944180369377,-0.007708096411079168
1789582864037300200,9.97530029296875,0.2769668400287628,-0.0777008980512619,0.02404051087796688
1789582864047268400,9.985268310546875,0.13985948264598846,0.006034602876752615,0.06162476912140846
1789582864057236500,9.995236572265625,0.211882546544075,-0.033127445727586746,0.05714640021324158
1789582864067204400,10.005204345703126,0.23808419704437256,-0.02132631279528141,0.00369654456153512
1789582864077172500,10.01517236328125,0.06949437409639359,0.026740549132227898,0.016212869435548782
1789582864087140400,10.025140380859375,0.15446338057518005,0.001851491048000753,-0.03993968665599823
1789582864097108500,10.0351083984375,0.153028205037117,-0.025647511705756187,0.01830551028251648
1789582864107077400,10.045077392578126,0.052651297301054,0.033799026161432266,0.0009910454973578453
1789582864117045500,10.05504541015625,0.13989299535751343,-0.012980997562408447,-0.04385845363140106
1789582864127013400,10.065013427734375,0.06652894616127014,0.03929389268159866,-0.009958814829587936
1789582864136981500,10.0749814453125,0.04148723930120468,0.08472555875778198,-0.04306723177433014
1789582864146949600,10.08494970703125,0.1094503104686737,0.07993767410516739,0.004132385365664959
1789582864156917200,10.094917236328126,0.03485091030597687,0.04061609506607056,0.1802797168493271
1789582864166885400,10.104885498046874,0.06926018744707108,0.049996405839920044,0.1265319287776947
1789582864176854300,10.114854248046875,0.08855585753917694,0.003382565453648567,0.15698225796222687
1789582864186822400,10.124822509765625,0.06094074249267578,0.06362108141183853,0.05316050350666046
1789582864196790500,10.13479052734375,0.09632643312215805,0.0852494165301323,-0.10018298029899597
1789582864206758400,10.14475830078125,0.031552452594041824,0.1079115942120552,-0.146036297082901
1789582864216726300,10.154726318359375,-0.009672747924923897,0.07330302149057388,-0.013966144993901253
1789582864226694400,10.1646943359375,0.06434741616249084,0.06092032790184021,0.04826994240283966
1789582864236663300,10.174663330078126,-0.0016792727401480079,0.0830831527709961,0.028946848586201668
1789582864246631400,10.18463134765625,-0.08612629026174545,0.056363724172115326,-0.0014452142640948296
1789582864256599600,10.194599609375,-0.09543243795633316,0.014491906389594078,0.017382003366947174
1789582864266567400,10.2045673828125,-0.16252869367599487,0.05900197476148605,-0.0444304458796978
1789582864276535600,10.21453564453125,-0.1773582398891449,0.10715645551681519,-0.0307718925178051
1789582864286503400,10.22450341796875,-0.15613333880901337,0.10645506531000137,0.037145841866731644
1789582864296471300,10.23447119140625,-0.010821947827935219,0.04433923214673996,0.013575803488492966
1789582864306440400,10.2444404296875,0.04004877805709839,0.004524795338511467,0.06364057958126068
1789582864316408300,10.254408203125,-0.10020021349191666,0.027063660323619843,0.09713941812515259
1789582864326376400,10.26437646484375,-0.0006775243091396987,-0.012252656742930412,-0.047551728785037994
1789582864336344600,10.274344482421874,-0.08512450009584427,0.04517761245369911,-0.08826480060815811
1789582864346312400,10.2843125,-0.18336962163448334,0.026666732504963875,0.01643877476453781
1789582864356280300,10.2942802734375,-0.042538732290267944,0.01730199344456196,0.006442334037274122
1789582864366248400,10.30424853515625,-0.015419453382492065,0.014182038605213165,-0.024598605930805206
1789582864376217300,10.31421728515625,-0.05191780626773834,0.05967388674616814,-0.06086526811122894
1789582864386185500,10.324185546875,0.016015658155083656,0.023425620049238205,-0.05597231909632683
1789582864396153300,10.3341533203125,-0.05294263735413551,0.012765783816576004,0.02392890676856041
1789582864406121500,10.34412158203125,0.020309248939156532,0.033832814544439316,-0.0226165521889925
1789582864416089300,10.35408935546875,0.013321115635335445,0.025009760633111,0.037412963807582855
1789582864426057200,10.36405712890625,-0.016887471079826355,0.05089709907770157,0.01734456978738308
1789582864436025300,10.374025390625,0.0010470538400113583,0.026662064716219902,0.003319032024592161
1789582864445994500,10.383994384765625,0.01942547969520092,0.030414458364248276,0.03262053802609444
1789582864455962400,10.39396240234375,0.04223678633570671,0.006237217225134373,0.031126240268349648
1789582864465930500,10.403930419921876,0.024368172511458397,0.09501910209655762,-0.05277777835726738
1789582864475898600,10.413898681640624,0.0693521648645401,0.06347368657588959,-0.1196601465344429
1789582864485866200,10.4238662109375,0.013833731412887573,0.019627682864665985,0.01451143715530634
1789582864495834400,10.43383447265625,0.03167957440018654,-0.005834798328578472,0.08073599636554718
1789582864505802500,10.443802490234376,0.031100422143936157,0.05668671801686287,-0.08873957395553589
1789582864515771400,10.453771484375,-0.00799078680574894,0.05863455682992935,0.027561739087104797
1789582864525739500,10.463739501953125,0.0070166634395718575,0.024556225165724754,0.11391537636518478
1789582864535707400,10.473707275390625,0.0352669432759285,0.04045742750167847,-0.01338824350386858
1789582864545675500,10.483675537109375,-0.07402994483709335,0.10497040301561356,-0.08047319203615189
1789582864555643400,10.493643310546876,-0.046365562826395035,0.00971898902207613,0.04377685859799385
1789582864565611300,10.503611328125,-0.06838413327932358,0.02554341033101082,0.07276907563209534
1789582864575579400,10.513579345703125,-0.09026652574539185,0.0901423841714859,0.01725016161799431
1789582864585548300,10.52354833984375,-0.05424842983484268,0.041155677288770676,0.07634864002466202
1789582864595515000,10.533514892578125,-0.04010358080267906,-0.0012884538155049086,0.14665022492408752
1789582864605482800,10.543482666015626,-0.010939659550786018,0.005251486320048571,0.042819175869226456
1789582864615451000,10.553450927734374,-0.006466347724199295,0.005508215166628361,0.0501982606947422
1789582864625419000,10.5634189453125,-0.023307068273425102,0.037330109626054764,0.0056973048485815525
1789582864635387000,10.573386962890625,-0.007543018553406,0.04544422775506973,-0.08087912946939468
1789582864645355000,10.58335498046875,-0.04052302613854408,-0.008409102447330952,0.05611779913306236
1789582864655324000,10.593323974609374,-0.029752137139439583,-0.026216860860586166,0.14989568293094635
1789582864665291800,10.603291748046875,-0.005052564200013876,0.03394104912877083,0.0020212787203490734
1789582864675260000,10.613260009765625,-0.016851698979735374,0.07246952503919601,-0.06309114396572113
1789582864685227800,10.623227783203125,0.012083410285413265,0.00697171688079834,-0.0626218244433403
1789582864695196000,10.63319580078125,-0.010763848200440407,0.08993344753980637,-0.20518510043621063
1789582864705164000,10.6431640625,-0.01841750368475914,0.0626130923628807,-0.17944352328777313
1789582864715131600,10.653131591796875,-0.06215433031320572,0.005231293849647045,-0.025040900334715843
1789582864725099800,10.663099853515625,-0.08619771152734756,0.0410124734044075,-0.046716365963220596
1789582864735068700,10.673068603515626,-0.11948429048061371,0.0416276678442955,-0.07322919368743896
1789582864745036800,10.683036865234374,-0.1337401270866394,0.037803106009960175,-0.03873361647129059
1789582864755005000,10.6930048828125,-0.04942712560296059,0.0006203169468790293,-0.07418935000896454
1789582864764972800,10.702972900390625,-0.0014377679908648133,-0.025511542335152626,-0.044436752796173096
1789582864774941000,10.71294091796875,0.034860849380493164,0.11577101796865463,-0.2175334244966507
1789582864784908800,10.72290869140625,-0.13236021995544434,0.06541354954242706,0.35518673062324524
1789582864794877000,10.732876953125,0.08916071057319641,-0.051857151091098785,-0.20568084716796875
1789582864804845800,10.742845703125,-0.08331044018268585,0.17144736647605896,-0.38628771901130676
1789582864814814000,10.75281396484375,-0.0694955587387085,0.026771942153573036,-0.039936427026987076
1789582864824781800,10.76278173828125,0.028765588998794556,-0.03827578201889992,0.1440400630235672
1789582864834750000,10.77275,-0.08928009122610092,0.0761735662817955,0.18290570378303528
1789582864844718000,10.782718017578125,0.0939561277627945,0.015361911617219448,-0.030469151213765144
1789582864854685700,10.792685791015625,-0.023192595690488815,0.018020544201135635,0.022904591634869576
1789582864864653800,10.80265380859375,-0.043153345584869385,0.03675312548875809,0.1772644817829132
1789582864874622700,10.812622802734374,0.03643442690372467,0.021456729620695114,0.08892901986837387
1789582864884590800,10.8225908203125,-0.052131835371255875,0.09973591566085815,-0.11758487671613693
1789582864894559000,10.83255908203125,-0.09877923876047134,0.05377880856394768,-0.1126692146062851
1789582864904526800,10.84252685546875,-0.041177764534950256,-0.02129765972495079,-0.02000872604548931
1789582864914494700,10.85249462890625,-0.11056455969810486,0.023009084165096283,-0.004548809491097927
1789582864924462800,10.862462890625,-0.10150928795337677,0.027312908321619034,-0.055921848863363266
1789582864934430700,10.8724306640625,-0.11968616396188736,-0.006266090087592602,-0.03711647167801857
1789582864944400000,10.88239990234375,-0.0927969366312027,-0.10872015357017517,0.10506823658943176
1789582864954368000,10.892367919921876,-0.11874091625213623,0.04351066052913666,-0.04940921813249588
1789582864964335900,10.9023359375,-0.1736459732055664,0.021658942103385925,0.14718826115131378
1789582864974304000,10.912303955078125,-0.106495700776577,-0.03439873084425926,0.14006191492080688
1789582864984272000,10.92227197265625,-0.13976648449897766,-0.07017053663730621,0.1686002016067505
1789582864994239700,10.93223974609375,-0.008091805502772331,-0.02632797881960869,-0.019142799079418182
1789582865004207900,10.942207763671876,-0.040175121277570724,0.0038039865903556347,0.05626147240400314
1789582865014176000,10.952176025390624,-0.03769385442137718,0.011771366000175476,0.08734668046236038
1789582865024145000,10.962144775390625,0.06789195537567139,-0.018322201445698738,0.00013548694550991058
1789582865034113000,10.972113037109375,0.0023512947373092175,0.010137669742107391,-0.04363143444061279
1789582865044081000,10.982080810546876,0.02304041013121605,-0.00328900502063334,-0.03964347764849663
1789582865054048800,10.992048828125,0.012448486872017384,-0.02696077898144722,0.030679956078529358
1789582865064017000,11.002016845703125,-0.017755260691046715,-0.003778741927817464,0.058631621301174164
1789582865073984800,11.01198486328125,0.04658244922757149,-0.012012170627713203,-0.03177710250020027
1789582865083953000,11.021952880859375,0.015009482391178608,0.0069479746744036674,-0.05781783163547516
1789582865093921800,11.031921875,-0.025772036984562874,-0.0026753575075417757,0.04181341826915741
1789582865103890000,11.041889892578125,0.009326289407908916,-0.04825878143310547,0.06345027685165405
1789582865113858000,11.051858154296875,-0.02178875356912613,0.005962112918496132,0.013544771820306778
1789582865123825700,11.06182568359375,0.0029991180635988712,0.0005049013998359442,-0.01747407391667366
1789582865133793800,11.071793701171876,0.03855657950043678,-0.037478163838386536,-0.019413921982049942
1789582865143762000,11.081761962890624,-0.04712841287255287,0.040626246482133865,-0.019069038331508636
1789582865153729800,11.091729736328125,-0.0028975701425224543,-0.03167431429028511,0.09515286982059479
1789582865163698000,11.101697998046875,-0.01748528517782688,0.01738305762410164,0.029017921537160873
1789582865174290000,11.1122900390625,-0.007987389340996742,0.015056518837809563,-0.0356268472969532
1789582865184258000,11.122258056640625,-0.05194816365838051,-0.02874927595257759,0.07862842828035355
1789582865194225700,11.1322255859375,0.036824580281972885,-0.025521259754896164,-0.08192023634910583
1789582865204193800,11.14219384765625,-0.02548402175307274,-0.001003994606435299,-0.059474509209394455
1789582865214162000,11.152161865234374,-0.01120228786021471,0.013150706887245178,-0.1322733461856842
1789582865224129800,11.1621298828125,-0.04638015478849411,-0.04894692078232765,-0.013737790286540985
1789582865234098000,11.172097900390625,-0.10320348292589188,-0.012630988843739033,0.05987890809774399
1789582865244067000,11.182067138671876,-0.05799718201160431,0.034055281430482864,-0.04493238404393196
1789582865254034700,11.19203466796875,-0.05795750021934509,0.002604680834338069,0.03931352123618126
1789582865264002800,11.2020029296875,-0.07317328453063965,-0.016889192163944244,0.09805139154195786
1789582865273971000,11.211970947265625,0.002363019622862339,-0.026927711442112923,0.010365214198827744
1789582865283938800,11.221938720703125,0.044109489768743515,-0.03967532515525818,-0.03621653467416763
1789582865293907000,11.231906982421876,-0.049824196845293045,-0.011567525565624237,0.04330572485923767
1789582865303875000,11.241875,-0.005332987289875746,-0.022940808907151222,0.009702757000923157
1789582865313842700,11.2518427734375,0.02646595425903797,0.0004422783385962248,-0.11737397313117981
1789582865323811800,11.261811767578125,-0.02500816062092781,0.013366106897592545,-0.06926316022872925
1789582865333779700,11.27177978515625,0.009025705978274345,-0.04130672663450241,0.04594651982188225
1789582865343747800,11.281747802734374,0.023389026522636414,-0.009836052544414997,0.04401692375540733
1789582865353716000,11.291716064453125,-0.010109278373420238,0.02513258345425129,0.061598047614097595
1789582865363683800,11.301683837890625,0.010253914631903172,0.01828993484377861,0.030069351196289062
1789582865373652000,11.31165185546875,-0.013841567561030388,0.007567781955003738,0.02529962733387947
1789582865383619800,11.321619873046876,0.014865442179143429,-0.009359648451209068,0.030767502263188362
1789582865393588700,11.331588623046875,0.0001365632051602006,0.010065182112157345,-0.01569613628089428
1789582865403556900,11.341556884765625,0.012329463846981525,0.015108524821698666,-0.016197558492422104
1789582865413525000,11.35152490234375,-0.011042970232665539,-0.016461119055747986,0.06463630497455597
1789582865423492900,11.361492919921876,-0.031153539195656776,-0.005588863976299763,0.0905514806509018
1789582865433461000,11.3714609375,0.028952408581972122,-0.009556706994771957,0.02209971286356449
1789582865443428900,11.381428955078125,-0.010406848043203354,0.0031558144837617874,0.05352827534079552
1789582865453396700,11.391396728515625,-0.04540584236383438,0.043704837560653687,0.024509139358997345
1789582865463364900,11.40136474609375,0.030852796509861946,0.006173849105834961,-0.0294671431183815
1789582865473333800,11.411333740234374,-0.032566919922828674,0.05106196179986,0.008176906034350395
1789582865483302000,11.421302001953125,-0.06851112097501755,0.01860448345541954,0.06678475439548492
1789582865493270000,11.43127001953125,-0.007398496847599745,-0.006902474910020828,0.09639963507652283
1789582865503238000,11.44123779296875,-0.05482516810297966,0.004179340321570635,0.1285027712583542
1789582865513205800,11.451205810546876,-0.03528182953596115,0.012237001210451126,0.10037233680486679
1789582865523174000,11.461173828125,0.04221394285559654,-0.037286218255758286,-0.02361712045967579
1789582865533141800,11.471141845703125,-0.014691152609884739,0.013507988303899765,-0.0642084926366806
1789582865543111000,11.48111083984375,0.05593813210725784,-0.016850868239998817,-0.12253496795892715
1789582865553078800,11.491078857421876,-0.06215255334973335,-0.026762887835502625,0.004532699007540941
1789582865563669000,11.5016689453125,-0.10133586823940277,-0.012374911457300186,0.001048028003424406
1789582865573636900,11.511636962890625,-0.08989492803812027,-0.00014860555529594421,-0.07257505506277084
1789582865583604700,11.521604736328126,-0.1318957358598709,-0.013996695168316364,0.03075997531414032
1789582865593573000,11.531572998046874,-0.1147521585226059,-0.0015093993861228228,0.06418158113956451
1789582865603541200,11.541541259765625,-0.034258872270584106,-0.24148184061050415,0.5231814384460449
1789582865613510100,11.55151025390625,0.09071741998195648,0.023976989090442657,-0.25457608699798584
1789582865623478300,11.561478271484376,0.039705902338027954,0.2559143304824829,-0.9134554862976074
1789582865633446100,11.571446044921874,0.051440056413412094,0.1120101734995842,-1.098571538925171
1789582865643414000,11.5814140625,0.07238905131816864,0.01037705596536398,0.22514718770980835
1789582865653382100,11.591382080078125,-0.3523542582988739,-0.5649128556251526,1.7158710956573486
1789582865663350000,11.60135009765625,-0.2003360390663147,0.11665026843547821,-0.28139737248420715
1789582865673318100,11.611318115234376,-0.5396997332572937,-0.02356570027768612,-0.22175243496894836
1789582865683286300,11.621286376953124,0.2890137732028961,-0.27994972467422485,-0.2881545126438141
1789582865693255200,11.631255126953125,-0.011058691889047623,0.1451413929462433,0.046511098742485046
1789582865703223300,11.641223388671875,-0.04403618350625038,-0.04883788526058197,0.2577502727508545
1789582865713191000,11.65119091796875,0.42394086718559265,-0.10030879825353622,-0.18405748903751373
1789582865723159000,11.661158935546876,-0.16413094103336334,0.20024779438972473,-0.18068574368953705
1789582865733127200,11.671127197265625,-0.05790304020047188,-0.03294790908694267,0.13537341356277466
1789582865743095000,11.681094970703125,0.08549007773399353,-0.040008410811424255,0.012845220044255257
1789582865753063200,11.691063232421875,-0.1569284051656723,0.11020398885011673,-0.14355289936065674
1789582865763032300,11.7010322265625,0.010605630464851856,-0.08569732308387756,0.021639246493577957
1789582865773000000,11.711,0.09526432305574417,0.0018983049085363746,-0.11926993727684021
1789582865782968000,11.720968017578125,-0.19325873255729675,0.1338847428560257,0.2328946441411972
1789582865792936200,11.730936279296875,-0.07597258687019348,0.00336855323985219,0.41231951117515564
1789582865802904000,11.740904052734376,-0.1528196483850479,0.01981133408844471,0.07736768573522568
1789582865812872200,11.7508720703125,-0.12542690336704254,0.05969510227441788,-0.071831114590168
1789582865822840300,11.76084033203125,0.25389763712882996,0.07445073127746582,-0.5376204252243042
1789582865832809200,11.770809326171875,-0.10970933735370636,-0.0017636092379689217,0.16823309659957886
1789582865842777000,11.780777099609375,-0.19175538420677185,-0.04660854488611221,0.24148041009902954
1789582865852745000,11.790744873046876,-0.009349087253212929,-0.0716949924826622,-0.056942760944366455
1789582865862713000,11.800713134765624,-0.17481984198093414,0.007972155697643757,-0.1950751543045044
1789582865872681200,11.81068115234375,-0.13326601684093475,0.027683543041348457,-0.16245542466640472
1789582865882649000,11.820649169921875,-0.09325911849737167,-0.03868969902396202,0.08476463705301285
1789582865892617200,11.8306171875,-0.12190461158752441,0.02517130598425865,0.04087201505899429
1789582865902586000,11.840586181640624,-0.04950222745537758,-0.019432444125413895,-0.017533516511321068
1789582865912554000,11.850553955078125,-0.0938878059387207,-0.051447104662656784,0.011437946930527687
1789582865922522000,11.860522216796875,-0.15394750237464905,-0.015640510246157646,0.08670593798160553
1789582865932490000,11.870489990234375,-0.018959322944283485,-0.038143157958984375,0.005170596297830343
1789582865942458000,11.8804580078125,-0.027228035032749176,-0.014499044045805931,-0.030776292085647583
1789582865952426200,11.89042626953125,0.036378905177116394,-0.03241998702287674,-0.11783502995967865
1789582865962394000,11.90039404296875,-0.05654691159725189,-0.013870041817426682,-0.060398560017347336
1789582865972362000,11.910362060546875,-0.08834798634052277,-0.037802804261446,0.06411513686180115
1789582865982331100,11.9203310546875,-0.04854251444339752,-0.03787912428379059,0.10034091770648956
1789582865992299000,11.930299072265624,-0.05245576053857803,-0.03078846074640751,0.06992894411087036
1789582866002267100,11.94026708984375,-0.027808696031570435,-0.03989770635962486,-0.06821806728839874
1789582866012235300,11.9502353515625,0.03301018103957176,-0.046533241868019104,-0.06375834345817566
1789582866022203100,11.960203125,-0.006565358489751816,-0.07732118666172028,-0.019112717360258102
1789582866032171000,11.9701708984375,-0.03892622888088226,-0.08089834451675415,0.002093501389026642
1789582866042139100,11.98013916015625,-0.07125598937273026,-0.0656290054321289,-0.04826400429010391
1789582866052108000,11.99010791015625,-0.08408576995134354,-0.05349884182214737,-0.08395702391862869
1789582866062076200,12.000076171875,-0.022115658968687057,-0.09101719409227371,-0.032507602125406265
1789582866072044000,12.0100439453125,-0.07606863975524902,-0.03505459427833557,-0.016030892729759216
1789582866082012200,12.02001220703125,0.014639787375926971,-0.05916478484869003,-0.02666330337524414
1789582866091980300,12.029980224609375,0.027156110852956772,-0.08922947198152542,0.031123559921979904
1789582866101948000,12.039947998046875,-0.07608989626169205,-0.0381065309047699,0.061129335314035416
1789582866111916000,12.049916015625,-0.01016414538025856,-0.048565831035375595,0.037176601588726044
1789582866121884200,12.05988427734375,-0.04748515039682388,-0.016366878524422646,0.03997611626982689
1789582866131853000,12.06985302734375,0.00017158256378024817,-0.0340806320309639,-0.08918000757694244
1789582866141821200,12.0798212890625,0.044687338173389435,-0.07487258315086365,-0.031369101256132126
1789582866151789300,12.089789306640625,-0.004704711027443409,-0.08467461168766022,0.08870244771242142
1789582866161757200,12.099757080078126,-0.005656171590089798,-0.029382670298218727,0.029544461518526077
1789582866171725000,12.10972509765625,-0.0008491654880344868,-0.08096250891685486,0.11049656569957733
