time,seconds_elapsed,z,y,x
1789724391401130500,0.069130615234375,0.5674593448638916,0.11512140184640884,0.00044002849608659744
1789724391411100400,0.079100341796875,0.5862828493118286,0.08650094270706177,0.08048319816589355
1789724391421070300,0.0890703125,0.581748366355896,0.0993763878941536,0.0933474525809288
1789724391431041500,0.09904150390625,0.5808729529380798,0.10760103166103363,0.07110793143510818
1789724391441011500,0.109011474609375,0.5948440432548523,0.11582088470458984,0.0018479134887456894
1789724391450981400,0.1189814453125,0.5986483693122864,0.10158682614564896,0.003080957103520632
1789724391460951600,0.12895166015625,0.5646337270736694,0.12091832607984543,0.03793349862098694
1789724391470921500,0.13892138671875,0.5709429979324341,0.13144873082637787,0.06171659007668495
1789724391480892400,0.148892333984375,0.5895097851753235,0.08764372766017914,0.12888790667057037
1789724391490862300,0.1588623046875,0.5951416492462158,0.12758071720600128,0.07025743275880814
1789724391500831500,0.16883154296875,0.5422736406326294,0.18997591733932495,-0.04915205389261246
1789724391510801400,0.178801513671875,0.5225523710250854,0.1612844616174698,0.009102044627070427
1789724391520772000,0.188772216796875,0.5320910215377808,0.13350076973438263,0.07103198766708374
1789724391530742500,0.198742431640625,0.5072466135025024,0.14220558106899261,0.09135936200618744
1789724391540712400,0.20871240234375,0.4885742962360382,0.1330377161502838,0.12821586430072784
1789724391550682400,0.218682373046875,0.4883233308792114,0.16425171494483948,0.05009124055504799
1789724391560652300,0.22865234375,0.448833703994751,0.18818128108978271,0.010276717133820057
1789724391570623500,0.23862353515625,0.4722471237182617,0.15871892869472504,-0.005800850689411163
1789724391580593400,0.248593505859375,0.4493412673473358,0.17862845957279205,-0.0029850900173187256
1789724391590563300,0.258563232421875,0.4505822956562042,0.15654818713665009,0.0447656512260437
1789724391600533200,0.268533203125,0.43199610710144043,0.16259142756462097,0.0878758355975151
1789724391610504400,0.27850439453125,0.3999100625514984,0.16718405485153198,0.08355698734521866
1789724391620474400,0.288474365234375,0.423806369304657,0.16603223979473114,0.04501333087682724
1789724391630444300,0.2984443359375,0.3987545371055603,0.18445785343647003,0.03519345447421074
1789724391640414200,0.308414306640625,0.40303581953048706,0.21538753807544708,-0.0050964439287781715
1789724391650384400,0.31838427734375,0.42298001050949097,0.2581539452075958,-0.032308559864759445
1789724391660355300,0.328355224609375,0.4683604836463928,0.20174568891525269,0.03377498686313629
1789724391670325200,0.3383251953125,0.4167226552963257,0.20641247928142548,0.09040430933237076
1789724391680295200,0.348295166015625,0.43387898802757263,0.22760377824306488,-0.0008257352747023106
1789724391690265300,0.358265380859375,0.40808549523353577,0.22232060134410858,0.005896349437534809
1789724391700236300,0.368236328125,0.3769882619380951,0.20207935571670532,0.03741484507918358
1789724391710206200,0.378206298828125,0.3525279760360718,0.21822430193424225,0.03162718564271927
1789724391720176000,0.388176025390625,0.3267669379711151,0.22608143091201782,0.013945532962679863
1789724391730146300,0.398146240234375,0.2633373439311981,0.2361748069524765,0.06473228335380554
1789724391740116500,0.408116455078125,0.2641594707965851,0.16169337928295135,0.13952849805355072
1789724391750087200,0.418087158203125,0.22203339636325836,0.19540667533874512,0.11448831856250763
1789724391760057000,0.42805712890625,0.2085941731929779,0.25823676586151123,0.005219729151576757
1789724391770027500,0.438027587890625,0.1955939531326294,0.26016461849212646,0.03327373415231705
1789724391779997400,0.44799755859375,0.1718359738588333,0.2947254776954651,0.019887171685695648
1789724391789967400,0.45796728515625,0.125237837433815,0.28159022331237793,0.044481463730335236
1789724391799938600,0.4679384765625,0.055900998413562775,0.20671971142292023,0.16749393939971924
1789724391809908500,0.477908447265625,-0.009068148210644722,0.24040710926055908,0.09319786727428436
1789724391819878400,0.48787841796875,-0.05515557527542114,0.23740249872207642,0.054097309708595276
1789724391829848300,0.497848388671875,-0.019723018631339073,0.25016382336616516,-0.025283003225922585
1789724391839819500,0.507819580078125,-0.04504089057445526,0.25156253576278687,-0.03192146122455597
1789724391849789400,0.51778955078125,-0.04353544861078262,0.19020995497703552,0.05927916616201401
1789724391859759400,0.52775927734375,-0.07067988812923431,0.15903271734714508,0.10797585546970367
1789724391869729300,0.537729248046875,-0.14222784340381622,0.1792740672826767,0.08098045736551285
1789724391879699200,0.54769921875,-0.26150813698768616,0.2544693052768707,0.001625660341233015
1789724391889670400,0.55767041015625,-0.266707181930542,0.18405373394489288,0.09994956105947495
1789724391899640300,0.567640380859375,-0.15960143506526947,0.20835645496845245,0.012241734191775322
1789724391909610200,0.5776103515625,-0.3722015917301178,0.340513676404953,-0.03126899152994156
1789724391919580200,0.587580078125,-0.25264400243759155,0.2315351814031601,0.0017256122082471848
1789724391929550300,0.59755029296875,-0.18358345329761505,0.14690151810646057,0.12227759510278702
1789724391939521300,0.607521240234375,-0.3443227708339691,0.273701012134552,0.08147983253002167
1789724391949491200,0.6174912109375,-0.3132210969924927,0.2591560184955597,-0.014670420438051224
1789724391959461000,0.627461181640625,-0.2839737832546234,0.18490993976593018,0.0004165852442383766
1789724391969431300,0.637431396484375,-0.39714375138282776,0.20994524657726288,0.0601198635995388
1789724391979401500,0.6474013671875,-0.3121737241744995,0.1923912912607193,-0.025368405506014824
1789724391989372200,0.6573720703125,-0.31749871373176575,0.21002116799354553,-0.00697886710986495
1789724391999342300,0.66734228515625,-0.3405858278274536,0.20096029341220856,0.06579973548650742
1789724392009312500,0.6773125,-0.2573221027851105,0.1800139993429184,0.06945651769638062
1789724392019282400,0.687282470703125,-0.2895756959915161,0.22860904037952423,0.018651198595762253
1789724392029252400,0.69725244140625,-0.37510284781455994,0.24194322526454926,0.058497678488492966
1789724392039223600,0.7072236328125,-0.3678444027900696,0.21519975364208221,0.04178900644183159
1789724392049193500,0.717193359375,-0.4074280261993408,0.2145022451877594,0.01752995327115059
1789724392059163400,0.727163330078125,-0.3969409763813019,0.20873390138149261,-0.005894595291465521
1789724392069133300,0.73713330078125,-0.42015546560287476,0.19333310425281525,0.019989466294646263
1789724392079103200,0.747103271484375,-0.4765126407146454,0.1727094054222107,0.060383714735507965
1789724392089074400,0.757074462890625,-0.4826783835887909,0.16540569067001343,0.030073214322328568
1789724392099044400,0.76704443359375,-0.47706839442253113,0.15345399081707,-0.020763417705893517
1789724392109014300,0.77701416015625,-0.509084939956665,0.14694257080554962,0.002803425770252943
1789724392118984200,0.786984130859375,-0.5344336032867432,0.128645122051239,0.019910568371415138
1789724392128954400,0.796954345703125,-0.5530046224594116,0.14356814324855804,0.0033848541788756847
1789724392138925300,0.80692529296875,-0.5616649389266968,0.1342039406299591,0.002632244722917676
1789724392148895200,0.816895263671875,-0.5967985987663269,0.15088897943496704,0.023677948862314224
1789724392158865200,0.826865234375,-0.6025193333625793,0.1356319636106491,0.02744760923087597
1789724392168835300,0.83683544921875,-0.5732815265655518,0.12007325142621994,0.028942175209522247
1789724392178805200,0.84680517578125,-0.5785772800445557,0.10664907842874527,0.018738046288490295
1789724392188776200,0.856776123046875,-0.5644084811210632,0.13537126779556274,-0.035601090639829636
1789724392198746400,0.866746337890625,-0.5565081834793091,0.06419074535369873,-0.0025596292689442635
1789724392208716300,0.87671630859375,-0.5641487836837769,0.05359375849366188,0.04290612041950226
1789724392218686500,0.8866865234375,-0.5152627825737,0.05576033517718315,-0.021984882652759552
1789724392228656400,0.896656494140625,-0.529605507850647,0.06798610836267471,0.005132489372044802
1789724392238627300,0.90662744140625,-0.5038290023803711,0.054879628121852875,0.055129874497652054
1789724392248597500,0.916597412109375,-0.4560132324695587,0.0728330984711647,0.030525492504239082
1789724392258567400,0.9265673828125,-0.42626023292541504,0.04299893602728844,0.02628670632839203
1789724392268537300,0.936537353515625,-0.49024614691734314,0.06636923551559448,0.04385345056653023
1789724392278507300,0.94650732421875,-0.5126199126243591,0.024830583482980728,0.05438545346260071
1789724392288478500,0.956478515625,-0.5129772424697876,0.04736420884728432,0.04271196201443672
1789724392298448400,0.966448486328125,-0.5982523560523987,0.04876367375254631,0.07843609154224396
1789724392308418300,0.976418212890625,-0.5824148058891296,0.022537661716341972,0.058762792497873306
1789724392318388200,0.98638818359375,-0.6219145655632019,-0.0155343571677804,0.14070533215999603
1789724392328358400,0.9963583984375,-0.5631855130195618,0.015440667048096657,0.049367766827344894
1789724392338329300,1.006329345703125,-0.4715210497379303,-0.0310573261231184,0.0016561681404709816
1789724392348299300,1.01629931640625,-0.4565897583961487,-0.02529708854854107,-0.021892625838518143
1789724392358269200,1.026269287109375,-0.471411794424057,-0.04214198514819145,-0.03819635510444641
1789724392368239400,1.0362392578125,-0.4797666668891907,0.03489367663860321,-0.1485510915517807
1789724392378209300,1.046209228515625,-0.5575163960456848,-0.01809082180261612,0.012118395417928696
1789724392388180200,1.05618017578125,-0.5210427641868591,-0.07171836495399475,0.11770900338888168
1789724392398150400,1.066150390625,-0.4709114730358124,-0.023069730028510094,-0.0773056298494339
1789724392408120300,1.076120361328125,-0.517693042755127,0.01997094787657261,-0.12680260837078094
1789724392418090200,1.08609033203125,-0.4292348623275757,-0.12330126017332077,0.05598478019237518
1789724392428060400,1.096060302734375,-0.3958168625831604,-0.05305282771587372,-0.07203513383865356
1789724392438031400,1.10603125,-0.39375612139701843,-0.07496078312397003,-0.08733659237623215
1789724392448001300,1.116001220703125,-0.3571137487888336,-0.13173730671405792,0.02386946603655815
1789724392457971500,1.125971435546875,-0.30128833651542664,-0.08438143134117126,-0.05929986387491226
1789724392467941400,1.13594140625,-0.34317371249198914,-0.06503010541200638,0.006755320820957422
1789724392477911300,1.145911376953125,-0.21997225284576416,-0.14702889323234558,0.07157684862613678
1789724392487882500,1.155882568359375,-0.1690020114183426,-0.12386497110128403,0.021963486447930336
1789724392497853000,1.16585302734375,-0.1403561234474182,-0.09430955350399017,-0.01656045764684677
1789724392507822800,1.17582275390625,-0.06092548370361328,-0.11204247921705246,-0.009224249050021172
1789724392517793000,1.18579296875,-0.07133247703313828,-0.10652442276477814,0.004109710920602083
1789724392527763000,1.195762939453125,-0.08658254146575928,-0.09854665398597717,-0.03397535905241966
1789724392537732900,1.20573291015625,-0.016789160668849945,-0.17435073852539062,-0.01353469304740429
1789724392547703800,1.215703857421875,0.027450736612081528,-0.18569765985012054,0.0037122040521353483
1789724392557674000,1.225674072265625,0.07211270183324814,-0.18337786197662354,0.049767639487981796
1789724392567644000,1.235643798828125,0.16700832545757294,-0.19201874732971191,0.06079285964369774
1789724392577613800,1.24561376953125,0.21342341601848602,-0.19342033565044403,0.06967948377132416
1789724392587583700,1.255583740234375,0.2411767542362213,-0.18701303005218506,0.07749692350625992
1789724392597555000,1.265554931640625,0.31473881006240845,-0.1939743012189865,0.0248199924826622
1789724392607524900,1.27552490234375,0.32691532373428345,-0.18150538206100464,0.008821851573884487
1789724392617494800,1.285494873046875,0.33395883440971375,-0.20404142141342163,0.040383096784353256
1789724392627464700,1.295464599609375,0.34168174862861633,-0.20735999941825867,-0.004125781357288361
1789724392637434600,1.3054345703125,0.4099360704421997,-0.24028247594833374,-0.03196868300437927
1789724392647405800,1.31540576171875,0.42931562662124634,-0.20255933701992035,-0.005919505376368761
1789724392657375700,1.325375732421875,0.43617182970046997,-0.16860805451869965,-0.01589599810540676
1789724392667345700,1.335345703125,0.45643261075019836,-0.17077134549617767,0.011000063270330429
1789724392677315600,1.345315673828125,0.5049251317977905,-0.18985885381698608,0.015083368867635727
1789724392687286000,1.3552861328125,0.5686380863189697,-0.19999803602695465,-0.02647685632109642
1789724392697256000,1.365255859375,0.5839301347732544,-0.1902986317873001,-0.044439177960157394
1789724392707227000,1.375226806640625,0.5460338592529297,-0.19279694557189941,0.037570469081401825
1789724392717197000,1.385197021484375,0.5504907965660095,-0.19857418537139893,0.10757296532392502
1789724392727167000,1.3951669921875,0.5528495907783508,-0.1716320514678955,0.0854378342628479
1789724392737137000,1.405136962890625,0.5385339260101318,-0.15325550734996796,-0.009813040494918823
1789724392747106800,1.41510693359375,0.47828012704849243,-0.2782866656780243,-0.12048495560884476
1789724392757078000,1.425078125,0.3588460683822632,-0.2114916890859604,-0.08015963435173035
1789724392767048000,1.4350478515625,0.4672985076904297,-0.28654810786247253,-0.00800421554595232
1789724392777017900,1.445017822265625,0.49979716539382935,-0.22036424279212952,0.049284398555755615
1789724392786987800,1.45498779296875,0.37270739674568176,-0.12573999166488647,0.0002444167621433735
1789724392796957700,1.464957763671875,0.43275928497314453,-0.1386241614818573,0.030033931136131287
1789724392806928000,1.474927978515625,0.5289400815963745,-0.19659532606601715,0.03800450637936592
1789724392816898800,1.48489892578125,0.5007896423339844,-0.10254275053739548,0.03517831861972809
1789724392826868700,1.49486865234375,0.5838017463684082,-0.06339268386363983,-0.09837974607944489
1789724392836838700,1.504838623046875,0.5646250247955322,-0.059945832937955856,-0.076262928545475
1789724392846808800,1.514808837890625,0.5607735514640808,-0.10310928523540497,0.024362752214074135
1789724392856778800,1.52477880859375,0.6010028123855591,-0.10928241163492203,0.023204242810606956
1789724392866749700,1.534749755859375,0.5305007100105286,-0.07580381631851196,-0.0026603774167597294
1789724392876719600,1.5447197265625,0.46961739659309387,-0.053341493010520935,0.03286164253950119
1789724392886689800,1.554689697265625,0.5567195415496826,-0.09142017364501953,-0.006946224253624678
1789724392896660000,1.564659912109375,0.5611527562141418,-0.03939547762274742,-0.03194180130958557
1789724392906630000,1.5746298828125,0.5311970114707947,-0.03000330552458763,0.006822905037552118
1789724392916599800,1.584599853515625,0.6000365614891052,-0.044489115476608276,0.05466765910387039
1789724392926571000,1.594571044921875,0.6614794135093689,-0.01087416522204876,-0.007009285967797041
1789724392936541000,1.604541015625,0.635028064250946,0.05884919315576553,-0.07658630609512329
1789724392946510800,1.6145107421875,0.6276055574417114,0.040957011282444,-0.03680587187409401
1789724392956480800,1.624480712890625,0.6530502438545227,0.011002392508089542,0.016807489097118378
1789724392966451000,1.634450927734375,0.6522313356399536,0.036565277725458145,-0.004082079976797104
1789724392976420900,1.6444208984375,0.6628631949424744,0.055416177958250046,-0.026202421635389328
1789724392986391800,1.654391845703125,0.6653274297714233,0.04586128890514374,-0.05926024168729782
1789724392996361700,1.66436181640625,0.6521785259246826,0.079769566655159,-0.05049605667591095
1789724393006332000,1.674331787109375,0.6527262926101685,0.02173342928290367,-0.013615800067782402
1789724393016301800,1.6843017578125,0.6390587687492371,0.08426333963871002,-0.015735890716314316
1789724393026271700,1.694271728515625,0.6100901961326599,0.06034735590219498,-0.042519036680459976
1789724393036241700,1.70424169921875,0.5611886978149414,0.09400376677513123,-0.049933478236198425
1789724393046212900,1.714212890625,0.45415595173835754,0.10601621866226196,-0.024844102561473846
1789724393056182800,1.724182861328125,0.44854670763015747,0.08999722450971603,0.0018541151657700539
1789724393066152700,1.734152587890625,0.4185241162776947,0.08365357667207718,0.03487411513924599
1789724393076123000,1.744122802734375,0.40101808309555054,0.12324752658605576,-0.024300333112478256
1789724393086092800,1.7540927734375,0.41001635789871216,0.10178004950284958,0.055750295519828796
1789724393096063700,1.764063720703125,0.40260905027389526,0.13053740561008453,0.07684172689914703
1789724393106034000,1.774033935546875,0.33618026971817017,0.15828892588615417,0.07758113741874695
1789724393116003800,1.78400390625,0.3103577792644501,0.1455399990081787,0.04299144074320793
1789724393125974000,1.79397412109375,0.2564069330692291,0.11218869686126709,0.05676770955324173
1789724393135944000,1.80394384765625,0.2138899266719818,0.10875522345304489,0.02692146971821785
1789724393145913900,1.813913818359375,0.1618216633796692,0.12933054566383362,-0.03078576736152172
1789724393155884800,1.823884765625,0.11273200064897537,0.1033431813120842,-0.002174339722841978
1789724393165855000,1.83385498046875,0.09476285427808762,0.06412467360496521,0.03636373206973076
1789724393175825000,1.843824951171875,0.05693770945072174,0.07444096356630325,0.012034690007567406
1789724393185794800,1.853794921875,0.023059077560901642,0.099665567278862,0.007167920470237732
1789724393195764700,1.8637646484375,0.03483399748802185,0.07161661237478256,0.02745538391172886
1789724393205734700,1.873734619140625,-0.011129764840006828,0.09742477536201477,0.004571906290948391
1789724393215705900,1.883705810546875,-0.02118874527513981,0.11752986907958984,-0.02489687316119671
1789724393225675800,1.89367578125,-0.030550289899110794,0.07277730852365494,0.03931620344519615
1789724393235645700,1.903645751953125,-0.09243582934141159,0.0879068449139595,0.055194225162267685
1789724393245615600,1.91361572265625,-0.0791461244225502,0.09739914536476135,0.010322358459234238
1789724393255585800,1.923585693359375,-0.1142723336815834,0.07158879935741425,0.025656696408987045
1789724393265556000,1.933555908203125,-0.16113543510437012,0.09024717658758163,0.03159447759389877
1789724393275526700,1.943526611328125,-0.14384815096855164,0.07371538877487183,0.04308536648750305
1789724393285496800,1.953496826171875,-0.1333843171596527,0.10104954242706299,-0.0240236297249794
1789724393295467000,1.963467041015625,-0.15627679228782654,0.12492194026708603,-0.035587944090366364
1789724393305437000,1.97343701171875,-0.1783493459224701,0.1014307290315628,0.05187372490763664
1789724393315406800,1.98340673828125,-0.16254188120365143,0.13483642041683197,0.012085684575140476
1789724393325376800,1.993376708984375,-0.2022533267736435,0.1620299518108368,-0.04058045893907547
1789724393335348000,2.003347900390625,-0.16551780700683594,0.10872627794742584,0.017486628144979477
1789724393345318000,2.01331787109375,-0.07838263362646103,0.06585738062858582,0.060438621789216995
1789724393355287800,2.023287841796875,-0.05249183997511864,0.1328652799129486,0.011134259402751923
1789724393365257700,2.0332578125,0.009985653683543205,0.1324586123228073,-0.013095712289214134
1789724393375228000,2.043227783203125,0.08084820955991745,0.10467228293418884,0.0017967987805604935
1789724393385197800,2.05319775390625,0.10010792315006256,0.09640689194202423,0.029830031096935272
1789724393395168800,2.063168701171875,0.11713363975286484,0.14027318358421326,0.005316224880516529
1789724393405138700,2.073138671875,0.11333970725536346,0.15133622288703918,-0.005640286020934582
1789724393415108900,2.08310888671875,0.12322035431861877,0.10955556482076645,0.04934380203485489
1789724393425078800,2.093078857421875,0.13030757009983063,0.16385023295879364,0.01890280656516552
1789724393435048700,2.103048583984375,0.1489025503396988,0.1693376749753952,0.07530243694782257
1789724393445019000,2.113018798828125,0.1560615450143814,0.21870411932468414,0.02205592766404152
1789724393454988800,2.12298876953125,0.15215055644512177,0.19469057023525238,0.030748657882213593
1789724393464959700,2.132959716796875,0.10826484858989716,0.19404928386211395,0.04898252338171005
1789724393474930000,2.142929931640625,0.08611388504505157,0.18941494822502136,0.05171661823987961
1789724393484899800,2.15289990234375,0.06354065984487534,0.18404307961463928,0.06825617700815201
1789724393494869800,2.162869873046875,0.019087251275777817,0.20267225801944733,0.04342905804514885
1789724393504840200,2.172840087890625,-0.017567433416843414,0.21511241793632507,0.02632836624979973
1789724393514810000,2.18281005859375,-0.02369757741689682,0.18247893452644348,0.06865029782056808
1789724393524781300,2.19278125,-0.01811079867184162,0.2034745067358017,0.02256988361477852
1789724393534751200,2.202751220703125,-0.042728256434202194,0.2271631956100464,0.0362546481192112
1789724393544721200,2.21272119140625,-0.07473759353160858,0.2157113254070282,0.012055303901433945
1789724393554691000,2.222691162109375,-0.08752615749835968,0.20477591454982758,0.035061467438936234
1789724393564661000,2.232660888671875,-0.10377223789691925,0.1862749308347702,0.05700644478201866
1789724393574631200,2.242631103515625,-0.1925380676984787,0.21842268109321594,0.06529518961906433
1789724393584602000,2.25260205078125,-0.22995440661907196,0.2414233386516571,-0.011303712613880634
1789724393594572000,2.262572021484375,-0.26533448696136475,0.1694992184638977,0.016966916620731354
1789724393604542000,2.2725419921875,-0.35944658517837524,0.16054435074329376,0.0777391865849495
1789724393614512000,2.28251220703125,-0.37696927785873413,0.14415062963962555,0.0004965025000274181
1789724393624482000,2.29248193359375,-0.4026525318622589,0.0860404372215271,0.09743502736091614
1789724393634452200,2.3024521484375,-0.4241989850997925,0.11911620199680328,0.05111241340637207
1789724393644423000,2.3124228515625,-0.34690073132514954,0.1142900139093399,-0.06639423966407776
1789724393654393000,2.32239306640625,-0.32412225008010864,0.10551215708255768,-0.0427008718252182
1789724393664363300,2.33236328125,-0.3054276406764984,0.1107734963297844,0.004792878869920969
1789724393674333200,2.342333251953125,-0.27628031373023987,0.14384080469608307,-0.03358682617545128
1789724393684303000,2.35230322265625,-0.28883710503578186,0.13775308430194855,0.004259088076651096
1789724393694273300,2.362273193359375,-0.31358063220977783,0.1011960506439209,0.03934236243367195
1789724393704243200,2.3722431640625,-0.2735740840435028,0.11551693081855774,-0.044220708310604095
1789724393714214100,2.382214111328125,-0.3517349362373352,0.09197165071964264,0.007825182750821114
1789724393724184000,2.39218408203125,-0.3472578525543213,0.06352904438972473,0.09616072475910187
1789724393734154200,2.402154296875,-0.24389655888080597,0.08423246443271637,-0.06075325608253479
1789724393744124200,2.412124267578125,-0.2603852450847626,0.12805438041687012,-0.07339517772197723
1789724393754094000,2.422093994140625,-0.22530876100063324,0.06146096810698509,0.009137781336903572
1789724393764064000,2.43206396484375,-0.13469645380973816,0.0708591639995575,-0.004350904840976
1789724393774034000,2.442033935546875,-0.09602150321006775,0.12080568075180054,-0.09722890704870224
1789724393784005000,2.452005126953125,-0.09736254066228867,0.12159426510334015,-0.09863872826099396
1789724393793975000,2.46197509765625,-0.029973914846777916,0.04838211089372635,-0.05878399312496185
1789724393803945000,2.471945068359375,-0.042647719383239746,0.05832679569721222,-0.05971788987517357
1789724393813915100,2.4819150390625,-0.10180371254682541,0.09501662850379944,-0.07651178538799286
1789724393823885300,2.49188525390625,-0.053585365414619446,0.04017028957605362,-0.07430088520050049
1789724393833855200,2.501855224609375,-0.05151315778493881,0.04292213171720505,-0.04005396366119385
1789724393843826200,2.511826171875,-0.010185761377215385,0.029553446918725967,-0.018822450190782547
1789724393853796000,2.521796142578125,-0.01760692521929741,0.05123557150363922,-0.050467997789382935
1789724393863766300,2.531766357421875,-0.0178407970815897,0.032868869602680206,-0.033120833337306976
1789724393873736200,2.541736083984375,0.04339006915688515,-0.0007961485534906387,-0.000249435193836689
1789724393883706000,2.5517060546875,0.03180234134197235,0.011458838358521461,0.008824240416288376
1789724393893676000,2.561676025390625,0.007068501319736242,0.055239610373973846,-0.0194244422018528
1789724393903646200,2.571646240234375,0.06778115034103394,0.015887152403593063,0.024522196501493454
1789724393913617200,2.5816171875,0.09077328443527222,0.003533015726134181,0.034830491989851
1789724393923587000,2.591587158203125,0.03645676001906395,0.06010327488183975,0.040260910987854004
1789724393933557000,2.601556884765625,0.0847284197807312,0.03894525766372681,0.050688520073890686
1789724393943527200,2.611527099609375,0.12154360860586166,0.0318361297249794,0.013941764831542969
1789724393953497000,2.6214970703125,0.04636017233133316,0.08628685027360916,0.03884711489081383
1789724393963467000,2.631467041015625,0.09394710510969162,0.06018727645277977,0.04555559158325195
1789724393973437200,2.641437255859375,0.08937366306781769,0.05801812931895256,0.07315712422132492
1789724393983408000,2.651408203125,0.09252800792455673,0.1007077544927597,0.013704216107726097
1789724393993378000,2.6613779296875,0.11480135470628738,0.05581032484769821,0.03214554116129875
1789724394003348200,2.67134814453125,0.06614677608013153,0.05480033531785011,0.08785679936408997
1789724394013318100,2.681318115234375,0.07429205626249313,0.09838562458753586,-0.005121076013892889
1789724394023288000,2.6912880859375,0.03199326619505882,0.04587871953845024,0.06928112357854843
1789724394033258200,2.70125830078125,-0.004814815707504749,0.08274777978658676,0.04245191067457199
1789724394043229200,2.711229248046875,-0.021417148411273956,0.08422120660543442,-0.05468052998185158
1789724394053199000,2.72119921875,-0.05093482881784439,0.0011657366994768381,0.09481494873762131
1789724394063169000,2.7311689453125,-0.08451744168996811,0.00995598640292883,0.04975588992238045
1789724394073139200,2.74113916015625,-0.08452756702899933,0.03416039049625397,-0.017056694254279137
1789724394083109000,2.751109130859375,-0.07814069092273712,-0.0019708299078047276,0.03732026740908623
1789724394093079000,2.7610791015625,-0.13043437898159027,0.0448274128139019,0.03692377358675003
1789724394103049000,2.771049072265625,-0.05982599034905434,0.04054238647222519,-0.0620049387216568
1789724394113020200,2.781020263671875,-0.05255156755447388,0.01719871535897255,0.014127647504210472
1789724394122990000,2.790989990234375,-0.06563153862953186,0.04364660382270813,0.013499419204890728
1789724394132960000,2.8009599609375,-0.05750330165028572,0.049996912479400635,0.0327434204518795
1789724394142930000,2.810929931640625,-0.05045466125011444,0.06207888945937157,-0.04354718700051308
1789724394152900000,2.820900146484375,-0.07929136604070663,0.06199127063155174,-0.002038093749433756
1789724394162870300,2.830870361328125,-0.08670134842395782,0.03398866206407547,0.0015406622551381588
1789724394172840200,2.840840087890625,-0.09705567359924316,0.018509311601519585,0.015241501852869987
1789724394182811100,2.85081103515625,-0.07819730043411255,0.005755698774009943,-0.007800167892128229
1789724394192781300,2.86078125,-0.08993282914161682,0.004437761846929789,0.023097965866327286
1789724394202751200,2.870751220703125,-0.07613978534936905,-0.005070256069302559,-0.009283410385251045
1789724394212721200,2.88072119140625,-0.06623661518096924,-0.004927803762257099,0.01804688572883606
1789724394222691000,2.890691162109375,-0.07448522001504898,-0.013318357989192009,0.02032335475087166
1789724394232661000,2.900660888671875,-0.12083956599235535,0.0033290262799710035,-0.016799520701169968
1789724394242631200,2.910631103515625,-0.11984354257583618,-0.028750082477927208,-0.02409205585718155
1789724394252601000,2.92060107421875,-0.13690082728862762,-0.04657141864299774,0.02361581288278103
1789724394262572000,2.930572021484375,-0.16760435700416565,-0.013912529684603214,-0.031589217483997345
1789724394272542000,2.9405419921875,-0.14292797446250916,0.0021047363989055157,-0.11342780292034149
1789724394282512100,2.95051220703125,-0.1772526502609253,-0.00910104624927044,-0.009125633165240288
1789724394292482000,2.96048193359375,-0.1225115954875946,-0.03172804415225983,0.06491360813379288
1789724394302452000,2.970451904296875,-0.04787570983171463,0.011282803490757942,-0.08580346405506134
1789724394312422100,2.980422119140625,-0.025919541716575623,-0.014653190039098263,-0.04897008463740349
1789724394322392300,2.990392333984375,0.06649038195610046,-0.05971784517168999,-0.027083052322268486
1789724394332363000,3.000363037109375,-0.0021872150246053934,-0.02430553175508976,0.011807356029748917
1789724394342333200,3.010333251953125,0.0009331965120509267,-0.03580440953373909,-0.009721175767481327
1789724394352303000,3.02030322265625,-0.010480312630534172,-0.03916452080011368,-0.02492356300354004
1789724394362273300,3.030273193359375,-0.04299456626176834,-0.0654284656047821,0.012722417712211609
1789724394372243200,3.0402431640625,-0.017259327694773674,-0.054904915392398834,-0.03975968062877655
1789724394382213000,3.050213134765625,-0.010584913194179535,-0.0714908167719841,-0.07825114578008652
1789724394392183000,3.06018310546875,-0.04198358207941055,-0.09675649553537369,0.0040091052651405334
1789724394402154200,3.070154296875,0.008447367697954178,-0.13421198725700378,0.0030482367146760225
1789724394412124200,3.080124267578125,-0.02385544590651989,-0.09699804335832596,0.005579038988798857
1789724394422094000,3.090093994140625,-0.03657451644539833,-0.04914039000868797,-0.0196770541369915
1789724394432064000,3.10006396484375,0.04492742568254471,-0.11558569222688675,0.011612433940172195
1789724394442034000,3.110033935546875,0.011420601047575474,-0.09687352180480957,0.02746676467359066
1789724394452004000,3.120004150390625,-0.023325461894273758,-0.06296775490045547,0.007213490083813667
1789724394461974000,3.12997412109375,-0.0023107228334993124,-0.10249759256839752,0.028564851731061935
1789724394471945000,3.139945068359375,-0.020163489505648613,-0.12833158671855927,0.03679641708731651
1789724394481915100,3.1499150390625,-0.035402096807956696,-0.11137630045413971,0.05941331014037132
1789724394491885300,3.15988525390625,-0.015203618444502354,-0.11883635073900223,0.027465233579277992
1789724394501855000,3.16985498046875,-0.035332463681697845,-0.0963091254234314,0.00676762405782938
1789724394511825000,3.179824951171875,-0.002109526889398694,-0.13315290212631226,0.06802112609148026
1789724394521794800,3.189794921875,-0.0005844110855832696,-0.11312118917703629,0.05282215774059296
1789724394531765000,3.199764892578125,-0.014876797795295715,-0.08257100731134415,0.0347406230866909
1789724394541735000,3.20973486328125,0.02565101720392704,-0.08627745509147644,0.029294230043888092
1789724394551705900,3.219705810546875,0.019920427352190018,-0.04668423533439636,0.007773756980895996
1789724394561675800,3.22967578125,0.00010218564420938492,-0.03771039843559265,0.0038814598228782415
1789724394571646000,3.23964599609375,0.0410706028342247,-0.09032254666090012,0.035073183476924896
1789724394581615900,3.249615966796875,0.008535563014447689,-0.04810132086277008,0.03630276769399643
1789724394591585800,3.259585693359375,0.09049440920352936,-0.0860263854265213,-0.0018882066942751408
1789724394601555700,3.2695556640625,0.07821670174598694,-0.0778060033917427,-0.042749885469675064
1789724394611526000,3.27952587890625,0.03352795168757439,-0.08566256612539291,0.04255356639623642
1789724394621496800,3.289496826171875,0.10282367467880249,-0.11474694311618805,0.03135044872760773
1789724394631466800,3.299466796875,0.09972286969423294,-0.05128704383969307,-0.030894894152879715
1789724394641437000,3.30943701171875,0.11475641280412674,-0.0402919165790081,0.012547123245894909
1789724394651406800,3.31940673828125,0.14331205189228058,-0.04403667151927948,0.07365689426660538
1789724394661377000,3.329376953125,0.19002336263656616,-0.028622295707464218,0.009791631251573563
1789724394671347000,3.339346923828125,0.16073179244995117,-0.007626731880009174,0.024898413568735123
1789724394681316900,3.34931689453125,0.19769367575645447,-0.030751660466194153,0.05128989741206169
1789724394691286800,3.359286865234375,0.18877777457237244,-0.020453330129384995,0.0017804037779569626
1789724394701258000,3.369258056640625,0.12293483316898346,0.008676058612763882,0.007075833156704903
1789724394711228000,3.379227783203125,0.16202925145626068,-0.0030306645203381777,-0.017893431708216667
1789724394721197800,3.38919775390625,0.1819448620080948,-0.010300815105438232,-0.04098892584443092
1789724394731167700,3.399167724609375,0.10310438275337219,0.0031366960611194372,0.024291276931762695
1789724394741138000,3.409137939453125,0.126654714345932,-0.03440162166953087,0.052086155861616135
1789724394751107800,3.41910791015625,0.04016989469528198,0.018069306388497353,0.0308114942163229
1789724394761077800,3.429077880859375,0.009414687752723694,0.028767678886651993,0.029165072366595268
1789724394771048000,3.4390478515625,0.010787391103804111,0.03997544199228287,-0.014722691848874092
1789724394781019000,3.449018798828125,-0.03830931708216667,0.023149054497480392,-0.02246183715760708
1789724394790988800,3.45898876953125,-0.11413190513849258,0.010009017772972584,0.057696111500263214
1789724394800959000,3.468958984375,-0.11776505410671234,-0.003503041109070182,0.0490131750702858
1789724394810929000,3.478928955078125,-0.16580598056316376,0.038183387368917465,-0.015923485159873962
1789724394820898800,3.48889892578125,-0.1761246770620346,-0.005841330625116825,0.009299047291278839
1789724394830869000,3.498868896484375,-0.16230642795562744,-0.02459367923438549,0.03460866957902908
1789724394840839000,3.5088388671875,-0.16680105030536652,-0.009980914182960987,0.011005338281393051
1789724394850808800,3.518808837890625,-0.19449041783809662,0.07337125390768051,-0.08273429423570633
1789724394860779800,3.52877978515625,-0.16232529282569885,0.00815096776932478,-0.03707733005285263
1789724394870750000,3.53875,-0.22521160542964935,-0.0022126578260213137,0.031052010133862495
1789724394880720000,3.548719970703125,-0.24284200370311737,0.025907393544912338,-0.08687808364629745
1789724394890689800,3.558689697265625,-0.2561520040035248,-0.00968853011727333,-0.034004028886556625
1789724394900659700,3.56865966796875,-0.2616676986217499,-0.03863762319087982,0.07145821303129196
1789724394910629600,3.578629638671875,-0.21388886868953705,0.008861728012561798,0.006072069052606821
1789724394920600000,3.58860009765625,-0.14907337725162506,0.011634078808128834,-0.03198636323213577
1789724394930570800,3.59857080078125,-0.12140566110610962,0.05053254961967468,-0.02345818467438221
1789724394940540700,3.608540771484375,-0.07124155759811401,0.016920525580644608,-0.003517232369631529
1789724394950511000,3.618510986328125,-0.0724310502409935,0.01797911338508129,0.07791174948215485
1789724394960481000,3.62848095703125,-0.07158869504928589,0.019975418224930763,0.023062612861394882
1789724394970451000,3.638450927734375,-0.09390575438737869,0.005252916365861893,-0.0037254970520734787
1789724394980420900,3.6484208984375,-0.06600301712751389,-0.024052508175373077,-0.009391105733811855
1789724394990390800,3.658390869140625,-0.07754378765821457,-0.02649727463722229,-0.018019575625658035
1789724395000361000,3.66836083984375,-0.1340446174144745,0.0007814844138920307,0.015457158908247948
1789724395010331000,3.678330810546875,-0.11193195730447769,-0.004426825325936079,-0.022470777854323387
1789724395020301800,3.6883017578125,-0.10083989053964615,0.008032773621380329,-0.011275114491581917
1789724395030271700,3.698271728515625,-0.10973861813545227,0.00016844295896589756,-0.016741957515478134
1789724395040242000,3.708241943359375,0.008803742937743664,-0.012489295564591885,-0.049424003809690475
1789724395050211800,3.7182119140625,-0.019484836608171463,-0.00988839939236641,-0.023497235029935837
1789724395060181800,3.728181640625,0.0919942855834961,-0.02958274446427822,-0.05442958325147629
1789724395070151700,3.738151611328125,0.024889562278985977,0.005663825664669275,-0.019789591431617737
1789724395080121900,3.748121826171875,0.0826743021607399,-0.021499086171388626,0.031131645664572716
1789724395090092000,3.758092041015625,0.06991925090551376,-0.007963653653860092,0.019914761185646057
1789724395100062700,3.768062744140625,0.04292571172118187,0.015066830441355705,0.0006859390996396542
1789724395110033000,3.778032958984375,0.04010586068034172,-0.004154500085860491,0.0052684457041323185
1789724395120003000,3.788003173828125,0.0642644613981247,-0.022822460159659386,0.022798703983426094
1789724395129973000,3.797972900390625,0.03960686922073364,-0.04355049133300781,0.020992550998926163
1789724395139943000,3.80794287109375,0.0667514055967331,-0.050651274621486664,-0.002127150073647499
1789724395149912800,3.817912841796875,0.06343884021043777,-0.029070638120174408,-0.029841167852282524
1789724395159882800,3.8278828125,0.017451368272304535,-0.026630649343132973,-0.0016987458802759647
1789724395169853000,3.83785302734375,0.07678449153900146,-0.028382807970046997,-0.013741378672420979
1789724395179823900,3.847823974609375,0.11697052419185638,-0.07352764904499054,-0.0029411958530545235
1789724395189793800,3.857793701171875,0.06777846813201904,-0.022204089909791946,0.065898597240448
1789724395199763700,3.867763671875,0.15249201655387878,-0.004032010678201914,-0.010869685560464859
1789724395209734000,3.87773388671875,0.19945111870765686,-0.010588014498353004,-0.003603074699640274
1789724395219703800,3.887703857421875,0.24617494642734528,-0.008933925069868565,0.05324529483914375
1789724395229674000,3.897674072265625,0.3292258679866791,0.01057326328009367,0.018043451011180878
1789724395239644000,3.907643798828125,0.38442176580429077,0.035187531262636185,0.0007214522920548916
1789724395249613800,3.91761376953125,0.39083170890808105,0.09185133874416351,0.022798525169491768
1789724395259584000,3.927583984375,0.4255771040916443,0.07865443080663681,0.054480817168951035
1789724395269555000,3.937554931640625,0.4431368410587311,0.08286119252443314,0.06123114004731178
1789724395279524900,3.94752490234375,0.39407554268836975,0.09548191726207733,0.06415288895368576
1789724395289494800,3.957494873046875,0.4028606116771698,0.1057467982172966,0.030304299667477608
1789724395299465000,3.96746484375,0.39865735173225403,0.09617459774017334,-0.06530238687992096
1789724395309435000,3.977434814453125,0.26912662386894226,0.1265805959701538,-0.019223839044570923
1789724395319404800,3.98740478515625,0.254313588142395,0.057844944298267365,0.054964639246463776
1789724395329374700,3.997374755859375,0.2150476574897766,0.06354942917823792,0.037022389471530914
1789724395339345000,4.007344970703125,0.055528365075588226,0.08260758221149445,0.03129694610834122
1789724395349315800,4.01731591796875,-0.014118358492851257,0.04117251932621002,0.07730518281459808
1789724395359285800,4.02728564453125,-0.023947199806571007,0.04183446615934372,-0.01043931394815445
1789724395369255700,4.037255615234375,-0.14716625213623047,0.07857540249824524,0.01898222044110298
1789724395379225900,4.047225830078125,-0.1565602868795395,-0.020060893148183823,0.0908055454492569
1789724395389196000,4.057196044921875,-0.18419495224952698,0.07645943760871887,-0.0026460248045623302
1789724395399166000,4.067166015625,-0.17516523599624634,0.03805079683661461,-0.005721443798393011
1789724395409135900,4.077135986328125,-0.16253434121608734,0.03430492430925369,-0.02517627365887165
1789724395419105800,4.087105712890625,-0.08599962294101715,-0.0207053292542696,-0.045907117426395416
1789724395429076000,4.097075927734375,-0.08579926192760468,-0.005105180665850639,-0.008191162720322609
1789724395439047000,4.107046875,-0.06593048572540283,-0.01889156736433506,0.07963136583566666
1789724395449016800,4.117016845703125,0.0031765918247401714,-0.013079450465738773,-0.021506167948246002
1789724395458986800,4.12698681640625,-0.10430938750505447,0.03287605941295624,0.032263852655887604
1789724395468957000,4.13695703125,-0.044315140694379807,-0.017552578821778297,0.017565688118338585
1789724395478926800,4.1469267578125,-0.023981109261512756,0.03225252777338028,-0.0657273381948471
1789724395488896800,4.156896728515625,-0.05879199504852295,0.06940707564353943,-0.06182527169585228
1789724395498866700,4.16686669921875,0.00029156729578971863,-0.0044112252071499825,-0.011075008660554886
1789724395508837000,4.176837158203125,0.00394006073474884,-0.005279799923300743,-0.0038905106484889984
1789724395518807300,4.186807373046875,0.0305921770632267,-0.013425876386463642,-0.06401536613702774
1789724395528778000,4.196778076171875,0.09507092833518982,-0.018486950546503067,-0.0814233049750328
1789724395538748000,4.206747802734375,0.06992456316947937,-0.021902721375226974,0.027067752555012703
1789724395548718300,4.21671826171875,0.0542135089635849,0.010359079577028751,0.05960598960518837
1789724395558688300,4.226688232421875,0.08185216784477234,-0.012567990459501743,-0.03470408916473389
1789724395568658200,4.236658203125,0.06733602285385132,-0.045961398631334305,-0.0021797847002744675
1789724395578628000,4.246628173828125,0.14185978472232819,-0.06291455030441284,-0.011127473786473274
1789724395588598000,4.256597900390625,0.11940353363752365,-0.022815650328993797,-0.05287349969148636
1789724395598568200,4.266568115234375,0.11790817230939865,-0.008261474780738354,-0.04215986654162407
1789724395608539100,4.2765390625,0.1888171136379242,-0.04191923886537552,-0.013197559863328934
1789724395618509000,4.286509033203125,0.21109019219875336,-0.09769301861524582,0.02299533225595951
1789724395628479000,4.29647900390625,0.15748675167560577,-0.0257545318454504,-0.07021946460008621
1789724395638449200,4.30644921875,0.1662256419658661,-0.05967254936695099,-0.06285981833934784
1789724395648419000,4.316419189453125,0.15974076092243195,-0.0903448611497879,-0.004746983293443918
1789724395658389000,4.326388916015625,0.12480593472719193,-0.06510581821203232,0.00760715501382947
1789724395668359200,4.336359130859375,0.1475980430841446,-0.05751485750079155,-0.04448623210191727
1789724395678329300,4.346329345703125,0.09631141275167465,-0.06198443844914436,-0.021777190268039703
1789724395688299300,4.35629931640625,-0.012417960911989212,-0.02052875980734825,-0.025779295712709427
1789724395698269200,4.366269287109375,-0.021348072215914726,-0.05011994391679764,0.008953649550676346
1789724395708240100,4.376240234375,0.010140611790120602,-0.06581554561853409,-0.021540343761444092
1789724395718210300,4.386210205078125,0.013863561674952507,-0.053501375019550323,-0.027335474267601967
1789724395728180200,4.39618017578125,-0.03947103023529053,-0.04198187217116356,-0.02234870381653309
1789724395738150100,4.406150146484375,-0.02176343835890293,-0.027608009055256844,-0.011360411532223225
1789724395748120000,4.4161201171875,-0.08931147307157516,0.015153203159570694,-0.0034336019307374954
1789724395758090000,4.426090087890625,-0.1270063817501068,-0.0018798422534018755,0.029734738171100616
1789724395768060200,4.43606005859375,-0.10220903903245926,-0.030743978917598724,0.08172408491373062
1789724395778030000,4.446030029296875,-0.07797373831272125,-0.038805365562438965,0.040875982493162155
1789724395788001000,4.4560009765625,-0.010916346684098244,-0.01134396530687809,-0.034118011593818665
1789724395797971000,4.465970947265625,0.0449325367808342,-0.05293481796979904,-0.01007152907550335
1789724395807941000,4.475941162109375,0.03820222616195679,-0.05198751762509346,0.05367939546704292
1789724395817911000,4.4859111328125,0.10446672886610031,-0.0545545369386673,-0.007684093434363604
1789724395827881200,4.495881103515625,0.12653802335262299,-0.04393734410405159,-0.029743056744337082
1789724395837851100,4.50585107421875,0.13743621110916138,-0.05934186652302742,0.0012353644706308842
1789724395847821300,4.5158212890625,0.17207887768745422,-0.057272326201200485,-0.004961012396961451
1789724395857791200,4.525791259765625,0.20072589814662933,-0.0009427904151380062,-0.04403118044137955
1789724395867761200,4.53576123046875,0.16086745262145996,-0.017763566225767136,0.05211922898888588
1789724395877731000,4.54573095703125,0.21901358664035797,-0.026951204985380173,0.026089226827025414
1789724395887702300,4.555702392578125,0.2620319426059723,0.0032410018611699343,-0.005666749086230993
1789724395897672200,4.565672119140625,0.20534390211105347,0.01861250214278698,0.015655582770705223
1789724395907642000,4.57564208984375,0.2551720142364502,-0.013251189142465591,0.05431482940912247
1789724395917612000,4.585612060546875,0.26220569014549255,0.06668119132518768,-0.043774452060461044
1789724395927582000,4.59558203125,0.20519110560417175,0.07633132487535477,0.009428934194147587
1789724395937552100,4.60555224609375,0.2591504752635956,0.06204693019390106,-0.007735405582934618
1789724395947522000,4.61552197265625,0.30040282011032104,0.08878719806671143,-0.021069053560495377
1789724395957492200,4.6254921875,0.2874874770641327,0.04402914270758629,0.028269022703170776
1789724395967462100,4.635462158203125,0.24919860064983368,0.07403156906366348,-0.0040333466604352
1789724395977432000,4.64543212890625,0.31381702423095703,0.11087241023778915,-0.14972743391990662
1789724395987403300,4.6554033203125,0.17286820709705353,0.13414083421230316,-0.06911683827638626
1789724395997373200,4.665373291015625,0.21967433393001556,0.08874192088842392,0.04341902583837509
1789724396007343000,4.675343017578125,0.24680456519126892,0.08445810526609421,0.06275429576635361
1789724396017313000,4.68531298828125,0.062054142355918884,0.17324496805667877,-0.011528722941875458
1789724396027283200,4.695283203125,-0.00266353995539248,0.16998742520809174,0.004739636555314064
1789724396037253000,4.705253173828125,0.09316471219062805,0.13421131670475006,-0.013166926801204681
1789724396047223000,4.71522314453125,-0.041890304535627365,0.1943470984697342,0.014497192576527596
1789724396057193000,4.72519287109375,0.002728602848947048,0.20566768944263458,-0.03199378401041031
1789724396067163100,4.7351630859375,0.13021638989448547,0.10911381244659424,-0.011100311763584614
1789724396077134000,4.745134033203125,0.06063384562730789,0.2012338787317276,0.005056287162005901
1789724396087104000,4.75510400390625,0.053883954882621765,0.22189806401729584,0.018658386543393135
1789724396097074000,4.765073974609375,0.09269073605537415,0.24378739297389984,0.015588561072945595
1789724396107044000,4.775044189453125,-0.06256315112113953,0.29447653889656067,-0.041832584887742996
1789724396117014300,4.78501416015625,-0.1673031449317932,0.24770185351371765,0.016071192920207977
1789724396126984200,4.794984130859375,-0.2244933396577835,0.21992440521717072,0.044704366475343704
1789724396136954000,4.8049541015625,-0.4394511878490448,0.27732884883880615,0.007047802675515413
1789724396146924000,4.814924072265625,-0.5951244235038757,0.30942100286483765,0.0030021946877241135
1789724396156894200,4.824894287109375,-0.6199560165405273,0.24849236011505127,-0.00602406170219183
1789724396166864100,4.834864013671875,-0.823274552822113,0.2383018136024475,0.014161011204123497
1789724396176835000,4.8448349609375,-0.9382832050323486,0.2199840545654297,0.009646687656641006
1789724396186805000,4.854804931640625,-0.9051766395568848,0.15529321134090424,-0.01964648626744747
1789724396196775200,4.864775146484375,-1.055269718170166,0.13299018144607544,0.026242954656481743
1789724396206745000,4.8747451171875,-1.1275447607040405,0.11526869982481003,-0.010284431278705597
1789724396216715000,4.884715087890625,-1.0310269594192505,0.029198866337537766,-0.014735175296664238
1789724396226685000,4.894684814453125,-1.1120578050613403,-0.0020160607527941465,0.02331811562180519
1789724396236655400,4.9046552734375,-1.2052936553955078,0.02402219921350479,0.0116348285228014
1789724396246625300,4.914625244140625,-1.0817475318908691,-0.052902478724718094,0.02422376722097397
1789724396256595200,4.92459521484375,-1.0667927265167236,-0.12203466892242432,0.06268513947725296
1789724396266565000,4.934565185546875,-1.0847814083099365,-0.09597431123256683,-0.0013553621247410774
1789724396276535000,4.94453515625,-0.9566697478294373,-0.18266943097114563,0.01508671510964632
1789724396286506200,4.95450634765625,-0.959915280342102,-0.1920216977596283,0.022783800959587097
1789724396296476200,4.96447607421875,-0.9922282099723816,-0.1719619631767273,0.027658184990286827
1789724396306446000,4.974446044921875,-0.8378937840461731,-0.26927971839904785,0.05558089539408684
1789724396316416000,4.984416015625,-0.7584483027458191,-0.32505568861961365,0.09642890095710754
1789724396326386200,4.99438623046875,-0.6959758996963501,-0.33250555396080017,0.08476292341947556
1789724396336356000,5.004356201171875,-0.5263048410415649,-0.36658817529678345,0.12282268702983856
1789724396346326000,5.014325927734375,-0.347756952047348,-0.37123990058898926,0.03020993247628212
1789724396356296000,5.0242958984375,-0.22276335954666138,-0.34808212518692017,0.04169854149222374
1789724396366266000,5.03426611328125,0.006155841518193483,-0.39284053444862366,0.015077317133545876
1789724396376236300,5.044236328125,0.15523847937583923,-0.3650805354118347,-0.035457320511341095
1789724396386207000,5.05420703125,0.2573799192905426,-0.37842097878456116,0.07246648520231247
1789724396396177200,5.06417724609375,0.4691510498523712,-0.3652340769767761,0.03673538565635681
1789724396406147000,5.07414697265625,0.5483893752098083,-0.29773491621017456,-0.010124263353645802
1789724396416117200,5.0841171875,0.6205154061317444,-0.3695688843727112,0.013670449145138264
1789724396426087200,5.094087158203125,0.7135940790176392,-0.32982778549194336,0.012365587055683136
1789724396436057000,5.10405712890625,0.8669335842132568,-0.38603299856185913,0.011802328750491142
1789724396446027000,5.114027099609375,0.8717776536941528,-0.28488004207611084,-0.036153655499219894
1789724396455997200,5.1239970703125,0.9165251851081848,-0.3422951400279999,0.06052521616220474
1789724396465967000,5.133967041015625,0.990512490272522,-0.3229573667049408,0.002157591050490737
1789724396475937000,5.14393701171875,0.9897252917289734,-0.2948378622531891,-0.059026140719652176
1789724396485907200,5.1539072265625,1.0028345584869385,-0.25011733174324036,-0.05524834617972374
1789724396495878100,5.163878173828125,1.0848548412322998,-0.25470197200775146,-0.03870851919054985
1789724396505847800,5.173847900390625,1.1888995170593262,-0.2689483165740967,-0.06984717398881912
1789724396515818000,5.18381787109375,1.1669797897338867,-0.21786408126354218,-0.04675331339240074
1789724396525788000,5.193787841796875,1.1984928846359253,-0.16062282025814056,0.01911199651658535
1789724396535757800,5.2037578125,1.2449771165847778,-0.15500754117965698,-0.039290592074394226
1789724396545728000,5.21372802734375,1.145825743675232,-0.08298403024673462,-0.05410583317279816
1789724396555698000,5.223697998046875,1.1223843097686768,-0.15591657161712646,0.007869120687246323
1789724396565667800,5.233667724609375,1.239848017692566,-0.15097667276859283,0.05573651194572449
1789724396575637800,5.2436376953125,1.173331618309021,-0.05924577638506889,-0.010422822088003159
1789724396585607700,5.253607666015625,1.0069019794464111,0.014656909741461277,-0.039930641651153564
1789724396595577900,5.263577880859375,1.1251944303512573,-0.08262277394533157,0.0240028016269207
1789724396605548800,5.273548828125,1.050739049911499,-0.013637029565870762,-0.0032718852162361145
1789724396615518700,5.283518798828125,0.845713198184967,0.06945279240608215,-0.006300964392721653
1789724396625488600,5.293488525390625,0.838130533695221,0.06618231534957886,-0.02548787370324135
1789724396635459000,5.303458984375,0.6478434205055237,0.03364115208387375,0.0003296099603176117
1789724396645429000,5.313428955078125,0.42677414417266846,0.05556025356054306,0.047675274312496185
1789724396655399000,5.32339892578125,0.39434030652046204,0.0921265184879303,0.025692740455269814
1789724396665368800,5.333368896484375,0.3828698694705963,0.1412210762500763,0.15569619834423065
1789724396675339000,5.343339111328125,0.15162627398967743,-0.024295981973409653,0.2708784341812134
1789724396685309000,5.353308837890625,0.06138239800930023,-0.0021826906595379114,0.09904570877552032
1789724396695278800,5.36327880859375,-0.018596665933728218,0.05971558392047882,-0.0526135116815567
1789724396705248800,5.373248779296875,0.006747839041054249,-0.02038617990911007,0.009426952339708805
1789724396715218700,5.38321875,-0.09179844707250595,-0.007173971273005009,0.026548681780695915
1789724396725190000,5.39318994140625,-0.05395013093948364,0.04410599544644356,-0.04853355139493942
1789724396735159800,5.403159912109375,-0.05176980048418045,0.05803219974040985,-0.0059275031089782715
1789724396745129700,5.413129638671875,-0.12191453576087952,0.04260477051138878,0.04866863042116165
1789724396755099600,5.423099609375,-0.2626974582672119,0.10728256404399872,0.015484578907489777
1789724396765070000,5.433070068359375,-0.17286799848079681,0.10449743270874023,-0.0560295507311821
1789724396775040000,5.4430400390625,-0.3186923563480377,0.17571678757667542,0.02245859056711197
1789724396785010000,5.453010009765625,-0.17519260942935944,0.08734474331140518,-0.03669962286949158
1789724396794979800,5.462979736328125,-0.22397400438785553,0.08775780349969864,-0.08859717845916748
1789724396804949800,5.47294970703125,-0.2702474594116211,0.12291770428419113,-0.06024248152971268
1789724396814920000,5.482919921875,-0.2627980709075928,0.07837580144405365,0.09932560473680496
1789724396824889900,5.492889892578125,-0.21666117012500763,0.04395144805312157,0.057713888585567474
1789724396834859800,5.50285986328125,-0.21177080273628235,0.054406218230724335,-0.008594827726483345
1789724396844830700,5.512830810546875,-0.08098457753658295,0.03494884818792343,0.0488993376493454
1789724396854801000,5.52280078125,0.025275813415646553,0.08176961541175842,0.07757411897182465
1789724396864770800,5.532770751953125,0.004758191294968128,0.16791927814483643,-0.01753062941133976
1789724396874740700,5.54274072265625,0.01448938250541687,0.07555712759494781,-0.030790509656071663
1789724396884711000,5.5527109375,0.0012336543295532465,0.0318283885717392,0.042229726910591125
1789724396894681000,5.56268115234375,-0.118532694876194,0.1028522327542305,0.06652627885341644
1789724396904651000,5.572651123046875,-0.15087302029132843,0.0755070373415947,0.04446692764759064
1789724396914621000,5.582620849609375,-0.1799613982439041,0.046451158821582794,0.015937017276883125
1789724396924590800,5.5925908203125,-0.1794070601463318,0.012123511172831059,0.0285972747951746
1789724396934560800,5.602560791015625,-0.11477240920066833,0.03580513969063759,0.007745788432657719
1789724396944531000,5.612531005859375,-0.04773777723312378,0.051627542823553085,-0.006164707709103823
1789724396954500900,5.6225009765625,-0.029832283034920692,-0.006787296384572983,-0.01203884370625019
1789724396964471800,5.632471923828125,0.08020927011966705,-0.047308873385190964,-0.03214792162179947
1789724396974441700,5.642441650390625,0.12045709043741226,0.019641397520899773,-0.051008693873882294
1789724396984412000,5.652411865234375,0.13930287957191467,-0.01257113367319107,0.05771660804748535
1789724396994381800,5.6623818359375,0.1594635397195816,0.006682721897959709,-0.006208045408129692
1789724397004351700,5.672351806640625,0.21759608387947083,-0.028125058859586716,-0.038726042956113815
1789724397014322000,5.682322021484375,0.23184600472450256,0.03615298122167587,-0.050852444022893906
1789724397024291800,5.692291748046875,0.2168310135602951,0.0323115698993206,0.0245080403983593
1789724397034262000,5.702261962890625,0.2888205051422119,0.04824739322066307,-0.05090682581067085
1789724397044232000,5.71223193359375,0.2999286949634552,0.010917847976088524,-0.01834404468536377
1789724397054201900,5.722201904296875,0.2491171807050705,0.08340296149253845,0.06540384888648987
1789724397064171800,5.732171875,0.3276445269584656,0.08109313994646072,0.029112860560417175
1789724397074142000,5.742141845703125,0.29384368658065796,0.07584378123283386,-0.04435070604085922
1789724397084112000,5.75211181640625,0.22674818336963654,0.059144582599401474,0.012773670256137848
1789724397094082800,5.762082763671875,0.23765836656093597,0.09534227102994919,0.03308080509305
1789724397104052700,5.772052734375,0.26293104887008667,0.17651256918907166,-0.06691284477710724
1789724397114023000,5.78202294921875,0.19957628846168518,0.09813147783279419,0.025496449321508408
1789724397123992800,5.791992919921875,0.11929109692573547,0.12473268061876297,0.04010717198252678
1789724397133962800,5.801962646484375,0.15982946753501892,0.10982830077409744,0.021246667951345444
1789724397143933000,5.811932861328125,0.1523633897304535,0.13003891706466675,-0.05021180957555771
1789724397153902800,5.82190283203125,0.05792371556162834,0.09670226275920868,0.02463633380830288
1789724397163873000,5.831873046875,0.09835781902074814,0.09687504917383194,0.023915084078907967
1789724397173843000,5.841843017578125,0.09388051182031631,0.18420729041099548,-0.0688721165060997
1789724397183812900,5.851812744140625,0.0648573637008667,0.1399015635251999,-0.03522016108036041
1789724397193782800,5.86178271484375,0.09375132620334625,0.10535743832588196,0.06606517732143402
1789724397203752700,5.871752685546875,0.14263089001178741,0.12477672100067139,0.04852672666311264
1789724397213723000,5.881722900390625,0.11181516945362091,0.2262311726808548,-0.04653241112828255
1789724397223693800,5.89169384765625,0.17528501152992249,0.1447192132472992,-0.008497586473822594
1789724397233663700,5.901663818359375,0.21723859012126923,0.1430099904537201,0.06669490039348602
1789724397243634000,5.911634033203125,0.26905563473701477,0.24627043306827545,-0.05754920095205307
1789724397253603800,5.921603759765625,0.2892293334007263,0.24017632007598877,-0.03783755004405975
1789724397263573800,5.93157373046875,0.23284007608890533,0.21021071076393127,0.007402101531624794
1789724397273544000,5.9415439453125,0.30320462584495544,0.18389397859573364,-0.04953444376587868
1789724397283513900,5.951513916015625,0.3112291395664215,0.2293761968612671,-0.03929853066802025
1789724397293484000,5.961484130859375,0.22675102949142456,0.2102043628692627,0.009753167629241943
1789724397303454000,5.971453857421875,0.18910948932170868,0.12217874079942703,0.07544559985399246
1789724397313424000,5.981423828125,0.1865169107913971,0.2249690294265747,-0.0442749485373497
1789724397323393800,5.991393798828125,0.15042898058891296,0.28505316376686096,0.002895532874390483
1789724397333363700,6.00136376953125,0.13710518181324005,0.19298715889453888,0.08724210411310196
1789724397343334000,6.011333984375,0.07844443619251251,0.18826651573181152,0.10574724525213242
1789724397353303800,6.0213037109375,0.06529854238033295,0.27722302079200745,0.0369253046810627
1789724397363274800,6.031274658203125,0.010718650184571743,0.2713392972946167,0.018502887338399887
1789724397373244700,6.04124462890625,-0.011263773776590824,0.20657217502593994,0.05389149859547615
1789724397383214800,6.05121484375,-0.01825084537267685,0.22371600568294525,0.029799478128552437
1789724397393185000,6.06118505859375,-0.09633488208055496,0.2913047969341278,-0.018843695521354675
1789724397403155000,6.071155029296875,-0.15837392210960388,0.3001900613307953,-0.0947185754776001
1789724397413124900,6.081124755859375,-0.1951684206724167,0.2692720890045166,-0.009684371761977673
1789724397423094800,6.0910947265625,-0.2343207597732544,0.29809269309043884,0.035229913890361786
1789724397433065000,6.10106494140625,-0.2738412618637085,0.270736426115036,0.08265601843595505
1789724397443035000,6.111034912109375,-0.2795109152793884,0.22285227477550507,0.04347193241119385
1789724397453004800,6.1210048828125,-0.38894739747047424,0.26532649993896484,0.06558415293693542
1789724397462974700,6.130974609375,-0.4024876356124878,0.22965684533119202,0.06494223326444626
1789724397472945000,6.14094482421875,-0.48147645592689514,0.1964871734380722,0.07487422972917557
1789724397482914800,6.150914794921875,-0.504702091217041,0.18993283808231354,0.07578610628843307
1789724397492885000,6.160885009765625,-0.5234336853027344,0.19741152226924896,-0.0007017417810857296
1789724397502855200,6.170855224609375,-0.4842125177383423,0.17608970403671265,0.022669294849038124
1789724397512826000,6.180826171875,-0.47296014428138733,0.18168741464614868,-0.005331445951014757
1789724397522796000,6.190796142578125,-0.4233447313308716,0.1584138721227646,-0.010412139818072319
1789724397532766200,6.20076611328125,-0.5022798180580139,0.19413113594055176,0.042802877724170685
1789724397542736100,6.210736083984375,-0.46266108751296997,0.138071671128273,0.05267218127846718
1789724397552706000,6.2207060546875,-0.4278367757797241,0.17740336060523987,0.015447849407792091
1789724397562676200,6.23067626953125,-0.4138781428337097,0.14377301931381226,0.025827962905168533
1789724397572646100,6.240646240234375,-0.48590680956840515,0.2066875398159027,0.09992029517889023
1789724397582616000,6.250615966796875,-0.43690401315689087,0.21390114724636078,-0.0042610494419932365
1789724397592586000,6.2605859375,-0.4470139145851135,0.19075055420398712,-0.04041586071252823
1789724397602556200,6.27055615234375,-0.44717487692832947,0.14655527472496033,-0.03777548670768738
1789724397612526000,6.280526123046875,-0.4590618908405304,0.09593044221401215,0.04537425935268402
1789724397622496300,6.290496337890625,-0.4860178828239441,0.10916848480701447,-0.011839758604764938
1789724397632466200,6.300466064453125,-0.4931905269622803,0.12299371510744095,-0.0750402882695198
1789724397642436000,6.31043603515625,-0.46327444911003113,0.07431481033563614,-0.013518898747861385
1789724397652406300,6.32040625,-0.49580174684524536,0.02666553482413292,0.02234722301363945
1789724397662376200,6.330376220703125,-0.5159525275230408,0.020026540383696556,-0.009363302029669285
1789724397672347100,6.34034716796875,-0.5007562637329102,0.023021014407277107,-0.0041510420851409435
1789724397682317000,6.350317138671875,-0.48915356397628784,0.01267741434276104,0.07752092182636261
1789724397692287200,6.360287353515625,-0.41041454672813416,-0.026948293671011925,0.03138911351561546
1789724397702257200,6.370257080078125,-0.4609885811805725,0.03870430216193199,-0.03146132081747055
1789724397712227000,6.38022705078125,-0.3985497057437897,-0.07116919755935669,0.15666383504867554
1789724397722197000,6.390197021484375,-0.3530655801296234,-0.06678217649459839,-0.05689850449562073
1789724397732167000,6.4001669921875,-0.4104742705821991,-0.050936367362737656,-0.09779613465070724
1789724397742137000,6.41013720703125,-0.3483549952507019,-0.11647249758243561,0.025724466890096664
1789724397752107300,6.420107177734375,-0.33602380752563477,-0.1744646430015564,0.01571888104081154
1789724397762077200,6.4300771484375,-0.35794389247894287,-0.12179700285196304,-0.07822714000940323
1789724397772047000,6.440047119140625,-0.3326942026615143,-0.15265585482120514,-0.05472341179847717
1789724397782017300,6.450017333984375,-0.28690728545188904,-0.27505767345428467,0.07567054778337479
1789724397791987200,6.4599873046875,-0.2529672384262085,-0.2715025544166565,0.03074672259390354
1789724397801957000,6.46995703125,-0.24200944602489471,-0.20881570875644684,-0.014509987086057663
1789724397811927000,6.479927001953125,-0.22021014988422394,-0.2199927270412445,-0.010827101767063141
1789724397821897000,6.48989697265625,-0.1054295003414154,-0.26474741101264954,0.07916484028100967
1789724397831868200,6.4998681640625,-0.026827935129404068,-0.23966039717197418,0.07089490443468094
1789724397841838000,6.509838134765625,0.03747941553592682,-0.2543727457523346,0.003811214119195938
1789724397851808000,6.51980810546875,0.07031024992465973,-0.2448689043521881,0.009673310443758965
1789724397861778000,6.52977783203125,0.12255560606718063,-0.22710774838924408,0.006619197316467762
1789724397871748000,6.539748046875,0.13956773281097412,-0.2778365910053253,0.038158684968948364
1789724397881718300,6.54971826171875,0.18365903198719025,-0.2666776776313782,-0.010855729691684246
1789724397891688200,6.559688232421875,0.24518617987632751,-0.2052684873342514,-0.02340961992740631
1789724397901658000,6.569658203125,0.27805623412132263,-0.2179829478263855,0.009361110627651215
1789724397911628000,6.5796279296875,0.27330249547958374,-0.20425093173980713,0.012536954134702682
1789724397921598200,6.58959814453125,0.33204570412635803,-0.22397270798683167,0.024777641519904137
1789724397931568000,6.599568115234375,0.3273315131664276,-0.2122514545917511,0.046432800590991974
1789724397941538000,6.6095380859375,0.30001094937324524,-0.22692041099071503,0.09620542079210281
1789724397951508000,6.619508056640625,0.3903469145298004,-0.22157274186611176,0.09975717961788177
1789724397961478100,6.62947802734375,0.3652956187725067,-0.14567585289478302,0.0066027394495904446
1789724397971448000,6.639447998046875,0.33270514011383057,-0.1521155685186386,0.039535220712423325
1789724397981418200,6.649418212890625,0.32496199011802673,-0.11466486006975174,0.011478021740913391
1789724397991388200,6.65938818359375,0.3120056092739105,-0.11870286613702774,0.04123017564415932
1789724398001358000,6.669358154296875,0.2345810979604721,-0.07824066281318665,-0.05351337417960167
1789724398011329300,6.679329345703125,0.25716352462768555,-0.116455078125,-0.012842081487178802
1789724398021299200,6.68929931640625,0.20473814010620117,-0.06359265744686127,-0.0008192402310669422
1789724398031269000,6.69926904296875,0.16879622638225555,-0.09178203344345093,0.021044481545686722
1789724398041239000,6.709239013671875,0.19891099631786346,-0.0784049779176712,0.0003621070645749569
1789724398051209200,6.719209228515625,0.14507143199443817,0.0009833208750933409,-0.010641137138009071
1789724398061179100,6.72917919921875,0.1101456806063652,-0.03618242219090462,0.04293953627347946
1789724398071149000,6.739149169921875,0.1096251904964447,-0.011461247690021992,-0.031161583960056305
1789724398081119000,6.749118896484375,0.04802919924259186,0.02521980181336403,0.027685754001140594
1789724398091089000,6.7590888671875,0.03700169548392296,-0.02766243740916252,0.0030544353649020195
1789724398101059000,6.76905908203125,-0.03681207448244095,-0.0626654326915741,-0.05287114530801773
1789724398111029200,6.779029296875,-0.08501127362251282,0.018023788928985596,-0.058428481221199036
1789724398120999200,6.788999267578125,0.04076423868536949,-0.008036307990550995,-0.09405705332756042
1789724398130969000,6.798968994140625,-0.04963703081011772,-0.01655762456357479,0.04317430779337883
1789724398140939300,6.808939208984375,-0.14506103098392487,0.15783734619617462,-0.08074843138456345
1789724398150909200,6.8189091796875,-0.01873207651078701,0.04225771874189377,-0.07173295319080353
1789724398160879000,6.828879150390625,-0.16210734844207764,0.09779315441846848,0.03430173546075821
1789724398170849000,6.83884912109375,-0.155597522854805,0.06689755618572235,-0.035040587186813354
1789724398180819000,6.84881884765625,-0.17002946138381958,0.06481922417879105,-0.05732272192835808
1789724398190789000,6.8587890625,-0.20044682919979095,0.015234178863465786,0.014550160616636276
1789724398200760000,6.868760009765625,-0.21271146833896637,0.016584917902946472,-0.011251533403992653
1789724398210730000,6.87872998046875,-0.1949242204427719,0.04179626330733299,-0.05299072712659836
1789724398220700000,6.888699951171875,-0.18541784584522247,0.06686064600944519,-0.03263214975595474
1789724398230670300,6.89867041015625,-0.20999643206596375,0.08529745042324066,-0.03634645789861679
1789724398240640300,6.90864013671875,-0.1526806652545929,0.06170583888888359,-0.015143701806664467
1789724398250610200,6.918610107421875,-0.18802666664123535,0.0999075323343277,-0.04869013652205467
1789724398260580000,6.928580078125,-0.1906924843788147,0.04185488447546959,0.015155153349041939
1789724398270550000,6.938550048828125,-0.12333571165800095,0.013498244807124138,-0.007282593287527561
1789724398280520200,6.948520263671875,-0.16166472434997559,0.06217310205101967,-0.025688497349619865
1789724398290490000,6.958489990234375,-0.1670437455177307,0.015815960243344307,0.0020075964275747538
1789724398300460000,6.9684599609375,-0.11308251321315765,-0.025889407843351364,0.058661818504333496
1789724398310430000,6.978429931640625,-0.10213539749383926,0.030369669198989868,0.04142780601978302
1789724398320400000,6.98839990234375,-0.05530237406492233,-0.024213148280978203,0.016552018001675606
1789724398330370300,6.998370361328125,-0.058906178921461105,-0.026220088824629784,0.007644865661859512
1789724398340340200,7.00834033203125,-0.07016202807426453,0.035390809178352356,0.03634974732995033
1789724398350310100,7.01831005859375,-0.07415597140789032,-0.03359305113554001,-0.007832225412130356
1789724398360280000,7.028280029296875,-0.08651676774024963,-0.0469815619289875,-0.03416076675057411
1789724398370250200,7.038250244140625,-0.07682179659605026,-0.053790997713804245,0.024090418592095375
1789724398380220200,7.04822021484375,-0.10513892024755478,-0.05635775253176689,0.008097869344055653
1789724398390190000,7.058190185546875,-0.05808212235569954,-0.08272337913513184,-0.028075415641069412
1789724398400160000,7.068159912109375,-0.09642178565263748,-0.05327174812555313,0.02073286846280098
1789724398410130000,7.0781298828125,-0.08623678237199783,-0.10023500770330429,0.07459711283445358
1789724398420101000,7.08810107421875,-0.05176727473735809,-0.12902958691120148,0.08093560487031937
1789724398430071000,7.098071044921875,-0.06487881392240524,-0.03940996155142784,-0.01730068027973175
1789724398440041000,7.108041015625,-0.058697354048490524,-0.08439421653747559,0.0906130000948906
1789724398450011100,7.11801123046875,0.001092476537451148,-0.11060984432697296,0.0995258018374443
1789724398459981300,7.127981201171875,-0.03869175165891647,-0.032689936459064484,-0.00744874682277441
1789724398469951200,7.137951171875,-0.04474405199289322,-0.054066866636276245,0.03038198873400688
1789724398479921200,7.147921142578125,0.05762295424938202,-0.104458287358284,0.03419284522533417
1789724398489891000,7.15789111328125,0.07397103309631348,-0.08908145874738693,0.03764989227056503
1789724398499861000,7.167861083984375,0.08937714993953705,-0.0875227153301239,0.02121312916278839
1789724398509831200,7.1778310546875,0.11302173882722855,-0.087274469435215,0.02687072940170765
1789724398519801000,7.187801025390625,0.14527787268161774,-0.09496375173330307,0.043886564671993256
1789724398529771000,7.19777099609375,0.19451944530010223,-0.09748762845993042,0.053079795092344284
1789724398539741200,7.2077412109375,0.2160865217447281,-0.07895761728286743,0.029221070930361748
1789724398549711000,7.217711181640625,0.22710709273815155,-0.0744548812508583,0.038442470133304596
1789724398559681300,7.227681396484375,0.2726466953754425,-0.10728160291910172,0.021391868591308594
1789724398569651200,7.237651123046875,0.2563486695289612,-0.06776269525289536,0.011998366564512253
1789724398579621400,7.247621337890625,0.26219332218170166,-0.09942750632762909,-0.0602579265832901
1789724398589591300,7.25759130859375,0.274269163608551,-0.1242486983537674,-0.013055527582764626
1789724398599561200,7.267561279296875,0.30403369665145874,-0.10604146867990494,0.015283968299627304
1789724398609531100,7.27753125,0.34183135628700256,-0.07996850460767746,0.011152761988341808
1789724398619501000,7.2875009765625,0.38139209151268005,-0.06522843986749649,-0.025128014385700226
1789724398629471200,7.29747119140625,0.38730987906455994,-0.011606195941567421,-0.025833504274487495
1789724398639441200,7.307441162109375,0.4055171012878418,-0.04581982642412186,0.014011912047863007
1789724398649411300,7.317411376953125,0.4051114618778229,-0.048629675060510635,0.032903220504522324
1789724398659381200,7.32738134765625,0.43304499983787537,-0.020141761749982834,0.0008423742838203907
1789724398669351200,7.33735107421875,0.3416692912578583,0.045448169112205505,0.002800063928589225
1789724398679322400,7.347322265625,0.34581854939460754,-0.019361520186066628,0.03195665776729584
1789724398689292300,7.357292236328125,0.30459681153297424,0.024082891643047333,0.005804151762276888
1789724398699262200,7.36726220703125,0.3106914758682251,0.01356686931103468,0.026579204946756363
1789724398709232000,7.377232177734375,0.3354826867580414,0.015977445989847183,-0.05338115245103836
1789724398719202300,7.387202392578125,0.24947375059127808,0.09004847705364227,-0.04796188324689865
1789724398729172200,7.397172119140625,0.15231403708457947,0.01915820874273777,0.06179523095488548
1789724398739142100,7.40714208984375,0.21768125891685486,-0.013892101123929024,-0.057999566197395325
1789724398749112000,7.417112060546875,0.12552790343761444,0.05959170311689377,-0.11701468378305435
1789724398759082200,7.427082275390625,0.02322033792734146,-0.0015679285861551762,-0.018675144761800766
1789724398769052200,7.43705224609375,0.01642128825187683,0.008820796385407448,0.003023492870852351
1789724398779022300,7.447022216796875,0.04641169682145119,0.03964550793170929,0.0028788531199097633
1789724398788992300,7.4569921875,0.017374718561768532,0.019320262596011162,-0.018376635387539864
1789724398798962200,7.466962158203125,0.08625132590532303,-0.04997871816158295,-0.001398285385221243
1789724398808932400,7.476932373046875,0.029054883867502213,0.013970970176160336,0.08878646790981293
1789724398818902300,7.48690234375,0.014820569194853306,0.023980755358934402,0.006047477945685387
1789724398828872200,7.4968720703125,0.05169975757598877,0.015459971502423286,-0.028557371348142624
1789724398838842000,7.506842041015625,0.012602847069501877,0.12742334604263306,-0.002167806960642338
1789724398848812000,7.51681201171875,0.00006548385135829449,0.1421831101179123,0.031041011214256287
1789724398858782200,7.5267822265625,-0.015637312084436417,0.07942333072423935,0.09614784270524979
1789724398868752100,7.536752197265625,-0.12174377590417862,0.18991388380527496,0.07895154505968094
1789724398878722300,7.546722412109375,-0.11889785528182983,0.16089391708374023,0.055459409952163696
1789724398888692200,7.556692138671875,-0.15616774559020996,0.12175770103931427,0.014310907572507858
1789724398898662100,7.566662109375,-0.2089136391878128,0.15792964398860931,0.022319262847304344
1789724398908632300,7.57663232421875,-0.2664695978164673,0.11030807346105576,0.07472121715545654
1789724398918602200,7.586602294921875,-0.32204902172088623,0.11928081512451172,0.03336012363433838
1789724398928572200,7.596572265625,-0.3814058005809784,0.10925241559743881,0.020755916833877563
1789724398938542000,7.6065419921875,-0.40497735142707825,0.012036861851811409,0.04094795137643814
1789724398948512300,7.61651220703125,-0.39233720302581787,0.023199502378702164,0.03641125559806824
1789724398958482200,7.626482177734375,-0.39682549238204956,0.11989683657884598,-0.08567243069410324
1789724398968452000,7.6364521484375,-0.3669586777687073,0.07206592708826065,-0.0646933764219284
1789724398978422300,7.64642236328125,-0.38553476333618164,0.04732438921928406,0.08000946044921875
1789724398988392200,7.65639208984375,-0.33116260170936584,0.07337383180856705,0.03725826367735863
1789724398998363100,7.666363037109375,-0.2922235429286957,0.07714197784662247,0.0492829792201519
1789724399008333300,7.676333251953125,-0.28727060556411743,0.09302773326635361,0.06196016073226929
1789724399018303200,7.68630322265625,-0.2586832344532013,0.030877064913511276,0.1636078655719757
1789724399028273200,7.696273193359375,-0.17423386871814728,0.06110953539609909,0.022945024073123932
1789724399038243300,7.706243408203125,-0.22159051895141602,0.10651997476816177,-0.040857505053281784
1789724399048213200,7.716213134765625,-0.2131645530462265,0.06956062465906143,0.02475772425532341
1789724399058183200,7.72618310546875,-0.17037518322467804,0.03650883212685585,-0.0011328104883432388
1789724399068153000,7.736153076171875,-0.19801293313503265,0.05280977487564087,-0.0752352699637413
1789724399078123000,7.746123046875,-0.12466311454772949,0.008360037580132484,-0.0666852593421936
1789724399088093200,7.75609326171875,-0.13077400624752045,0.008958715945482254,-0.0038104234263300896
1789724399098063000,7.76606298828125,-0.17766721546649933,0.052957866340875626,-0.05764462798833847
1789724399108033300,7.776033203125,-0.16206268966197968,0.039113420993089676,-0.01287129707634449
1789724399118003200,7.786003173828125,-0.1515456736087799,0.02149774506688118,0.022208230569958687
1789724399127973400,7.795973388671875,-0.1286584585905075,0.03379036486148834,-0.01466456614434719
1789724399137943300,7.805943359375,-0.09214779734611511,0.012473056092858315,-0.030685734003782272
1789724399147913200,7.815913330078125,-0.13090211153030396,0.012152943760156631,0.039950620383024216
1789724399157883100,7.825883056640625,-0.10043790936470032,0.009414631873369217,0.0046158889308571815
1789724399167853000,7.83585302734375,-0.0144886439666152,-0.015557830221951008,-0.056458912789821625
1789724399177823200,7.8458232421875,-0.07908818870782852,0.040157727897167206,-0.02526351623237133
1789724399187793200,7.855793212890625,-0.020460030063986778,-0.054271306842565536,0.002937761601060629
1789724399197763300,7.865763427734375,-0.11066053062677383,-0.008451604284346104,0.008054690435528755
1789724399207733200,7.875733154296875,-0.09517824649810791,-0.04109450429677963,0.033570170402526855
1789724399217703200,7.885703125,0.023933500051498413,-0.07939048856496811,-0.08882098644971848
1789724399227673300,7.89567333984375,-0.048094090074300766,-0.015474093146622181,-0.06995062530040741
1789724399237643300,7.905643310546875,-0.023214418441057205,-0.04127543419599533,-0.013413552194833755
1789724399247613200,7.91561328125,0.013327613472938538,-0.05569698289036751,-0.035375576466321945
1789724399257583000,7.9255830078125,0.04503680393099785,-0.02399657852947712,-0.012158136814832687
1789724399267553000,7.935552978515625,0.11289627850055695,-0.08469267934560776,0.02236255444586277
1789724399277523200,7.945523193359375,0.08593402057886124,-0.05799918249249458,0.0026282337494194508
1789724399287493000,7.9554931640625,0.06358903646469116,0.0005823713727295399,0.0027323635295033455
1789724399297463300,7.96546337890625,0.06562235951423645,-0.09261654317378998,0.07493945211172104
1789724399307433200,7.97543310546875,0.08193612098693848,-0.027853015810251236,0.04203376546502113
1789724399317403400,7.9854033203125,0.10584637522697449,0.062223196029663086,-0.09031840413808823
1789724399327373300,7.995373291015625,0.05171976238489151,-0.01868097297847271,0.044353656470775604
1789724399337343200,8.00534326171875,0.1157546415925026,-0.008315665647387505,0.0520799495279789
1789724399347313200,8.015313232421875,0.10198130458593369,0.06413616240024567,0.051473017781972885
1789724399357283000,8.025282958984375,0.1271296739578247,0.023026131093502045,0.05169486999511719
1789724399367253200,8.035253173828124,0.11924618482589722,0.03099590539932251,0.06188945099711418
1789724399377223200,8.04522314453125,0.055042244493961334,0.044414177536964417,0.04550424590706825
1789724399387193000,8.055193115234376,0.054372724145650864,0.022602086886763573,0.06604573875665665
1789724399397163300,8.065163330078125,0.04610193520784378,0.06114448606967926,0.032126761972904205
1789724399407134200,8.07513427734375,-0.0033934474922716618,0.0738150104880333,-0.08513329178094864
1789724399417104100,8.085104248046875,-0.05661751702427864,0.07481209188699722,-0.08897623419761658
1789724399427074300,8.09507421875,-0.07899904996156693,0.03422906622290611,0.0037357499822974205
1789724399437044200,8.105044189453125,-0.04330351576209068,-0.021368268877267838,-0.0012736683711409569
1789724399447014100,8.11501416015625,-0.14396566152572632,0.059702351689338684,-0.03431763872504234
1789724399456984300,8.124984375,-0.11483362317085266,-0.012595550157129765,-0.003822579514235258
1789724399466954200,8.134954345703125,-0.13071033358573914,-0.06027225777506828,0.09204322844743729
1789724399476924200,8.144924072265624,-0.21609671413898468,-0.019733769819140434,0.09862470626831055
1789724399486894000,8.15489404296875,-0.14188720285892487,-0.08960393071174622,0.08047979325056076
1789724399496864300,8.1648642578125,-0.18168997764587402,-0.03868994861841202,0.04436737671494484
1789724399506834200,8.174834228515625,-0.20594604313373566,-0.0030685702804476023,-0.03265123814344406
1789724399516804000,8.18480419921875,-0.16611608862876892,-0.03590047359466553,-0.007523784879595041
1789724399526774300,8.194774169921875,-0.15198135375976562,-0.02880900911986828,-0.03877917677164078
1789724399536744400,8.204744384765625,-0.11003799736499786,-0.02463570423424244,-0.04800005257129669
1789724399546714400,8.21471435546875,-0.12644147872924805,-0.01640334166586399,0.011802561581134796
1789724399556684300,8.224684326171875,-0.11052431911230087,0.007430306635797024,0.010049652308225632
1789724399566654200,8.234654296875,-0.07563477754592896,-0.00796595960855484,0.016681987792253494
1789724399576624000,8.2446240234375,-0.1311376839876175,0.025427663698792458,0.1297106146812439
1789724399586594300,8.25459423828125,0.014204866252839565,0.009453225880861282,-0.008517304435372353
1789724399596564200,8.264564208984375,-0.061593085527420044,0.06766068190336227,-0.07710090279579163
1789724399606534100,8.2745341796875,-0.10830679535865784,-0.03478793427348137,0.040127452462911606
1789724399616504300,8.28450439453125,-0.04561811313033104,-0.10457100719213486,0.0392930842936039
1789724399626474200,8.29447412109375,-0.05387364700436592,-0.027313193306326866,-0.06970608234405518
1789724399636444400,8.3044443359375,-0.11572852730751038,0.015717914327979088,-0.05938640236854553
1789724399646414300,8.314414306640625,-0.07183323800563812,-0.11357083171606064,0.01500048115849495
1789724399656384300,8.32438427734375,-0.04011900722980499,-0.09568284451961517,0.005940358154475689
1789724399666354200,8.334354248046875,-0.043149154633283615,-0.09338533878326416,0.006234104745090008
1789724399676324000,8.344323974609376,-0.020655112341046333,-0.11509429663419724,-0.02535220980644226
1789724399686294300,8.354294189453125,0.08007974922657013,-0.12915684282779694,-0.023772157728672028
1789724399696264200,8.36426416015625,0.03780420124530792,-0.11795186996459961,-0.035737741738557816
1789724399706234000,8.374234130859374,0.04746321961283684,-0.14560958743095398,0.03661289066076279
1789724399716204300,8.384204345703125,0.07530363649129868,-0.12246299535036087,0.00991230271756649
1789724399726174500,8.394174560546874,0.11515651643276215,-0.1676083654165268,-0.014954964630305767
1789724399736144400,8.404144287109375,0.12448689341545105,-0.13167113065719604,-0.00615428201854229
1789724399746114300,8.4141142578125,0.14609383046627045,-0.13922324776649475,0.005403384566307068
1789724399756084200,8.424084228515625,0.11090333759784698,-0.0858243927359581,-0.0036476864479482174
1789724399766054100,8.43405419921875,0.16461077332496643,-0.12847571074962616,-0.02341499924659729
1789724399776024300,8.4440244140625,0.1577025055885315,-0.14442597329616547,-0.025461386889219284
1789724399785994200,8.453994140625,0.1120346337556839,-0.10084334015846252,0.026763200759887695
1789724399795964200,8.463964111328124,0.17344118654727936,-0.12355256825685501,-0.00428782170638442
1789724399805934000,8.47393408203125,0.12778688967227936,-0.1370774507522583,0.011926301755011082
1789724399815904300,8.483904296875,0.10013536363840103,-0.1018713191151619,0.016645317897200584
1789724399825874400,8.49387451171875,0.123336561024189,-0.14104056358337402,-0.03499843552708626
1789724399835844400,8.50384423828125,0.06631539016962051,-0.10827307403087616,0.00028960732743144035
1789724399845814300,8.513814208984375,0.04618535563349724,-0.1230538859963417,0.05922163277864456
1789724399855784200,8.5237841796875,0.05826004967093468,-0.14494632184505463,0.015562408603727818
1789724399865754000,8.533754150390624,-0.00301369559019804,-0.0754556655883789,0.006559059489518404
1789724399875724300,8.543724365234375,-0.002308397088199854,-0.10567226260900497,0.028745505958795547
1789724399885694200,8.553694091796874,0.003565471153706312,-0.12229278683662415,0.029017683118581772
1789724399895664000,8.5636640625,-0.009353548288345337,-0.08263958245515823,0.016873087733983994
1789724399905634000,8.573634033203126,-0.0088643254712224,-0.07876601815223694,-0.046737849712371826
1789724399915604500,8.5836044921875,-0.014683965593576431,-0.055252380669116974,-0.0468461774289608
1789724399925574400,8.593574462890626,-0.010729970410466194,-0.09617078304290771,0.005152308382093906
1789724399935544300,8.60354443359375,-0.028859704732894897,-0.08716930449008942,0.01880527101457119
1789724399945515300,8.613515380859376,-0.008233017288148403,-0.07847881317138672,0.04638438671827316
1789724399955485400,8.6234853515625,0.01711028255522251,-0.08632566779851913,0.03635517507791519
1789724399965455400,8.633455322265625,-0.004542280919849873,-0.05453204736113548,0.012131061404943466
1789724399975425300,8.64342529296875,0.0198124460875988,-0.07278924435377121,0.07413235306739807
1789724399985395200,8.653395263671875,0.02996840700507164,-0.035033080726861954,0.07424633204936981
1789724399995365000,8.663365234375,0.07067709416151047,-0.09416917711496353,0.06556709855794907
1789724400005335300,8.673335205078125,0.07399725914001465,-0.06533966213464737,0.045340120792388916
1789724400015305200,8.68330517578125,0.05274762585759163,-0.06031344085931778,0.043291326612234116
1789724400025275100,8.693275146484375,0.032675646245479584,-0.028227411210536957,-0.02021840773522854
1789724400035245000,8.7032451171875,0.07730527222156525,-0.06410940736532211,0.02490296959877014
1789724400045215200,8.71321533203125,0.04150466248393059,-0.09737175703048706,0.07483377307653427
1789724400055185400,8.723185302734375,0.09154333919286728,-0.06651240587234497,-0.004547306802123785
1789724400065155300,8.7331552734375,0.08275517076253891,-0.012197772972285748,-0.07720179855823517
1789724400075125200,8.743125244140625,0.08167873322963715,-0.18637734651565552,0.12010432034730911
1789724400085095200,8.75309521484375,0.010491370223462582,-0.04719255119562149,0.03132784366607666
1789724400095065300,8.7630654296875,0.12843504548072815,-0.03467591851949692,-0.12774674594402313
1789724400105035300,8.77303515625,0.14778052270412445,-0.06520719081163406,-0.02837141416966915
1789724400115005200,8.783005126953125,0.13864374160766602,-0.046390630304813385,0.032630953937768936
1789724400124975000,8.79297509765625,0.16763977706432343,-0.00035526417195796967,-0.06854958832263947
1789724400134945300,8.8029453125,0.16463975608348846,-0.03903188556432724,0.023803293704986572
1789724400144915500,8.81291552734375,0.2288040816783905,-0.02824527956545353,-0.02760823257267475
1789724400154885400,8.822885498046874,0.2639041244983673,-0.06673650443553925,-0.02865840308368206
1789724400164855300,8.832855224609375,0.20581790804862976,0.013581505045294762,-0.027862386777997017
1789724400174825200,8.8428251953125,0.26852715015411377,-0.02283097617328167,-0.01964290253818035
1789724400184795100,8.852795166015625,0.22258152067661285,-0.05730985850095749,0.04012216255068779
1789724400194765300,8.862765380859376,0.31810927391052246,-0.04255608096718788,-0.026574257761240005
1789724400204735200,8.8727353515625,0.3132322132587433,0.010750284418463707,-0.11157836019992828
1789724400214705200,8.882705078125,0.27213147282600403,0.019808096811175346,-0.043014269322156906
1789724400224675000,8.892675048828124,0.26261067390441895,0.009027887135744095,0.02200893685221672
1789724400234645200,8.902645263671875,0.2904054820537567,-0.006381596438586712,-0.027244016528129578
1789724400244615400,8.912615478515624,0.2839478552341461,0.04984385892748833,-0.0443018302321434
1789724400254585300,8.92258544921875,0.2530117332935333,0.042493585497140884,0.044388797134160995
1789724400264555300,8.93255517578125,0.24332047998905182,0.05271453037858009,0.05566888302564621
1789724400274525200,8.942525146484375,0.2803625166416168,0.08019211143255234,-0.030614886432886124
1789724400284495400,8.952495361328126,0.19841144979000092,0.07399573177099228,-0.011654774658381939
1789724400294465300,8.96246533203125,0.2017003893852234,0.0746234804391861,0.0465729720890522
1789724400304435200,8.972435302734375,0.17294490337371826,0.0703887864947319,0.05644504353404045
1789724400314405000,8.982405029296874,0.08372084051370621,0.14789944887161255,0.005518884863704443
1789724400324375000,8.992375,0.09581265598535538,0.1347639262676239,-0.05527842044830322
1789724400334345200,9.00234521484375,0.08118095993995667,0.0854865089058876,-0.005533791612833738
1789724400344315400,9.0123154296875,0.03931873291730881,0.10836279392242432,-0.030928628519177437
1789724400354285300,9.022285400390626,-0.01709003746509552,0.10339734703302383,-0.025731651112437248
1789724400364255200,9.032255126953125,-0.02629818394780159,0.12501396238803864,-0.038045041263103485
1789724400374225200,9.04222509765625,-0.07212293893098831,0.11647145450115204,-0.016270803287625313
1789724400384195300,9.0521953125,-0.09256323426961899,0.09718004614114761,0.04615981504321098
1789724400394165200,9.062165283203125,-0.07876519113779068,0.10523877292871475,0.03034132905304432
1789724400404135200,9.07213525390625,-0.12663765251636505,0.08105140924453735,0.024707945063710213
1789724400414105000,9.08210498046875,-0.19582657516002655,0.09465882927179337,0.033384792506694794
1789724400424075000,9.092074951171876,-0.17476578056812286,0.030120383948087692,0.03347209095954895
1789724400434045400,9.10204541015625,-0.22370056807994843,0.040918704122304916,0.02433185651898384
1789724400444015400,9.112015380859376,-0.22217027842998505,0.08726540952920914,-0.06137179955840111
1789724400453985300,9.1219853515625,-0.15342503786087036,0.026415567845106125,0.0025536653120070696
1789724400463955200,9.131955078125,-0.13619785010814667,0.09124117344617844,-0.013529963791370392
1789724400473925400,9.14192529296875,-0.10003216564655304,0.0803385078907013,-0.026282871142029762
1789724400483895300,9.151895263671875,-0.13366176187992096,0.08047352731227875,-0.005885186139494181
1789724400493865200,9.161865234375,-0.09316763281822205,0.058296944946050644,0.02458236739039421
1789724400503835100,9.171835205078125,-0.07259923964738846,0.04827413707971573,-0.016865739598870277
1789724400513805000,9.18180517578125,-0.1029098629951477,0.09405076503753662,-0.017228424549102783
1789724400523775000,9.19177490234375,-0.07899946719408035,0.04536844789981842,0.0713922530412674
1789724400533745200,9.2017451171875,-0.031037433072924614,0.002125772647559643,0.061576586216688156
1789724400543716000,9.211716064453125,-0.12126053869724274,0.12028411030769348,-0.010147135704755783
1789724400553686000,9.22168603515625,-0.023339062929153442,0.07412469387054443,-0.07709482312202454
1789724400563656200,9.23165625,-0.010345231741666794,0.0612749420106411,0.002644750289618969
1789724400573626000,9.241626220703125,0.09238880127668381,-0.016519982367753983,-0.005868420470505953
1789724400583596000,9.251595947265624,0.0801563709974289,0.004218850284814835,0.06094017252326012
1789724400593566200,9.261566162109375,0.18219561874866486,-0.04145929589867592,-0.058123208582401276
1789724400603536100,9.2715361328125,0.1185399517416954,-0.03459206968545914,0.03396490961313248
1789724400613506000,9.281506103515625,0.2560606300830841,-0.06367158144712448,0.017870627343654633
1789724400623476000,9.29147607421875,0.19649077951908112,-0.015234277583658695,0.003466387279331684
1789724400633446000,9.30144580078125,0.21511852741241455,-0.03287532180547714,0.04004623368382454
1789724400643416000,9.311416015625,0.25713473558425903,0.00555244367569685,0.02669616788625717
1789724400653386200,9.32138623046875,0.2699171304702759,0.0013164199190214276,-0.05766851082444191
1789724400663356200,9.331356201171875,0.22331106662750244,0.05064505338668823,-0.027647094801068306
1789724400673326000,9.341326171875,0.22506918013095856,-0.016723548993468285,-0.01266195997595787
1789724400683296000,9.3512958984375,0.2669313848018646,-0.013887016102671623,-0.0511704683303833
1789724400693266200,9.36126611328125,0.2153233140707016,0.015155649743974209,-0.0526195727288723
1789724400703236000,9.371236083984375,0.15098319947719574,-0.013982794247567654,-0.01073976419866085
1789724400713206000,9.3812060546875,0.17275826632976532,0.003973302897065878,-0.044579487293958664
1789724400723176000,9.391176025390624,0.0935538187623024,-0.011457229033112526,-0.09418173134326935
1789724400733146000,9.40114599609375,0.07695913314819336,-0.0415717214345932,-0.016050182282924652
1789724400743116000,9.411115966796874,0.11505866050720215,-0.05029004067182541,-0.028137102723121643
1789724400753086200,9.421086181640625,0.06478644162416458,-0.01803862676024437,-0.02517566829919815
1789724400763056000,9.43105615234375,0.05077466741204262,0.03511540964245796,-0.02912045083940029
1789724400773026000,9.441026123046875,0.038045402616262436,0.007267370820045471,-0.0031464030034840107
1789724400782996200,9.450996337890626,0.0318671353161335,0.02976016327738762,0.02190382219851017
1789724400792966100,9.460966064453125,0.0419965498149395,0.04279680177569389,-0.04667214676737785
1789724400802936000,9.47093603515625,0.06998796761035919,0.03644223138689995,-0.0563197135925293
1789724400812906000,9.480906005859374,0.008274493739008904,0.06706943362951279,-0.008226048201322556
1789724400822876000,9.4908759765625,0.008551462553441525,0.07852981239557266,-0.039990104734897614
1789724400832846000,9.50084619140625,0.03559087589383125,0.0601835623383522,-0.028361301869153976
1789724400842816000,9.51081591796875,-0.039498813450336456,0.09152763336896896,0.008530136197805405
1789724400852786200,9.5207861328125,-0.019154338166117668,0.06508685648441315,0.04573490843176842
1789724400862756000,9.530756103515625,-0.02777472510933876,0.061705708503723145,-0.024785595014691353
1789724400872726000,9.54072607421875,-0.0799049511551857,0.06066807359457016,0.052618272602558136
1789724400882696200,9.5506962890625,-0.03683977574110031,0.05633511021733284,0.001207282766699791
1789724400892666000,9.560666015625,-0.09689636528491974,0.08298899978399277,-0.01681094616651535
1789724400902636000,9.570635986328124,-0.14425188302993774,0.0881480723619461,0.05749364197254181
1789724400912606000,9.58060595703125,-0.12321101874113083,0.11417592316865921,-0.0355486162006855
1789724400922576100,9.590576171875,-0.1769179254770279,0.11016467213630676,-0.016258805990219116
1789724400932546000,9.600546142578125,-0.16719363629817963,0.08813866227865219,-0.006880966480821371
1789724400942516000,9.610515869140626,-0.1541215181350708,0.07663088291883469,0.017225168645381927
1789724400952486100,9.620486083984375,-0.16449099779129028,0.1035386249423027,-0.012978138402104378
1789724400962456000,9.6304560546875,-0.16320335865020752,0.10501481592655182,0.003704435657709837
1789724400972426200,9.64042626953125,-0.16987909376621246,0.0833829939365387,0.01751348376274109
1789724400982396200,9.650396240234375,-0.19499535858631134,0.06112828850746155,0.030920369550585747
1789724400992366000,9.660365966796874,-0.22066237032413483,0.018924374133348465,0.05748327076435089
1789724401002336000,9.6703359375,-0.18616144359111786,0.042540572583675385,0.03047363832592964
1789724401012306000,9.680305908203126,-0.1693533957004547,0.06332013010978699,-0.041068922728300095
1789724401022276000,9.690276123046875,-0.19098491966724396,0.10589875280857086,-0.05765935406088829
1789724401032246000,9.70024609375,-0.19441001117229462,0.07299432903528214,-0.015724947676062584
1789724401042216000,9.7102158203125,-0.11604378372430801,0.036093223839998245,0.014988608658313751
1789724401052186000,9.72018603515625,-0.08331166207790375,0.021855400875210762,-0.01044508721679449
1789724401062156000,9.730156005859374,-0.05973043292760849,0.043291185051202774,0.05283454805612564
1789724401072126200,9.740126220703125,-0.055783096700906754,0.05855908617377281,0.00768944201990962
1789724401082096000,9.75009619140625,-0.1312302052974701,0.06283751875162125,0.05169413238763809
1789724401092066000,9.760066162109375,-0.07070466130971909,-0.002879060572013259,0.03799058124423027
1789724401102036000,9.770035888671876,-0.09322861582040787,0.036634791642427444,-0.03856304660439491
1789724401112006100,9.780006103515625,-0.12511463463306427,0.07009148597717285,-0.03774727135896683
1789724401121976000,9.78997607421875,-0.03802153840661049,0.03210735693573952,-0.01567072980105877
1789724401131946000,9.799946044921874,-0.0351424440741539,0.06220671907067299,-0.052530836313962936
1789724401141916200,9.809916259765625,-0.012561500072479248,0.08939865976572037,-0.05876050144433975
1789724401151886000,9.819885986328124,0.012735094875097275,0.020743368193507195,-0.022871961817145348
1789724401161856300,9.829856201171875,-0.005203159525990486,0.08696233481168747,-0.05315077304840088
1789724401171826200,9.839826171875,-0.014785713516175747,0.06247907876968384,-0.05396003648638725
1789724401181796000,9.849796142578125,-0.017317313700914383,0.09066517651081085,-0.07280775904655457
1789724401191766000,9.85976611328125,0.015667499974370003,0.03578101843595505,-0.03373316675424576
1789724401201736000,9.86973583984375,-0.008814406581223011,0.05574993044137955,-0.03206496313214302
1789724401211706000,9.8797060546875,-0.046529870480298996,0.07412605732679367,-0.005209471099078655
1789724401221676000,9.889676025390624,-0.03139752522110939,0.07276038825511932,-0.050549257546663284
1789724401231646000,9.89964599609375,-0.0012793038040399551,0.06137297675013542,0.01729930005967617
1789724401241616100,9.9096162109375,-0.03354727104306221,0.01900240033864975,0.04829280823469162
1789724401251586000,9.9195859375,-0.020881811156868935,0.07353328913450241,-0.02921529859304428
1789724401261556200,9.92955615234375,-0.029734158888459206,0.07009541243314743,0.001812126487493515
1789724401271526100,9.939526123046875,-0.08490637689828873,0.09510543942451477,0.03644433990120888
1789724401281496000,9.94949609375,0.02945854887366295,0.023472001776099205,0.02527530863881111
1789724401291466000,9.959466064453125,-0.05100397765636444,0.06341186165809631,0.01225157082080841
1789724401301436200,9.969436279296875,-0.029363932088017464,0.07210761308670044,-0.005635549779981375
1789724401311406000,9.979406005859374,-0.004239130299538374,-0.013853662647306919,0.04383508861064911
1789724401321376000,9.9893759765625,-0.05861768499016762,0.05856461077928543,0.025052081793546677
1789724401331347000,9.999346923828124,-0.040076497942209244,0.06749558448791504,-0.06922414153814316
1789724401341317000,10.009317138671875,-0.05606319010257721,0.050272386521101,-0.02271948754787445
1789724401351287000,10.019287109375,-0.0853443369269371,0.04832267388701439,0.027235087007284164
1789724401361257000,10.029257080078125,-0.10131850838661194,0.05968664586544037,-0.029160544276237488
1789724401371227100,10.03922705078125,-0.0925314873456955,0.052100103348493576,-0.004516822285950184
1789724401381197000,10.049197021484375,-0.1269187480211258,0.018562916666269302,0.07268422096967697
1789724401391167200,10.059167236328125,-0.12046746909618378,0.04369568079710007,0.01260417327284813
1789724401401137200,10.06913720703125,-0.10492845624685287,0.022133931517601013,-0.04588976502418518
1789724401411107000,10.079107177734375,-0.14866596460342407,0.021240323781967163,0.018549667671322823
1789724401421077000,10.089076904296874,-0.16700635850429535,-0.012974373064935207,0.047144025564193726
1789724401431047000,10.099046875,-0.1588541567325592,0.016779528930783272,-0.008759452030062675
1789724401441017000,10.10901708984375,-0.1309095174074173,0.014704558998346329,-0.030145781114697456
1789724401450987000,10.118987060546875,-0.11799424886703491,-0.014026422053575516,-0.015370029956102371
1789724401460957000,10.12895703125,-0.12476560473442078,0.008878394030034542,-0.023026376962661743
1789724401470927000,10.138927001953125,-0.13027599453926086,-0.04073302075266838,0.05183336138725281
1789724401480897300,10.148897216796875,-0.14841079711914062,0.008931738324463367,0.022216878831386566
1789724401490867200,10.1588671875,-0.11478850990533829,0.02595188282430172,-0.10592805594205856
1789724401500837000,10.168837158203125,-0.15598708391189575,-0.08679703623056412,0.08410339802503586
1789724401510806500,10.178806640625,-0.11294031143188477,-0.11369530111551285,0.062223151326179504
1789724401520776400,10.1887763671875,-0.11153735965490341,-0.09121955186128616,-0.02753150276839733
1789724401530746400,10.198746337890626,-0.10899995267391205,-0.07168835401535034,0.00040224893018603325
1789724401540716300,10.20871630859375,-0.08841585367918015,-0.07785303890705109,0.04439340904355049
1789724401550686700,10.218686767578125,-0.062463920563459396,-0.06544528901576996,0.043452925980091095
1789724401560656600,10.22865673828125,-0.09539870172739029,-0.07939732819795609,0.04094982147216797
1789724401570626600,10.23862646484375,-0.07995769381523132,-0.0732864961028099,0.04125001281499863
1789724401580596500,10.248596435546874,-0.02956349216401577,-0.10872624814510345,0.05183687433600426
1789724401590566400,10.25856640625,-0.03894340991973877,-0.08185309171676636,0.00474393367767334
1789724401600536600,10.26853662109375,-0.014167094603180885,-0.06629368662834167,-0.0044053690508008
1789724401610506500,10.278506591796875,0.025012264028191566,-0.10024363547563553,-0.012193279340863228
1789724401620476400,10.288476318359375,-0.02610844373703003,-0.07797428220510483,0.028582381084561348
1789724401630446300,10.2984462890625,0.015567942522466183,-0.15233035385608673,-0.00590303773060441
1789724401640416300,10.308416259765625,-0.010904143564403057,-0.12749265134334564,-0.022960318252444267
1789724401650386700,10.31838671875,-0.04934403672814369,-0.1569686383008957,0.0512457899749279
1789724401660356600,10.328356689453125,-0.004783492535352707,-0.16411390900611877,0.09226778894662857
1789724401670326500,10.338326416015626,-0.018750708550214767,-0.1364937275648117,0.03840801864862442
1789724401680296400,10.34829638671875,0.023840608075261116,-0.1497061401605606,-0.019912969321012497
1789724401690266600,10.3582666015625,0.015992004424333572,-0.1576753854751587,-0.0007342151366174221
1789724401700236500,10.368236572265625,0.04362013563513756,-0.1920490711927414,-0.024757565930485725
1789724401710206500,10.37820654296875,0.014399399049580097,-0.15837633609771729,0.07858027517795563
1789724401720176400,10.38817626953125,0.0679236426949501,-0.13969267904758453,-0.03772016987204552
1789724401730146300,10.398146240234375,0.07029865682125092,-0.12852178514003754,0.03957301750779152
1789724401740116500,10.408116455078124,0.07769692689180374,-0.19845004379749298,0.20667175948619843
1789724401750086700,10.418086669921875,0.18053966760635376,-0.11293833702802658,-0.06037299335002899
1789724401760056600,10.428056640625,0.0681096762418747,-0.07716690003871918,-0.034727804362773895
1789724401770026500,10.438026611328125,0.11553999036550522,-0.12388840317726135,0.04495694488286972
1789724401779996400,10.447996337890626,0.13095144927501678,-0.11262775212526321,0.031074682250618935
1789724401789966600,10.457966552734375,0.07670976966619492,-0.07279059290885925,-0.07597827166318893
1789724401799936500,10.4679365234375,0.07684959471225739,-0.10829252004623413,0.015055613592267036
1789724401809906400,10.477906494140624,0.11977282911539078,-0.13628128170967102,0.031839918345212936
1789724401819876400,10.48787646484375,0.09481101483106613,-0.08326200395822525,0.02012254297733307
1789724401829846300,10.49784619140625,0.13115791976451874,-0.09145452082157135,-0.01701238751411438
1789724401839816400,10.50781640625,0.12772271037101746,-0.08962386101484299,0.040417082607746124
1789724401849786600,10.51778662109375,0.09296460449695587,-0.08161089569330215,0.019398462027311325
1789724401859756500,10.527756591796875,0.08760446310043335,-0.027639277279376984,0.023707188665866852
1789724401869726500,10.5377265625,0.16804257035255432,-0.06886900216341019,0.021852828562259674
1789724401879696600,10.547696533203125,0.15183058381080627,-0.07994429022073746,0.014295578002929688
1789724401889666600,10.55766650390625,0.1507442742586136,0.0030192993581295013,-0.013291840441524982
1789724401899636500,10.567636474609374,0.24292820692062378,-0.028146952390670776,-0.02744492143392563
1789724401909606400,10.5776064453125,0.10407361388206482,0.054843056946992874,-0.007113911211490631
1789724401919576300,10.587576416015626,0.11226017028093338,-0.026551933959126472,0.06474989652633667
1789724401929546500,10.59754638671875,0.1721312254667282,-0.07906441390514374,0.04663480445742607
1789724401939516700,10.6075166015625,0.14041590690612793,-0.011977488175034523,-0.01771172136068344
1789724401949486600,10.617486572265625,0.1357424557209015,0.023448029533028603,-0.05138074979186058
1789724401959456500,10.62745654296875,0.13577547669410706,0.00947602093219757,0.042274899780750275
1789724401969426400,10.637426513671874,0.09556309133768082,0.004959832411259413,0.007265252526849508
1789724401979396600,10.647396728515625,0.09689725935459137,0.052436463534832,-0.07147005200386047
1789724401989366500,10.657366455078124,0.08481796085834503,-0.022268133237957954,0.011815784499049187
1789724401999336400,10.66733642578125,0.041874028742313385,0.001701486180536449,0.04104422777891159
1789724402009306400,10.677306396484376,-0.014677397906780243,0.02887585014104843,-0.053103841841220856
1789724402019276300,10.6872763671875,0.01689787767827511,0.03511742129921913,-0.022758599370718002
1789724402029246500,10.69724658203125,0.00782129354774952,-0.0035428914707154036,-0.028053229674696922
1789724402039216600,10.707216552734375,-0.000023757689632475376,0.022032644599676132,-0.026949934661388397
1789724402049186600,10.7171865234375,0.007274901494383812,0.016887683421373367,-0.0440966971218586
1789724402059156500,10.727156494140624,-0.022604476660490036,0.037982337176799774,-0.012281307950615883
1789724402069126700,10.737126708984375,0.010965202003717422,0.007248923182487488,-0.009606696665287018
1789724402079096600,10.7470966796875,0.006631483323872089,0.04793700948357582,-0.07116858661174774
1789724402089066500,10.75706640625,0.03981686756014824,0.010244491510093212,-0.033571939915418625
1789724402099036400,10.767036376953126,0.004131084308028221,0.014947819523513317,0.01646897941827774
1789724402109006300,10.77700634765625,-0.0026972610503435135,0.03775140270590782,0.005579579155892134
1789724402118976500,10.7869765625,0.05159474164247513,-0.006740134209394455,-0.015064476057887077
1789724402128946400,10.796946533203124,0.012609259225428104,0.017698097974061966,0.039166804403066635
1789724402138916600,10.80691650390625,0.08963866531848907,-0.012022631242871284,-0.0285965446382761
1789724402148886500,10.816886474609374,0.0447193942964077,0.03180873766541481,0.029012156650424004
1789724402158856400,10.8268564453125,0.036079827696084976,0.015639325603842735,0.03569592162966728
1789724402168826600,10.83682666015625,0.13513131439685822,0.006960349157452583,0.016928093507885933
1789724402178796500,10.846796630859375,0.090140201151371,-0.002403781982138753,0.062416721135377884
1789724402188766500,10.856766357421876,0.08090196549892426,0.0349864698946476,0.036668747663497925
1789724402198736400,10.866736328125,0.07758855819702148,0.025567330420017242,0.04207618534564972
1789724402208706300,10.876706298828125,0.0901312455534935,0.003882808145135641,0.0008712257258594036
1789724402218676500,10.886676513671874,0.07027380168437958,0.024666089564561844,0.009059049189090729
1789724402228646400,10.896646484375,0.05867760255932808,-0.00299213663674891,0.0032623833976686
1789724402238616600,10.906616455078124,0.10471939295530319,0.02417290396988392,0.000590167474001646
1789724402248586500,10.91658642578125,0.06710889935493469,0.06920376420021057,-0.021832583472132683
1789724402258556700,10.926556640625,0.07039406895637512,0.08643808960914612,-0.0011135339736938477
1789724402268526600,10.936526611328125,0.06877513229846954,0.05525513365864754,0.035304926335811615
1789724402278496500,10.94649658203125,0.10999348759651184,0.03660675138235092,0.03553817421197891
1789724402288466400,10.956466552734375,0.08449677377939224,0.05472885072231293,-0.015263976529240608
1789724402298436400,10.966436279296875,0.06492679566144943,0.0729997307062149,-0.00487578334286809
1789724402308406500,10.976406494140624,0.06176597997546196,0.04651372879743576,-0.04562465474009514
1789724402318376400,10.98637646484375,0.014626434072852135,0.06204688176512718,-0.023222409188747406
1789724402328346400,10.996346435546876,0.033265359699726105,0.015063097700476646,0.012827767059206963
1789724402338316500,11.006316650390625,0.069680355489254,-0.04846847429871559,0.11460153013467789
1789724402348286500,11.016286376953126,0.032294463366270065,0.04042724519968033,0.01164042204618454
1789724402358256600,11.026256591796875,0.06869667768478394,-0.00908704660832882,0.0019371944945305586
1789724402368226600,11.0362265625,0.13875432312488556,-0.031506601721048355,-0.036652807146310806
1789724402378196500,11.046196533203124,0.10923616588115692,-0.03044002503156662,-0.0060775261372327805
1789724402388166400,11.05616650390625,0.11675497144460678,-0.018098633736371994,0.025455504655838013
1789724402398136300,11.06613623046875,0.17893339693546295,-0.02186966873705387,-0.0018304437398910522
1789724402408106500,11.0761064453125,0.17630937695503235,0.009295173920691013,0.013801513239741325
1789724402418076400,11.086076416015626,0.1754300445318222,0.008062378503382206,0.02891448326408863
1789724402428046600,11.096046630859375,0.2502765953540802,-0.018799861893057823,-0.006712752860039473
1789724402438016500,11.1060166015625,0.21594750881195068,-0.005976592190563679,0.034014686942100525
1789724402447986700,11.115986572265625,0.20697665214538574,0.009529663249850273,0.0774252787232399
1789724402457956600,11.12595654296875,0.2536090016365051,0.010011843405663967,0.02738899365067482
1789724402467926500,11.135926513671874,0.19825415313243866,0.05033263564109802,-0.0031806323677301407
1789724402477896400,11.145896484375,0.22676409780979156,0.03286522999405861,-0.0035460181534290314
1789724402487866400,11.155866455078124,0.1833449751138687,0.03708554059267044,-0.01457363460212946
1789724402497836500,11.16583642578125,0.1530395746231079,0.04848002642393112,0.008898021653294563
1789724402507807000,11.175806884765626,0.18848775327205658,-0.0027489406056702137,-0.04128227382898331
1789724402517777200,11.185777099609375,0.10741766542196274,0.05552741885185242,-0.009058825671672821
1789724402527747000,11.1957470703125,0.13570336997509003,-0.00956743210554123,0.006873003207147121
1789724402537717000,11.205717041015625,0.06832539290189743,0.06966160982847214,-0.011430105194449425
1789724402547687200,11.215687255859375,0.031675707548856735,0.051085300743579865,-0.06010407954454422
1789724402557657000,11.225656982421874,0.0534350648522377,0.02681191824376583,-0.024310925975441933
1789724402567627300,11.235627197265625,0.015158440917730331,0.04878032207489014,-0.01647327095270157
1789724402577597200,11.24559716796875,0.021807288751006126,0.06463625282049179,-0.08541665226221085
1789724402587567000,11.255567138671875,0.012701969593763351,0.07003439217805862,-0.024857573211193085
1789724402597537000,11.265537109375,0.015068188309669495,0.0662524402141571,-0.011965475976467133
1789724402607507200,11.275507080078125,0.03012031875550747,0.08062127977609634,-0.023798763751983643
1789724402617477000,11.28547705078125,0.03915056586265564,0.03359651193022728,0.012224485166370869
1789724402627447000,11.295447021484375,-0.0052574630826711655,0.08803801983594894,-0.005680933129042387
1789724402637417000,11.3054169921875,0.002277418039739132,0.05519324913620949,-0.015661662444472313
1789724402647387100,11.31538720703125,-0.04588435962796211,0.09839508682489395,0.0008998778648674488
1789724402657357300,11.325357421875,-0.054018184542655945,0.11468617618083954,-0.06693589687347412
1789724402667327200,11.3353271484375,-0.08693884313106537,0.07696862518787384,-0.05899354815483093
1789724402677297200,11.345297119140625,-0.13790243864059448,0.07242074608802795,-0.04945890232920647
1789724402687267000,11.35526708984375,-0.1265784054994583,0.0733853429555893,-0.002261826768517494
1789724402697237000,11.365237060546875,-0.1569271683692932,0.087079718708992,-0.02095700055360794
1789724402707207200,11.375207275390625,-0.2291180044412613,0.12590834498405457,0.010781488381326199
1789724402717176300,11.38517626953125,-0.1485963612794876,0.0961574986577034,0.0001259632408618927
1789724402727146200,11.395146240234375,-0.22933168709278107,0.1110008955001831,0.0003467393107712269
1789724402737116200,11.4051162109375,-0.2787644565105438,0.11044376343488693,0.029200758785009384
1789724402747086000,11.415086181640625,-0.23858308792114258,0.030679836869239807,0.038670144975185394
1789724402757056000,11.425055908203126,-0.28292784094810486,0.07766985148191452,0.050105709582567215
1789724402767026200,11.435026123046875,-0.283150315284729,0.08301908522844315,0.03106822818517685
1789724402776996000,11.44499609375,-0.22217509150505066,0.08166966587305069,-0.032377853989601135
1789724402786966000,11.454966064453124,-0.29898330569267273,0.10232289880514145,0.000890243798494339
1789724402796936000,11.46493603515625,-0.2819768786430359,0.054582275450229645,0.052738793194293976
1789724402806906000,11.474906005859374,-0.24042639136314392,0.018727218732237816,0.008964666165411472
1789724402816876300,11.484876220703125,-0.2626954913139343,0.030589470639824867,0.015329621732234955
1789724402826846200,11.49484619140625,-0.23786325752735138,0.03200966492295265,-0.05277790129184723
1789724402836816100,11.504816162109375,-0.27831587195396423,0.015804065391421318,-0.010536175221204758
1789724402846786000,11.5147861328125,-0.26863977313041687,0.03213516250252724,0.03237500786781311
1789724402856756200,11.524756103515625,-0.2630588710308075,0.01626858301460743,0.057790618389844894
1789724402866726100,11.53472607421875,-0.24416033923625946,0.022311046719551086,0.06363193690776825
1789724402876696000,11.544696044921874,-0.26438358426094055,0.005749381147325039,0.022061854600906372
1789724402886666000,11.554666015625,-0.23144230246543884,-0.012432998046278954,0.055834513157606125
1789724402896636000,11.564635986328126,-0.19894002377986908,-0.016486063599586487,0.03689704090356827
1789724402906606000,11.574606201171875,-0.20949624478816986,0.009044094942510128,0.025024104863405228
1789724402916576300,11.584576171875,-0.24082247912883759,0.00036032567732036114,0.006962547078728676
1789724402926546200,11.594546142578125,-0.2159038931131363,-0.019649799913167953,-0.012430747970938683
1789724402936516000,11.60451611328125,-0.21568924188613892,-0.042107705026865005,-0.035431668162345886
1789724402946486300,11.614486328125,-0.20858366787433624,-0.04034629091620445,0.026954209432005882
1789724402956456200,11.624456298828125,-0.16354799270629883,-0.0313994474709034,0.008721769787371159
1789724402966426000,11.634426025390624,-0.10294783860445023,0.022194748744368553,-0.04512663185596466
1789724402976396000,11.64439599609375,-0.11075223237276077,-0.03678068891167641,0.00031861476600170135
1789724402986366000,11.654365966796876,-0.13907182216644287,-0.027594096958637238,0.03586456552147865
1789724402996336000,11.664336181640625,-0.09043397009372711,-0.06098374351859093,-0.04961944371461868
1789724403006306000,11.67430615234375,-0.09913156181573868,-0.07361652702093124,0.004580271430313587
1789724403016276200,11.684276123046875,-0.057061877101659775,-0.07920623570680618,-0.0017431378364562988
1789724403026246100,11.69424609375,-0.02115480601787567,-0.047334350645542145,-0.026146600022912025
1789724403036216000,11.704216064453124,-0.01827087067067623,-0.04921853542327881,0.023428674787282944
1789724403046186200,11.714186279296875,0.05584697052836418,-0.09039003401994705,0.06558369100093842
1789724403056156200,11.72415625,0.08605094999074936,-0.11471960693597794,0.08563010394573212
1789724403066126000,11.7341259765625,0.06338512897491455,-0.056851502507925034,0.05190465226769447
1789724403076096000,11.744095947265626,0.09014750272035599,-0.06771586835384369,0.041448019444942474
1789724403086066000,11.75406591796875,0.11928008496761322,-0.07925427705049515,0.024117499589920044
1789724403096036000,11.7640361328125,0.14701557159423828,-0.0732073038816452,-0.019246753305196762
1789724403106006300,11.77400634765625,0.16702201962471008,-0.11981174349784851,-0.014829497784376144
1789724403115976200,11.78397607421875,0.15447933971881866,-0.08473871648311615,0.04454248398542404
1789724403125946000,11.793946044921874,0.2098543345928192,-0.08278548717498779,-0.01024874858558178
1789724403135916300,11.803916259765625,0.22150008380413055,-0.05012261122465134,-0.02205241098999977
1789724403145886200,11.81388623046875,0.26525095105171204,-0.07572215050458908,-0.015376322902739048
1789724403155856100,11.823856201171875,0.2683066427707672,-0.05903051793575287,0.006972925737500191
1789724403165826000,11.833825927734376,0.23768126964569092,-0.04796064272522926,0.011184928007423878
1789724403175796000,11.8437958984375,0.24452398717403412,-0.041898224502801895,0.028398003429174423
1789724403185766100,11.85376611328125,0.2290010303258896,-0.08260458707809448,0.07198870927095413
1789724403195736000,11.863736083984374,0.25294604897499084,-0.051867444068193436,0.0674368366599083
1789724403205706200,11.873706298828125,0.26895439624786377,-0.03291710466146469,-0.03883602097630501
1789724403215676200,11.88367626953125,0.2147471010684967,0.006508598569780588,0.013599755242466927
1789724403225646000,11.89364599609375,0.22323402762413025,-0.05574990063905716,0.0745958685874939
1789724403235616300,11.9036162109375,0.25007206201553345,-0.032976679503917694,-0.04887227341532707
1789724403245586200,11.913586181640625,0.21346554160118103,-0.013264257460832596,-0.0592428557574749
1789724403255555000,11.92355517578125,0.2974717617034912,-0.08919097483158112,0.07690166682004929
1789724403265525000,11.93352490234375,0.29179897904396057,0.002401787554845214,-0.04035784676671028
1789724403275495200,11.9434951171875,0.28524279594421387,0.051642417907714844,-0.0645672082901001
1789724403285465000,11.953465087890624,0.27949759364128113,0.003309268970042467,0.017549728974699974
1789724403295435300,11.963435302734375,0.33474913239479065,-0.036922305822372437,-0.01832890883088112
1789724403305405200,11.9734052734375,0.28272494673728943,0.03070535510778427,-0.13114282488822937
1789724403315375000,11.983375,0.23535370826721191,0.022672729566693306,-0.08595538139343262
1789724403325345000,11.993344970703125,0.2661389708518982,-0.020920373499393463,-0.020580682903528214
1789724403335315200,12.003315185546874,0.25745731592178345,0.012774204835295677,-0.041484635323286057
1789724403345285000,12.01328515625,0.253655344247818,0.006620723754167557,-0.0675027072429657
1789724403355255000,12.023255126953124,0.17865245044231415,0.058909494429826736,-0.08792489022016525
1789724403365225000,12.033224853515625,0.2123103141784668,0.003917299211025238,-0.029842855408787727
1789724403375195100,12.043195068359376,0.15842045843601227,0.025503817945718765,-0.014705982059240341
1789724403385165300,12.053165283203125,0.14376045763492584,0.05235523730516434,-0.011598262004554272
1789724403395135200,12.06313525390625,0.142905592918396,0.08312540501356125,-0.09051544964313507
1789724403405105200,12.073105224609375,0.05716651678085327,0.09612515568733215,0.005273055750876665
1789724403415075000,12.083074951171875,0.01815519854426384,0.06488094478845596,0.017292967066168785
1789724403425045000,12.093044921875,0.0596286877989769,0.06707422435283661,-0.05513443797826767
1789724403435015200,12.10301513671875,0.015208490192890167,0.05756594240665436,-0.07064256072044373
1789724403444985000,12.112985107421874,0.03706572949886322,0.07255763560533524,-0.028990168124437332
1789724403454955000,12.122955078125,-0.005450840573757887,0.06360621750354767,-0.01707119308412075
1789724403464925000,12.132925048828126,-0.056359950453042984,0.10375351458787918,-0.03911659121513367
1789724403474895000,12.14289501953125,-0.05075133219361305,0.06233923137187958,0.010706357657909393
