time,seconds_elapsed,z,y,x
1789481552548480000,0.04947998046875,-0.5507675041228532,0.605643880431354,-0.1460506851837039
1789481552558451200,0.059451171875,-0.09103869979679584,0.6836690771371126,-1.1111652255740017
1789481552568421000,0.069421142578125,0.792362676090002,-0.11065905380696058,-0.7080485353078693
1789481552578391000,0.07939111328125,1.192684182679653,0.5541971863105892,-0.5266389519732445
1789481552588362200,0.0893623046875,2.1712889768272636,-0.19725129558891058,-0.2755088397458196
1789481552598332200,0.099332275390625,0.4093050235122442,1.5167302588403224,-0.19699878213256597
1789481552608302000,0.109302001953125,-1.2838316035479307,2.5080139172971245,-0.6137656659580767
1789481552618273000,0.11927294921875,-0.721576490727067,0.5182549353137612,-0.4572827994134277
1789481552628243200,0.1292431640625,-1.2772387811541557,0.9530372221708298,0.13558708577118814
1789481552638214100,0.139214111328125,-0.021180735194683074,0.14190350237637758,0.2850117043673992
1789481552648184000,0.14918408203125,0.4938216280639171,0.613939415089786,-0.2119137349307537
1789481552658154000,0.159154052734375,0.6054068568050861,-0.11719196270704269,-0.5005553932983428
1789481552668125200,0.169125244140625,0.2900216414839029,-1.2632368515476584,-0.3139946377456188
1789481552678095000,0.17909521484375,0.6653191814541817,-1.817103198468685,0.18755276226475834
1789481552688065000,0.18906494140625,1.1772545583575964,-0.8414867724820971,-0.9029894350625574
1789481552698036200,0.1990361328125,0.9477870465576648,-1.073206739383936,-1.0016882211584597
1789481552708006100,0.209006103515625,-1.275524378451705,-0.569826424857974,-1.0820263709817082
1789481552717976000,0.21897607421875,-3.9975218226909637,1.3984437788948416,-1.672059936761856
1789481552727947000,0.228947021484375,-2.1648107207238674,0.5238587466701865,-1.7722464041322468
1789481552737917200,0.238917236328125,1.124471647197008,-0.697484251999855,-0.03196304516755044
1789481552747888000,0.24888818359375,3.6754648745208978,-1.0284452221155167,0.4570568086378276
1789481552757858000,0.258858154296875,3.061569006311893,0.27289631915986534,0.7128379615414887
1789481552767828000,0.268827880859375,1.2485855181217194,1.4815110614210367,0.42146629368811844
1789481552777799200,0.278799072265625,-0.8759329397022724,2.298513673248887,-0.42217115402184424
1789481552787769000,0.28876904296875,-1.3922113142460584,1.1226786263003945,-0.08668108910918235
1789481552797740300,0.298740234375,-1.789122720131278,1.90776108225435,-1.0060605179585516
1789481552807710200,0.308710205078125,-1.4336194294333457,1.4885519198432564,-0.27343371397219596
1789481552817680100,0.31868017578125,-1.2079478027850388,0.8804834426134824,-0.22265220576189457
1789481552827651000,0.328651123046875,-1.7599895646274089,1.5322262263968587,-0.23236842087320983
1789481552837621200,0.338621337890625,-1.1571323923051358,0.8866410884603857,-0.5563000038087368
1789481552847592200,0.34859228515625,1.2706927205115557,-0.8609419990584254,0.35046799994446337
1789481552857562000,0.35856201171875,3.3122324508756398,-1.543411929538846,0.4336000182699412
1789481552867532000,0.368531982421875,3.1121219664633273,-1.123164363990724,-0.999949560797587
1789481552877503200,0.378503173828125,-0.227085000577569,-0.06028291152715683,-0.4287758129838854
1789481552887473200,0.38847314453125,-3.2162153781443834,1.511883695591986,-0.7859409724794327
1789481552897444000,0.398444091796875,-2.050277748093009,0.3147498400270939,-0.9199623433038592
1789481552907414300,0.408414306640625,0.319889541003108,-1.9450673150807618,-0.09875329276211559
1789481552917384200,0.41838427734375,0.7961714207231998,-1.3123051260992884,-0.5847141243230551
1789481552927355100,0.428355224609375,1.1916858192920685,-0.7963657742515206,-0.28517529743127523
1789481552937325000,0.438324951171875,1.7965689444839954,-0.6287868556097149,0.17928700169008224
1789481552947296300,0.448296142578125,1.3778940350800752,-0.989969360987842,-0.5101513064982369
1789481552957266200,0.45826611328125,0.922875892663002,-1.1622495891883968,-0.2645215452527627
1789481552967236000,0.468236083984375,-1.1211942329615354,1.2337304788172245,-1.2052618516366929
1789481552977207300,0.478207275390625,-1.1223159304678438,-0.5133212783038615,-0.4933423931796103
1789481552987177200,0.48817724609375,-2.082320653563738,0.5205313558131456,-0.7084555817387997
1789481552997148200,0.498148193359375,-2.8505875837951895,0.4880252167448401,-0.8939237928144633
1789481553007118000,0.5081181640625,-0.11023673674166203,-2.318392678195238,1.0422788094177842
1789481553017088300,0.518088134765625,0.3703828799217939,-0.4681678391084075,0.39376149048693476
1789481553027059200,0.52805908203125,3.2352228609532117,-3.492268407769501,0.5361976019026711
1789481553037029000,0.538029052734375,2.1466607315272093,-0.49692573155909775,0.32404925449844446
1789481553047000000,0.548,0.22690379879176614,1.19184159437567,1.5939017613261937
1789481553056970200,0.55797021484375,0.6369821447640657,0.8972074906602502,0.7230112727705389
1789481553066940200,0.567940185546875,1.21702835034132,0.6697372901573777,-0.7268006551161408
1789481553076911000,0.5779111328125,-0.20552607972025871,1.4381810382604598,0.2493223686857149
1789481553086881300,0.58788134765625,-0.955733621647954,0.6102908294543623,0.6643927142590283
1789481553096852500,0.5978525390625,-1.8298270709633826,0.8617056769073009,0.1717136072937399
1789481553106822400,0.607822509765625,-2.5244109253466127,1.2249503755122422,-0.8688961729332804
1789481553116793300,0.61779345703125,-1.280572894012928,0.802538325406611,0.23261837704628704
1789481553126763500,0.627763427734375,1.6575269690185783,-0.3439809029474854,0.16430084681920706
1789481553136733400,0.6377333984375,2.442898763307929,-0.1813701281070709,0.6076190894944593
1789481553146704400,0.647704345703125,0.4066325894325971,1.0206783875063061,0.1667436003288254
1789481553156674300,0.65767431640625,-2.2122873421698808,1.6120876986190675,-0.27252850876078005
1789481553166645500,0.6676455078125,-2.43159527900517,0.5980027180284261,-0.9173317025393247
1789481553176615400,0.677615478515625,1.5141472566097973,-2.1752701554179192,-1.532527547430992
1789481553186586400,0.68758642578125,4.138583321285248,-2.6549603822767733,-1.756113599976897
1789481553196556500,0.697556640625,3.936641529792547,-1.2496791585773228,-0.7337830613493919
1789481553206526500,0.7075263671875,1.1172171460241078,1.141186050632596,-1.476290404163301
1789481553216497400,0.717497314453125,-2.057573750320077,2.902922751188278,-1.017406380098313
1789481553226467300,0.72746728515625,-3.3569542206555605,2.8823396896257996,-2.525982412447035
1789481553236438500,0.7374384765625,-1.6013731201201677,1.476439457245171,-2.010161134020984
1789481553246408400,0.747408447265625,-0.028987609553337096,1.0280796036735176,-1.1372251841776073
1789481553256379400,0.75737939453125,-0.16210954732000826,1.324174719852209,-1.5205239520348608
1789481553266349600,0.767349609375,0.257713947597146,-0.5251528781339526,0.5492817225445061
1789481553276319500,0.777319580078125,0.28545711004734037,-0.5936661501288414,-1.0395542067594825
1789481553286290400,0.78729052734375,0.6328840617954731,-0.7729550880476832,-0.987335066961497
1789481553296260600,0.797260498046875,0.8650444659411907,-1.425748842188716,-0.6903805574744939
1789481553306231600,0.8072314453125,-0.7136819380849599,0.39189474676698444,-1.2798748287461696
1789481553316201500,0.817201416015625,-1.7107038479328154,1.1498372668609023,-1.6711181258670984
1789481553326172700,0.827172607421875,-0.5769014778107404,0.2525979197576642,-1.9053902614697813
1789481553336142600,0.837142578125,1.342802263432741,-0.42887218603044747,-1.7751956093266605
1789481553346113500,0.847113525390625,2.8866642748266456,-1.879700232157111,-1.0480778510853648
1789481553356083500,0.85708349609375,1.7375433395415543,-0.6383893812134862,0.4912782271914184
1789481553366053600,0.8670537109375,-0.04657821130156517,0.07446107448339462,-0.27310448201783
1789481553376024600,0.877024658203125,-1.2414508439362049,1.691433622534573,-1.1149532927453518
1789481553385994500,0.886994384765625,-1.670786263564229,1.5871283216685055,-0.9224914233900606
1789481553395965700,0.896965576171875,-0.10062310522198677,0.23899931025505064,-0.4815289500607177
1789481553405935600,0.906935546875,-0.6793366008907556,0.7251064184188842,0.17455683136302977
1789481553415906300,0.91690625,-0.6494985119879245,-0.5541320121198893,0.866201088630408
1789481553425876500,0.92687646484375,-0.0027718028008937834,-0.5898521447986363,1.4917768732391297
1789481553435847400,0.936847412109375,0.06140986973047256,-0.3508265310585499,0.7175541033431887
1789481553445817300,0.9468173828125,0.9953554379403591,-1.3961834327474236,1.1356213291775434
1789481553455788300,0.956788330078125,1.0244172817736863,-0.532050820954144,0.5136341071126982
1789481553465758500,0.966758544921875,0.5808049149900675,0.2340168456673622,1.4575531165979803
1789481553475728400,0.976728271484375,1.4720628495961428,-0.9993827937602996,1.6229177201911806
1789481553485699300,0.98669921875,1.2119845109552145,-0.5796586675643921,0.966278104276955
1789481553495669200,0.996669189453125,-0.5296972435653209,0.7721148378312588,-1.0261244510177523
1789481553505640400,1.006640380859375,-1.3727408901005982,0.9950728216066956,0.36124526841603216
1789481553515610400,1.0166103515625,-1.0217039311617613,0.9038178487107157,0.9686563777156174
1789481553525581300,1.026581298828125,0.7633224595665932,-0.3678340722218156,1.1281110996779053
1789481553535551500,1.036551513671875,1.7247008091032503,-0.1620455421730876,0.5456081120656803
1789481553545522400,1.0465224609375,1.1700900735557078,0.5069350843980908,0.47040432945620264
1789481553555492400,1.056492431640625,0.056042789739370345,0.4561252268761396,1.2985014955438672
1789481553565463600,1.066463623046875,-0.8389607611358165,-0.08351356498897075,0.09837554549090563
1789481553575433500,1.07643359375,-1.8104069157004354,0.5789753614753484,-0.465163250464946
1789481553585404400,1.086404296875,-1.2614929304897784,0.037545010018348694,-0.5925116463314741
1789481553595374600,1.09637451171875,-1.0033242248624563,-0.1292260993719101,-0.7212791882809251
1789481553605345500,1.106345458984375,-0.8056798383027315,-0.3211582457646727,-1.239756461108476
1789481553615315500,1.1163154296875,-0.23442542646825312,-0.2991393061801791,-0.6416743942335248
1789481553625286700,1.12628662109375,1.4233300906091928,-1.4350897942468523,-0.6050333473175764
1789481553635256600,1.136256591796875,1.326573013165593,-0.43131987144351003,-0.6512676405522972
1789481553645226500,1.1462265625,-0.1618207935065031,1.0362637869119644,-1.5367517409972846
1789481553655197400,1.156197509765625,-0.9438058679670095,0.7301575643286109,-1.1878981174468994
1789481553665167600,1.166167724609375,-0.7298796241700649,0.05049187761396169,-0.7020549939814955
1789481553675138600,1.176138671875,-0.8504156366080046,0.4957306765556335,-1.7982808629684148
1789481553685108500,1.1861083984375,-0.4219955782592296,0.8117366541236638,0.8240661204732954
1789481553695079700,1.19607958984375,0.6274526843965054,0.49107759005278345,0.5163057740073651
1789481553705049600,1.206049560546875,-0.17616086902618408,0.8689008491083979,-0.20892034353474154
1789481553715020500,1.2160205078125,-0.793162886556983,0.6691928080171347,0.22999075022274626
1789481553724990500,1.225990478515625,-1.4337807574748993,1.0261454207405447,0.38402949328459796
1789481553734961400,1.23596142578125,0.21269524069726467,0.337291926702857,-1.2698150608941912
1789481553744931600,1.245931640625,0.26232757887244224,0.40605625084936614,-0.7606470298122614
1789481553754902300,1.25590234375,0.13735621433556078,0.029397067137062548,-0.7113087792128324
1789481553764872400,1.26587255859375,0.9609341129004955,-0.6550450401991605,-0.6479776590961962
1789481553774843400,1.275843505859375,1.5073381611168384,-0.6754886932909488,-0.4651516330923885
1789481553784813300,1.285813232421875,1.5301602337777613,-1.0228267977118493,-0.2812708556049503
1789481553794784500,1.295784423828125,-0.5202174675583839,1.292406539669633,-0.34811727209985255
1789481553804754400,1.30575439453125,-1.7243623709291218,-0.03704056762754917,-0.25142421806948256
1789481553814725400,1.315725341796875,-2.2720108662486074,0.274347979272902,0.03871416339557618
1789481553824695600,1.325695556640625,-1.6876520581692456,0.9494713463827967,0.4855706631995737
1789481553834666500,1.33566650390625,1.4896312395125626,-1.8360460916087031,0.6219334825836121
1789481553844636400,1.345636474609375,2.7707243580073118,-1.984553230033815,0.5645131208807229
1789481553854607600,1.355607666015625,3.238911778599024,-2.04558549862355,1.5740404381670057
1789481553864577500,1.36557763671875,0.24030104050338266,-0.3594245557948947,0.4014560635775327
1789481553874548500,1.375548583984375,-2.431689971551299,0.2252688910663128,0.5311883954385295
1789481553884518400,1.385518310546875,-2.5558517732709647,1.179897766342759,-1.082768640716374
1789481553894489600,1.395489501953125,0.6302794322550297,-1.0574614732414482,-1.4310348197676241
1789481553904459500,1.40545947265625,0.16709902617037295,-0.4711939089313149,0.11124063482088968
1789481553914430500,1.415430419921875,-1.0820452948778867,0.9229296686768531,2.0790157667994498
1789481553924400600,1.425400634765625,0.5372101034134626,-0.4270414634719491,1.058997377571836
1789481553934371600,1.43537158203125,0.5236749145358801,0.24706220520138739,-0.8152323872849345
1789481553944341500,1.445341552734375,2.1427193004250524,-1.7761045408651233,0.24110983613561837
1789481553954312400,1.4553125,1.5969360144555569,-0.46922494694590566,0.6903121684134006
1789481553964282600,1.46528271484375,-1.0112684618651866,2.1006708415076134,0.5660987461043522
1789481553974253300,1.47525341796875,-2.1628817984879016,1.5007637511625884,0.04808148287083022
1789481553984223500,1.485223388671875,-1.3567770127713679,0.4821387890547514,0.15353662049230188
1789481553994194400,1.4951943359375,-0.15390636712014674,-0.23225568121373652,-1.0213384588502348
1789481554004164400,1.505164306640625,1.4973545272409916,-0.5738900210350751,-1.1845113245528192
1789481554014135300,1.51513525390625,1.8822417333334682,0.17364479455202816,1.3823312868751585
1789481554024105500,1.52510546875,0.912526932606101,0.6897460589632392,-0.6774342744007706
1789481554034076400,1.535076416015625,-0.6846627643495797,0.7699804561510681,-0.5287775349045172
1789481554044046300,1.54504638671875,-2.242255194932222,1.0736214576646685,-0.04709399707028642
1789481554054017500,1.555017578125,-1.8208990836203098,0.6921104500070214,-0.19146434621792285
1789481554063987500,1.564987548828125,-0.6675654990762472,-0.07392594469338655,-1.5863691738642751
1789481554073958400,1.57495849609375,0.7638993826717138,-1.1482234019234776,-1.2159837366592139
1789481554083928600,1.584928466796875,0.7523480610877274,-1.6262398503512143,-0.1578425375252962
1789481554093899500,1.5948994140625,-0.2187672540873289,-0.2631827343970537,0.3182349421964958
1789481554103869400,1.604869384765625,-1.3159960895717144,1.4499839965179562,-0.5587301170324906
1789481554113840600,1.614840576171875,-0.2576274383574724,-0.008670213189721106,-1.3890772540040313
1789481554123810600,1.624810546875,0.25170856970250605,-0.8000497234612702,-1.1979919336989522
1789481554133781500,1.634781494140625,-0.10946516784727572,0.439600500793755,-1.1155619992282242
1789481554143751400,1.64475146484375,0.38165480004251,0.14267624031454323,-0.08899183200327679
1789481554153722600,1.65472265625,-0.24520810176730154,1.4426336337551473,-0.24527764160586518
1789481554163692500,1.664692626953125,0.1586263813793659,0.7673822563514113,-0.6938584627181291
1789481554173663500,1.67466357421875,1.2385095297873019,-0.8427288814976811,-1.2681198012836277
1789481554183633700,1.684633544921875,-0.3810410520583391,0.8436123863339423,-0.5019903945375234
1789481554193604400,1.694604248046875,-1.4865765281170606,1.3527350439041852,-0.34684893266446887
1789481554203574500,1.704574462890625,-0.04207388561964035,0.9785819977939129,-0.6405113418035209
1789481554213545500,1.71454541015625,1.1398597704648972,1.0904767308756709,-1.8289950040534138
1789481554223515400,1.724515380859375,0.18733342042565346,0.10592121163010597,-0.6717348206501453
1789481554233486300,1.734486328125,-1.1641858179479836,0.3311445099890232,-0.04616816919595003
1789481554243456300,1.744456298828125,-0.892718654808402,0.42502837008386846,-0.9568274812992662
1789481554253427500,1.754427490234375,-0.27006021895110605,-0.6251181039690971,-0.4338880779637024
1789481554263397400,1.7643974609375,-0.5225239909350872,-0.8879811048924923,-0.13219484951701013
1789481554273368300,1.774368408203125,-0.8947071982771158,0.20824030711501837,-2.427276831284165
1789481554283338500,1.78433837890625,-1.132985793042183,0.6352157196134328,-1.1612117705732583
1789481554293309400,1.794309326171875,-2.3962515784233807,0.8891925265088677,0.37489754433464256
1789481554303279400,1.804279296875,-0.3917418942928314,0.010389584328234195,-0.8812387910254299
1789481554313250600,1.81425048828125,3.105035807594657,-1.7095897492110728,-1.143265487255156
1789481554323220500,1.824220458984375,3.61786959464252,-1.5079527858838437,0.0826301697505638
1789481554333191400,1.83419140625,1.2680582803547382,-0.07952011143863201,1.736588376904279
1789481554343161600,1.84416162109375,-0.07639525741636753,-0.23886750056892633,1.1728579308338463
1789481554353132500,1.854132568359375,0.11847148112356662,0.6327440688028931,-0.6876089008040726
1789481554363103500,1.864103515625,0.7160334696471691,-0.5839335684046149,-0.5415509456293657
1789481554373073700,1.87407373046875,-0.6581207943826913,0.4006570221543312,-0.24212986336573958
1789481554383044600,1.884044677734375,-0.6768389388561248,1.2966335097149013,0.17038414878826588
1789481554393014500,1.8940146484375,0.24217151055037975,0.6916559842377901,0.35890184709504247
1789481554402985500,1.9039853515625,0.8428694590121507,0.6375543916940689,0.3240209782520309
1789481554412955600,1.91395556640625,0.9522095391750335,-0.15915858855992554,-0.29159809702038764
1789481554422926300,1.92392626953125,-0.5780822120279073,1.6740563712760805,0.1158304650954902
1789481554432896300,1.933896240234375,-1.3834616060793399,0.910109934592247,1.3554362656868992
1789481554442867500,1.943867431640625,-1.7204209398269652,-0.5998889701664447,1.2320884106986223
1789481554452837400,1.95383740234375,-1.1040151346236466,0.09182166686803102,-0.5117990006400271
1789481554462808300,1.963808349609375,1.2102280226767061,-1.1105147257760166,-0.4118534293534234
1789481554472778500,1.973778564453125,2.913271711245179,-1.9835630499526857,2.248313764318824
1789481554482749400,1.98374951171875,0.8373889817744493,0.22199790657162666,1.5047551588863133
1789481554492719400,1.99371923828125,-0.5173837054371834,0.6998699780926108,0.3781125243257731
1789481554502690600,2.003690673828125,-2.1763982826650143,1.426516903951764,-0.24628961339369415
1789481554512660500,2.013660400390625,-1.8268489319354295,0.6688339115768671,-0.10199881402198224
1789481554522631400,2.02363134765625,-1.364223821645975,0.794997993029654,-0.2106681553164497
1789481554532602600,2.0336025390625,0.06571428892612458,0.05327157146036625,-0.6871186330690979
1789481554542572500,2.043572509765625,1.3504589156657456,-0.9639178048864007,-0.3825304503658786
1789481554552543500,2.05354345703125,1.3973808258384466,0.08632511527836323,-0.7279026250086724
1789481554562513700,2.063513671875,2.627166366422176,-1.7722680314421653,-0.49759939303696155
1789481554572484600,2.073484619140625,1.0000041405290365,0.24634704266935586,-0.7722321075353771
1789481554582454500,2.08345458984375,-1.5117378573805094,1.6563444812357424,-0.21289149392172693
1789481554592425500,2.093425537109375,-1.3048130167782306,0.5259101262420416,0.22969834314743057
1789481554602395600,2.103395751953125,-0.005182371073961258,0.9923618090823292,-0.2555290595724247
1789481554612366300,2.113366455078125,3.167154702377319,-1.2179033796101808,0.1696050359082408
1789481554622336500,2.12333642578125,1.9672984361112116,-0.17021072845011948,0.7154962940305472
1789481554632307500,2.133307373046875,0.3089455376625061,0.6636652767673135,0.11741647391160949
1789481554642277400,2.14327734375,-0.9725883103370666,0.31180823361724613,0.26635031331619247
1789481554652248300,2.153248291015625,-1.2359031466811894,-0.13356120596677065,-0.25027837250260637
1789481554662219500,2.163219482421875,-0.6627016924321651,0.3334527869313955,-0.20204150727381928
1789481554672189400,2.173189453125,-0.8819038308054208,1.1431985594987868,-2.553390936115384
1789481554682160400,2.183160400390625,-2.036003139024973,3.0588793288365004,-2.4879168856859204
1789481554692130600,2.193130615234375,-2.8695810380786657,1.9788897974446416,-0.06907360929138959
1789481554702101500,2.2031015625,-0.9223439777433872,0.04232844490259886,-0.36981530916690825
1789481554712071400,2.213071533203125,2.02916423291564,-1.2166601015508174,-0.15230742575721815
1789481554722042600,2.223042724609375,3.467286234465241,-1.2404188705399632,-0.8989119564905762
1789481554732012500,2.233012451171875,2.693210910215974,-0.955215150731802,0.5338911881238222
1789481554741983500,2.2429833984375,1.158493159264326,-0.43081659809648987,1.0693777556803077
1789481554751953400,2.252953369140625,-0.9758312377810477,0.3570212940454483,0.7778793196421117
1789481554761924600,2.262924560546875,-1.3077116608291863,0.16199527329057453,0.08976442381097004
1789481554771894500,2.27289453125,-0.20751637675464152,0.5526920424446463,-0.9778007842883467
1789481554781865500,2.282865478515625,1.616667719885707,-1.4278025598481296,-0.511245093084313
1789481554791836400,2.29283642578125,-0.07098200019598007,0.275179753921926,-0.18388777348380536
1789481554801806300,2.302806396484375,-1.6807944473594427,0.3498506717637181,2.210515802452713
1789481554811777500,2.312777587890625,-1.0651759931415319,-0.15264292305558919,1.1092126302015035
1789481554821747500,2.32274755859375,-0.619687311092019,0.8762024042934179,-1.363217421082407
1789481554831718400,2.332718505859375,1.5178326671242712,-3.54872445448488,0.9269530789740383
1789481554841688300,2.342688232421875,0.7170277413815259,-0.8782780415236949,0.8990008768830448
1789481554851659500,2.352659423828125,1.1535802527815102,-1.4544962132453918,0.2991998407283798
1789481554861629400,2.36262939453125,0.8887176024734973,0.14372662615031004,-5.3830105506837365
1789481554871600400,2.372600341796875,-0.4470359114915132,-0.5606146521374583,0.9416899717915803
1789481554881571600,2.382571533203125,-0.705153179192543,-0.6567945142149925,4.269597180856764
1789481554891541500,2.39254150390625,-1.1817922017872333,0.7866253014817833,-0.7860649641852825
1789481554901512400,2.402512451171875,0.5450888739645481,-0.769825850111246,-0.9548671410117298
1789481554911482600,2.412482666015625,-0.8381050210893154,1.8000044718906283,-0.5004083495104685
1789481554921453600,2.42245361328125,-0.9034165744334459,1.1512211224347353,1.8177043792322276
1789481554931423500,2.432423583984375,2.0704355699807406,-1.8545961860388516,0.4766028553027659
1789481554941394700,2.442394775390625,2.395184825974703,-0.23100100497752427,0.6285864376667887
1789481554951364600,2.452364501953125,0.4085328700959682,1.6389470639720558,1.0998762081880122
1789481554961335300,2.462335205078125,-0.3998807770848274,1.244611646054685,-0.02930900297783082
1789481554971305500,2.472305419921875,-2.5304794316053387,2.37441384062469,-0.4792658639669418
1789481554981276400,2.4822763671875,-1.3610697415292263,0.053444589939713474,-0.09266749744187108
1789481554991247400,2.492247314453125,-1.4376006080240011,1.0119462149962781,0.2363957766931504
1789481555001217300,2.50221728515625,-1.9200836804717778,1.7244269605979323,-0.17209993973020463
1789481555011188500,2.5121884765625,-0.7580600089937448,0.05210281994193792,-0.47181942041851577
1789481555021158400,2.522158447265625,1.67287300671041,-2.409353052058816,1.0573410617321728
1789481555031129300,2.53212939453125,4.31594129114151,-2.5315941148489713,1.3255574063822626
1789481555041099500,2.542099609375,6.7066060093432665,-2.928281941111386,-0.5495117319080979
1789481555051070500,2.552070556640625,3.7547763116449113,-0.520373827163875,1.3019644954793155
1789481555061040400,2.562040283203125,-4.58810052819848,4.106956303139031,2.2118650251045824
1789481555071011600,2.572011474609375,-7.659432803633809,3.5651536112383004,1.2478743011124431
1789481555080982500,2.581982421875,-4.355951814490556,1.1174027317240833,-0.3340010319313034
1789481555090952400,2.591952392578125,0.20005203222334383,-1.1600097013071178,-0.5850383513087406
1789481555100923600,2.601923583984375,2.117598303171992,0.11801759987622498,0.13389231935096904
1789481555110893800,2.611893798828125,2.4694272892713545,0.14552724583148954,-0.2313653995768167
1789481555120864500,2.621864501953125,0.9545429505586623,-0.15651362700909374,0.15519059824440629
1789481555130834700,2.631834716796875,-0.484700163975358,-0.5497916448280215,-0.5792383232604712
1789481555140805600,2.6418056640625,-0.5085772986471653,0.10586772787719964,-0.8944678365632891
1789481555150775600,2.651775634765625,0.028707623568177222,1.258209671035409,-1.1413790889866648
1789481555160746500,2.66174658203125,2.2378104904830454,-0.6651198594897985,-1.4453960842058062
1789481555170717700,2.6717177734375,1.725968052560091,-0.952796106891334,0.17278302662353962
1789481555180687600,2.6816875,-0.7845271601587533,0.016250293055176734,0.4569081939473748
1789481555190658600,2.691658447265625,-2.9293881487876177,2.4873966612040994,0.21150760181527584
1789481555200628700,2.701628662109375,-1.4565800337821244,0.7158049215883017,0.3302390855818987
1789481555210599700,2.711599609375,0.6189934836089611,-1.1069099792823194,-0.9384942444901913
1789481555220569600,2.721569580078125,1.3495868090063332,-1.4520999657586215,-0.7994454739578067
1789481555230540800,2.731540771484375,0.9210153594881295,-0.13413520646244287,0.6412856871768832
1789481555240511700,2.74151171875,-0.5139841261267661,1.7517910606026648,0.25436160496193916
1789481555250481700,2.751481689453125,-0.6176373928248882,-0.08074351575374603,0.20227297794213517
1789481555260452900,2.761452880859375,0.8750111486822366,-2.399839373782277,-0.5186069636218249
1789481555270422800,2.7714228515625,1.536020650243759,-1.9770295565307139,-0.8792303738124668
1789481555280393700,2.781393798828125,-0.2580810273438692,-0.3103223789736628,-0.6675749975569546
1789481555290363600,2.79136376953125,-1.5872230142146349,1.6479031083658338,-0.02257924034837633
1789481555300334600,2.80133447265625,-0.45341830600500105,-0.7564812153697014,-1.4584053495131433
1789481555310304800,2.8113046875,-0.005374678775668144,-1.004113913935423,-0.4186388517098501
1789481555320275500,2.821275390625,-0.5579816732853651,-0.08934826249182223,-0.37183833942711353
1789481555330246700,2.83124658203125,0.04945990421772003,-0.14168985962569713,-0.11095971725396811
1789481555340216600,2.841216552734375,-0.19766835195720195,1.7887787289991974,-0.8474301910564302
1789481555350187500,2.8511875,0.5423129795104265,-0.9556117488339543,-0.7058215799733996
1789481555360157700,2.86115771484375,0.8757032225996255,-0.5649225784644484,0.24046726391576229
1789481555370128600,2.871128662109375,0.23559680833518504,1.4548074711516499,-0.33961675292123106
1789481555380098600,2.8810986328125,1.2153624629557132,-0.08553162681311369,-0.08897963010882959
1789481555390069800,2.89106982421875,-0.6125882927417755,1.919840811626613,-0.8112372532341628
1789481555400040700,2.901040771484375,-0.9366016356766224,0.7897057318404317,-0.6790458743158727
1789481555410010600,2.9110107421875,-0.9029583092719315,-0.4212608342438936,-0.5276758207403123
1789481555419981800,2.92098193359375,-1.203576163572073,0.9880375161424279,-0.27422559500224886
1789481555429951700,2.93095166015625,-0.3033721214443445,1.001177860483527,-1.2157774734973907
1789481555439922700,2.940922607421875,1.575480553972721,-1.2199240717828272,-1.667669885109365
1789481555449892900,2.950892822265625,0.9592758242994547,-0.6536056550458074,-1.315008247578144
1789481555459863600,2.960863525390625,0.2143751566082239,-0.41988896136879916,-1.13135453857854
1789481555469834500,2.97083447265625,-0.337183790153265,0.40663872691243885,-1.9017673947975038
1789481555479804700,2.9808046875,-0.5301403111577033,0.678653294801712,-1.7588146756291387
1789481555489775600,2.990775634765625,-0.2744242593795061,-0.14681816242486237,-0.9978135716821998
1789481555499745500,3.00074560546875,0.14418927522599695,-0.42500878860056396,-1.287418083732575
1789481555509716700,3.010716796875,0.0011614449948072433,0.29863106439709663,-0.1490636397967115
1789481555519686700,3.020686767578125,0.3753331958055496,0.4111810465171933,-0.11368194529209286
1789481555529657600,3.03065771484375,1.1998264556497336,-0.44093876366019247,0.43042533375658093
1789481555539628800,3.04062890625,1.0498054055303334,-0.05082359378635883,-0.46497331738341596
1789481555549598700,3.0505986328125,-0.49037353343665596,0.8620242413371801,0.21626568306256083
1789481555559569700,3.060569580078125,-1.9900012663066386,1.7647177621930836,0.15732253223918377
1789481555569539600,3.07053955078125,-1.0525883142471313,0.9536848724246024,-0.12385587757565081
1789481555579510800,3.0805107421875,-0.6116185709267854,0.82284987655133,-0.12996087991986424
1789481555589480700,3.090480712890625,-0.6819295399934053,0.556903814920783,0.08586082223486155
1789481555599451600,3.10045166015625,-1.0198252778083086,0.8799804615274072,0.21119334823433308
1789481555609422600,3.110422607421875,-0.618579642111063,0.9067655926004051,-0.2649685218352824
1789481555619392500,3.120392578125,0.42354689935445783,-0.34392595788985486,0.1542618660269305
1789481555629363500,3.130363525390625,0.15596739130318163,-0.7215627544626593,-0.6372621307492256
1789481555639333600,3.140333740234375,-0.5967611935347318,0.5689473039358854,-0.11851429735198617
1789481555649304600,3.1503046875,-0.2461953592389822,0.278104116936028,-0.3946146732501685
1789481555659274500,3.1602744140625,0.6907423765242099,-0.8419310091182589,-1.426116652587801
1789481555669245700,3.17024560546875,0.6656330697089433,-0.6393152638867498,-0.11392569092009217
1789481555679216600,3.180216552734375,-0.43761517219543455,0.3035825493246317,-0.7063583171986043
1789481555689186600,3.1901865234375,-0.42122225579917427,0.08471738782078027,-0.2806505134832114
1789481555699157800,3.20015771484375,0.9253624487817287,-0.9869961903959512,-0.7268581574570387
1789481555709127700,3.210127685546875,0.11934534134864806,-0.28094518558084963,-0.9032192252304404
1789481555719098600,3.2200986328125,-0.13093816398680208,-1.3054919389531014,-0.6457887707497925
1789481555729068800,3.23006884765625,-0.6906839243352413,0.1070630751416087,-0.4410308623904362
1789481555739039700,3.240039794921875,0.8302338493227959,-0.7161576805487274,-1.1821245755467562
1789481555749010700,3.2500107421875,1.8015046473205087,-1.781716535528004,-0.38750206476598975
1789481555758980900,3.25998095703125,1.1561883894532918,-0.5469155048698187,-0.8605325414746999
1789481555768951600,3.26995166015625,0.10555588544905185,-0.647878801831603,-0.8630231892466544
1789481555778921700,3.279921630859375,-0.5078922389924526,0.28470015420019623,-0.09766487647090107
1789481555788892700,3.289892578125,-0.6364589976727962,0.4256713441625237,0.8793171753130853
1789481555798862600,3.299862548828125,1.3871955319106577,-0.8268751865446567,0.08391991730015724
1789481555808833500,3.30983349609375,2.8451082756012678,-1.1881126369804142,-0.37148616498857734
1789481555818804700,3.3198046875,1.2481027030408383,0.44980712977051734,0.16128624823838472
1789481555828774700,3.329774658203125,-0.2909644752919674,1.6942288062110542,0.3125750167386606
1789481555838745600,3.33974560546875,-0.410892584964633,0.4189019961580634,0.7358305684637277
1789481555848715500,3.349715576171875,-0.43954993965029715,0.30091683724671603,-0.2871416290681809
1789481555858686700,3.359686767578125,-0.06763853498697281,0.5463792060360312,-0.005056516204588115
1789481555868657700,3.36965771484375,-0.9124491911947726,1.0816486967757344,0.19473858211562037
1789481555878627600,3.379627685546875,-2.105028159934282,1.936359400229156,0.48045459882747377
1789481555888598800,3.389598876953125,-2.238110350212455,1.6972779646486043,0.9917761181488632
1789481555898568700,3.399568603515625,0.6480676024019718,-0.5286491958171129,0.25408667874438684
1789481555908539600,3.40953955078125,2.2166145577192307,-1.180062016993761,0.9913706791531294
1789481555918509800,3.419509765625,1.5749614985346794,0.10787935996055602,0.4847339931797236
1789481555928480500,3.42948046875,0.2553016257584095,0.9128510499939322,0.8824065926957875
1789481555938451500,3.439451416015625,-0.23987024787068364,0.2181719185426831,0.9662297350905835
1789481555948421600,3.449421630859375,-0.1804120967298746,-0.660185910218954,0.8546306239545345
1789481555958392600,3.459392578125,-0.7786749269992113,-0.20071955622136592,0.10906355564328842
1789481555968362500,3.469362548828125,-0.5727297450840473,0.18889292482733724,-0.1511651512537617
1789481555978333700,3.479333740234375,-0.5224707994431257,0.4394862267643213,0.3375057886492461
1789481555988304600,3.4893046875,-0.8426391573876142,0.07407675134092569,0.29504071175493296
1789481555998274600,3.499274658203125,-1.583951445198059,0.45287557743042706,0.3790481612080708
1789481556008245800,3.509245849609375,-0.06194879891276359,0.07412263630926609,-0.40592111669499426
1789481556018215700,3.519215576171875,1.2935802596241235,-0.1648372187182307,0.29323691373597827
1789481556028186600,3.5291865234375,1.5201117179721593,0.22999153567403555,-0.35815000581443307
1789481556038156800,3.53915673828125,0.8939718697398901,-0.4629536115914583,0.04516229378876742
1789481556048127700,3.549127685546875,-0.4940764796078205,0.36872225323319435,-1.2231013135794548
1789481556058098400,3.559098388671875,-1.7202444142162798,0.7544511708468198,-0.6269978533010929
1789481556068068900,3.56906884765625,-0.8355909924417734,0.6765376178219914,0.31730566198974847
1789481556078039600,3.57903955078125,0.2903144869506359,0.1997568486690521,0.0428000216368353
1789481556088009500,3.589009521484375,0.11368307780325412,0.2463157707482576,-0.22066671276679262
1789481556097980400,3.59898046875,-1.2521423338204622,0.9917892698913812,-0.22692338027507064
1789481556107950600,3.60895068359375,-1.4635697465389965,1.2743594263255595,0.3513959284443408
1789481556117921500,3.618921630859375,1.5172089822679757,-0.8470008597284555,-1.077082484838739
1789481556127892500,3.628892578125,4.486978241282701,-1.575607687483728,-0.4554562415733933
1789481556137862700,3.638862548828125,5.218560577717423,-2.1510496141359208,-0.008862287995987572
1789481556147833600,3.64883349609375,0.5371434679180384,0.6428352547064423,0.7959072898942977
1789481556157803500,3.658803466796875,-4.5965497921139,3.3709877144441007,0.6621382133305073
1789481556167774700,3.668774658203125,-2.7525445581942796,0.1982695327207446,-0.783545528710261
1789481556177745700,3.67874560546875,0.13666355589628218,-1.4904244357168674,-0.09077101617078297
1789481556187715600,3.688715576171875,0.4937988317102194,-0.6510501253440976,-0.3236389201318845
1789481556197686800,3.698686767578125,-1.6985533914119004,1.3116983923777936,0.9554257978077977
1789481556207656700,3.70865673828125,-1.6681956625491379,0.8066568666413426,0.8748957056090235
1789481556217627600,3.718627685546875,-0.35378654990792274,-1.1280728865593672,0.7973946789078414
1789481556227598600,3.7285986328125,2.091218245768547,-2.2197733140110967,-0.5065036341782659
1789481556237568500,3.738568603515625,2.116794585573673,-1.2825062001630663,-0.521946556373313
1789481556247539500,3.74853955078125,0.9232271903187036,0.9287751798346638,0.40071558394115414
1789481556257509600,3.758509521484375,-0.10353928492963313,1.1077063903570175,0.38116902581956236
1789481556267480600,3.76848046875,-1.406257375255227,-0.33075551067143677,-0.029178373751929026
1789481556277450500,3.778450439453125,-2.710918416342139,1.3660437305495141,-0.1107629617060069
1789481556287421700,3.788421630859375,-0.36525019320845603,1.062452997918427,0.5761556644121184
1789481556297392600,3.798392578125,3.314324454718828,-0.3485252683788538,0.04146962698302231
1789481556307362600,3.808362548828125,1.861231094008684,0.016328618988394737,0.2939316545344889
1789481556317333800,3.818333740234375,-1.858555152797699,1.2920876829788088,1.187455415180698
1789481556327303700,3.8283037109375,-4.165257977721095,2.967459520767629,1.5270529154121875
1789481556337274600,3.838274658203125,0.3938812444090843,0.31116292145103214,-0.1412304071540944
1789481556347245600,3.84824560546875,3.5628187385499475,-1.7441361619353293,-0.15146421639872715
1789481556357215700,3.8582158203125,2.7664661160409447,-1.460899942807853,0.3395007618587464
1789481556367186400,3.8681865234375,-0.1164028581559658,0.26780396445691584,0.4787581701731309
1789481556377156600,3.878156494140625,-2.308563942620158,1.4255764082312583,0.3865909778030589
1789481556387127600,3.88812744140625,-2.099620163410902,0.3659758771345019,-0.8830352459881454
1789481556397097500,3.898097412109375,0.21460019753575324,-1.974161015357077,-0.8617429401777684
1789481556407068400,3.908068359375,0.33344635719060894,-1.7388798488423227,0.3686806791137904
1789481556417039600,3.91803955078125,-0.7735305498480797,-0.4782449964866042,0.505204022821784
1789481556427009500,3.928009521484375,-2.053984785917401,0.7794184388428926,-0.10611752878664991
1789481556436980500,3.93798046875,-0.012038812839984894,-0.5039122294455767,0.4363228673625737
1789481556446950700,3.94795068359375,3.1406665084242817,-2.3648691826879977,-1.428441734534502
1789481556456921600,3.957921630859375,1.0501222163945436,-0.8197308677479624,0.27846034649517387
1789481556466892800,3.967892822265625,0.779997700035572,0.45858401820510625,0.7867618604082613
1789481556476862700,3.97786279296875,-0.8291337791264056,2.3419331282585856,0.5506612672694027
1789481556486833700,3.987833740234375,-0.7876847474068402,1.0426780378684402,-0.6645470280379057
1789481556496803600,3.997803466796875,-1.7327940991878508,1.9292974990189073,-0.7787691811539232
1789481556506774800,4.00777490234375,-0.908134835126996,0.6265662569507956,0.1967279841008596
1789481556516745500,4.017745361328125,-0.11610066033899784,0.5440300125613808,-0.12519168362352065
1789481556526715400,4.02771533203125,-0.153542209982872,1.6341975313574075,0.6560375583678484
1789481556536686600,4.0376865234375,1.0561667572557925,-0.9095490858390927,-0.12762139498847536
1789481556546656500,4.047656494140625,-0.19575345824658869,1.0559937387764453,0.5652112957453355
1789481556556627500,4.05762744140625,0.4565647873371839,1.73173260743618,-0.06401997003047727
1789481556566597600,4.06759765625,1.6125462560415267,-0.09457856436073779,-0.10896723739565349
1789481556576568600,4.077568603515625,0.7458417479336261,0.5659875773474574,-0.12936211944227105
1789481556586539500,4.08753955078125,-0.4697714749127626,0.4680906822189688,0.47860601181872187
1789481556596509700,4.097509765625,-0.38836218872666356,-0.8816364120408892,0.16443316796198487
1789481556606480600,4.107480712890625,-1.4800006568580866,1.004193701173365,-0.8742536083132028
1789481556616450600,4.117450439453125,-1.134932835456729,0.6420908660799265,-0.5315416658556088
1789481556626421800,4.127421875,1.445922446167469,-1.7965744974419473,-1.4152875077985225
1789481556636392700,4.137392822265625,1.0031646503865719,-0.9477291788905858,-0.5075228942234069
1789481556646362600,4.147362548828125,0.3855202432990074,-0.3198611916914582,-0.42707452549133446
1789481556656333600,4.15733349609375,0.9935936889648437,-0.9904928003400564,-0.8827725764639676
1789481556666303700,4.1673037109375,0.8607733644932508,-0.3082672000095248,-0.3779018407171592
1789481556676274400,4.1772744140625,-1.4324749355733393,0.7225023734003305,-1.5553006663836537
1789481556686245600,4.18724560546875,-2.8633459430813786,-0.2577306064710021,-0.28302210145276036
1789481556696215600,4.197215576171875,-1.9988304694503545,0.0674582099840045,-0.36534170741681005
1789481556706186500,4.2071865234375,0.5995230594635009,-1.8889044060930609,-0.6967896938644349
1789481556716156700,4.21715673828125,1.125510342594981,-1.5029133304119109,-1.241906624879688
1789481556726127600,4.227127685546875,-0.02423778467774391,-0.02800356695204973,-0.17122200611820443
1789481556736097500,4.23709765625,1.3899059599131345,-1.229456747020781,-0.25490321929166093
1789481556746068700,4.24706884765625,3.0085610542237755,-1.0419950240403413,-0.9298927856877446
1789481556756039700,4.257039794921875,2.69435540407598,-0.9752654205918312,-0.2106512041816488
1789481556766009600,4.267009521484375,0.7187064882487059,1.542790875031054,-1.0318881291110067
1789481556775980800,4.276980712890625,0.2836474302768707,2.0502295250371096,0.5737597091862932
1789481556785950700,4.28695068359375,2.4593097998827695,-0.6874144011452794,-0.5024659396274015
1789481556795921700,4.296921630859375,0.5838806691735983,1.4664078925743698,0.07993954242710023
1789481556805892600,4.306892578125,-3.3184359816908833,2.1562594577386975,1.038258248664811
1789481556815862500,4.316862548828125,-5.2645577742606395,2.6108804175317286,-0.2100166326051578
1789481556825833500,4.32683349609375,-1.8760843797475097,0.9560945639148354,1.2511634057857095
1789481556835803400,4.336803466796875,1.4615969851613044,-1.9643302339553832,-0.057978676005662415
1789481556845774600,4.346774658203125,6.07303747241497,-3.3886364761203525,0.3626178719434887
1789481556855745500,4.35674560546875,0.25823241851329803,2.091704275719821,0.6121201637733727
1789481556865715500,4.366715576171875,-6.697719523054361,4.283718937450647,0.5278274311054497
1789481556875686700,4.376686767578125,-5.079601604360342,1.2750684513777493,1.9960287099026142
1789481556885656600,4.386656494140625,1.2024375149309634,-4.930681208959221,-0.5651171146558598
1789481556895627500,4.39662744140625,1.8578776919275521,-3.196275582921505,0.6728165514722466
1789481556905597700,4.40659765625,0.6275742649495601,0.6826628227040171,2.38697492377311
1789481556915568600,4.416568603515625,0.46379298502504823,1.0595929323121904,0.946177638599649
1789481556925539600,4.42653955078125,-0.7503618557065724,0.43268093066364527,-0.27970369761977343
1789481556935509800,4.436509765625,-0.7540612947463989,-2.061744021742046,0.4294402682419866
1789481556945480700,4.446480712890625,-1.3603227225542067,-0.0820651197463274,0.7490789032239467
1789481556955450600,4.45645068359375,-0.14537585466206074,1.7367723551690577,0.5610731364946812
1789481556965421600,4.466421630859375,1.4500596921026705,1.0695575692266226,-0.19842465021722017
1789481556975392500,4.476392578125,0.3751338738411665,1.2756105954304338,0.731526952985674
1789481556985362400,4.486362548828125,-0.5724813232809305,0.42306233070790766,-0.09527756120925769
1789481556995333600,4.496333740234375,-1.3936930772364138,1.274313833618164,0.09791493310867808
1789481557005303600,4.506303466796875,-1.3364894270241259,0.4352361681044101,0.3170236301779747
1789481557015274500,4.5162744140625,-2.24492645996809,-0.03448737601339817,-0.08530875957636162
1789481557025244700,4.52624462890625,-1.180768703958392,-1.400548642219603,0.32589941240977494
1789481557035215600,4.536215576171875,2.9886078149974344,-1.5310656581848858,-0.07831933908043429
1789481557045186600,4.5461865234375,6.67246876194179,1.4196172075659035,0.5639530393125489
1789481557055156700,4.55615673828125,9.712535546019673,-1.8665695324271916,0.1297440588314086
1789481557065127700,4.566127685546875,5.141809346470237,-0.7706693151980638,1.014093456158042
1789481557075097600,4.57609765625,-4.3468040469169615,2.2817703359797594,0.5336434604404494
1789481557085068800,4.58606884765625,-8.01424635850191,2.507903442659974,1.1957875555224715
1789481557095038700,4.596038818359375,-6.1539393936008215,2.762398428210616,0.8667356338985264
1789481557105009700,4.606009765625,-0.1284030925512314,-0.22779840954393146,-0.861005638879165
1789481557114980600,4.615980712890625,1.8903245020240544,-0.34743688862025734,-0.21578003670377655
1789481557124950500,4.625950439453125,1.4394365912795066,-0.7620382649749518,1.4316656650170683
1789481557134921500,4.63592138671875,1.1919015078693627,-2.057816326904297,1.5269515008643268
1789481557144891400,4.645891357421875,-0.05491583153605461,-1.3176602233916521,0.033098625068739056
1789481557154862600,4.655862548828125,-2.195264311176538,0.22615122685879469,0.06969300156505778
1789481557164832500,4.66583251953125,-2.516169166702032,2.121383082407713,0.16601939597381277
1789481557174803500,4.675803466796875,0.7025842054873704,-0.964457903112471,0.08897004029657692
1789481557184774700,4.685774658203125,2.5392215409874916,-2.3709829893931746,-0.46492706708889453
1789481557194744600,4.69574462890625,1.6054337936878202,-0.6193582252681255,0.16751619213651864
1789481557204715500,4.705715576171875,0.4294575847029686,-0.27628917646855117,0.8399182810563594
1789481557214685700,4.715685791015625,-0.8346727085530757,1.3320689802333712,1.3194164194092153
1789481557224656600,4.72565673828125,-0.6578180120438337,0.6736877813488245,0.49966439927536993
1789481557234626600,4.73562646484375,-0.1997568486690521,0.04946896430701017,-0.15831019156966358
1789481557244597800,4.74559765625,1.3680401650637388,0.6784782304957508,-0.34262609080504625
1789481557254568700,4.755568603515625,2.533680857995152,2.0542881527781485,0.3099683779042214
1789481557264538600,4.76553857421875,2.0883926669538018,1.0166326192468405,0.5526063734551891
1789481557274509600,4.775509521484375,-1.9052181197732685,1.477506209693849,1.3246905604198573
1789481557284479700,4.785479736328125,-5.375716886544227,1.5524989068359136,0.5252844320917501
1789481557294450400,4.795450439453125,-8.502777478942274,2.256471059550345,0.8513320208005607
1789481557304420600,4.805420654296875,-0.7414391290605068,-1.0942910284668206,-0.16977763426247983
1789481557314391600,4.8153916015625,6.574964665523171,-3.7160213413149115,0.19085940259471534
1789481557324362500,4.825362548828125,9.176880855354666,-3.7708489100456237,0.9348532576393336
1789481557334332700,4.835332763671875,3.692943248066306,-0.1912196142092347,1.6321714323572813
1789481557344303600,4.8453037109375,-3.3797295315653084,4.145974600580335,0.43643586275037377
1789481557354273500,4.8552734375,-5.412676790151,2.1284411842256783,0.11207907667271792
1789481557364244700,4.86524462890625,-3.067218994897604,-2.823706006610393,-0.24977047777939587
1789481557374214700,4.875214599609375,-1.1292717409551143,-2.6837515924751756,-0.3784027029113844
1789481557384185600,4.885185546875,0.21025135467648504,-0.15458148990273474,0.9741929690547287
1789481557394156800,4.89515673828125,2.3508435799449683,0.14595570037662983,0.5323056724980473
1789481557404126700,4.905126708984375,2.9097143110245463,-0.4023454136326909,0.6564611175421625
1789481557414097700,4.91509765625,1.8492840511053799,-1.1279264638260007,-0.10297291975114493
1789481557424067600,4.925067626953125,0.7687678654909134,-0.3353814169064164,0.4807455445980653
1789481557434038500,4.93503857421875,0.4586684816181659,1.6108178248137235,0.3863194673852995
1789481557444008700,4.9450087890625,1.855136284264922,0.8756257734492421,0.185071539908275
1789481557453979400,4.9549794921875,-0.7910919255018234,2.254936981850862,0.7220636166568845
1789481557463949600,4.964949462890625,-4.36142820007503,2.903642297634482,0.3695356154426932
1789481557473920500,4.97492041015625,-8.062694455328582,3.3412001866847274,0.3060640274094418
1789481557483891500,4.984891357421875,-7.415886497598886,0.32730420117378234,1.7538101453401147
1789481557493861600,4.994861572265625,-6.403374757674336,-1.8007757485240696,1.6328908326730132
1789481557503832600,5.00483251953125,-5.046928584292531,0.26681203081011773,1.0805988954618573
1789481557513802500,5.014802490234375,0.0037561376631259917,0.25027619881182905,1.4548881351724265
1789481557523773700,5.024773681640625,7.423858207130432,-1.7060466697767376,0.23284780188798904
1789481557533743600,5.03474365234375,11.484766752582788,-2.200471524430811,0.12338705448750406
1789481557543714600,5.044714599609375,12.24687808279395,-4.4408466047048565,-0.1609680856673047
1789481557553685800,5.054685791015625,7.051763847115636,-2.5499355349645016,-0.30160408885851503
1789481557563655700,5.06465576171875,-8.372482289034128,6.483668191573023,0.9603108664356171
1789481557573626600,5.074626708984375,-6.061744509506225,3.9756645034089684,0.4921520143512636
1789481557583596800,5.0845966796875,-5.1904240320354695,1.3506275502309202,-1.4492472066760063
1789481557593567500,5.0945673828125,1.1852484797209502,-2.0313898000106216,-0.24322533045224845
1789481557603537700,5.10453759765625,-1.8237474587887526,0.6321890652686357,1.9113212589539585
1789481557613508600,5.114508544921875,-3.766339908188581,3.9851252824544905,0.32597967457175253
1789481557623478500,5.124478515625,-2.477289108687639,0.46459027288258076,0.04565484937895089
1789481557633449500,5.134449462890625,-2.0560522398412227,-3.7172917996421453,0.09703845166824758
1789481557643420700,5.144420654296875,0.15170856481492517,-3.4192131084308026,0.21994806136973202
1789481557653390600,5.154390625,4.97479215336442,-2.6564517898783087,-0.14842135983780025
1789481557663361500,5.164361572265625,6.6236512472808355,-1.7167679702773688,-0.9964175142139196
1789481557673331500,5.17433154296875,5.74406913742125,-4.232962855942547,0.6175797443535178
1789481557683302700,5.184302734375,2.300758821827173,-2.9996798286318778,1.7165293392159044
1789481557693272600,5.1942724609375,-2.468776131886244,1.8358470619052647,0.78987429334037
1789481557703243500,5.204243408203125,-1.4920581743985413,2.236705451850593,0.9880120894402264
1789481557713213700,5.214213623046875,1.2207149298995732,2.701109262250364,0.051151437501236796
1789481557723184600,5.2241845703125,3.883404445123672,0.09471329665631055,-1.2750152598857878
1789481557733155600,5.234155517578125,0.9303817382484674,1.4140142729923129,-0.33113260035552083
1789481557743125800,5.244125732421875,-8.037016993236541,5.927835805276036,0.23120211704019455
1789481557753096700,5.2540966796875,-8.47852098956406,5.692307386001945,-0.9286907894868404
1789481557763066600,5.264066650390625,2.241733216884732,-3.5508190886765716,-0.8263570078894495
1789481557773037600,5.27403759765625,-1.4891688826978207,2.1591066638633607,-0.05334744970817119
1789481557783007700,5.2840078125,9.804135971352457,-6.035361529493332,0.9340077467259019
1789481557792978400,5.293978515625,9.837112942802905,-4.6319215497463935,0.7150302839539945
1789481557802948600,5.303948486328125,2.7337410735249517,7.175347556686401,2.2453619287759063
1789481557812919600,5.31391943359375,-0.6128682787269354,1.4165455450356006,2.0547735982075332
1789481557822890500,5.323890380859375,-5.864107721731067,-0.43816988346874713,-0.12217640005610883
1789481557832860700,5.333860595703125,-5.152046662846208,1.536104821395874,1.1861805729392916
1789481557842831600,5.34383154296875,-5.145068056005239,1.5130422179773448,1.1793125138007103
1789481557852801500,5.353801513671875,0.6982476375877856,-0.4300228173702955,1.3531637907102703
1789481557862772700,5.363772705078125,0.8712637788474559,-0.549303861311078,-0.5187630674989894
1789481557872742700,5.37374267578125,-2.1580700142920017,-0.09602847090810537,1.3969577781207858
1789481557882713600,5.383713623046875,-2.9531852039605377,-0.12198884159475565,-0.07590436862688511
1789481557892683500,5.39368359375,-0.8541846337527036,-0.4942465754777193,-0.7000521297264843
1789481557902654700,5.40365478515625,0.659255351370573,-0.7297863929286599,0.6942145096141844
1789481557912624600,5.413624755859375,2.4767139391481874,-1.3065753502756356,0.2737552740767598
1789481557922595600,5.423595703125,3.559267183548212,-1.5231749049350618,1.0790106033571063
1789481557932566500,5.43356640625,1.9018448439478872,0.41303514995127916,-0.5829345108972862
1789481557942536700,5.44353662109375,1.0340835202634333,0.5684674114644527,-1.4022173060841858
1789481557952507400,5.45350732421875,2.500609193998575,-2.6915777560561893,-1.3710660887561739
1789481557962477600,5.4634775390625,-1.7649644304305314,0.7083677573248743,-1.0450837838359177
1789481557972448500,5.473448486328125,-2.21100139401257,1.587877386470139,-0.8031290578413754
1789481557982418400,5.48341845703125,-0.057844286203384394,0.41907033846229313,-0.7149971123367548
1789481557992389600,5.4933896484375,-1.1079080504089593,6.5335296623289585,-1.2550535450920461
1789481558002359600,5.503359619140625,1.4084107538968325,0.8917927721351384,-1.529571620234847
1789481558012330500,5.51333056640625,0.4563227952748537,-2.0962042174875735,0.05023172884043306
1789481558022300700,5.52330078125,-0.7281231358915567,-0.6645166328996419,0.5011750960992649
1789481558032271600,5.533271728515625,0.9177636642158031,-2.0019541544288395,1.166678146220371
1789481558042242600,5.54324267578125,1.9884259798139332,-2.729990488819778,0.1358320004429668
1789481558052212700,5.553212646484375,0.5106494287461042,0.04724807338714599,-0.5062265708025545
1789481558062183700,5.56318359375,0.0947223567456007,0.3908414383217692,0.06377592300837859
1789481558072153600,5.573153564453125,-0.2849386391311884,1.0697104217007756,0.17346969371344892
1789481558082124800,5.583124755859375,-0.6072755732864141,0.24559505525827408,0.11407205885453149
1789481558092094700,5.5930947265625,-1.9543185430288315,1.4356529810875653,-0.02205223906589672
1789481558102066000,5.60306591796875,-1.7692285176157951,-0.11586100636422633,-0.16283612629519775
1789481558112035800,5.613035888671875,-0.28010698119103905,-0.3573699613526463,-0.08104868184593506
1789481558122006800,5.6230068359375,-0.42261634050607677,-0.5126859030097722,-0.51636776986029
1789481558131977000,5.63297705078125,-0.7645978863298892,-0.10331804339438676,0.18506430644989014
1789481558141947600,5.64294775390625,0.059167059239745134,-0.37094548224061724,0.8982888561561703
1789481558151918800,5.6529189453125,1.9400398423075675,-2.1290674994304775,0.967566317456588
1789481558161888800,5.662888671875,2.5673586711913345,-1.1126859323352574,0.7748415593814104
1789481558171859700,5.672859619140625,1.088189788982272,0.913856719905138,0.5677029298979789
1789481558181830000,5.682829833984375,-1.5408692593187092,2.986204845508933,1.043896912138909
1789481558191800800,5.69280078125,-1.9019342757970095,1.7384303515091537,0.9309634836591779
1789481558201770800,5.702770751953125,0.09083470165729522,-1.1242565431416034,1.0933296360887585
1789481558211742000,5.712741943359375,-0.1683481494486332,0.6668947602078318,0.8171039533104747
1789481558221712000,5.7227119140625,0.13372516435682774,1.156413722641766,0.6632365299612283
1789481558231682800,5.732682861328125,0.6258095933645963,0.49503772585541006,0.19008491109088063
1789481558241653000,5.742653076171875,0.6213911924004555,0.4384858175501227,0.8935374969106167
1789481558251624000,5.7526240234375,0.8342921848028898,-0.11424947951436042,0.734269675822556
1789481558261593900,5.76259375,1.2794716547727585,0.05046791221648454,1.5159256644591688
1789481558271565000,5.77256494140625,0.5048527251660824,1.1031415666595101,2.0476443308494985
1789481558281535700,5.78253564453125,0.7374830849111079,0.7392068399637937,1.5083311176769434
1789481558291506000,5.792505859375,-0.24689152480959892,-0.028845278473198413,-0.29068238868126645
1789481558301476900,5.802476806640625,-0.5250543861955403,-1.2648138916060327,0.5863602840948849
1789481558311446800,5.81244677734375,-1.0369365716069936,-0.48774113910645245,0.428293947751075
1789481558321417700,5.822417724609375,-0.21450842759907243,0.18354484179764985,-0.5639253841206431
1789481558331387600,5.8323876953125,1.7010662510156631,-1.698970447780192,0.4015806398052722
1789481558341358800,5.84235888671875,0.4278805446445942,-0.8149383727744222,0.3706771136280149
1789481558351328800,5.852328857421875,0.08239595913589,-0.673772537022829,-0.2511935876513831
1789481558361299700,5.8622998046875,-0.9292471812605857,0.38729602079987524,-0.9602355361770838
1789481558371270000,5.872269775390625,-1.3624416144043205,1.0191720745965838,-0.9181929955437779
1789481558381240800,5.88224072265625,-0.12369126159846781,0.13278408411443232,-0.21189537729015573
1789481558391210800,5.892210693359375,0.49485798537433145,-0.6456970738783478,0.5351787437163293
1789481558401182000,5.902181884765625,-0.676806790152192,0.490957178543508,0.289339632302802
1789481558411152000,5.91215185546875,-0.6727385177999734,0.6134735511437058,0.7555859470304102
1789481558421122800,5.922122802734375,0.33116847538650035,0.6189473063796759,0.4621354270763695
1789481558431092700,5.9320927734375,0.9467232167184352,0.3775277832403779,-0.6908036051921546
1789481558441064000,5.94206396484375,0.9108516928702592,0.1552481371179223,1.268836278989911
1789481558451033900,5.952033935546875,-1.0679869589090347,1.6256851390779017,-0.23010566357299683
1789481558461004800,5.9620048828125,-1.8110218327283858,1.6195549657598136,0.16437944674706084
1789481558470975000,5.97197509765625,-1.1974591419965028,1.3613155329838393,-1.2284968159474432
1789481558480946000,5.98194580078125,-0.09846505040526389,-0.3205900904878974,-0.7453719384647906
1789481558490916900,5.991916748046875,1.0235966130405665,-0.31322891407012937,-0.2706725238968618
1789481558500887000,6.001886962890625,1.0369903476208449,0.3857584359690547,0.017041699161194263
1789481558510857700,6.011857666015625,-0.061332128319144245,0.26848639376312494,0.07125130039034411
1789481558520827600,6.02182763671875,-0.950285877636075,0.5568789727404714,-0.3817930394694209
1789481558530798800,6.031798828125,-0.20262275949418543,-0.755663176985085,-0.09548999838354065
1789481558540768800,6.041768798828125,0.08321370525956154,-0.8346314997598528,-0.557362299278006
1789481558550739700,6.05173974609375,0.7431424258470535,-1.4519757548570633,-0.2676032725193538
1789481558560710000,6.0617099609375,1.9722545972138643,-1.4018340058550238,-1.3499182329177855
1789481558570680800,6.071680908203125,2.883020949888229,-2.571753691279888,-0.197840621517878
1789481558580650800,6.081650634765625,0.7414543266296386,-0.4185173807546496,0.537968520565331
1789481558590622000,6.0916220703125,-1.0430144302159547,0.38943361735045906,-0.24038681909069418
1789481558600593000,6.101593017578125,-1.0000245987951755,-0.5804676458597183,-0.49307168647944927
1789481558610562800,6.111562744140625,-1.6290841338664293,-0.5235808065116405,0.04251653308691457
1789481558620534000,6.121533935546875,-1.6500959422349928,0.33227906697690485,-0.4562301850879565
1789481558630504000,6.13150390625,1.0494079306453465,-1.7740780034735797,0.08463301573926582
1789481558640475000,6.141474853515625,1.6668828263849018,-0.9496978486150502,-0.48931540268585083
1789481558650444800,6.15144482421875,0.7027104622155428,0.03731500065475702,-0.6364819401569665
1789481558660416000,6.161416015625,-0.21934067006111144,1.1123524625971912,-0.09335937956301495
1789481558670386000,6.171385986328125,-0.4211176263809204,0.9483230531305075,0.4097654075656086
1789481558680356900,6.18135693359375,0.2918704842209816,0.022837562490999698,0.7604736460067332
1789481558690327000,6.1913271484375,-0.21589374447762966,1.28136170630306,0.9757952896848321
1789481558700297700,6.201297607421875,-0.9542670562267302,1.383271344204247,-0.04187211596984416
1789481558710268000,6.211267822265625,-2.7014322105944153,2.466852470347285,1.2146695853207259
1789481558720238800,6.22123876953125,-0.8186345969438552,0.2389578092008829,0.06433790427269413
1789481558730209800,6.231209716796875,0.6396873120695352,-1.0040022702544926,1.451847160041332
1789481558740179700,6.2411796875,0.7793944734454155,0.09321516705304383,0.5342499384336173
1789481558750151000,6.25115087890625,1.3000912489533423,0.18051994101852178,1.203646890720725
1789481558760120800,6.261120849609375,0.8762766385734081,0.5917927574723959,0.7535347135890275
1789481558770091800,6.271091796875,0.19702888500988483,-0.21246143194139003,0.10107302268026395
1789481558780062000,6.28106201171875,-0.6369482424944639,0.05524024118483066,0.9880119433097541
1789481558790033000,6.291032958984375,-0.47156069641709325,0.25086948852986096,0.7241782707232981
1789481558800002800,6.3010029296875,-0.05892272908985614,-0.4887129067480564,0.3185940212998539
1789481558809974000,6.31097412109375,-1.1846060901641846,-0.9373945396199822,0.8413361850302666
1789481558819944000,6.32094384765625,-0.6112023913413286,-1.3112290213003754,0.9645580755513161
1789481558829915000,6.330914794921875,-0.4552466904759407,-0.34152503422796726,1.0056154776047914
1789481558839885800,6.3408857421875,1.4417062897771595,-0.9440577969014644,1.084614122452587
1789481558849856000,6.35085595703125,1.533456352713704,-0.31916268803328274,1.0746147064857183
1789481558859826700,6.36082666015625,1.5703993051856755,-0.3845017139062285,0.6845650030635297
1789481558869796900,6.370796875,0.35653906348645686,-0.21697686353921888,1.1166530093353242
1789481558879767800,6.380767822265625,-0.7750058830976486,1.3761422229766844,-0.05443935486441478
1789481558889737700,6.39073779296875,-0.6751654526859522,0.7800082214295864,-0.45500959378443656
1789481558899708700,6.400708740234375,-0.12351181337833404,0.12200988438278436,-0.45420894492603836
1789481558909678800,6.410678955078125,-1.4399381110608578,1.3739488045856356,-0.08950124283013865
1789481558919649800,6.42064990234375,-1.8428578174501657,0.805779499284923,-0.8432273325391113
1789481558929619700,6.43061962890625,-1.6636252858936786,1.5368477487176655,-0.3280504164312035
1789481558939591000,6.4405908203125,0.7297966220617293,-0.16834522683918476,-1.5708783208742736
1789481558949560800,6.450560791015625,1.0775479834586381,0.2534153736203909,0.401869612814486
1789481558959531800,6.46053173828125,1.5846990486949681,-0.5845552074342966,0.9531783111419528
1789481558969503000,6.4705029296875,1.4846458523154258,-0.5155442150503396,0.0770363317988813
1789481558979473000,6.480472900390625,0.48210488678514957,0.6478168425112962,0.8136550549656152
1789481558989443800,6.49044384765625,-0.5306517678111792,0.49550212849676606,0.10858741689836605
1789481558999414000,6.5004140625,-1.7038111658096313,0.543458934675157,0.15349656247654928
1789481559009385000,6.510385009765625,-1.4180845911711453,-0.5428887335717678,-0.17708203899171202
1789481559019355000,6.52035498046875,-2.2102403465121983,1.1294479743048549,-0.3831486187968403
1789481559029326000,6.530326171875,-0.23402327540814874,-1.265100307331979,0.026973621116112918
1789481559039296000,6.5402958984375,0.7990496065080165,-0.9620032034367323,-0.8174987247817218
1789481559049266700,6.5502666015625,1.4956670125454663,-0.5876134259611367,-0.7037021036013961
1789481559059236900,6.56023681640625,2.340002452456951,-1.1150468162477016,-0.04515696459310129
1789481559069207800,6.570207763671875,2.0689865402162075,-0.5904854742661119,0.7293313426375388
1789481559079178000,6.580177978515625,0.35065818875432014,0.7909723907753825,0.877690962350741
1789481559089148700,6.590148681640625,-0.46682490006685257,0.76970660764575,0.8598262929014862
1789481559099118800,6.600118896484375,-1.213909926059842,0.4111167491093278,0.943140974317491
1789481559109089800,6.61008984375,-1.3109738774955273,-0.49613399665951724,0.9898086174681782
1789481559119059700,6.620059814453125,-1.4509271225869655,0.16473755773603915,0.8916175616987049
1789481559129031000,6.630031005859375,-1.1767325803101063,0.8642454245179891,0.03165200645700097
1789481559139001900,6.640001953125,1.1001169581413268,-0.22585838139206169,-0.09126054412024096
1789481559148971800,6.6499716796875,2.3738749114423987,-1.1586980341866613,-0.42808717313259836
1789481559158943000,6.65994287109375,1.2246142754256724,0.40968525500148534,1.7584920195460318
1789481559168913000,6.669912841796875,0.3243430132806301,1.292049981316924,0.5907015647022054
1789481559178883800,6.6798837890625,0.47634793069362635,1.3933303814038633,0.8499491150747984
1789481559188853800,6.689853759765625,1.0665683242827653,-0.08269114269018173,-0.6582218436043709
1789481559198825000,6.699824951171875,-0.11773498354256152,0.2691179696649313,-0.9349512381210923
1789481559208795000,6.709794921875,-1.2588017917096614,0.788966603910923,1.2598866643369198
1789481559218765800,6.719765869140625,-1.2704191642671823,-0.06941606605350971,0.15118225765218957
1789481559228736000,6.729736083984375,-1.8159908533126115,0.9100549895346164,0.7188781184885651
1789481559238707000,6.73970703125,-0.4271873016834259,-0.07534019540548324,-1.2230362855192274
1789481559248676900,6.7496767578125,0.7176093406617641,-1.342153444135189,-0.3498027409687638
1789481559258647800,6.759647705078125,0.41020635626614094,-0.004597849184274673,0.4881403675571084
1789481559268618000,6.769617919921875,-0.1337882927209139,0.5000877027213573,-0.17339418079182506
1789481559278588700,6.779588623046875,-0.08788988037705421,-0.32217034541666506,-0.6932282019905746
1789481559288558800,6.789558837890625,-0.3079524349719286,-0.7215194998428225,-0.6853655057914555
1789481559298529800,6.79952978515625,-0.07483926014602184,-0.6938038099214434,-0.5710031039545312
1789481559308499700,6.809499755859375,0.21070494366288184,0.10012626161575316,0.08817425027638673
1789481559318471000,6.819470947265625,-0.5303203438997268,0.19532120430916547,-0.5063260856542736
1789481559328440800,6.82944091796875,-0.4111053509324789,0.05532675042450428,-0.440083608135581
1789481559338411800,6.839411865234375,-1.469952725574374,1.2065201080694794,-0.021371216265484688
1789481559348381700,6.849381591796875,0.34134909313917156,-0.10463058729767799,0.5484539299508556
1789481559358353000,6.859352783203125,1.24763274744153,0.027194296395778656,0.9215854144610464
1789481559368323800,6.86932373046875,1.8749083217054605,-0.17353402765393255,1.290655019827187
1789481559378293800,6.879293701171875,1.846165626823902,-0.1840986762881279,1.1011601105187088
1789481559388265000,6.889264892578125,1.2964338954895733,1.0809136604994536,0.9906729792125523
1789481559398235000,6.89923486328125,0.15245558378994464,1.2576496990650892,0.8975017974317073
1789481559408205800,6.909205810546875,-0.33723113642632957,0.9991513230919837,0.22955643219240007
1789481559418176000,6.919176025390625,-0.5006330616444349,0.33093729697912927,1.1107726460598408
1789481559428147000,6.92914697265625,-1.2850555923849343,0.6432438355073332,-0.2750067902415059
1789481559438116900,6.939116943359375,-0.6603203502535819,0.2186559026673436,-0.06332125630974769
1789481559448087800,6.949087890625,-0.476328056949377,-0.20098668272495268,0.24093519195476545
1789481559458058000,6.95905810546875,-0.34802433311939235,0.30164602830410003,-0.8625883049607277
1789481559468028700,6.969028564453125,-0.5438011722415685,-0.1208881868764758,0.2980123845094815
1789481559477998800,6.978998779296875,0.1062245784908533,-0.26287118422985073,0.5337354130402207
1789481559487969800,6.9889697265625,-0.047800446572899814,-0.3300713277995586,1.212865385442972
1789481559497939700,6.998939697265625,0.8589888191640377,-1.0491545404061675,1.6310061879701911
1789481559507911000,7.008910888671875,0.6861036108076572,-0.8152294646754861,1.103208494415879
1789481559517880800,7.018880859375,0.8059457957625389,-1.4969316256538032,0.8282209020651876
1789481559527851800,7.028851806640625,0.509008675801754,-1.1427946548730135,1.8446387095175683
1789481559537821700,7.03882177734375,-0.12778934456706045,-0.9628183192119002,1.0942476277165114
1789481559547793000,7.04879296875,0.2028027922362089,-0.2041393015369773,0.9929195890955627
1789481559557762800,7.0587626953125,0.18188392284810542,-0.9629220718473196,0.5416822803914547
1789481559567733800,7.068733642578125,0.311407543861866,-0.5025374339610338,0.4204861600769684
1789481559577704000,7.078703857421875,0.7871814740598201,-0.2461442135736346,0.3175805699409917
1789481559587675000,7.0886748046875,1.090664654663205,0.03590221124738455,1.3717226529687643
1789481559597644800,7.098644775390625,1.8158002991765736,-0.17640782952457665,0.12857910670526326
1789481559607616000,7.108615966796875,0.6014695173561573,0.49706747811734675,0.46476811366751786
1789481559617586000,7.1185859375,-0.6198199975609779,0.2727031346753239,1.0681121927239001
1789481559627556900,7.128556884765625,-0.8162421488493681,0.2932140077844262,1.4623618320539593
1789481559637526800,7.13852685546875,-2.2080524810791013,1.3606611607283352,1.3817863663434982
1789481559647498000,7.148498046875,-0.0341027606099844,-0.12225129192322493,1.4169829135395586
1789481559657468000,7.158468017578125,-0.10099076949059962,0.39308746368288994,0.1997636437360197
1789481559667438800,7.16843896484375,0.226987969943881,0.09547142154723405,0.6995261330910026
1789481559677409000,7.178408935546875,-1.2309200975716112,0.9951084774419665,0.7756635432887822
1789481559687379700,7.188379638671875,-1.2584808891922235,0.9855515445455908,0.8473670626923442
1789481559697350000,7.198349853515625,0.18894494727551936,-0.6452867395117878,0.8960708878457546
1789481559707320800,7.20832080078125,0.2725906142115593,0.037243396723270414,0.9397940019771456
1789481559717290800,7.218290771484375,0.6460954255461693,0.3431602342143655,1.717181811775267
1789481559727261700,7.22826171875,-0.017044658303260803,0.32704233536720273,1.313777975130826
1789481559737232000,7.23823193359375,-1.9404484231084584,1.6091116054177284,1.885907270103693
1789481559747202800,7.248202880859375,-1.0914923376590013,-0.35045448287576436,-0.03047835956774652
1789481559757172700,7.2581728515625,-0.8514578391373157,-0.9735580321520566,0.4409298497013747
1789481559767144000,7.26814404296875,-0.34945816531479357,-0.7987564687803387,0.4648142178315669
1789481559777113900,7.27811376953125,0.41822541207075115,-1.017653486727178,1.3454356806762515
1789481559787084800,7.288084716796875,1.4171113622248173,-0.4904156190127134,0.8092113734297454
1789481559797054700,7.2980546875,0.4625672426223755,0.3543155422180891,0.9335774655498563
1789481559807026000,7.30802587890625,0.016799743631482122,0.5261585480451584,0.4527284971099347
1789481559816995800,7.317995849609375,0.09834346985220908,0.265192612914741,1.0899321756701916
1789481559826966800,7.327966796875,0.16084288838505745,0.0096051559522748,0.8506406775355339
1789481559836937000,7.33793701171875,0.2989402764767408,-0.486318997348845,0.03764510939195752
1789481559846908000,7.347907958984375,-1.5140677616328,0.7118070841237902,-0.018882541254907844
1789481559856877800,7.3578779296875,-1.8498446075975894,0.947484556479752,-1.1840896650746464
1789481559866849000,7.36784912109375,-1.5417846205979584,0.9474787112608551,-0.027244784474000333
1789481559876819000,7.37781884765625,-0.6185954242020845,0.22592092523425816,-0.12134002229720353
1789481559886790000,7.387789794921875,1.1752923183739186,-0.5230599975079298,0.6651033467464149
1789481559896759800,7.397759765625,2.868877273723483,-0.1296481241762638,-0.14784494818933308
1789481559906731000,7.40773095703125,0.9840092835396528,1.2419202150136233,0.9704264561280608
1789481559916701000,7.417700927734375,-0.8564157538056373,0.9836872119784354,0.8251162140481173
1789481559926671600,7.427671630859375,-1.7916724046140908,0.35898704116046426,0.10594926868081092
1789481559936642000,7.43764208984375,-1.5080869336575269,0.1390878604337573,0.49314657834656533
1789481559946612700,7.44761279296875,-0.8941910654485226,-0.0018622867405414581,0.30191549289524555
1789481559956583000,7.4575830078125,0.45891748794317244,-0.20479396605342626,1.1877786557856946
1789481559966553900,7.467553955078125,1.569647025513649,-0.5851584340244531,0.04122727872766554
1789481559976523800,7.477523681640625,1.6257476829200983,-0.8205506596982478,-0.5608645352452993
1789481559986494700,7.48749462890625,0.40306992851495743,0.006441138963401317,-0.04642696626260876
1789481559996465000,7.49746484375,-0.3078466365098953,0.42766748641580343,-0.6597586247175932
1789481560006435800,7.507435791015625,-1.021478890234232,0.8030947902455925,-0.8390846797764301
1789481560016405800,7.51740576171875,-1.156721473416686,-0.33389263965338467,-0.21847214359827338
1789481560026377000,7.527376953125,1.108240643364191,-1.8330360961377619,1.219901056233421
1789481560036347000,7.537346923828125,0.7725316019386053,0.0683709409147501,0.4105370495252311
1789481560046317800,7.54731787109375,0.862451526838541,-0.8264826800957321,0.7922848616134375
1789481560056287700,7.557287841796875,-0.5929308215916156,0.6207102243989706,0.78996511342898
1789481560066259000,7.567259033203125,-0.5736854383736848,-0.35377193686068054,0.41146833902597424
1789481560076228900,7.577228759765625,-0.2297521739602089,-0.48408641599118707,0.653930649216473
1789481560086199800,7.58719970703125,-0.7347200499385594,1.1345508504018187,0.7927337013594806
1789481560096169200,7.597169189453125,-0.17721651555895804,0.48488633419722316,0.8120853944960981
1789481560106140400,7.607140380859375,0.7097656414240598,0.48447775339633226,-0.04502659794539213
1789481560116110300,7.6171103515625,0.0961252092808485,1.1566086606919765,0.785848837216571
1789481560126081500,7.62708154296875,0.48959728836715216,-0.2768167074739933,1.1182985115200281
1789481560136051500,7.637051513671875,-1.576435662740469,1.607191451010108,2.363315523505211
1789481560146022400,7.6470224609375,-1.1464642832964658,0.897368234179914,1.0293791419647633
1789481560155992300,7.656992431640625,0.2162707610964775,-0.43750265173166986,1.2648141838669775
1789481560165963500,7.666963623046875,-1.0366437261402606,1.2878832170262933,1.7284066778838634
1789481560175933400,7.676933349609375,0.5742810661792754,-0.8602999017626046,0.7122643994372337
1789481560185904400,7.686904296875,1.4259791438132523,-1.0952139885306358,1.1792327265627682
1789481560195874600,7.69687451171875,0.7463789235502482,0.595031885524094,0.6930303413309157
1789481560205844500,7.706844482421875,0.4299111736893654,-0.1146145134344697,-0.024001272508129477
1789481560215815400,7.7168154296875,0.49867432879209517,-1.0701298161566257,0.7349713212858885
1789481560225785300,7.726785400390625,-0.8507154963374137,0.08034925573915243,0.8442720192864537
1789481560235756300,7.73675634765625,-0.5921154135555029,-0.43892420896738765,0.03268127643950283
1789481560245726500,7.7467265625,-0.9148685272961854,-0.7606921110630035,0.41973567050322885
1789481560255697200,7.756697265625,-1.6358762782245873,0.017314122894406318,0.12106931559704244
1789481560265667300,7.766667236328125,-0.8775286844611168,-0.8536240772604942,-0.023623817497864363
1789481560275638300,7.77663818359375,0.11738660849630832,-0.8663897430703044,0.4266264529302716
1789481560285608200,7.786608154296875,2.26803377931118,-1.7719237480491399,0.8166557711515575
1789481560295579400,7.796579345703125,0.6539297724336385,0.9311556452304124,1.361803024239838
1789481560305549300,7.80654931640625,-0.28329204096794125,1.0834800038561225,0.9844634570479392
1789481560315520300,7.816520263671875,0.8666799581885337,-0.8995806495323777,1.1829065197046846
1789481560325490200,7.826490234375,0.39155367824435233,-0.3040776393651962,0.46490664535537357
1789481560335461400,7.83646142578125,-0.8540718210279941,0.7114753679513931,1.297725104343891
1789481560345431300,7.846431396484375,-1.5144991387873887,2.2966101777151224,2.329924126034975
1789481560355402500,7.856402587890625,-0.7447843478351831,0.5557815328925848,1.4225664127603173
1789481560365372400,7.866372314453125,0.7853402301073074,-0.61236529764086,-0.037738779024779796
1789481560375343400,7.87634326171875,2.1170231336325407,-1.2248638662725686,-0.65695306577757
1789481560385313300,7.886313232421875,1.226554888099432,1.0545780267596243,0.5291123563494533
1789481560395284500,7.896284423828125,-0.09036006988286971,1.5780124105378985,-0.37173290629126127
1789481560405254400,7.90625439453125,1.3175626082360743,-0.07122808391153812,-1.0416703221306205
1789481560415224300,7.916224365234375,1.4482716396421194,-0.6293807298496366,-0.47081667311675846
1789481560425195500,7.926195556640625,-1.4733563965380192,0.2273813531756401,0.954863414684683
1789481560435165400,7.93616552734375,-2.455042205566168,2.0370722295612094,1.5926372943483291
1789481560445136400,7.946136474609375,-0.9904331791073083,0.14334201074689626,0.9741832513783126
1789481560455106300,7.956106201171875,1.1155062504529953,-2.119347777187824,2.1337319841101765
1789481560465077500,7.966077392578125,1.2381529714345931,-1.7828885019168257,1.2469289830863475
1789481560475047400,7.97604736328125,-0.6975210768789053,0.31740473845005035,1.9173434418529272
1789481560485018400,7.986018310546875,-1.882828008788824,1.3205495150923727,2.301818560013175
1789481560494988500,7.995988525390625,-1.9236954412281513,-0.3847197405710816,1.2190684778667986
1789481560504959200,8.005959228515625,0.4195253887534141,-1.160917756062746,2.3849743976056574
1789481560514929400,8.015929443359376,0.8766688527613877,-1.138366317036748,-0.012318287368491292
1789481560524900400,8.025900390625,0.3731272101938724,0.3155398213610053,0.7899922206316142
1789481560534870300,8.035870361328126,0.1935305215001106,0.3066375529810786,1.7741572061896322
1789481560544841200,8.04584130859375,-1.3009656937003136,0.4434264888226986,0.5707234467629343
1789481560554811100,8.05581103515625,-0.5862877303153277,-0.2086477188721299,0.026200170791894194
1789481560564782300,8.0657822265625,-0.6932803705692291,0.000393090970814228,1.665545440301299
1789481560574752300,8.075752197265626,-1.2846008343547581,1.165630756059289,1.085096279946342
1789481560584723200,8.08572314453125,-1.197749649375677,0.39971448060721154,-0.4239868251416832
1789481560594693400,8.095693359375,1.1945499765515326,-0.7726818240642547,0.7172389729794114
1789481560604663300,8.105663330078125,3.1957991975814104,-0.6876689604282379,1.0942686705045401
1789481560614634200,8.11563427734375,2.0192630166262386,-0.5497893067404628,-0.27437450195364654
1789481560624604400,8.1256044921875,-1.2153338213831186,2.3374375704050063,0.5922231847789138
1789481560634575400,8.135575439453126,-2.4946704515993594,2.931994239632785,1.3418579683199523
1789481560644545300,8.145545166015625,-0.4033189348399639,-0.18933160850554703,0.8222104826692491
1789481560654516500,8.1555166015625,0.693133071053028,-0.9252049201324581,0.6721886288322508
1789481560664486400,8.165486328125,-0.13447218333184718,0.8320940902367234,-0.6558459082532674
1789481560674457300,8.175457275390626,-2.0869944905936717,2.456031216603517,-0.10356120450049638
1789481560684427300,8.18542724609375,-1.8897686217069625,1.2976777580708265,0.14381978432647882
1789481560694398500,8.1953984375,0.12730945209562777,-0.5334390604421496,1.437354816569388
1789481560704368400,8.205368408203125,1.2789637052506209,-1.342261580684781,0.9287081059478223
1789481560714339300,8.21533935546875,1.6942027949869631,-0.521867865113914,0.46141690354347226
1789481560724309500,8.2253095703125,0.5609785170137882,0.36864597312659025,1.6630340420022607
1789481560734279400,8.235279541015625,-0.5729769978433847,0.8521499130547047,0.8779854883179068
1789481560744250400,8.24525048828125,-1.375304018586874,-0.45486645898669953,-0.7236432870637625
1789481560754220300,8.25522021484375,-1.602260424348712,-0.22286679836064577,0.2994294482331723
1789481560764191500,8.26519140625,-0.33359950192570687,0.843711755055189,0.1018668947380036
1789481560774161400,8.275161376953125,0.8496510819762945,-0.30130174491107464,-1.474742297938466
1789481560784132400,8.28513232421875,0.6474450865894555,-1.0857497023537754,-2.13636496296227
1789481560794102500,8.2951025390625,-0.3700590547949075,-0.26587474996000526,-1.0786270108669995
1789481560804073200,8.3050732421875,-0.02977905219197273,0.6756874307334423,-0.09917765565402806
1789481560814043400,8.31504345703125,0.43747137981057166,0.5739502267897129,-1.460032073932141
1789481560824014300,8.325014404296875,-0.30112288121283054,0.09513415241688489,-0.8177691392209381
1789481560833984300,8.334984375,0.09228840759694576,-0.6158204065307974,0.8152329718068242
1789481560843954400,8.344954345703124,-0.03508066573143005,0.2501075642466545,1.7895991054713725
1789481560853925400,8.35492529296875,1.3399071265131235,-0.15674188280701637,0.9633743456594646
1789481560863895300,8.364895263671874,-1.5946382589071988,1.9835762016952037,0.8069926014017313
1789481560873866200,8.3748662109375,-1.942110803362727,1.0736977377712726,0.4247758566275239
1789481560883836200,8.384836181640624,-2.6717653866052626,0.4458452404022217,1.1547824681781231
1789481560893807400,8.394807373046875,1.814469927355647,-0.5031646259486675,2.1283269101962445
1789481560903777300,8.40477734375,4.723545940476655,-2.32222100431174,0.19360760532431304
1789481560913748200,8.414748291015625,2.354164833322167,-0.027700200091302394,-1.751785215383768
1789481560923718400,8.424718505859374,-3.204529616525769,2.8314848239183426,-1.4652815188929438
1789481560933689300,8.434689453125,-3.876628667378425,1.1523849055171012,-0.7485865165971219
1789481560943659300,8.4446591796875,-0.28702538227736946,-0.8173281905204057,0.6624280631225555
1789481560953629200,8.454629150390625,2.4336674091041086,-2.009742908608913,-0.6045014323979616
1789481560963600400,8.464600341796874,2.7546348084717986,-0.6443731317982078,-0.6311233357332646
1789481560973570300,8.4745703125,1.2881921368449925,-0.3510664772942662,1.2459595535323023
1789481560983541200,8.484541259765624,-0.9674024321317672,0.8615575006082653,0.543614198302105
1789481560993511400,8.494511474609375,-1.318795949423313,-0.3463420791208744,-0.5829352050170302
1789481561003482400,8.504482421875,-2.435248540815711,1.0904232471227646,1.2625818947702645
1789481561013452300,8.514452392578125,0.24326982718110082,-0.16429478240460157,0.8646813317172228
1789481561023423500,8.524423583984374,1.554642933127284,-1.7892390399873255,1.3989657569423317
1789481561033393400,8.534393310546875,-0.735125708130002,0.19483663566261528,1.256178457468748
1789481561043364400,8.5443642578125,-0.9540162963360548,0.7686720039010048,0.9679686877124011
1789481561053334300,8.554334228515625,0.5891904660195112,-1.197270049165189,-0.8632515911750495
1789481561063304400,8.564304443359376,1.1079092194527387,-1.1862117717951535,-0.8321113336324691
1789481561073275400,8.574275390625,0.5893962177246809,-0.8406585049644112,0.37195677817501127
1789481561083245300,8.584245361328126,-0.5008253693461417,-0.33768034149855375,1.1149573113333433
1789481561093216500,8.594216552734375,-1.6671908694207667,1.0717007187351584,1.3649177952595055
1789481561103186400,8.6041865234375,-1.848506052470207,1.500242357636988,0.9141172705374657
1789481561113157400,8.614157470703125,0.8658896845936774,-0.7466860898032784,1.0573517292566597
1789481561123127600,8.62412744140625,0.33298516941964623,0.6491521827682852,1.2011470367290078
1789481561133098200,8.63409814453125,0.20797113478481769,0.11988485505282878,1.586958956450969
1789481561143068400,8.644068359375,-0.33217619112432,-0.09229688316434621,1.0111953966289757
1789481561153038300,8.654038330078125,-1.8409364939987658,1.4387085692659018,0.7606665382303297
1789481561163009300,8.66400927734375,-1.8953285939216613,1.407324127703905,0.8029106658503413
1789481561172979500,8.6739794921875,0.16260463736057282,-0.010488076266646384,0.46489944842960684
1789481561182950100,8.6839501953125,1.5202105021715164,-0.7968491738542914,0.8853647849142551
1789481561192920300,8.69392041015625,1.384089967110753,-0.32942017041444777,-0.38984124830327926
1789481561202891300,8.703891357421876,0.2704448343545198,0.10219868397563696,0.21690314071588218
1789481561212861200,8.713861083984375,0.5451221917122602,-0.008814882357418537,0.9593486703399569
1789481561222832400,8.723832275390626,0.06270750832557678,0.14131342752873896,1.291646222821623
1789481561232802300,8.73380224609375,-0.6110960083574056,-0.06294979264885187,1.857459758776426
1789481561242772200,8.743772216796875,-1.7813012327253817,1.178784544403851,2.336930789926648
1789481561252743200,8.7537431640625,-1.1518342858970165,0.6267489200413227,1.815870441803336
1789481561262713300,8.76371337890625,-0.004614800319075584,-0.5624173176452517,1.8180977624639867
1789481561272684300,8.773684326171875,1.0627315225988625,-0.2316615147128701,2.589252523091435
1789481561282654200,8.783654296875,1.1955652910739183,0.0601511018410325,1.6630866489723324
1789481561292625400,8.79362548828125,0.5964747778087854,0.9544994036778807,1.878099372831732
1789481561302595300,8.80359521484375,-1.1360486877441405,1.588615637616813,1.4525209676496684
1789481561312565200,8.813565185546874,-1.1596826613098383,0.42046529995203014,0.958114963826537
1789481561322536400,8.823536376953125,-0.2295107664197683,0.34031916556954384,1.0381509888980538
1789481561332506400,8.83350634765625,-0.1992828014165163,0.9394584864124655,0.21742190389297902
1789481561342477300,8.843477294921875,-0.1329109253644943,0.1199801321208477,-0.1951790924247354
1789481561352447200,8.853447265625,-1.0635451770693063,0.6420251073673368,0.3295657163649797
1789481561362418400,8.86341845703125,-1.4321487723588944,0.9040689008623362,0.6527859361607581
1789481561372388400,8.873388427734374,-0.46255613670647144,-0.3750280753791332,-0.37411885157972574
1789481561382359300,8.883359375,-0.7874871790081263,0.3646270928740501,-0.033271497417613864
1789481561392329500,8.89332958984375,-0.32976328476369376,-0.6292237857222557,-0.09593092881776392
1789481561402299400,8.90329931640625,-0.7308464233756065,-0.03455518055260181,0.23945443361140786
1789481561412270300,8.913270263671874,0.11652969940602778,-0.06344225234091282,1.2670084790408611
1789481561422240300,8.923240234375,0.9857850610405207,-1.1121914268165827,-0.049741570703312754
1789481561432211500,8.93321142578125,2.802368619549274,-2.30262023178488,-0.2255404745493084
1789481561442181400,8.943181396484375,0.896857069787383,-0.549602259735763,0.8767053853794932
1789481561452152300,8.95315234375,-1.7117904741257428,1.1673384367600084,0.053264922523871064
1789481561462122500,8.96312255859375,-1.1224889489471912,-0.9644912208601831,0.12254333367235958
1789481561472092400,8.973092529296874,-1.6257663876205681,0.1719599102050066,-0.4437041367202997
1789481561482063400,8.9830634765625,-1.3238099781930446,-0.1583718220964074,-1.3194643502041696
1789481561492033300,8.993033203125,-2.147649158042669,1.6548320308461784,-1.255963937935233
1789481561502004500,9.00300439453125,-0.5053343712031841,-0.20096125602275133,-0.6247896757323295
1789481561511974400,9.012974365234374,1.2911112391620874,-1.418381528291106,-0.10392419259399176
1789481561521945300,9.0229453125,2.6069951005309817,-1.6783663434296845,1.059957673971355
1789481561531915500,9.03291552734375,1.0193833792597056,-0.1416734930127859,-0.07845701225176453
1789481561541885400,9.042885498046875,-0.35056583429574967,0.7156205049321055,0.5480521076843142
1789481561551856400,9.0528564453125,-0.533555672559142,0.23691665876209733,-0.46803493344374
1789481561561826600,9.06282666015625,-0.2310673482120037,-0.8572960437715053,0.08845255576111376
1789481561571797200,9.07279736328125,0.31639819175601,-0.6389420466601848,0.6056716452211142
1789481561581767400,9.082767333984375,-0.7503039880394935,0.7313543728977442,0.05607997994460165
1789481561591738400,9.09273828125,0.7689788778930902,0.3921984058886766,-1.800275105525553
1789481561601708300,9.102708251953125,1.8213789760917425,0.19090017299652098,-1.3399781459227202
1789481561611678500,9.112678466796876,2.1616326752096415,-0.8950973666384816,-0.3749608188292011
1789481561621649200,9.122649169921875,-0.2797966000676155,1.509453838096559,0.20602347131576387
1789481561631619300,9.132619384765626,-1.4782880077213048,2.651191385132074,-0.8799878411162644
1789481561641590300,9.14259033203125,-1.0053770657390355,1.3036936573594808,0.43958647226840253
1789481561651560200,9.152560302734376,-0.2526473118573427,0.5919032321095467,0.7188933891229331
1789481561661531400,9.162531494140625,-0.17970657880902288,-0.09129822751581668,-0.4187265665259212
1789481561671501300,9.172501220703126,-0.1277910981327295,-0.3056450348123908,0.6156879392575472
1789481561681471200,9.18247119140625,-0.6429103657692671,0.3323866190046072,1.4336033550813794
1789481561691442200,9.192442138671876,-1.3257611122608184,0.3294923588678241,0.8380169044144451
1789481561701412400,9.202412353515625,-1.0678232927799225,-0.2653916426181793,0.31755130731388925
1789481561711383300,9.21238330078125,-2.7801018426835533,0.6204714472070336,0.5092396715460344
1789481561721353200,9.222353271484375,-2.0057757585436105,0.779367293177545,0.9003138591777533
1789481561731324400,9.232324462890626,3.0667303345978256,-1.4191840768456458,0.6083149628041312
1789481561741294300,9.24229443359375,4.704717905887961,-1.9156302081942558,-0.5149325859580188
1789481561751264300,9.25226416015625,1.353683138409257,-0.3663148998305201,-0.5395548033760861
1789481561761235200,9.262235107421875,-2.9650679494559764,3.6012995681136846,0.5299646623298525
1789481561771205400,9.272205322265625,-2.4894623615622518,2.0413751874521373,0.3205294098092243
1789481561781176300,9.28217626953125,-0.02976560818850994,-0.47839726443886754,-0.24760855050515382
1789481561791146200,9.292146240234375,0.02836100208759308,-0.37030952242463827,0.9909591026775538
1789481561801116400,9.302116455078124,-0.7433470085084438,0.7565460972994565,0.654830666796118
1789481561811087400,9.31208740234375,0.4254670537620783,1.3499801922380923,0.08107881212271749
1789481561821057300,9.322057373046874,0.41258828296661376,0.14684388138800858,-0.4521642873559147
1789481561831028500,9.332028564453125,1.2608201457947492,-0.44798108338713644,-0.5153156669914722
1789481561840998400,9.341998291015624,1.5447499001443386,-1.0349299079596996,0.5747583283022045
1789481561850969300,9.35196923828125,0.38757951391637324,0.7100774838522076,1.8680625474639236
1789481561860939300,9.361939208984374,-0.33206220935583114,0.7954755474135279,0.28196541374037043
1789481561870909400,9.371909423828125,-0.9443155710548162,-0.04201134177744388,-1.0549561393570155
1789481561880880400,9.38188037109375,-0.8677420344620943,0.0789934572160244,-2.799660821895301
1789481561890850300,9.391850341796875,-0.025005261918902396,-0.5307689644500613,-1.7579115893095731
1789481561900821500,9.401821533203124,-0.07567804905772209,0.41553105842024085,-0.7779311959598213
1789481561910791400,9.41179150390625,-0.375061977648735,0.6788783357292413,-2.3943818390287457
1789481561920761300,9.42176123046875,-1.2076841834127903,0.3788838740244508,-1.655709398202598
1789481561930732300,9.431732177734375,-0.08042378228008747,0.19731793108433485,-0.000810457866359502
1789481561940702500,9.441702392578126,1.6361445737719535,-0.543511249384284,-0.5088632759816945
1789481561950673400,9.45167333984375,1.4278157115906476,-0.37660190056711434,-0.5093014482032507
1789481561960643300,9.461643310546876,0.8660890065580606,0.39781127733439203,0.09894673297498374
1789481561970614500,9.471614501953125,-0.8641232594430446,0.7457309810355305,-0.31456271995715795
1789481561980584400,9.48158447265625,-1.623386799007654,0.24348960741162298,-1.9105992282897233
1789481561990554400,9.491554443359375,-1.573904682958126,-0.06449556078612804,-0.728050435981527
1789481562000525300,9.501525390625,-0.4735252744883299,-0.33994331799447536,-0.38584275325164197
1789481562010495500,9.51149560546875,2.2470786695659157,-1.3046288923829794,-0.5974066152988001
1789481562020466400,9.521466552734376,2.261925525563955,-0.6924865898430347,-1.3576973424866794
1789481562030436400,9.531436279296875,0.8718740197002888,0.4772404956191778,-0.9662881872795521
1789481562040406500,9.541406494140626,-0.8432166650146246,1.23645230499655,-0.1257224751651287
1789481562050377500,9.55137744140625,-0.3985229327350855,-0.04930325235128402,1.4046075622215866
1789481562060347400,9.561347412109376,-0.48595630151629443,-0.028835049340128895,1.6216721040442585
1789481562070318300,9.571318359375,-1.057126542198658,0.5723676337733864,1.63831914133206
1789481562080288500,9.58128857421875,0.17698270680308342,0.25508885979056356,1.458954215567559
1789481562090258400,9.591258544921875,0.9515858543187379,-0.22182313452661037,1.2332486866496504
1789481562100229600,9.601229736328126,0.11278525218069553,-0.3720189566910267,-0.09736594832325354
1789481562110199800,9.61119970703125,-1.0274316611588001,0.5067790170535444,0.497690359256044
1789481562120170800,9.621170654296876,-0.9324205505996942,1.1104594884574412,1.0594497975144535
1789481562130140700,9.631140625,0.14596154559552668,0.43378363120853897,1.3011094860851764
1789481562140112000,9.64111181640625,0.6476262883752584,-0.6432204546317458,-0.7961512547180056
1789481562150081800,9.651081787109375,-0.3038853316634893,-0.25418635799288747,-0.7317576199363917
1789481562160051700,9.6610517578125,-1.8147206872463226,1.607062856194377,0.2587306503590196
1789481562170023000,9.67102294921875,-0.6624737288951873,0.5820654364451766,0.28425325068291274
1789481562179992800,9.680992919921875,0.1358621763855219,0.2984843494027853,1.478813492900133
1789481562189963800,9.6909638671875,1.0376888512790203,-0.9758855983167886,-0.06657904339614323
1789481562199933700,9.70093359375,0.3716851946920156,-0.6322174145802855,-0.29680640625320376
1789481562209903900,9.71090380859375,-1.1536410430580377,1.4702517085209488,0.9252160260483622
1789481562219874800,9.720874755859375,-0.697611093249917,0.27217589593082664,0.021213705882523207
1789481562229844700,9.7308447265625,-0.30018939975500103,-0.0693424162954092,0.6608168285336345
1789481562239816000,9.74081591796875,0.21468378416597841,-0.16370061590373516,0.0784413671580609
1789481562249785900,9.750785888671874,0.3146393653899431,0.0032961189359426496,0.17990301469657569
1789481562259755800,9.760755859375,1.6500205389112232,-0.750866298097372,-0.07276944073517806
1789481562269726700,9.770726806640624,1.8954583577811717,-1.4937790068417787,-1.1835265512991695
1789481562279697000,9.78069677734375,0.5603326203256845,0.17456161713600157,-0.5192406949480995
1789481562289667800,9.790667724609374,-0.5804202995866536,0.07802344314008951,-0.536883428742364
1789481562299637800,9.8006376953125,-1.2947633319288492,1.3900100048094988,-0.44417237528655673
1789481562309607700,9.810607666015626,-0.9326362391769886,0.4149231556549668,-1.7177181106090544
1789481562319579000,9.820578857421875,-1.1946563595354556,0.4210962913319468,-1.1578319919418543
1789481562329548800,9.830548828125,-0.3589811959415674,0.15370266124159096,0.4669953247303143
1789481562339519700,9.840519775390625,-0.3792687816888094,1.1880863334953784,0.7152781212352216
1789481562349490000,9.850489990234376,1.6718179446995258,-0.4218222675189376,1.0008448291368781
1789481562359459800,9.8604599609375,2.413832827821374,-0.31648557777851816,0.9439170732565224
1789481562369430800,9.8704306640625,0.6650234133780002,0.30218554200828074,0.5452582391820847
1789481562379401000,9.88040087890625,-0.11666297039687633,0.690279727448523,0.9807119955599307
1789481562389372000,9.890371826171876,-0.5606272193580866,0.38516543851196766,1.6264669371053575
1789481562399341800,9.900341796875,-1.0758967091202736,0.5961009760603309,0.3358184566168114
1789481562409311700,9.910311767578126,-2.3533757287710904,0.7063643085479736,0.04899715467733331
1789481562419283000,9.920282958984375,-2.805138668784499,0.9360524773612617,0.6318085415184498
1789481562429252900,9.9302529296875,-0.27104455381333825,-0.41954350893199444,1.2742049664162098
1789481562439223800,9.940223876953125,1.4831804559379815,-1.1101625513374804,0.9695407593347132
1789481562449194000,9.950194091796876,2.9044945305496452,-1.2933493734776973,0.22931602929895742
1789481562459164000,9.960163818359375,2.5386656606703997,-0.3507829841777682,0.5625505886361003
1789481562469134800,9.970134765625,1.071179032948613,-0.11901947039514779,0.24277004269910976
1789481562479104800,9.980104736328125,-2.0682605640292167,0.678464786492288,1.482293005578965
1789481562489075000,9.990074951171875,-1.0818009647279978,0.2779720149889588,1.5817096576206384
1789481562499046000,10.0000458984375,1.5337036054730415,-1.0288190238639712,1.3445005917832256
1789481562509015800,10.010015869140625,3.07207520275712,-1.647503587654233,-0.1635564216600731
1789481562518987000,10.019987060546875,0.7580524102091789,-0.5235504113733768,-2.0340233633846045
1789481562528957000,10.02995703125,-3.290215264856815,2.263123210915923,0.6666496994055807
1789481562538926800,10.0399267578125,-3.9873739381641147,1.5790031751409173,-0.4735520528974011
1789481562548897800,10.049897705078125,-1.4132038333922623,-0.17048545373827217,0.43957920227739955
1789481562558868000,10.059867919921874,0.8736936363428831,-0.6897998349770903,-0.05971848257742822
1789481562568839000,10.0698388671875,1.749623653435707,-0.04722936868667602,0.41827809210605915
1789481562578808800,10.079808837890624,1.1402432168245316,1.2769631790831684,1.1428979691170156
1789481562588778800,10.08977880859375,-0.28430384835898875,0.52819765265733,-1.8825544525444506
1789481562598750000,10.09975,-1.3537269775509833,0.03758768011629581,-1.2958315456822513
1789481562608720000,10.109719970703125,-0.6205909819334745,1.5330930723592637,0.9732046886697411
1789481562618691000,10.119691162109374,0.3107873661369085,0.9521253680229187,-1.2418512414306402
1789481562628661000,10.129660888671875,-0.5364122310340405,1.069077384494245,-0.8797994058720767
1789481562638631000,10.139630859375,-0.32928689942359923,-0.3383949195086956,-1.3864751086816192
1789481562648601900,10.149601806640625,-0.030851649859547612,-0.018609715662896632,-0.05551478380989283
1789481562658572000,10.159572021484376,-1.4195207614541052,2.394932312518358,0.46085430122464893
1789481562668542000,10.1695419921875,-0.5492132604181766,1.4824518494024872,-0.03188402511458844
1789481562678513000,10.179512939453126,0.735399848896265,-0.20678806248009204,0.8690225757919251
1789481562688482800,10.18948291015625,1.9171487960636615,-1.7065110724180936,0.22540983390696345
1789481562698454000,10.1994541015625,0.9723276135742663,-0.2954121023505926,0.6053234893705696
1789481562708424000,10.209423828125,-0.7697101147770882,1.0354282128706573,0.2907769533632323
1789481562718393900,10.219393798828126,-1.307740302401781,0.6731783705219626,-0.48665498783756045
1789481562728365000,10.229364990234375,0.08057809605896472,-1.0426225082889198,-1.4827406032159924
1789481562738335000,10.2393349609375,0.30363106464147566,-1.2483520016267895,-0.3504899925805628
1789481562748306000,10.249305908203125,-0.2193254724919796,-0.03189268334507942,-0.137833512991108
1789481562758275800,10.25927587890625,-0.447978160777688,0.8131102805644274,-1.193715206227824
1789481562768246000,10.26924609375,-0.3177595432370901,-0.1311076753348112,-1.1093823607452213
1789481562778217000,10.279217041015626,0.6292746391266584,-0.6607116876587271,-1.211007774877548
1789481562788187000,10.289186767578125,1.1680594445109367,-0.8167422073259949,0.34525559905841946
1789481562798156800,10.29915673828125,0.6921306160122156,0.4795405892550945,-0.44931872519906607
1789481562808128000,10.3091279296875,0.054851534128189085,0.6097723585382103,-0.7237099225591868
1789481562818098000,10.319097900390625,-0.4085737866282463,0.31395898191034793,0.6814233440369367
1789481562828068600,10.329068603515625,-1.2105927643358707,0.6180588331073522,-0.6742478994496166
1789481562838039000,10.3390390625,-0.8445137190878391,0.5425266222611069,1.7249927777871488
1789481562848009000,10.349009033203124,-0.9461913017988205,0.6752279965281486,1.2871087255224585
1789481562857979600,10.358979736328125,0.05070493584275245,0.6806938607186078,0.669743281506747
1789481562867950000,10.3689501953125,1.8905197323352096,-0.20547171918451784,1.1222948876798153
1789481562877920800,10.378920654296875,2.098308496290445,-0.4778036824598908,0.230404463856481
1789481562887890700,10.388890625,1.218350538855791,0.36787528101503847,0.9641197571992873
1789481562897860900,10.39886083984375,-0.6627408553987741,1.101409043778479,1.1162728509113191
1789481562907831800,10.408831787109374,-0.5276169301599264,-0.0021571780338883397,1.3331395320743322
1789481562917802000,10.418802001953125,-0.5661790082663297,-0.3241951292425394,1.0362725547403095
1789481562927772000,10.42877197265625,-0.5819599302440881,0.37150516194999217,0.2813454004121944
1789481562937742800,10.438742919921875,-0.0626239216953516,-0.1428939747184515,0.2644545078985393
1789481562947713000,10.448713134765624,0.4838718964576721,-0.5970744972676039,0.567459659194015
1789481562957683000,10.458682861328125,0.4503571648687124,-0.10403817436248064,-0.2617066156961955
1789481562967653600,10.468653564453126,-0.3365162661552429,-0.2903004584252834,0.3126560095530003
1789481562977624000,10.4786240234375,-1.1568231802254914,0.14312953703999517,0.9678878044959157
1789481562987594800,10.4885947265625,-0.08764379666149616,-0.7735080457553267,1.5612068216875195
1789481562997564700,10.498564697265625,-0.013220716100931167,-0.4508291662946343,1.2613374476671217
1789481563007534800,10.508534912109376,-0.1438350549608469,0.09371054935455321,1.0099138323858379
1789481563017505800,10.518505859375,0.8174667222082614,-0.6125339322060346,0.47555166574940083
1789481563027475700,10.528475830078126,0.3819686882972717,0.0591904401153326,-0.21663873589234425
1789481563037446000,10.53844580078125,0.04911445178091526,0.036194764453172684,1.0363706082873045
1789481563047416800,10.548416748046876,-0.26005612680912016,-0.2658127906396985,1.503252645368874
1789481563057386800,10.55838671875,-1.0054127215743065,0.7785805267140269,1.6029023755140601
1789481563067357700,10.568357666015626,-0.5074485868781805,0.8450047174751758,0.20291432631928472
1789481563077328000,10.578327880859375,0.6009066227763891,0.6365206647321582,0.4037545497782528
1789481563087297800,10.5882978515625,0.2735527372419834,0.7346010997340082,0.29045802360717204
1789481563097268700,10.598268798828125,-0.6600953093260526,0.7738745409801602,1.3980594557523727
1789481563107239000,10.608239013671875,-0.15643500881493091,0.14354396305978298,1.5074568190604447
1789481563117208800,10.618208740234374,0.11466916623115539,0.710910427545011,0.8208880018938333
1789481563127179800,10.6281796875,0.22538637996613978,0.8432730713769793,-0.3098835491649806
1789481563137149700,10.638149658203124,0.28461890565752984,-0.175577223919332,-1.0735044071562587
1789481563147121000,10.648120849609375,-1.5094494541823864,1.151689908990264,-0.550828403997235
1789481563157090800,10.6580908203125,-1.5382687214314936,0.47364948538988827,-1.1101816213641316
1789481563167060700,10.668060791015625,-0.7938672354340552,0.05175795202702284,-1.0737545094598084
1789481563177032000,10.678031982421874,0.09841127439141273,-0.3832452841043472,-1.568073638717085
1789481563187001900,10.688001953125,0.307740838047862,0.0767123605415225,-0.9452586971238255
1789481563196971800,10.6979716796875,0.9794161105304956,-0.08385054185837507,-1.7486391724430024
1789481563206942700,10.707942626953125,0.7329816818386315,-0.448379142794013,-1.5247732800424099
1789481563216913000,10.717912841796876,0.9846902515411377,-0.9883385449156165,-0.4412572550248354
1789481563226883800,10.7278837890625,0.14482055886685846,-0.28842385089844463,-0.6278304316677152
1789481563236853800,10.737853759765626,0.20787994937002657,0.34474721114486456,-0.45028187114279716
1789481563246823700,10.74782373046875,0.6362789649307727,-0.15822364579737186,-0.439338488856703
1789481563256795000,10.757794921875,-0.04455751912891864,0.14129764543771742,-0.49296603414788837
1789481563266764800,10.767764892578125,-0.6561959637999534,1.0298363842129707,-1.358284933116287
1789481563276734700,10.777734619140626,-0.7596475704461336,-0.052042906448245045,-0.7740357228912412
1789481563286706000,10.787705810546875,-1.1473755529224872,1.0305725895330309,-1.5010468058876691
1789481563296675800,10.79767578125,-0.2893400889605284,0.15640432141572236,-0.7093991461992263
1789481563306645800,10.807645751953125,1.4508762691825627,-0.21364012033194302,-0.7545331500418484
1789481563316617000,10.817616943359376,1.0098854830741881,0.24206688113212585,-1.0626116956114768
1789481563326587000,10.8275869140625,0.8119961818426847,-0.02996814502328634,-0.4285522698936984
1789481563336556800,10.837556884765625,0.9367126948356628,-0.39938334895670413,0.5401271599039436
1789481563346527700,10.84752783203125,0.3796130650818348,0.33323943644165993,0.47692817826699463
1789481563356498000,10.857497802734375,0.5141635743469,0.18045038291364907,-0.11122956543760373
1789481563366468900,10.86746875,0.8073392959475517,0.1545364817172289,-0.07001234687964897
1789481563376438800,10.877438720703125,-0.3974667016804218,0.7747294042438269,-0.6213876852691174
1789481563386408700,10.88740869140625,-1.379378720679879,1.1851380050837992,-0.726100982414186
1789481563396380000,10.8973798828125,-1.4620488205820321,1.1499421885401009,0.5341890385592356
1789481563406349800,10.907349853515624,-1.1183645624935625,0.7624506451681256,-0.21022116046762093
1789481563416319700,10.91731982421875,-0.16061901650130747,0.05818973864018917,0.5149296633485705
1789481563426291000,10.927291015625,-0.7377525495022534,0.4907698392778635,-0.32389629242643714
1789481563436260900,10.9372607421875,-1.2225631881147623,0.017252455835044384,0.8031901403788476
1789481563446230800,10.947230712890626,-0.44415421857535836,-0.6930111982390285,1.2570111089006066
1789481563456201700,10.95720166015625,0.9286953925967216,-1.6588430200532078,-0.03703865879825316
1789481563466172000,10.967171875,3.0747669260591266,-2.0295210835292936,-0.3827010211598128
1789481563476141800,10.977141845703125,4.371097945696115,-1.8108064364120362,-0.28120789163764565
1789481563486112800,10.98711279296875,0.8484346919238567,0.27317016766518354,0.8853679997846484
1789481563496082700,10.997082763671875,-2.350291206759214,1.4208032024800776,1.2821679081194102
1789481563506054000,11.007053955078124,-2.8960049346238375,0.9191241389140486,0.858263208303228
1789481563516023800,11.01702392578125,-0.8794137675553559,0.21211481046080588,-0.034178657124098386
1789481563525993700,11.02699365234375,1.4014800778508185,-0.24874679728746413,-0.3332697585146874
1789481563535965000,11.03696484375,2.1837071443736553,-0.5972267652198672,-0.7541806833423673
1789481563545934800,11.046934814453126,1.1355687952727078,-0.7920826901048421,0.25549064552448686
1789481563555904800,11.05690478515625,-1.0928665486216544,1.134997717386484,-0.7619509520176798
1789481563565876000,11.0668759765625,-0.05843173070251941,-0.7027896649315953,-0.10620408369209616
1789481563575846000,11.076845947265625,1.1311568240493535,-0.861448195014894,-1.606249493984878
1789481563585815800,11.08681591796875,-0.2797644513636827,0.775889095672965,-1.7342331920802592
1789481563595786800,11.096786865234375,0.10115677370727062,-0.14927607697099446,-1.1892426639236509
1789481563605757000,11.1067568359375,-2.454779170715809,1.3666700457543133,0.3570002147248015
1789481563615726800,11.116726806640624,-2.314357139068842,0.3358580945074558,-0.3527804416052997
1789481563625697800,11.12669775390625,-1.5948101083427666,0.29544278974980115,1.1295813183609396
1789481563635667700,11.136667724609374,-0.04884732527732849,0.0948182183355093,-1.174543911159411
1789481563645638000,11.146637939453125,1.1973317162245511,-1.2818196792036294,-0.2611613115720451
1789481563655608800,11.15660888671875,0.9522323355287313,-0.476865232565999,0.3585680120307952
1789481563665578800,11.166578857421875,0.8917366580337286,-0.25823475660085676,0.6141784114774316
1789481563675548700,11.176548583984374,-0.4443751678496599,0.822827664719522,-0.034744638710096476
1789481563685520000,11.186519775390625,0.9330541723281145,0.16142156505584715,-0.16921095855673773
1789481563695489800,11.19648974609375,1.3403858499407768,-0.07024988652914763,-0.555558756987378
1789481563705460700,11.206460693359375,-0.3805295954048633,0.8357429681330919,-0.02139235038505867
1789481563715431000,11.216430908203124,-2.36727039861083,0.785928551389277,0.1269601454676129
1789481563725400800,11.22640087890625,-2.963742253810167,0.44295741000622507,-0.8504313456337899
1789481563735371800,11.236371826171874,-1.1645523131728173,-0.5469467767909169,-0.22415597965465858
1789481563745341700,11.246341796875,1.55938749730587,-1.6513009341105818,-1.2257720671586692
1789481563755311900,11.256311767578126,1.4426502926290035,-0.14713058937489987,-0.9610832390476017
1789481563765282800,11.26628271484375,1.5876882936388252,-0.6672261841192841,0.1625480118025094
1789481563775252700,11.276252685546876,2.4890941127717494,-0.6182891347318887,-0.4703285973388701
1789481563785223000,11.286222900390625,1.6565011331021784,0.3066892831683159,-0.4356019326768815
1789481563795193900,11.29619384765625,0.14742285031974314,0.7298948217391967,-1.0913169810920953
1789481563805163800,11.306163818359375,-1.5047463910579681,1.6363921187922357,-0.8395214637584983
1789481563815133700,11.3161337890625,-0.7815151188611984,0.2594876792714,-1.1074776231024415
1789481563825105000,11.32610498046875,-0.1853618280917406,-0.3741621061995625,-0.1889606928339228
1789481563835074800,11.33607470703125,-0.10618307743668555,0.09379238241910934,-0.07601007575737312
1789481563845044700,11.346044677734374,-0.41857963233590123,1.2572896335810422,-0.6583565028347075
1789481563855016000,11.356015869140625,0.05613280611038208,1.0004714657798408,-0.45093810656182465
1789481563864985900,11.36598583984375,-0.20681845761835574,0.5451268678873777,0.001730002130381763
1789481563874955800,11.375955810546875,-0.42087563431859015,0.5436512423768639,-0.5977841068416834
1789481563884926700,11.3859267578125,-0.1186550209969282,0.41596506592333315,-0.3815949596140533
1789481563894897000,11.39589697265625,-0.22087328645586965,0.8830176372662186,-1.1755816567093134
1789481563904866800,11.40586669921875,-0.15958032110333442,0.18980624027997253,-1.2272992767259479
1789481563914837800,11.415837646484375,0.7882306908518075,-1.380009127537906,0.8496890758991241
1789481563924807700,11.4258076171875,0.07819909196794032,0.1128039568811655,0.22893289346657691
1789481563934777900,11.43577783203125,0.7203519173681736,-0.13234949208945035,-0.720255032864958
1789481563944748800,11.445748779296874,0.7021335391104221,-0.9487292958438396,-0.3384687153972685
1789481563954718700,11.45571875,-1.0609130750000477,0.5642088772371411,-0.6969999756142496
1789481563964689000,11.46568896484375,-1.6698615499347447,0.341475057606399,-0.1467737387612462
1789481563974659800,11.475659912109375,-0.5710059900313615,-0.22949673789441585,-0.10261018738597631
1789481563984629800,11.485629638671876,0.8281254788666963,-0.39102380915135143,0.34426772053223104
1789481563994600000,11.495599853515625,1.7240087351858615,-0.5839364910140633,0.1398730194620788
1789481564004571000,11.50557080078125,2.2493746715486047,-1.358733115275204,0.6596454466667026
1789481564014540800,11.515540771484375,0.023159926313161848,0.5065595290839672,-0.25015041700769214
1789481564024511000,11.525510986328126,-0.8467746497571468,0.8416630058318376,-0.16440474558509885
1789481564034482000,11.53548193359375,-0.8070838598817587,0.01430500420629978,0.6614489158920943
1789481564044451800,11.545451904296876,-0.600602671393752,0.18851064751148222,-0.1723907393703237
1789481564054422000,11.555422119140625,-0.8992284750938415,0.7300903443112969,1.406380417113006
1789481564064392700,11.565392822265625,-1.6219225716739891,1.233257600608468,1.009398137948662
1789481564074363000,11.57536279296875,-1.0495388635486365,0.27088556385934354,1.3856436262935399
1789481564084333000,11.5853330078125,-0.0907704042494297,-0.2281105442330241,1.1873887066200375
1789481564094303700,11.5953037109375,0.7790531126618385,-0.0745662884235382,0.571130566259101
1789481564104273400,11.6052734375,2.2240876700788736,-0.2271802776455879,0.8416850715331733
1789481564114243300,11.615243408203124,1.6755892799317835,0.5025082078665495,1.1836783077947794
1789481564124214300,11.62521435546875,1.1805892557382582,0.31861031484752894,0.6907032135576009
1789481564134184200,11.63518408203125,-0.2551286072790623,0.7842831222698092,1.191304491824284
1789481564144154400,11.645154296875,-1.1728197907805442,1.7266045968979595,-0.6777404908057302
1789481564154125300,11.655125244140624,-1.718776679751277,1.4419079498291014,-0.03308722689189016
1789481564164095200,11.66509521484375,-1.688867279177904,1.5580354981750248,0.13506247737519442
1789481564174065200,11.675065185546876,0.08341361174583435,0.4025841908246279,0.16592048391029238
1789481564184036400,11.685036376953125,0.7734557310461998,-0.11316811401844024,0.6110517308242619
1789481564194006300,11.69500634765625,0.8816028020322322,-0.476634054158628,-0.9553647152703255
1789481564203976200,11.70497607421875,0.17136019074618816,-0.36987668396532536,-0.3575401302877813
1789481564213947400,11.714947509765626,0.15554945815205573,-0.15270049846172332,-1.6160156857177614
1789481564223917300,11.724917236328125,0.07526070042848587,-0.21152444335222242,-1.2975636301718652
1789481564233887200,11.73488720703125,0.5305313563019037,-1.1848577268376945,-0.9719368606910109
1789481564243858400,11.7448583984375,0.1698597230553627,-1.1420686786860228,-1.289476331436634
1789481564253828400,11.754828369140625,-0.3823609024852514,-0.49795039843171834,-0.960094228010252
1789481564263798300,11.76479833984375,-0.5453583385556936,-0.12030834116190671,-1.379417883646488
1789481564273769200,11.774769287109375,-0.513488451564312,-0.4599588136896491,-0.5546794168695807
1789481564283739400,11.784739501953124,-0.328565599411726,-0.7214820904418826,-0.3432868562687188
1789481564293709300,11.794709228515625,0.5521136580348015,-0.46818040632903574,-1.2097102093476801
1789481564303680300,11.80468017578125,0.012946575334668158,0.4294038086891174,-0.13341776064177974
1789481564313650200,11.814650146484375,-0.006482932278513908,0.1692319465458393,0.22857286451514808
1789481564323620400,11.824620361328124,-0.37588381542563437,0.5507113900214433,0.4394630650844425
1789481564333591300,11.83459130859375,-0.717794049578905,0.6180459736257791,0.407244583851099
1789481564343561200,11.844561279296874,0.28922610719203945,-0.28158056087493893,-0.04192925298456102
1789481564353531100,11.85453125,0.8835457527935504,-0.5390975245952606,-0.054889016594365236
1789481564363502300,11.86450244140625,0.808649794024229,-0.3364972691938281,-0.08317280699359253
1789481564373472300,11.87447216796875,0.5191472079783678,-0.0827598240122199,-0.2037495898333378
1789481564383442200,11.884442138671876,-0.7180360416412354,0.6632485126599669,-0.4464638106919825
1789481564393413400,11.894413330078125,-0.5785942532032727,1.1145146090671418,-0.6873690276335924
1789481564403383300,11.90438330078125,0.4877788407683372,0.14397767830193042,-0.26143631085483354
1789481564413353200,11.914353271484375,1.1067851838588714,-0.6739288966283202,-0.44562261062748726
1789481564423323100,11.9243232421875,-0.22610417284667492,1.280386139269173,0.5210733537353575
1789481564433294300,11.93429443359375,0.6989309436768293,-0.19961188724040985,-0.012347431264584883
1789481564443264300,11.94426416015625,1.0650929910331963,-0.9608037645190953,0.24094269940778612
1789481564453234200,11.954234130859374,-0.20468203011155128,0.3413479240953922,-0.9651616674676537
1789481564463205400,11.964205322265625,-1.2372007852762936,0.47938773678094143,-1.2446147147946058
1789481564473175300,11.97417529296875,-0.23358897564411163,-0.18841478592157362,-0.24688188019841908
1789481564483145200,11.984145263671875,-0.22521043887734413,0.3280231630980968,0.6814234171021729
1789481564493116200,11.9941162109375,0.2331546758800745,-0.429533280287683,-0.0579835759430658
1789481564503086300,12.00408642578125,-1.3373352301985024,0.7385457457065582,0.6675296971105039
1789481564513056300,12.01405615234375,-0.73281684666574,0.12122779409438371,0.1016374607631471
1789481564523027200,12.024027099609375,0.5813526120007038,-1.3524544733971358,0.9204865863736719
1789481564532997000,12.0339970703125,1.0920867964208125,-0.291961085113883,-0.4784936374854296
1789481564542967300,12.04396728515625,1.0212520957410336,-0.350003816498816,-0.8758085096050053
1789481564552938200,12.053938232421874,0.2781611078202724,0.07424567816704511,-0.8591568692073226
1789481564562908200,12.063908203125,-0.46290801888406274,0.0496048656463623,-1.2439539127983152
1789481564572878000,12.073878173828126,-0.7162900747567414,-0.11379647504985332,-0.9089024584986269
1789481564582849300,12.083849365234375,-0.4487935688138008,-0.05262187537997961,-1.062195881352201
1789481564592819200,12.093819091796876,-0.594112724852562,0.7859571929618716,-1.501320508262515
1789481564602789000,12.1037890625,-0.175249014878273,0.35686902609318494,-0.6837844471450895
1789481564612760300,12.11376025390625,-0.3972264631837606,0.5079354936122894,-2.2385366128005084
1789481564622730200,12.123730224609375,1.0212328065186738,-1.287173022930324,-0.8030752818275243
1789481564632700200,12.1337001953125,1.1379103899627923,-0.3818696118369698,-1.1853349889606237
1789481564642670000,12.143670166015625,1.2616115884333847,-0.29301439355909825,-0.5297456127516925
1789481564652641300,12.153641357421876,-0.4389022893965244,1.2996774074554442,-0.13239864672711119
1789481564662611200,12.163611083984375,-0.38942075786888597,-0.15850012465119362,-0.17485183225423095
1789481564672581000,12.1735810546875,-1.2001958734840155,-0.26124066041857,1.498899710856378
1789481564682552300,12.18355224609375,-1.471877556157112,0.19684329930990932,0.44793673278875645
1789481564692522200,12.193522216796875,-0.7697738276630639,0.036111470083892344,1.6282587889581919
1789481564702492200,12.2034921875,-0.4355827895849943,0.26560996154397726,0.7915422265525907
1789481564712463000,12.213463134765625,-0.0902256298482418,-0.2125935338884592,0.9898054025977849
1789481564722433300,12.223433349609374,0.10859773736298084,-0.5534340929836035,0.8334780919410287
1789481564732403200,12.2334033203125,0.9905518370509147,-0.6763558315142989,1.2710697371304034
1789481564742374100,12.2433740234375,0.5331178656637668,0.4855985741198063,1.1516090257737785
1789481564752344000,12.253343994140625,1.0841028119295835,-0.42577305097132917,0.9394497185841202
1789481564762314200,12.263314208984376,0.8066483910739422,0.011484686088562011,0.6004057240495458
1789481564772285200,12.27328515625,0.4543167161494493,0.2593637606307864,0.3491476745935157
1789481564782255000,12.283255126953126,0.3753998313009739,-0.6094771749839186,-0.29816465246174484
1789481564792225000,12.29322509765625,-1.0895628309011458,0.7538517436489462,-0.24296107175918294
1789481564802195200,12.3031953125,-1.207337561932206,0.07520546310991048,-0.27699326961729676
1789481564812166100,12.313166259765625,-0.8020920429438352,0.21602087798863648,-0.6375771880477666
1789481564822136000,12.323135986328126,-1.8131728732824324,1.441513397553563,-0.5722550402443856
1789481564832106200,12.333106201171875,-1.004296284765005,0.6041825757071375,-1.7212191044673322
1789481564842077200,12.3430771484375,-0.2622714647710323,0.40047260549813507,-0.9300203575901687
1789481564852047000,12.353047119140625,0.462113069114089,-0.4751616435185074,-0.003725249334517866
1789481564862017300,12.363017333984375,0.4530395358204841,0.282824423456192,-0.49834948075190183
1789481564871988200,12.37298828125,1.6041040063887833,-0.2825602195620537,-0.6774696379750966
1789481564881958100,12.382958251953125,1.7908616727530955,-0.9858177942663431,-0.9621873278319835
1789481564891928300,12.39292822265625,0.04807692542672157,0.21944822208881376,-0.9051737933643161
1789481564901899300,12.402899169921875,-1.8464041117548942,1.1774141328334808,0.11163193569341674
1789481564911869200,12.412869140625,-1.5759423262655734,1.3271136959135532,-0.6227004483681172
1789481564921839400,12.42283935546875,-0.22793431088328361,0.6689011315941811,-0.05226728978864848
1789481564931809300,12.432809326171874,-0.27304478771984575,0.7717156093806028,-0.459373415017128
1789481564941780200,12.4427802734375,0.09406243153214454,0.4955091427594423,0.37697964783832427
1789481564951750400,12.45275048828125,-0.3834112883210182,0.6330518195778131,-0.05563609036831185
1789481564961720300,12.46272021484375,-0.25692308948040005,0.14704028074294329,-0.26703559216661377
1789481564971691000,12.47269091796875,0.19526187533736228,-0.26031243965774775,-1.4714736515313387
1789481564981661400,12.482661376953125,1.08244919950366,-0.33544892918467517,-0.7427063725173473
1789481564991631400,12.49263134765625,2.0252689790427683,-0.48228667309284207,-0.9217056067746132
1789481565001602000,12.50260205078125,1.513403744766116,-0.8996233196303248,-0.10038980792276561
