time,seconds_elapsed,z,y,x
1789481552532278000,0.033278076171875,-0.9957733154296875,-0.28253173828125,-0.149322509765625
1789481552542249200,0.043249267578125,-0.975738525390625,-0.276702880859375,0.0052337646484375
1789481552552219100,0.05321923828125,-1.009735107421875,-0.174346923828125,0.0118865966796875
1789481552562189000,0.06318896484375,-0.8857574462890625,-0.2965545654296875,-0.0250091552734375
1789481552572160000,0.073159912109375,-0.8595733642578125,-0.2466278076171875,-0.0065460205078125
1789481552582130200,0.083130126953125,-0.75799560546875,-0.276580810546875,0.0369873046875
1789481552592101000,0.09310107421875,-0.8199462890625,-0.219757080078125,0.068878173828125
1789481552602071000,0.103071044921875,-1.0493621826171875,-0.013702392578125,0.0211181640625
1789481552612041000,0.113041015625,-1.05657958984375,-0.16778564453125,0.00897216796875
1789481552622012200,0.12301220703125,-1.07318115234375,-0.1974639892578125,0.0673980712890625
1789481552631982000,0.132982177734375,-1.005889892578125,-0.2534942626953125,0.1170196533203125
1789481552641952000,0.142951904296875,-0.9140625,-0.2392120361328125,0.0439300537109375
1789481552651923200,0.152923095703125,-0.8912811279296875,-0.2412872314453125,0.0640411376953125
1789481552661893000,0.16289306640625,-0.9198760986328125,-0.3710174560546875,0.013702392578125
1789481552671863000,0.172863037109375,-0.8997802734375,-0.4732666015625,0.08758544921875
1789481552681834200,0.182834228515625,-0.863800048828125,-0.4020843505859375,0.0303955078125
1789481552691804200,0.19280419921875,-0.8344573974609375,-0.3666229248046875,-0.0530853271484375
1789481552701775000,0.202775146484375,-0.98736572265625,-0.3967742919921875,-0.019256591796875
1789481552711745000,0.2127451171875,-1.295166015625,-0.1768035888671875,-0.0661163330078125
1789481552721715200,0.222715087890625,-1.3040924072265625,-0.1673126220703125,-0.1113433837890625
1789481552731686100,0.23268603515625,-0.98223876953125,-0.3005523681640625,-0.004241943359375
1789481552741656000,0.242656005859375,-0.6231842041015625,-0.4397735595703125,0.0898895263671875
1789481552751627300,0.252627197265625,-0.6128997802734375,-0.2791748046875,0.139190673828125
1789481552761597200,0.26259716796875,-0.7914886474609375,-0.1451263427734375,0.1694488525390625
1789481552771567000,0.272567138671875,-0.9301910400390625,-0.0775604248046875,0.0487518310546875
1789481552781538000,0.2825380859375,-1.0669403076171875,-0.1536102294921875,0.0514678955078125
1789481552791508200,0.29250830078125,-1.1781158447265625,-0.08245849609375,-0.0206756591796875
1789481552801478100,0.30247802734375,-1.0905609130859375,-0.1215667724609375,0.0029449462890625
1789481552811449000,0.312448974609375,-1.074554443359375,-0.183837890625,0.0840606689453125
1789481552821419000,0.3224189453125,-1.142730712890625,-0.1119537353515625,0.0503387451171875
1789481552831390200,0.33239013671875,-1.1117706298828125,-0.152618408203125,0.0168914794921875
1789481552841360100,0.342360107421875,-0.919830322265625,-0.30938720703125,0.06781005859375
1789481552851330000,0.352330078125,-0.6864166259765625,-0.422943115234375,0.1252593994140625
1789481552861301200,0.36230126953125,-0.57666015625,-0.422210693359375,0.033843994140625
1789481552871271200,0.372271240234375,-0.817901611328125,-0.3531494140625,-0.0154876708984375
1789481552881242000,0.3822421875,-1.2239837646484375,-0.1666412353515625,-0.005584716796875
1789481552891212000,0.3922119140625,-1.2630157470703125,-0.1324310302734375,-0.0194244384765625
1789481552901182200,0.40218212890625,-0.9766082763671875,-0.454010009765625,0.04144287109375
1789481552911153200,0.412153076171875,-0.9127349853515625,-0.43359375,0.0058441162109375
1789481552921123000,0.422123046875,-0.885986328125,-0.3434295654296875,0.008453369140625
1789481552931094300,0.43209423828125,-0.773834228515625,-0.3592071533203125,0.105224609375
1789481552941064200,0.442064208984375,-0.7921295166015625,-0.3555145263671875,0.0217132568359375
1789481552951034000,0.4520341796875,-0.8308258056640625,-0.4375,0.012969970703125
1789481552961005300,0.46200537109375,-0.9998779296875,-0.2136993408203125,-0.03680419921875
1789481552970975200,0.471975341796875,-1.076019287109375,-0.244903564453125,-0.0000457763671875
1789481552980946200,0.4819462890625,-1.0779266357421875,-0.3607635498046875,-0.018798828125
1789481552990916000,0.491916015625,-1.312744140625,-0.0959320068359375,-0.0560760498046875
1789481553000886300,0.50188623046875,-1.0443572998046875,-0.4929656982421875,0.116241455078125
1789481553010857200,0.511857177734375,-0.9535980224609375,-0.362213134765625,0.136260986328125
1789481553020827100,0.5218271484375,-0.732635498046875,-0.53680419921875,0.0762939453125
1789481553030798000,0.531798095703125,-0.6494140625,-0.49761962890625,0.099945068359375
1789481553040768300,0.541768310546875,-0.8839111328125,-0.1701812744140625,0.140380859375
1789481553050739000,0.551739013671875,-0.9208221435546875,-0.2017974853515625,0.2260589599609375
1789481553060709000,0.561709228515625,-0.8472137451171875,-0.1881256103515625,-0.0308837890625
1789481553070679300,0.57167919921875,-0.9118194580078125,-0.18212890625,0.04534912109375
1789481553080650000,0.58164990234375,-1.0655059814453125,-0.1590118408203125,0.057098388671875
1789481553090620200,0.5916201171875,-1.1107330322265625,-0.2045745849609375,0.165496826171875
1789481553100591400,0.60159130859375,-1.2012939453125,-0.153350830078125,-0.0307464599609375
1789481553110561300,0.611561279296875,-1.17156982421875,-0.19549560546875,-0.0124053955078125
1789481553120531500,0.621531494140625,-0.8981781005859375,-0.28717041015625,0.041778564453125
1789481553130502400,0.63150244140625,-0.7516326904296875,-0.2897186279296875,0.0968017578125
1789481553140472300,0.641472412109375,-0.8304901123046875,-0.2168426513671875,0.104339599609375
1789481553150443500,0.651443603515625,-1.1114501953125,-0.099761962890625,0.0417633056640625
1789481553160413400,0.661413330078125,-1.2447509765625,-0.150360107421875,-0.0448760986328125
1789481553170384400,0.67138427734375,-0.93011474609375,-0.448211669921875,-0.093414306640625
1789481553180354600,0.6813544921875,-0.608184814453125,-0.5719146728515625,-0.1771697998046875
1789481553190324500,0.691324462890625,-0.5188751220703125,-0.4771270751953125,-0.077972412109375
1789481553200295400,0.70129541015625,-0.7373199462890625,-0.2371063232421875,-0.0338897705078125
1789481553210265300,0.711265380859375,-1.0529327392578125,-0.03387451171875,-0.0921478271484375
1789481553220236500,0.721236572265625,-1.2939300537109375,0.04046630859375,-0.14166259765625
1789481553230206500,0.73120654296875,-1.221923828125,-0.0679168701171875,-0.2410888671875
1789481553240177400,0.741177490234375,-0.9936370849609375,-0.1865081787109375,-0.093597412109375
1789481553250147600,0.751147705078125,-0.9472503662109375,-0.144012451171875,-0.0919952392578125
1789481553260117500,0.761117431640625,-0.933868408203125,-0.276123046875,0.0289306640625
1789481553270088400,0.77108837890625,-0.941680908203125,-0.3562469482421875,0.00897216796875
1789481553280058400,0.781058349609375,-0.93804931640625,-0.3097991943359375,-0.0821685791015625
1789481553290029600,0.791029541015625,-0.837890625,-0.439239501953125,-0.0089569091796875
1789481553299999500,0.80099951171875,-0.976348876953125,-0.3160247802734375,-0.043609619140625
1789481553309970400,0.810970458984375,-1.139801025390625,-0.13653564453125,-0.1258697509765625
1789481553319940600,0.820940673828125,-1.06549072265625,-0.2319183349609375,-0.1444091796875
1789481553329911600,0.83091162109375,-0.87493896484375,-0.2893524169921875,-0.1141510009765625
1789481553339881500,0.840881591796875,-0.6703033447265625,-0.4736480712890625,-0.120849609375
1789481553349851400,0.850851318359375,-0.734375,-0.385223388671875,0.0485992431640625
1789481553359822600,0.860822509765625,-0.919677734375,-0.285430908203125,0.0872802734375
1789481553369792500,0.87079248046875,-1.02886962890625,-0.17279052734375,-0.022796630859375
1789481553379763500,0.880763427734375,-1.1445465087890625,-0.076019287109375,-0.055328369140625
1789481553389733600,0.890733642578125,-1.0221099853515625,-0.225006103515625,-0.03924560546875
1789481553399704600,0.90070458984375,-1.0190277099609375,-0.1893157958984375,0.06494140625
1789481553409674500,0.910674560546875,-1.015289306640625,-0.2958831787109375,0.10992431640625
1789481553419645400,0.9206455078125,-0.97735595703125,-0.3683319091796875,0.196563720703125
1789481553429615600,0.93061572265625,-0.97210693359375,-0.2703399658203125,0.168243408203125
1789481553439586300,0.94058642578125,-0.8829498291015625,-0.40570068359375,0.1550140380859375
1789481553449556500,0.950556396484375,-0.834625244140625,-0.3847808837890625,0.10247802734375
1789481553459526700,0.960526611328125,-0.8556976318359375,-0.2877197265625,0.167266845703125
1789481553469497300,0.970497314453125,-0.8806304931640625,-0.3092498779296875,0.2231903076171875
1789481553479467300,0.98046728515625,-0.8108062744140625,-0.3769378662109375,0.178985595703125
1789481553489438500,0.9904384765625,-0.958648681640625,-0.21417236328125,0.013153076171875
1789481553499408400,1.000408447265625,-1.0523529052734375,-0.2199554443359375,0.0193023681640625
1789481553509379300,1.01037939453125,-1.13836669921875,-0.124298095703125,0.1211700439453125
1789481553519349500,1.020349609375,-0.9795074462890625,-0.2624053955078125,0.1368255615234375
1789481553529320400,1.030320556640625,-0.7581787109375,-0.338836669921875,0.133758544921875
1789481553539290400,1.040290283203125,-0.8043365478515625,-0.236785888671875,0.088134765625
1789481553549261600,1.050261474609375,-0.9117279052734375,-0.218231201171875,0.1450042724609375
1789481553559231500,1.0602314453125,-1.0109405517578125,-0.2768707275390625,0.073272705078125
1789481553569202400,1.070202392578125,-1.0994110107421875,-0.2510833740234375,0.0063934326171875
1789481553579172400,1.08017236328125,-1.12750244140625,-0.2331695556640625,-0.0120697021484375
1789481553589143600,1.0901435546875,-1.0762481689453125,-0.2696990966796875,-0.03985595703125
1789481553599113500,1.100113525390625,-1.0456085205078125,-0.3026580810546875,-0.069580078125
1789481553609083400,1.11008349609375,-1.0091552734375,-0.305694580078125,-0.085693359375
1789481553619054600,1.1200546875,-0.860321044921875,-0.4016571044921875,-0.034637451171875
1789481553629024500,1.1300244140625,-0.8219451904296875,-0.35430908203125,-0.0148468017578125
1789481553638995500,1.139995361328125,-0.88037109375,-0.231842041015625,-0.1137542724609375
1789481553648965400,1.14996533203125,-1.0519256591796875,-0.162384033203125,-0.1047210693359375
1789481553658936600,1.1599365234375,-1.028228759765625,-0.28472900390625,-0.0499114990234375
1789481553668906500,1.169906494140625,-1.089263916015625,-0.2055816650390625,-0.165283203125
1789481553678877700,1.179877685546875,-1.0123291015625,-0.2066192626953125,0.039642333984375
1789481553688847600,1.18984765625,-0.91802978515625,-0.229583740234375,0.1227264404296875
1789481553698818600,1.199818603515625,-0.985809326171875,-0.1512298583984375,0.0104522705078125
1789481553708788500,1.20978857421875,-0.9652252197265625,-0.2452392578125,0.022918701171875
1789481553718759400,1.219759521484375,-1.124176025390625,-0.169281005859375,0.098419189453125
1789481553728729600,1.2297294921875,-1.0041656494140625,-0.2316436767578125,-0.0699005126953125
1789481553738700300,1.2397001953125,-0.9334259033203125,-0.2230987548828125,-0.092681884765625
1789481553748670500,1.24967041015625,-0.979461669921875,-0.2227020263671875,-0.0027008056640625
1789481553758641400,1.259641357421875,-0.85943603515625,-0.368377685546875,-0.046539306640625
1789481553768611300,1.269611328125,-0.8502044677734375,-0.304840087890625,-0.03173828125
1789481553778582500,1.27958251953125,-0.7664947509765625,-0.4275970458984375,-0.04327392578125
1789481553788552400,1.289552490234375,-0.915008544921875,-0.2271575927734375,0.037322998046875
1789481553798523400,1.2995234375,-1.1073455810546875,-0.192626953125,-0.0396881103515625
1789481553808493300,1.309493408203125,-1.1480255126953125,-0.3390960693359375,0.0423126220703125
1789481553818464500,1.319464599609375,-1.216217041015625,-0.124114990234375,0.0473785400390625
1789481553828434400,1.329434326171875,-0.9212188720703125,-0.3773345947265625,0.079254150390625
1789481553838405400,1.3394052734375,-0.688323974609375,-0.511260986328125,0.063812255859375
1789481553848375600,1.34937548828125,-0.6021728515625,-0.5161590576171875,0.1759185791015625
1789481553858346500,1.359346435546875,-0.8203125,-0.3668212890625,0.087005615234375
1789481553868316400,1.36931640625,-1.1423187255859375,-0.2666168212890625,0.0732269287109375
1789481553878287600,1.37928759765625,-1.2111053466796875,-0.2065277099609375,-0.0008087158203125
1789481553888257500,1.389257568359375,-1.031524658203125,-0.2996978759765625,-0.1575164794921875
1789481553898228500,1.399228515625,-0.91339111328125,-0.351593017578125,-0.0760955810546875
1789481553908198700,1.40919873046875,-1.0304107666015625,-0.24212646484375,0.2063446044921875
1789481553918168600,1.41916845703125,-0.9790496826171875,-0.2522430419921875,0.20703125
1789481553928139500,1.429139404296875,-0.8974761962890625,-0.289825439453125,-0.015167236328125
1789481553938109400,1.439109375,-0.796234130859375,-0.401611328125,-0.0700836181640625
1789481553948080600,1.44908056640625,-0.743255615234375,-0.4261932373046875,0.106842041015625
1789481553958050600,1.459050537109375,-0.9850616455078125,-0.1075286865234375,0.1044464111328125
1789481553968021500,1.469021484375,-1.137359619140625,-0.10992431640625,0.0423583984375
1789481553977992400,1.478992431640625,-1.16192626953125,-0.187042236328125,-0.0031585693359375
1789481553987962400,1.48896240234375,-1.061004638671875,-0.25152587890625,-0.0183258056640625
1789481553997932500,1.4989326171875,-0.81317138671875,-0.3651885986328125,-0.1418304443359375
1789481554007903500,1.508903564453125,-0.7655181884765625,-0.3189544677734375,0.112396240234375
1789481554017873400,1.518873291015625,-0.864013671875,-0.1706390380859375,0.00286865234375
1789481554027844400,1.52884423828125,-0.92120361328125,-0.2462615966796875,-0.05609130859375
1789481554037815600,1.538815673828125,-1.139373779296875,-0.1729278564453125,0.0139923095703125
1789481554047785500,1.548785400390625,-1.1708984375,-0.19805908203125,0.020538330078125
1789481554057756400,1.55875634765625,-1.123260498046875,-0.2242584228515625,-0.1110382080078125
1789481554067726300,1.568726318359375,-0.912261962890625,-0.386505126953125,-0.1429290771484375
1789481554077697500,1.578697509765625,-0.88775634765625,-0.4273834228515625,-0.0200347900390625
1789481554087667500,1.58866748046875,-0.96832275390625,-0.3341064453125,0.0676422119140625
1789481554097638400,1.598638427734375,-1.0512847900390625,-0.2038421630859375,0.0128936767578125
1789481554107608600,1.608608642578125,-1.0088653564453125,-0.2301788330078125,-0.139617919921875
1789481554117579500,1.61857958984375,-0.9557952880859375,-0.3632049560546875,-0.1000213623046875
1789481554127549400,1.628549560546875,-0.9782257080078125,-0.2606658935546875,-0.0973358154296875
1789481554137520600,1.638520751953125,-0.92376708984375,-0.261199951171875,0.001129150390625
1789481554147490600,1.648490478515625,-0.9340057373046875,-0.2220306396484375,0.0011749267578125
1789481554157461500,1.65846142578125,-0.9876251220703125,-0.117950439453125,-0.0214996337890625
1789481554167431700,1.668431640625,-0.84844970703125,-0.35205078125,-0.0870361328125
1789481554177402600,1.678402587890625,-0.911346435546875,-0.2903289794921875,-0.066162109375
1789481554187372500,1.68837255859375,-1.113250732421875,-0.1073150634765625,0.00927734375
1789481554197343500,1.698343505859375,-1.007720947265625,-0.2104949951171875,-0.01898193359375
1789481554207313700,1.708313720703125,-0.8686981201171875,-0.1496124267578125,-0.1083221435546875
1789481554217284400,1.718284423828125,-0.8759765625,-0.248138427734375,-0.10406494140625
1789481554227254300,1.728254150390625,-1.0155181884765625,-0.281219482421875,0.0185699462890625
1789481554237225500,1.7382255859375,-1.0572357177734375,-0.2506103515625,-0.01031494140625
1789481554247195400,1.7481953125,-1.0110626220703125,-0.3039703369140625,-0.065673828125
1789481554257166300,1.758166259765625,-1.0184173583984375,-0.358245849609375,0.0502166748046875
1789481554267136500,1.768136474609375,-1.01812744140625,-0.322021484375,-0.1107177734375
1789481554277107500,1.778107421875,-1.051361083984375,-0.243560791015625,-0.1614990234375
1789481554287077400,1.788077392578125,-1.19061279296875,-0.1739349365234375,0.0239105224609375
1789481554297048600,1.798048583984375,-1.1078033447265625,-0.24969482421875,0.01861572265625
1789481554307018500,1.8080185546875,-0.748199462890625,-0.3907318115234375,-0.0598297119140625
1789481554316989400,1.817989501953125,-0.54693603515625,-0.500030517578125,-0.0193023681640625
1789481554326959400,1.82795947265625,-0.72149658203125,-0.3372344970703125,0.162261962890625
1789481554336930600,1.8379306640625,-0.9257049560546875,-0.31134033203125,0.2339935302734375
1789481554346900500,1.847900390625,-0.968994140625,-0.254852294921875,0.0317230224609375
1789481554356871400,1.857871337890625,-0.880218505859375,-0.3028564453125,-0.0426025390625
1789481554366842600,1.867842529296875,-0.985382080078125,-0.3047637939453125,0.002685546875
1789481554376812500,1.8778125,-1.03936767578125,-0.148101806640625,0.097198486328125
1789481554386783500,1.887783447265625,-0.961029052734375,-0.21612548828125,0.046966552734375
1789481554396753700,1.897753662109375,-0.9083099365234375,-0.2024993896484375,0.08233642578125
1789481554406724400,1.907724365234375,-0.843475341796875,-0.2951202392578125,0.037506103515625
1789481554416694500,1.917694580078125,-0.9241943359375,-0.21038818359375,0.0322265625
1789481554426665500,1.92766552734375,-1.1298675537109375,-0.0914459228515625,0.14459228515625
1789481554436635400,1.937635498046875,-1.1215362548828125,-0.3199615478515625,0.189971923828125
1789481554446606300,1.9476064453125,-1.1171722412109375,-0.290771484375,0.0800018310546875
1789481554456576500,1.957576416015625,-0.9184417724609375,-0.3608551025390625,-0.0456390380859375
1789481554466547500,1.96754736328125,-0.7100372314453125,-0.46380615234375,0.1506805419921875
1789481554476517400,1.977517333984375,-0.7564849853515625,-0.3584747314453125,0.2811737060546875
1789481554486488600,1.987488525390625,-0.9447174072265625,-0.244964599609375,0.101043701171875
1789481554496458500,1.99745849609375,-1.1417388916015625,-0.1443328857421875,0.03204345703125
1789481554506429400,2.007429443359375,-1.2108001708984375,-0.1536407470703125,0.0097808837890625
1789481554516399400,2.0173994140625,-1.0890045166015625,-0.239288330078125,0.0313568115234375
1789481554526370600,2.02737060546875,-1.018890380859375,-0.218231201171875,-0.014984130859375
1789481554536340500,2.037340576171875,-0.8743133544921875,-0.35528564453125,-0.028564453125
1789481554546311400,2.0473115234375,-0.809295654296875,-0.31707763671875,-0.0357513427734375
1789481554556282600,2.05728271484375,-0.730499267578125,-0.4000396728515625,-0.0323638916015625
1789481554566252500,2.06725244140625,-0.771270751953125,-0.368896484375,-0.0439453125
1789481554576223500,2.077223388671875,-1.05035400390625,-0.0962982177734375,-0.0043182373046875
1789481554586193700,2.087193603515625,-1.1098480224609375,-0.220001220703125,0.036346435546875
1789481554596164400,2.097164306640625,-1.046966552734375,-0.1688385009765625,0.0143280029296875
1789481554606134500,2.107134521484375,-0.726470947265625,-0.3432464599609375,-0.000244140625
1789481554616105500,2.11710546875,-0.7109527587890625,-0.3463134765625,0.0922088623046875
1789481554626075400,2.127075439453125,-0.867584228515625,-0.219268798828125,0.075439453125
1789481554636046300,2.13704638671875,-0.9913177490234375,-0.24615478515625,0.0487518310546875
1789481554646016300,2.147016357421875,-1.0968475341796875,-0.2812042236328125,0.0012054443359375
1789481554655987500,2.156987548828125,-1.046844482421875,-0.2892913818359375,-0.0123748779296875
1789481554665957400,2.166957275390625,-1.024749755859375,-0.19769287109375,-0.1212615966796875
1789481554675928600,2.176928466796875,-1.11395263671875,-0.00433349609375,-0.2481536865234375
1789481554685899500,2.1868994140625,-1.205657958984375,-0.0537261962890625,-0.0638275146484375
1789481554695869400,2.196869384765625,-1.171844482421875,-0.185394287109375,-0.024322509765625
1789481554705840600,2.206840576171875,-0.8642730712890625,-0.379119873046875,0.00860595703125
1789481554715810600,2.216810546875,-0.6457061767578125,-0.4017791748046875,-0.0317840576171875
1789481554725781500,2.226781494140625,-0.6204376220703125,-0.40399169921875,0.0068359375
1789481554735751400,2.23675146484375,-0.8074951171875,-0.329742431640625,0.122039794921875
1789481554745722600,2.24672265625,-0.998779296875,-0.252044677734375,0.1208953857421875
1789481554755692500,2.256692626953125,-1.076507568359375,-0.28973388671875,0.03863525390625
1789481554765663500,2.26666357421875,-1.029632568359375,-0.2393951416015625,-0.0395050048828125
1789481554775633700,2.276633544921875,-0.8858642578125,-0.3181610107421875,-0.0683746337890625
1789481554785604400,2.286604248046875,-0.86383056640625,-0.3524322509765625,-0.0252685546875
1789481554795575300,2.2965751953125,-1.08404541015625,-0.20855712890625,0.1666259765625
1789481554805545500,2.30654541015625,-1.1207122802734375,-0.325653076171875,0.21002197265625
1789481554815516400,2.316516357421875,-1.06683349609375,-0.129425048828125,-0.0685577392578125
1789481554825486300,2.326486328125,-0.850860595703125,-0.5319061279296875,0.0178985595703125
1789481554835457500,2.33645751953125,-0.816314697265625,-0.52947998046875,0.1433563232421875
1789481554845427500,2.346427490234375,-0.8708953857421875,-0.369781494140625,0.0075531005859375
1789481554855398400,2.3563984375,-0.839141845703125,-0.302581787109375,-0.2198486328125
1789481554865368300,2.366368408203125,-0.910980224609375,-0.2821807861328125,-0.1542510986328125
1789481554875339500,2.376339599609375,-1.002777099609375,-0.451568603515625,0.3872528076171875
1789481554885309400,2.386309326171875,-1.0921630859375,-0.225616455078125,-0.045989990234375
1789481554895280400,2.3962802734375,-0.9193878173828125,-0.3450775146484375,0.014068603515625
1789481554905251600,2.40625146484375,-0.980621337890625,-0.166168212890625,-0.018829345703125
1789481554915221500,2.416221435546875,-1.09588623046875,-0.074951171875,0.064971923828125
1789481554925192700,2.426192626953125,-0.862701416015625,-0.411529541015625,0.07635498046875
1789481554935162600,2.43616259765625,-0.7114410400390625,-0.37139892578125,0.0691375732421875
1789481554945133600,2.446133544921875,-0.81439208984375,-0.15643310546875,0.138031005859375
1789481554955103500,2.456103515625,-0.9147491455078125,-0.2174530029296875,0.00494384765625
1789481554965074400,2.466074462890625,-1.19708251953125,-0.0028076171875,-0.05120849609375
1789481554975044600,2.476044677734375,-1.15618896484375,-0.18621826171875,-0.0091094970703125
1789481554985015300,2.486015380859375,-1.0609588623046875,-0.2618408203125,0.0279388427734375
1789481554994986500,2.495986572265625,-1.1361083984375,-0.101287841796875,-0.0041656494140625
1789481555004956400,2.505956298828125,-1.0995635986328125,-0.2071075439453125,-0.0919647216796875
1789481555014927400,2.51592724609375,-0.9188079833984375,-0.4194183349609375,0.043670654296875
1789481555024897500,2.5258974609375,-0.603790283203125,-0.5646209716796875,0.1877593994140625
1789481555034868500,2.535868408203125,-0.3470306396484375,-0.56304931640625,-0.0082855224609375
1789481555044838400,2.54583837890625,-0.3801422119140625,-0.4756927490234375,-0.0064239501953125
1789481555054809600,2.5558095703125,-1.1379547119140625,0.02777099609375,0.2369537353515625
1789481555064779500,2.565779541015625,-1.6685638427734375,0.105224609375,0.1878509521484375
1789481555074750500,2.57575048828125,-1.624053955078125,-0.02081298828125,-0.002349853515625
1789481555084721700,2.5857216796875,-1.0855865478515625,-0.368255615234375,-0.0961151123046875
1789481555094691800,2.59569189453125,-0.7979278564453125,-0.3197784423828125,-0.006927490234375
1789481555104662800,2.605662841796875,-0.71295166015625,-0.20965576171875,0.043060302734375
1789481555114632700,2.6156328125,-0.77215576171875,-0.31463623046875,-0.0449676513671875
1789481555124603600,2.625603759765625,-0.97247314453125,-0.321319580078125,-0.0434112548828125
1789481555134573800,2.63557373046875,-1.0348663330078125,-0.29339599609375,-0.0638427734375
1789481555144544500,2.64554443359375,-0.991729736328125,-0.176727294921875,-0.1202239990234375
1789481555154514400,2.655514404296875,-0.788818359375,-0.2831573486328125,-0.1509857177734375
1789481555164485600,2.665485595703125,-0.76202392578125,-0.3489227294921875,-0.062042236328125
1789481555174456600,2.67545654296875,-0.930816650390625,-0.34661865234375,0.0485687255859375
1789481555184426500,2.685426513671875,-1.1898040771484375,-0.104248046875,0.0575714111328125
1789481555194397700,2.695397705078125,-1.201995849609375,-0.095916748046875,0.021881103515625
1789481555204367600,2.70536767578125,-0.9791717529296875,-0.3591461181640625,-0.1054840087890625
1789481555214338600,2.715338623046875,-0.8357086181640625,-0.403533935546875,-0.05560302734375
1789481555224308700,2.725308837890625,-0.834869384765625,-0.3802947998046875,0.03656005859375
1789481555234279700,2.73527978515625,-0.94781494140625,-0.1446533203125,-0.0089111328125
1789481555244249600,2.74524951171875,-1.0498809814453125,-0.17938232421875,0.0682525634765625
1789481555254220800,2.755220703125,-0.930206298828125,-0.475494384765625,-0.04815673828125
1789481555264191700,2.765191650390625,-0.78570556640625,-0.52105712890625,-0.0647735595703125
1789481555274161700,2.77516162109375,-0.9112396240234375,-0.3992767333984375,-0.0923614501953125
1789481555284132600,2.785132568359375,-1.1126556396484375,-0.1375579833984375,0.0030975341796875
1789481555294102800,2.795102783203125,-1.085723876953125,-0.215911865234375,-0.103759765625
1789481555304073500,2.805073486328125,-0.9337921142578125,-0.45611572265625,-0.0700836181640625
1789481555314043600,2.815043701171875,-1.035308837890625,-0.2626800537109375,-0.0160064697265625
1789481555324014600,2.8250146484375,-0.96356201171875,-0.3440093994140625,-0.0559844970703125
1789481555333985500,2.834985595703125,-0.9378662109375,-0.1502838134765625,0.0026702880859375
1789481555343955700,2.844955810546875,-0.9638214111328125,-0.2372894287109375,-0.103271484375
1789481555353926700,2.8549267578125,-0.8394927978515625,-0.4393157958984375,0.023773193359375
1789481555363896600,2.864896484375,-0.9555206298828125,-0.1432952880859375,-0.0211181640625
1789481555373867800,2.87486767578125,-0.843414306640625,-0.2486114501953125,0.033966064453125
1789481555383837700,2.884837646484375,-0.9291839599609375,-0.185760498046875,-0.0450897216796875
1789481555393808600,2.89480859375,-1.0667572021484375,-0.12103271484375,-0.0712432861328125
1789481555403779800,2.90477978515625,-1.0834808349609375,-0.2853240966796875,-0.0583648681640625
1789481555413749800,2.914749755859375,-1.0604248046875,-0.24676513671875,0.012115478515625
1789481555423720700,2.924720703125,-1.036651611328125,-0.129302978515625,-0.0287933349609375
1789481555433690600,2.934690673828125,-0.8405303955078125,-0.3534088134765625,-0.1803741455078125
1789481555443661600,2.94466162109375,-0.82550048828125,-0.3842620849609375,-0.10467529296875
1789481555453631700,2.9546318359375,-0.9295806884765625,-0.31768798828125,-0.1097564697265625
1789481555463602400,2.9646025390625,-0.9430694580078125,-0.3062286376953125,-0.1279296875
1789481555473573600,2.97457373046875,-1.037017822265625,-0.1702880859375,-0.130218505859375
1789481555483543600,2.98454345703125,-1.022369384765625,-0.2667236328125,-0.112518310546875
1789481555493514500,2.994514404296875,-0.974456787109375,-0.31597900390625,-0.1249237060546875
1789481555503484700,3.004484619140625,-0.9517974853515625,-0.2643280029296875,0.01922607421875
1789481555513455600,3.01445556640625,-0.92840576171875,-0.2332916259765625,0.0263214111328125
1789481555523425500,3.024425537109375,-0.8498992919921875,-0.3194732666015625,0.0546722412109375
1789481555533396700,3.034396728515625,-0.84954833984375,-0.2964019775390625,0.0042572021484375
1789481555543367700,3.04436767578125,-0.9337005615234375,-0.23541259765625,0.043853759765625
1789481555553337600,3.054337646484375,-1.105682373046875,-0.1365509033203125,0.0883331298828125
1789481555563308800,3.064308837890625,-1.1331939697265625,-0.133880615234375,0.0001983642578125
1789481555573278700,3.07427880859375,-1.026397705078125,-0.1804962158203125,0.0515289306640625
1789481555583249700,3.084249755859375,-1.0107574462890625,-0.2264556884765625,0.03131103515625
1789481555593219800,3.0942197265625,-1.061676025390625,-0.2001190185546875,0.0764923095703125
1789481555603190800,3.104190673828125,-1.045440673828125,-0.181732177734375,0.0261383056640625
1789481555613161500,3.114161376953125,-0.94329833984375,-0.255523681640625,0.0257568359375
1789481555623131600,3.124131591796875,-0.913482666015625,-0.3878326416015625,0.0417327880859375
1789481555633102600,3.1341025390625,-1.0121307373046875,-0.2440643310546875,-0.0207061767578125
1789481555643072500,3.144072509765625,-1.025604248046875,-0.2156982421875,0.0417938232421875
1789481555653043700,3.154043701171875,-0.89337158203125,-0.3501739501953125,-0.0713348388671875
1789481555663013600,3.164013671875,-0.9016876220703125,-0.3527374267578125,-0.04058837890625
1789481555672984600,3.173984619140625,-0.95501708984375,-0.2844085693359375,0.017120361328125
1789481555682955800,3.183955810546875,-1.02325439453125,-0.2542572021484375,-0.007781982421875
1789481555692925700,3.19392578125,-0.9199371337890625,-0.3472137451171875,-0.017120361328125
1789481555702896600,3.203896728515625,-0.8906402587890625,-0.3488922119140625,-0.0532989501953125
1789481555712866600,3.213866455078125,-0.9987640380859375,-0.34814453125,-0.02557373046875
1789481555722837800,3.223837646484375,-1.004150390625,-0.354461669921875,0.005218505859375
1789481555732807700,3.2338076171875,-0.9560089111328125,-0.2607421875,-0.0643463134765625
1789481555742778600,3.243778564453125,-0.7665863037109375,-0.499603271484375,-0.0281219482421875
1789481555752749600,3.25374951171875,-0.8141326904296875,-0.3632659912109375,-0.0357513427734375
1789481555762719700,3.2637197265625,-0.9253387451171875,-0.3378753662109375,-0.037628173828125
1789481555772690400,3.2736904296875,-0.953369140625,-0.3227691650390625,-0.018829345703125
1789481555782660600,3.28366064453125,-1.0630340576171875,-0.205657958984375,0.1246490478515625
1789481555792631600,3.293631591796875,-0.912567138671875,-0.3148651123046875,0.056121826171875
1789481555802601500,3.3036015625,-0.67333984375,-0.4361419677734375,0.007965087890625
1789481555812572700,3.31357275390625,-0.7674560546875,-0.309112548828125,0.055023193359375
1789481555822543600,3.323543701171875,-0.9810791015625,-0.087158203125,0.052886962890625
1789481555832513500,3.333513427734375,-0.98089599609375,-0.213165283203125,0.0948028564453125
1789481555842484700,3.343484619140625,-0.9963531494140625,-0.2776947021484375,0.0421600341796875
1789481555852454700,3.35345458984375,-0.978424072265625,-0.228729248046875,0.0150604248046875
1789481555862425600,3.363425537109375,-1.024200439453125,-0.1850738525390625,0.0351715087890625
1789481555872396800,3.373396728515625,-1.1209716796875,-0.1250152587890625,0.0603790283203125
1789481555882366700,3.38336669921875,-1.225799560546875,-0.0414886474609375,0.1451416015625
1789481555892337700,3.393337646484375,-0.981048583984375,-0.26434326171875,0.0666046142578125
1789481555902307800,3.403307861328125,-0.7665863037109375,-0.421478271484375,0.0936737060546875
1789481555912278500,3.413278564453125,-0.746856689453125,-0.3268585205078125,0.0823516845703125
1789481555922248700,3.423248779296875,-0.90447998046875,-0.17596435546875,0.0883026123046875
1789481555932219600,3.4332197265625,-0.9575653076171875,-0.240509033203125,0.1493988037109375
1789481555942190600,3.443190673828125,-1.00390625,-0.2870025634765625,0.098419189453125
1789481555952160500,3.453160400390625,-1.0192413330078125,-0.334381103515625,0.0541839599609375
1789481555962131700,3.463131591796875,-1.046173095703125,-0.259521484375,-0.0100860595703125
1789481555972101600,3.4731015625,-0.9984893798828125,-0.231658935546875,0.076934814453125
1789481555982072600,3.483072509765625,-1.0443115234375,-0.249725341796875,-0.0107879638671875
1789481555992042500,3.49304248046875,-1.070526123046875,-0.2768402099609375,0.0697174072265625
1789481556002013700,3.503013671875,-1.0612640380859375,-0.2309722900390625,-0.0133056640625
1789481556011984600,3.512984619140625,-0.889434814453125,-0.264251708984375,0.0430755615234375
1789481556021954600,3.52295458984375,-0.7681427001953125,-0.2931976318359375,-0.0301971435546875
1789481556031925800,3.53292578125,-0.8313140869140625,-0.30194091796875,-0.0179290771484375
1789481556041895700,3.542895751953125,-0.961029052734375,-0.2759552001953125,-0.0505218505859375
1789481556051866600,3.55286669921875,-1.08648681640625,-0.212158203125,-0.1058197021484375
1789481556061837600,3.562837646484375,-1.117767333984375,-0.1914520263671875,0.0318603515625
1789481556071807700,3.572807861328125,-0.9561309814453125,-0.24676513671875,-0.0251617431640625
1789481556081778400,3.5827783203125,-0.925567626953125,-0.260589599609375,0.030792236328125
1789481556091748600,3.59274853515625,-1.035186767578125,-0.205291748046875,-0.050018310546875
1789481556101719600,3.602719482421875,-1.1312255859375,-0.134368896484375,0.0329437255859375
1789481556111689500,3.612689453125,-0.942840576171875,-0.2813720703125,-0.0622406005859375
1789481556121660700,3.62266064453125,-0.5926361083984375,-0.42901611328125,-0.070556640625
1789481556131631600,3.632631591796875,-0.4297027587890625,-0.4732818603515625,-0.031219482421875
1789481556141601500,3.6426015625,-0.5989990234375,-0.430877685546875,0.0345611572265625
1789481556151572700,3.65257275390625,-1.33251953125,0.0531768798828125,0.1137237548828125
1789481556161542700,3.662542724609375,-1.3803253173828125,-0.0989990234375,-0.0699615478515625
1789481556171513600,3.672513671875,-1.0236663818359375,-0.4202880859375,-0.0041046142578125
1789481556181484800,3.68248486328125,-0.9034423828125,-0.3707427978515625,-0.0458221435546875
1789481556191454700,3.692454833984375,-1.0428619384765625,-0.2269439697265625,0.0394134521484375
1789481556201425700,3.70242578125,-1.1432037353515625,-0.15045166015625,0.1131744384765625
1789481556211395600,3.7123955078125,-1.0892181396484375,-0.3108673095703125,0.0626678466796875
1789481556221366500,3.722366455078125,-0.8369903564453125,-0.48797607421875,0.00250244140625
1789481556231336700,3.732336669921875,-0.727508544921875,-0.466552734375,-0.0675811767578125
1789481556241307400,3.742307373046875,-0.82318115234375,-0.268585205078125,0.00885009765625
1789481556251278600,3.752278564453125,-0.924041748046875,-0.1466522216796875,0.01397705078125
1789481556261248500,3.76224853515625,-1.0876312255859375,-0.2445831298828125,0.0157928466796875
1789481556271219500,3.772219482421875,-1.2088623046875,-0.214111328125,-0.005523681640625
1789481556281189600,3.782189697265625,-1.098388671875,-0.15069580078125,0.0325775146484375
1789481556291160600,3.79216064453125,-0.76788330078125,-0.2428436279296875,-0.0018157958984375
1789481556301131500,3.802131591796875,-0.607635498046875,-0.324493408203125,-0.009918212890625
1789481556311101700,3.812101806640625,-0.9812469482421875,-0.2341461181640625,0.1238555908203125
1789481556321072600,3.82207275390625,-1.3685760498046875,-0.0063323974609375,0.1045379638671875
1789481556331042600,3.83204248046875,-1.1465911865234375,-0.10382080078125,0.04705810546875
1789481556341013800,3.842013671875,-0.65118408203125,-0.4102935791015625,-0.0437774658203125
1789481556350984400,3.851984375,-0.5895843505859375,-0.4727783203125,0.037994384765625
1789481556360953600,3.86195361328125,-0.88494873046875,-0.30706787109375,0.0274658203125
1789481556370924800,3.8719248046875,-1.14190673828125,-0.1519012451171875,-0.0012359619140625
1789481556380895500,3.8818955078125,-1.2115478515625,-0.183258056640625,-0.0357208251953125
1789481556390865700,3.89186572265625,-1.0006256103515625,-0.414886474609375,-0.0859375
1789481556400836600,3.901836669921875,-0.999298095703125,-0.43841552734375,-0.0671234130859375
1789481556410806500,3.911806640625,-0.9009246826171875,-0.4295196533203125,0.0363922119140625
1789481556420777500,3.921777587890625,-1.1563873291015625,-0.191650390625,0.053070068359375
1789481556430748700,3.931748779296875,-1.0577545166015625,-0.3034515380859375,-0.01568603515625
1789481556440718600,3.941718505859375,-0.67706298828125,-0.46978759765625,-0.1248931884765625
1789481556450689500,3.951689453125,-0.81903076171875,-0.4205474853515625,-0.0464019775390625
1789481556460659500,3.961659423828125,-0.75830078125,-0.37451171875,0.07220458984375
1789481556470630700,3.971630615234375,-1.0921173095703125,-0.0135955810546875,0.0433502197265625
1789481556480600600,3.9816005859375,-1.04351806640625,-0.127288818359375,-0.0495758056640625
1789481556490571500,3.991571533203125,-1.0970306396484375,-0.1271209716796875,-0.0809326171875
1789481556500542700,4.001542724609375,-1.111236572265625,-0.123382568359375,-0.00531005859375
1789481556510512600,4.0115126953125,-0.98516845703125,-0.256988525390625,-0.039093017578125
1789481556520483600,4.021483642578125,-0.9268646240234375,-0.17498779296875,0.0201263427734375
1789481556530453800,4.031453857421875,-0.89837646484375,-0.2686767578125,0.011138916015625
1789481556540424700,4.0414248046875,-0.930267333984375,-0.274078369140625,0.003570556640625
1789481556550395400,4.0513955078125,-0.899627685546875,-0.129180908203125,0.0545196533203125
1789481556560365600,4.061365478515625,-0.8724822998046875,-0.1885223388671875,-0.049560546875
1789481556570336500,4.07133642578125,-0.8355255126953125,-0.2747039794921875,-0.04193115234375
1789481556580306400,4.081306396484375,-0.93792724609375,-0.2205047607421875,0.0381927490234375
1789481556590277600,4.091277587890625,-1.010284423828125,-0.353179931640625,0.0197296142578125
1789481556600248600,4.10124853515625,-1.089202880859375,-0.204437255859375,-0.073822021484375
1789481556610218500,4.111218505859375,-1.0935821533203125,-0.189605712890625,-0.0453643798828125
1789481556620189700,4.121189697265625,-0.86285400390625,-0.443878173828125,-0.147064208984375
1789481556630159600,4.13115966796875,-0.900482177734375,-0.359832763671875,-0.1208038330078125
1789481556640130600,4.141130615234375,-0.8936614990234375,-0.334014892578125,-0.03887939453125
1789481556650101800,4.151101806640625,-0.870361328125,-0.38360595703125,-0.061248779296875
1789481556660071700,4.16107177734375,-0.8725128173828125,-0.328765869140625,-0.066070556640625
1789481556670042600,4.171042724609375,-1.086639404296875,-0.1628570556640625,-0.1557464599609375
1789481556680012800,4.1810126953125,-1.1601104736328125,-0.3279571533203125,-0.0555267333984375
1789481556689983500,4.1909833984375,-1.2537841796875,-0.238861083984375,-0.011444091796875
1789481556699953700,4.20095361328125,-0.974456787109375,-0.4293365478515625,-0.11053466796875
1789481556709924600,4.210924560546875,-0.8343963623046875,-0.4870452880859375,-0.12860107421875
1789481556719895600,4.2208955078125,-0.960052490234375,-0.2823638916015625,-0.0209503173828125
1789481556729865500,4.230865478515625,-0.9024505615234375,-0.366485595703125,-0.003875732421875
1789481556739836700,4.240836669921875,-0.7026824951171875,-0.383209228515625,-0.0908355712890625
1789481556749806600,4.250806640625,-0.6121673583984375,-0.435760498046875,-0.057037353515625
1789481556759777500,4.260777587890625,-0.807769775390625,-0.23211669921875,-0.0977325439453125
1789481556769748700,4.270748779296875,-0.9681396484375,-0.0152740478515625,0.0167083740234375
1789481556779718700,4.28071875,-0.783233642578125,-0.2665557861328125,0.0450592041015625
1789481556789689600,4.290689697265625,-0.7626800537109375,-0.2563018798828125,-0.052337646484375
1789481556799659500,4.300659423828125,-1.1555328369140625,-0.055389404296875,0.036590576171875
1789481556809630700,4.310630615234375,-1.436981201171875,-0.052764892578125,0.0752105712890625
1789481556819600600,4.3206005859375,-1.3369140625,-0.06182861328125,0.0861053466796875
1789481556829571600,4.330571533203125,-0.9120635986328125,-0.3944091796875,0.0257720947265625
1789481556839542500,4.34054248046875,-0.5674896240234375,-0.568603515625,0.0115509033203125
1789481556849512700,4.3505126953125,-0.4999237060546875,-0.3622589111328125,0.100128173828125
1789481556859483600,4.360483642578125,-1.3893890380859375,0.0966949462890625,0.0141448974609375
1789481556869453600,4.37045361328125,-1.780364990234375,0.1137542724609375,0.1520843505859375
1789481556879424500,4.380424560546875,-0.96685791015625,-0.643829345703125,0.0579986572265625
1789481556889395700,4.390395751953125,-0.74755859375,-0.7599639892578125,-0.0084381103515625
1789481556899365600,4.40036572265625,-0.8751220703125,-0.31182861328125,0.207763671875
1789481556909336600,4.410336669921875,-0.9629669189453125,-0.1226806640625,0.1460418701171875
1789481556919306500,4.420306396484375,-0.9779815673828125,-0.18603515625,0.0212249755859375
1789481556929277700,4.430277587890625,-1.0564727783203125,-0.4156951904296875,0.01416015625
1789481556939247600,4.44024755859375,-1.0718994140625,-0.412811279296875,0.0414886474609375
1789481556949218600,4.450218505859375,-1.06842041015625,-0.1156463623046875,0.063751220703125
1789481556959189800,4.460189697265625,-0.8012847900390625,-0.1817626953125,-0.0022430419921875
1789481556969159700,4.47015966796875,-0.87548828125,-0.1390533447265625,0.04376220703125
1789481556979130600,4.480130615234375,-0.9840850830078125,-0.2306976318359375,-0.008148193359375
1789481556989100800,4.490100830078125,-1.0877532958984375,-0.176300048828125,-0.0046234130859375
1789481556999071500,4.500071533203125,-1.116302490234375,-0.1776580810546875,0.011810302734375
1789481557009042400,4.51004248046875,-1.1440277099609375,-0.2747344970703125,-0.004547119140625
1789481557019012600,4.5200126953125,-1.169921875,-0.360565185546875,0.0001220703125
1789481557028983600,4.529983642578125,-0.8090667724609375,-0.480194091796875,-0.0184783935546875
1789481557038953500,4.539953369140625,-0.3335723876953125,-0.3175506591796875,0.030548095703125
1789481557048924700,4.549924560546875,-0.147857666015625,-0.2400970458984375,-0.037933349609375
1789481557058894600,4.55989453125,-0.160919189453125,-0.499847412109375,0.069488525390625
1789481557068865500,4.569865478515625,-1.0729522705078125,-0.0739593505859375,0.089691162109375
1789481557078836700,4.579836669921875,-1.6571502685546875,-0.0915985107421875,0.0860137939453125
1789481557088806700,4.589806640625,-1.81195068359375,0.0853729248046875,0.0843353271484375
1789481557098777600,4.599777587890625,-1.1598358154296875,-0.228363037109375,-0.1111297607421875
1789481557108747800,4.609747802734375,-0.772613525390625,-0.3527984619140625,-0.0609130859375
1789481557118718700,4.61971875,-0.7778472900390625,-0.3318023681640625,0.0787506103515625
1789481557128688600,4.629688720703125,-0.8525390625,-0.442047119140625,0.15936279296875
1789481557138659800,4.639659912109375,-0.8915557861328125,-0.4821319580078125,-0.0269012451171875
1789481557148630500,4.649630615234375,-1.1093902587890625,-0.3188934326171875,0.0071258544921875
1789481557158600400,4.659600341796875,-1.2335052490234375,-0.0983734130859375,-0.0007781982421875
1789481557168571600,4.669571533203125,-1.02130126953125,-0.2437591552734375,-0.0426483154296875
1789481557178541600,4.67954150390625,-0.7102813720703125,-0.55950927734375,-0.0442962646484375
1789481557188512500,4.689512451171875,-0.746978759765625,-0.3986358642578125,-0.106842041015625
1789481557198482400,4.699482421875,-0.8472442626953125,-0.32647705078125,0.1085662841796875
1789481557208453600,4.70945361328125,-0.988922119140625,-0.2264862060546875,0.0706329345703125
1789481557218424600,4.719424560546875,-1.0691680908203125,-0.1547088623046875,0.0067596435546875
1789481557228394500,4.72939453125,-0.9965667724609375,-0.2717437744140625,0.0155181884765625
1789481557238365700,4.73936572265625,-0.9265594482421875,-0.2227020263671875,-0.087615966796875
1789481557248335600,4.749335693359375,-0.7189483642578125,-0.1141815185546875,-0.0098876953125
1789481557258306600,4.759306640625,-0.7058563232421875,-0.1084747314453125,-0.018463134765625
1789481557268276700,4.76927685546875,-0.9692535400390625,-0.1795654296875,0.09552001953125
1789481557278247700,4.77924755859375,-1.3682708740234375,-0.120391845703125,0.0307159423828125
1789481557288218600,4.789218505859375,-1.808929443359375,-0.0658111572265625,0.02880859375
1789481557298188800,4.799188720703125,-1.395233154296875,-0.20904541015625,-0.0153656005859375
1789481557308159500,4.809159423828125,-0.5343780517578125,-0.5966644287109375,-0.0215301513671875
1789481557318129700,4.819129638671875,-0.0030517578125,-0.711822509765625,-0.000152587890625
1789481557328100600,4.8291005859375,-0.3246612548828125,-0.4716949462890625,0.1087646484375
1789481557338070500,4.839070556640625,-1.048065185546875,0.01129150390625,0.047607421875
1789481557348041500,4.84904150390625,-1.4764251708984375,0.0840911865234375,-0.0172271728515625
1789481557358012700,4.8590126953125,-1.400421142578125,-0.39093017578125,-0.037078857421875
1789481557367982600,4.868982666015625,-1.1225433349609375,-0.63092041015625,-0.1411285400390625
1789481557377953500,4.87895361328125,-0.99151611328125,-0.3794097900390625,0.0513916015625
1789481557387923700,4.888923828125,-0.794830322265625,-0.2549591064453125,0.004547119140625
1789481557397894700,4.898894775390625,-0.660125732421875,-0.2904052734375,0.029449462890625
1789481557407864600,4.908864501953125,-0.7197723388671875,-0.3728485107421875,-0.027069091796875
1789481557417835800,4.918835693359375,-0.8406829833984375,-0.385284423828125,-0.04071044921875
1789481557427806700,4.928806640625,-0.910797119140625,-0.181732177734375,-0.0012359619140625
1789481557437776600,4.938776611328125,-0.8192901611328125,-0.1403656005859375,-0.021820068359375
1789481557447747600,4.94874755859375,-0.9012298583984375,-0.1432952880859375,-0.0106964111328125
1789481557457717800,4.9587177734375,-1.283203125,0.045501708984375,0.0366058349609375
1789481557467688400,4.9686884765625,-1.635162353515625,0.025177001953125,-0.04290771484375
1789481557477658600,4.97865869140625,-1.7909698486328125,-0.09661865234375,0.0516815185546875
1789481557487629600,4.988629638671875,-1.707672119140625,-0.4025115966796875,0.1528778076171875
1789481557497599500,4.998599609375,-1.535400390625,-0.3425445556640625,0.0511627197265625
1789481557507570400,5.0085703125,-1.1762847900390625,-0.23455810546875,0.13287353515625
1789481557517541600,5.018541748046875,-0.475006103515625,-0.398223876953125,-0.021392822265625
1789481557527511600,5.028511474609375,0.096221923828125,-0.475372314453125,-0.04034423828125
1789481557537482500,5.038482421875,0.3510284423828125,-0.697509765625,-0.06048583984375
1789481557547452700,5.04845263671875,0.0748443603515625,-0.7117919921875,-0.083526611328125
1789481557557423600,5.058423583984375,-1.1892547607421875,-0.0186614990234375,-0.0466461181640625
1789481557567393500,5.0683935546875,-1.919525146484375,0.4397125244140625,0.093292236328125
1789481557577364700,5.07836474609375,-1.5528411865234375,-0.090667724609375,-0.1922760009765625
1789481557587335700,5.088335693359375,-0.9805450439453125,-0.4106903076171875,-0.1101531982421875
1789481557597305600,5.0983056640625,-0.9905242919921875,-0.363006591796875,0.0634765625
1789481557607276800,5.10827685546875,-1.3299407958984375,0.00799560546875,0.041473388671875
1789481557617246700,5.118246826171875,-1.2870941162109375,0.0183258056640625,-0.0924530029296875
1789481557627217400,5.128217529296875,-1.149566650390625,-0.6114501953125,-0.0173187255859375
1789481557637187800,5.138187744140625,-1.08056640625,-0.64044189453125,-0.003692626953125
1789481557647158500,5.148158447265625,-0.641204833984375,-0.5990142822265625,-0.076873779296875
1789481557657128400,5.15812841796875,-0.2646942138671875,-0.4833984375,-0.1807403564453125
1789481557667099600,5.168099609375,-0.254974365234375,-0.6551971435546875,-0.008544921875
1789481557677070600,5.178070556640625,-0.4934844970703125,-0.8011322021484375,0.044342041015625
1789481557687040500,5.18804052734375,-1.1119384765625,-0.2302398681640625,0.04425048828125
1789481557697011700,5.19801171875,-1.2349090576171875,-0.0208740234375,0.076324462890625
1789481557706981600,5.207981689453125,-0.923248291015625,-0.0177459716796875,0.04241943359375
1789481557716952600,5.21795263671875,-0.60528564453125,-0.2079010009765625,-0.1962127685546875
1789481557726922500,5.227922607421875,-0.71728515625,-0.238525390625,-0.1853790283203125
1789481557736893700,5.237893798828125,-1.3694915771484375,0.1506500244140625,-0.0041046142578125
1789481557746863600,5.247863525390625,-2.1633758544921875,0.5167083740234375,0.0048065185546875
1789481557756834600,5.25783447265625,-0.8714752197265625,-0.4887847900390625,-0.285552978515625
1789481557766804700,5.2678046875,-1.06787109375,-0.2338104248046875,-0.087615966796875
1789481557776775700,5.277775634765625,-0.2399749755859375,-0.6531524658203125,0.0557708740234375
1789481557786746600,5.28774658203125,0.0861053466796875,-0.90972900390625,-0.0313262939453125
1789481557796716800,5.297716796875,-0.311004638671875,0.027435302734375,0.15838623046875
1789481557806687500,5.3076875,-0.838775634765625,0.12646484375,0.19061279296875
1789481557816657700,5.31765771484375,-1.4268798828125,-0.2871246337890625,-0.012664794921875
1789481557826628600,5.327628662109375,-1.871337890625,-0.022735595703125,-0.062957763671875
1789481557836599600,5.337599609375,-1.699127197265625,-0.013641357421875,0.02142333984375
1789481557846570500,5.347570556640625,-1.0746612548828125,-0.2759552001953125,0.1432647705078125
1789481557856540700,5.357540771484375,-0.8689422607421875,-0.2854461669921875,-0.2201385498046875
1789481557866511600,5.36751171875,-1.0018157958984375,-0.35699462890625,0.1701507568359375
1789481557876481500,5.3774814453125,-1.2864532470703125,-0.26629638671875,0.042510986328125
1789481557886452700,5.38745263671875,-1.190948486328125,-0.2643280029296875,-0.2199249267578125
1789481557896422700,5.397422607421875,-0.926422119140625,-0.357818603515625,0.0003814697265625
1789481557906393600,5.4073935546875,-0.755615234375,-0.3994598388671875,0.0390625
1789481557916363800,5.41736376953125,-0.62188720703125,-0.441192626953125,0.037353515625
1789481557926334700,5.427334716796875,-0.734954833984375,-0.2910003662109375,-0.094879150390625
1789481557936304600,5.4373046875,-0.80609130859375,-0.220123291015625,-0.1118927001953125
1789481557946275600,5.447275634765625,-0.7904510498046875,-0.372772216796875,-0.1750335693359375
1789481557956246500,5.45724658203125,-0.8543243408203125,-0.4580841064453125,-0.1889190673828125
1789481557966216400,5.467216552734375,-1.2092742919921875,-0.096435546875,-0.1201171875
1789481557976187600,5.477187744140625,-1.02490234375,-0.234405517578125,-0.13690185546875
1789481557986157600,5.487157470703125,-0.955047607421875,0.097198486328125,-0.09490966796875
1789481557996128500,5.49712841796875,-0.9355316162109375,0.1458587646484375,-0.231964111328125
1789481558006098400,5.507098388671875,-0.8558197021484375,-0.4735565185546875,-0.1290283203125
1789481558016069600,5.517069580078125,-1.0132904052734375,-0.3901519775390625,0.0793609619140625
1789481558026039600,5.52703955078125,-0.9672393798828125,-0.3895263671875,0.079620361328125
1789481558036010500,5.537010498046875,-0.793609619140625,-0.5720672607421875,-0.0126953125
1789481558045980700,5.546980712890625,-0.8368072509765625,-0.3661956787109375,-0.0390167236328125
1789481558055951600,5.55695166015625,-0.880615234375,-0.3158721923828125,-0.0271759033203125
1789481558065922600,5.566922607421875,-0.9949493408203125,-0.16064453125,-0.032745361328125
1789481558075892700,5.576892822265625,-1.004547119140625,-0.2606658935546875,-0.0127105712890625
1789481558085863700,5.58686376953125,-1.12591552734375,-0.1545867919921875,0.0068206787109375
1789481558095833900,5.596833740234375,-1.1798553466796875,-0.2071533203125,-0.0144805908203125
1789481558105804800,5.6068046875,-1.01153564453125,-0.3667144775390625,-0.026153564453125
1789481558115775000,5.61677490234375,-1.018829345703125,-0.284515380859375,-0.0830841064453125
1789481558125745700,5.62674560546875,-1.0105438232421875,-0.3525390625,0.0064544677734375
1789481558135715800,5.6367158203125,-0.9946746826171875,-0.2823486328125,0.031524658203125
1789481558145686800,5.646686767578125,-0.8240509033203125,-0.4596405029296875,0.1114654541015625
1789481558155656700,5.65665673828125,-0.7147979736328125,-0.45513916015625,0.0611114501953125
1789481558165628000,5.6666279296875,-0.775360107421875,-0.2686614990234375,0.0623626708984375
1789481558175598800,5.676598876953125,-1.0336456298828125,-0.0239715576171875,0.09918212890625
1789481558185568800,5.68656884765625,-1.15185546875,-0.03314208984375,0.0673675537109375
1789481558195540000,5.6965400390625,-1.0206756591796875,-0.333282470703125,0.09930419921875
1789481558205510000,5.706510009765625,-0.97674560546875,-0.2903289794921875,0.08856201171875
1789481558215480800,5.716480712890625,-0.9568634033203125,-0.162994384765625,0.0677032470703125
1789481558225450800,5.72645068359375,-0.933013916015625,-0.198272705078125,0.0150146484375
1789481558235422000,5.736421875,-0.894805908203125,-0.2318267822265625,0.0730743408203125
1789481558245392000,5.746391845703125,-0.8827362060546875,-0.2730560302734375,0.033355712890625
1789481558255362800,5.75636279296875,-0.8345489501953125,-0.2976226806640625,0.143218994140625
1789481558265333000,5.7663330078125,-0.8657073974609375,-0.2172698974609375,0.15582275390625
1789481558275304000,5.776303955078125,-0.9188079833984375,-0.1409149169921875,0.1810455322265625
1789481558285274600,5.786274658203125,-0.910552978515625,-0.27081298828125,0.04150390625
1789481558295245000,5.7962451171875,-0.99188232421875,-0.392364501953125,-0.0143890380859375
1789481558305215700,5.8062158203125,-1.0899810791015625,-0.3585662841796875,0.042144775390625
1789481558315185700,5.816185546875,-1.043304443359375,-0.258880615234375,-0.084686279296875
1789481558325156900,5.826156982421875,-0.84344482421875,-0.3732757568359375,0.0548553466796875
1789481558335126800,5.836126708984375,-0.8762969970703125,-0.3940582275390625,0.01068115234375
1789481558345097700,5.84609765625,-0.917205810546875,-0.3784942626953125,-0.0384674072265625
1789481558355068000,5.85606787109375,-1.057861328125,-0.2596588134765625,-0.08551025390625
1789481558365038800,5.866038818359375,-1.1110992431640625,-0.172943115234375,-0.133056640625
1789481558375007700,5.8760078125,-1.01239013671875,-0.2346649169921875,-0.0323638916015625
1789481558384978700,5.885978759765625,-0.90460205078125,-0.3345184326171875,-0.036102294921875
1789481558394948900,5.895948974609375,-0.9512481689453125,-0.3022613525390625,0.0361785888671875
1789481558404919800,5.905919921875,-1.0771942138671875,-0.17547607421875,0.037322998046875
1789481558414889700,5.9158896484375,-0.9724273681640625,-0.2364501953125,0.0570526123046875
1789481558424861000,5.92586083984375,-0.8697967529296875,-0.2263946533203125,-0.086029052734375
1789481558434832000,5.935831787109375,-0.864501953125,-0.2576141357421875,0.0643768310546875
1789481558444801800,5.9458017578125,-1.0029754638671875,-0.1781463623046875,0.0058746337890625
1789481558454773000,5.95577294921875,-1.12908935546875,-0.0927886962890625,-0.0373687744140625
1789481558464743000,5.965742919921875,-1.1333770751953125,-0.1178131103515625,-0.0622711181640625
1789481558474713900,5.9757138671875,-1.0167999267578125,-0.238525390625,-0.1631622314453125
1789481558484683800,5.985683837890625,-0.9102630615234375,-0.3330535888671875,-0.0330657958984375
1789481558494655000,5.995655029296875,-0.809478759765625,-0.2941131591796875,-0.0628814697265625
1789481558504625000,6.005625,-0.9554290771484375,-0.218017578125,-0.0080108642578125
1789481558514595800,6.015595947265625,-1.02313232421875,-0.2308349609375,-0.053009033203125
1789481558524566000,6.02556591796875,-0.98687744140625,-0.328704833984375,-0.00360107421875
1789481558534537000,6.035536865234375,-0.98577880859375,-0.356475830078125,-0.12396240234375
1789481558544507600,6.045507568359375,-0.9096527099609375,-0.40447998046875,-0.029754638671875
1789481558554477800,6.055477783203125,-0.8201751708984375,-0.4112396240234375,-0.11663818359375
1789481558564448800,6.06544873046875,-0.642608642578125,-0.5421600341796875,-0.10418701171875
1789481558574418700,6.075418701171875,-0.829010009765625,-0.376251220703125,0.0069427490234375
1789481558584390000,6.085389892578125,-0.9809112548828125,-0.28253173828125,-0.019500732421875
1789481558594359800,6.09535986328125,-1.0682220458984375,-0.2905731201171875,-0.041717529296875
1789481558604330800,6.105330810546875,-1.08380126953125,-0.3775177001953125,-0.0662841796875
1789481558614301000,6.115301025390625,-1.1551361083984375,-0.2394866943359375,-0.0540771484375
1789481558624272000,6.12527197265625,-0.9533538818359375,-0.3884124755859375,-0.0048370361328125
1789481558634241800,6.13524169921875,-0.7320709228515625,-0.4950714111328125,-0.08624267578125
1789481558644213000,6.145212890625,-0.897979736328125,-0.24188232421875,-0.06512451171875
1789481558654184000,6.155183837890625,-0.9290771484375,-0.22698974609375,-0.0669403076171875
1789481558664153900,6.16515380859375,-1.0052490234375,-0.15740966796875,0.041717529296875
1789481558674125000,6.175125,-0.9451904296875,-0.2845458984375,-0.0179443359375
1789481558684095000,6.185094970703125,-0.9691009521484375,-0.19635009765625,0.1138153076171875
1789481558694066000,6.19506591796875,-1.0341644287109375,-0.107574462890625,-0.03472900390625
1789481558704035800,6.205035888671875,-1.1384429931640625,-0.1044769287109375,0.122894287109375
1789481558714006800,6.2150068359375,-1.1735687255859375,-0.11334228515625,-0.0067291259765625
1789481558723977000,6.22497705078125,-0.91558837890625,-0.3903045654296875,0.0302734375
1789481558733947600,6.23494775390625,-0.873779296875,-0.314056396484375,0.11956787109375
1789481558743917800,6.244917724609375,-0.8132781982421875,-0.300018310546875,0.05438232421875
1789481558753888800,6.254888671875,-0.89190673828125,-0.1790313720703125,0.0845947265625
1789481558763858700,6.264858642578125,-0.8749542236328125,-0.29736328125,-0.03271484375
1789481558773830000,6.274829833984375,-0.9935302734375,-0.3083648681640625,0.0797576904296875
1789481558783800800,6.28480078125,-1.05010986328125,-0.2152252197265625,0.0735931396484375
1789481558793770800,6.294770751953125,-0.9539642333984375,-0.310699462890625,-0.0222930908203125
1789481558803742000,6.304741943359375,-1.0302581787109375,-0.3670501708984375,0.06719970703125
1789481558813712000,6.3147119140625,-1.047607421875,-0.426971435546875,0.047393798828125
1789481558823682800,6.324682861328125,-1.0224456787109375,-0.3358306884765625,0.0925750732421875
1789481558833652700,6.33465283203125,-0.9088134765625,-0.3328857421875,0.05950927734375
1789481558843624000,6.3446240234375,-0.747100830078125,-0.3746185302734375,0.1125030517578125
1789481558853593900,6.35459375,-0.83319091796875,-0.28094482421875,0.0381317138671875
1789481558863565000,6.36456494140625,-0.839508056640625,-0.349822998046875,0.0734710693359375
1789481558873535000,6.374534912109375,-1.022125244140625,-0.1875,0.017669677734375
1789481558883506000,6.384505859375,-1.0350799560546875,-0.159637451171875,-0.06982421875
1789481558893475800,6.394475830078125,-0.9976806640625,-0.2453765869140625,-0.0851898193359375
1789481558903447000,6.404447021484375,-1.01800537109375,-0.198333740234375,-0.0157928466796875
1789481558913417700,6.414417724609375,-1.12554931640625,-0.201568603515625,-0.1224517822265625
1789481558923387600,6.4243876953125,-1.1950225830078125,-0.123046875,-0.081085205078125
1789481558933358800,6.43435888671875,-0.971099853515625,-0.2215576171875,-0.1355438232421875
1789481558943328800,6.444328857421875,-0.817840576171875,-0.3262786865234375,-0.0787811279296875
1789481558953299700,6.4542998046875,-0.8495941162109375,-0.2508697509765625,0.0809173583984375
1789481558963270000,6.464269775390625,-0.8079376220703125,-0.3731689453125,-0.0103759765625
1789481558973240800,6.47424072265625,-0.83795166015625,-0.252593994140625,0.0406646728515625
1789481558983210800,6.484210693359375,-0.97149658203125,-0.2404937744140625,0.04339599609375
1789481558993182000,6.494181884765625,-1.135162353515625,-0.176300048828125,-0.058074951171875
1789481559003152000,6.50415185546875,-1.106170654296875,-0.33990478515625,-0.0099334716796875
1789481559013122800,6.514122802734375,-1.1351470947265625,-0.2249755859375,-0.0480194091796875
1789481559023092700,6.5240927734375,-1.0887908935546875,-0.304595947265625,-0.038238525390625
1789481559033064000,6.53406396484375,-0.9359283447265625,-0.4003448486328125,-0.074981689453125
1789481559043033900,6.544033935546875,-0.816162109375,-0.3477935791015625,-0.1044769287109375
1789481559053004800,6.5540048828125,-0.7292022705078125,-0.4091033935546875,-0.0435943603515625
1789481559062976000,6.56397607421875,-0.733184814453125,-0.363433837890625,0.009613037109375
1789481559072946000,6.57394580078125,-0.875518798828125,-0.2318572998046875,0.0941162109375
1789481559082916900,6.583916748046875,-0.96197509765625,-0.206756591796875,0.058319091796875
1789481559092887000,6.593886962890625,-1.051788330078125,-0.220245361328125,0.0975799560546875
1789481559102857700,6.603857666015625,-1.1065673828125,-0.3074188232421875,0.0677947998046875
1789481559112828000,6.613827880859375,-1.0714111328125,-0.321014404296875,0.0679168701171875
1789481559122798800,6.623798828125,-1.1260833740234375,-0.1955108642578125,0.052459716796875
1789481559132768800,6.633768798828125,-0.94873046875,-0.2429351806640625,-0.0291900634765625
1789481559142739700,6.64373974609375,-0.7254791259765625,-0.394622802734375,-0.073272705078125
1789481559152710000,6.6537099609375,-0.8025054931640625,-0.3021392822265625,0.1014862060546875
1789481559162680800,6.663680908203125,-0.8756103515625,-0.1931915283203125,0.100372314453125
1789481559172650800,6.673650634765625,-0.93353271484375,-0.1263885498046875,0.044036865234375
1789481559182622000,6.6836220703125,-0.868560791015625,-0.2363739013671875,-0.0096282958984375
1789481559192592000,6.693591796875,-0.9199676513671875,-0.2737884521484375,-0.1312103271484375
1789481559202562800,6.703562744140625,-1.0353851318359375,-0.2305755615234375,0.0478057861328125
1789481559212532700,6.71353271484375,-1.1242828369140625,-0.2317657470703125,0.03485107421875
1789481559222504000,6.72350390625,-1.1094207763671875,-0.2419281005859375,0.05853271484375
1789481559232475000,6.733474853515625,-1.05169677734375,-0.22674560546875,-0.0717315673828125
1789481559242444800,6.74344482421875,-0.893218994140625,-0.4306488037109375,-0.120147705078125
1789481559252416000,6.753416015625,-0.9173583984375,-0.3348541259765625,0.0078125
1789481559262386000,6.763385986328125,-0.995452880859375,-0.1956024169921875,-0.002838134765625
1789481559272356900,6.77335693359375,-0.897857666015625,-0.3143463134765625,-0.0479736328125
1789481559282327000,6.7833271484375,-0.9948883056640625,-0.3394927978515625,-0.0781097412109375
1789481559292297700,6.793297607421875,-0.9674835205078125,-0.37335205078125,-0.14190673828125
1789481559302268000,6.803267822265625,-0.941925048828125,-0.306488037109375,-0.003997802734375
1789481559312238800,6.81323876953125,-0.9820404052734375,-0.24420166015625,-0.022857666015625
1789481559322208800,6.823208740234375,-0.983123779296875,-0.2958831787109375,-0.0833740234375
1789481559332179700,6.8331796875,-1.0437164306640625,-0.206298828125,-0.032012939453125
1789481559342149600,6.843149658203125,-1.0698394775390625,-0.21759033203125,0.0065765380859375
1789481559352120800,6.853120849609375,-0.84246826171875,-0.297332763671875,0.0538482666015625
1789481559362090800,6.8630908203125,-0.7911224365234375,-0.272125244140625,0.130340576171875
1789481559372062000,6.87306201171875,-0.72119140625,-0.371429443359375,0.0954437255859375
1789481559382032000,6.883031982421875,-0.8633270263671875,-0.1496429443359375,0.077178955078125
1789481559392002800,6.8930029296875,-0.8696746826171875,-0.1832427978515625,0.0856475830078125
1789481559401972700,6.90297265625,-0.9582672119140625,-0.196502685546875,0.0232391357421875
1789481559411944000,6.91294384765625,-1.016448974609375,-0.19940185546875,0.05865478515625
1789481559421913900,6.922913818359375,-1.1199493408203125,-0.2050933837890625,-0.0061798095703125
1789481559431884800,6.932884765625,-1.0056304931640625,-0.2400970458984375,-0.0111083984375
1789481559441855000,6.94285498046875,-1.010833740234375,-0.31524658203125,-0.0117340087890625
1789481559451826000,6.952825927734375,-0.9987945556640625,-0.2537078857421875,-0.107513427734375
1789481559461795800,6.9627958984375,-1.0169219970703125,-0.27008056640625,-0.0289154052734375
1789481559471767000,6.97276708984375,-0.9485015869140625,-0.34320068359375,0.0025787353515625
1789481559481737000,6.982737060546875,-0.97216796875,-0.2713470458984375,0.0749359130859375
1789481559491708000,6.9927080078125,-0.9296417236328125,-0.3819580078125,0.118255615234375
1789481559501677800,7.002677734375,-0.909576416015625,-0.31787109375,0.118377685546875
1789481559511648800,7.012648681640625,-0.8749847412109375,-0.4393310546875,0.049835205078125
1789481559521619000,7.022618896484375,-0.872222900390625,-0.4065093994140625,0.0908203125
1789481559531589600,7.032589599609375,-0.9737091064453125,-0.40325927734375,0.1097869873046875
1789481559541560800,7.042560791015625,-0.9544677734375,-0.303436279296875,0.068695068359375
1789481559551530800,7.05253076171875,-0.923980712890625,-0.3687286376953125,0.035919189453125
1789481559561501700,7.062501708984375,-0.9473876953125,-0.3511810302734375,-0.0091552734375
1789481559571472000,7.072471923828125,-0.8933563232421875,-0.2990264892578125,-0.0400390625
1789481559581442800,7.08244287109375,-0.8642120361328125,-0.294708251953125,0.09765625
1789481559591412700,7.092412841796875,-0.801177978515625,-0.2689361572265625,-0.0106048583984375
1789481559601384000,7.102384033203125,-0.8391571044921875,-0.2530364990234375,-0.0032196044921875
1789481559611353900,7.112353759765625,-0.98126220703125,-0.2453765869140625,-0.01422119140625
1789481559621324800,7.12232470703125,-0.9993896484375,-0.2948150634765625,0.102325439453125
1789481559631295000,7.132294921875,-1.19305419921875,-0.1170654296875,0.0713958740234375
1789481559641266000,7.142265869140625,-1.021575927734375,-0.24798583984375,0.1251068115234375
1789481559651235800,7.15223583984375,-0.9362945556640625,-0.28704833984375,-0.0330047607421875
1789481559661207000,7.16220703125,-0.9308319091796875,-0.2445220947265625,-0.0034027099609375
1789481559671177000,7.172177001953125,-1.0350341796875,-0.229034423828125,0.0109100341796875
1789481559681148000,7.18214794921875,-1.099090576171875,-0.1460418701171875,-0.0147857666015625
1789481559691117800,7.192117919921875,-1.0062408447265625,-0.2886810302734375,0.0799407958984375
1789481559701089000,7.202089111328125,-0.9317779541015625,-0.2990264892578125,-0.034698486328125
1789481559711059000,7.212058837890625,-0.8999176025390625,-0.235626220703125,0.106109619140625
1789481559721029600,7.222029541015625,-0.8802032470703125,-0.2835540771484375,0.0680389404296875
1789481559731000000,7.232,-1.11053466796875,-0.1417236328125,0.1038818359375
1789481559740970800,7.241970703125,-1.1391754150390625,-0.2018585205078125,-0.0278167724609375
1789481559750940700,7.251940673828125,-1.0415191650390625,-0.377105712890625,-0.04583740234375
1789481559760912000,7.261911865234375,-1.012054443359375,-0.3717193603515625,-0.03338623046875
1789481559770881800,7.2718818359375,-0.9535980224609375,-0.36700439453125,0.01116943359375
1789481559780852700,7.281852783203125,-0.87213134765625,-0.3353424072265625,0.03094482421875
1789481559790822700,7.29182275390625,-0.85302734375,-0.26312255859375,0.022003173828125
1789481559800793900,7.3017939453125,-0.924163818359375,-0.24737548828125,-0.02069091796875
1789481559810763800,7.311763671875,-0.9432525634765625,-0.2421112060546875,-0.0529937744140625
1789481559820734700,7.321734619140625,-0.970947265625,-0.2450714111328125,0.0866241455078125
1789481559830705000,7.331704833984375,-0.908416748046875,-0.3250274658203125,-0.0924224853515625
1789481559840675800,7.34167578125,-1.0615081787109375,-0.24017333984375,-0.0532989501953125
1789481559850645800,7.351645751953125,-1.1269989013671875,-0.1860504150390625,-0.203826904296875
1789481559860617000,7.361616943359375,-1.1518096923828125,-0.17974853515625,-0.11236572265625
1789481559870587000,7.3715869140625,-1.062957763671875,-0.202911376953125,-0.1328582763671875
1789481559880557800,7.381557861328125,-0.927490234375,-0.32183837890625,-0.026153564453125
1789481559890528000,7.391528076171875,-0.6796722412109375,-0.3128662109375,-0.0436248779296875
1789481559900499000,7.4014990234375,-0.7916259765625,-0.1783294677734375,-0.061309814453125
1789481559910468900,7.41146875,-0.9506988525390625,-0.185333251953125,0.0121307373046875
1789481559920440000,7.421440185546875,-1.139739990234375,-0.1953887939453125,-0.0396728515625
1789481559930410000,7.431409912109375,-1.10540771484375,-0.2727508544921875,-0.05218505859375
1789481559940381000,7.441380859375,-1.0871734619140625,-0.268646240234375,-0.037445068359375
1789481559950350800,7.451350830078125,-0.9616546630859375,-0.305328369140625,-0.02294921875
1789481559960321800,7.46132177734375,-0.839141845703125,-0.3029937744140625,0.001861572265625
1789481559970292000,7.4712919921875,-0.764892578125,-0.3721771240234375,-0.1147308349609375
1789481559980262700,7.4812626953125,-0.87884521484375,-0.3098297119140625,-0.116180419921875
1789481559990232800,7.49123291015625,-0.9854736328125,-0.2313690185546875,-0.1232452392578125
1789481560000203800,7.501203857421875,-0.97528076171875,-0.2481231689453125,-0.154876708984375
1789481560010173700,7.511173583984375,-1.14727783203125,-0.2005767822265625,-0.116058349609375
1789481560020145000,7.521144775390625,-0.8661651611328125,-0.513458251953125,-0.0255584716796875
1789481560030114800,7.53111474609375,-0.902801513671875,-0.2866363525390625,0.0105743408203125
1789481560040084700,7.541084716796875,-0.826019287109375,-0.3749237060546875,-0.003509521484375
1789481560050055700,7.5510556640625,-0.9958953857421875,-0.2382354736328125,0.0165557861328125
1789481560060025900,7.56102587890625,-1.0497589111328125,-0.2577972412109375,-0.003143310546875
1789481560069996800,7.570996826171875,-0.9769744873046875,-0.368865966796875,-0.02349853515625
1789481560079966700,7.580966796875,-1.0324554443359375,-0.1987152099609375,-0.000274658203125
1789481560089938000,7.59093798828125,-1.004852294921875,-0.19622802734375,0.0261383056640625
1789481560099907300,7.6009072265625,-0.8722381591796875,-0.2681884765625,-0.041168212890625
1789481560109878300,7.610878173828125,-0.9033355712890625,-0.18890380859375,-0.014801025390625
1789481560119848200,7.62084814453125,-0.944793701171875,-0.2326812744140625,0.001251220703125
1789481560129819400,7.6308193359375,-1.0150909423828125,-0.2207489013671875,0.1593170166015625
1789481560139789300,7.640789306640625,-1.1076202392578125,-0.120574951171875,0.117706298828125
1789481560149760300,7.65076025390625,-0.964141845703125,-0.3206634521484375,0.0211334228515625
1789481560159730400,7.66073046875,-1.014312744140625,-0.2019195556640625,0.099853515625
1789481560169701400,7.670701416015625,-0.983856201171875,-0.2473907470703125,0.042327880859375
1789481560179671300,7.68067138671875,-0.775848388671875,-0.4964752197265625,0.0393829345703125
1789481560189642500,7.690642578125,-0.8969268798828125,-0.214141845703125,0.0220184326171875
1789481560199612400,7.7006123046875,-0.8963165283203125,-0.262847900390625,-0.0575103759765625
1789481560209583400,7.710583251953125,-0.9259490966796875,-0.345062255859375,0.00238037109375
1789481560219553500,7.720553466796875,-0.96722412109375,-0.334625244140625,0.0149688720703125
1789481560229524500,7.7305244140625,-1.045135498046875,-0.2881317138671875,-0.039337158203125
1789481560239494400,7.740494384765625,-1.04461669921875,-0.3487091064453125,-0.0643157958984375
1789481560249465300,7.75046533203125,-1.0952301025390625,-0.303070068359375,-0.009796142578125
1789481560259435500,7.760435546875,-1.078887939453125,-0.34210205078125,-0.0711822509765625
1789481560269406200,7.77040625,-1.020538330078125,-0.3378143310546875,-0.067657470703125
1789481560279376400,7.78037646484375,-0.7805328369140625,-0.459136962890625,0.0118865966796875
1789481560289347300,7.790347412109375,-0.806884765625,-0.294403076171875,0.0730133056640625
1789481560299317200,7.800317138671875,-0.9719696044921875,-0.147796630859375,0.0336761474609375
1789481560309288200,7.8102880859375,-0.9613037109375,-0.2690582275390625,0.04998779296875
1789481560319258400,7.82025830078125,-0.9176025390625,-0.2546844482421875,-0.0513916015625
1789481560329228300,7.830228271484375,-0.802947998046875,-0.427825927734375,0.1728973388671875
1789481560339199200,7.84019921875,-1.0843353271484375,-0.098297119140625,0.0626983642578125
1789481560349169200,7.850169189453125,-1.1440582275390625,-0.1103668212890625,0.02630615234375
1789481560359140400,7.860140380859375,-0.9297943115234375,-0.29266357421875,0.00439453125
1789481560369110300,7.8701103515625,-0.649749755859375,-0.497589111328125,0.03717041015625
1789481560379081200,7.880081298828125,-0.8315277099609375,-0.241180419921875,-0.1560516357421875
1789481560389051400,7.890051513671875,-1.0208892822265625,-0.039886474609375,-0.170440673828125
1789481560399022300,7.900022216796875,-0.8121185302734375,-0.27593994140625,-0.087799072265625
1789481560408992300,7.9099921875,-0.711181640625,-0.382354736328125,-0.032684326171875
1789481560418963500,7.91996337890625,-1.0904083251953125,-0.23773193359375,-0.1773529052734375
1789481560428933400,7.929933349609375,-1.1954803466796875,-0.1529998779296875,0.0486297607421875
1789481560438904300,7.939904296875,-1.0672760009765625,-0.18267822265625,0.1233367919921875
1789481560448874200,7.949874267578125,-0.9306182861328125,-0.4468536376953125,0.138458251953125
1789481560458845400,7.959845458984375,-0.871856689453125,-0.4371337890625,-0.0318603515625
1789481560468815400,7.9698154296875,-0.89764404296875,-0.39630126953125,0.08978271484375
1789481560478786600,7.97978662109375,-1.1029510498046875,-0.1345367431640625,0.2327117919921875
1789481560488756500,7.989756591796875,-1.1522674560546875,-0.2785491943359375,0.016845703125
1789481560498727400,7.9997275390625,-1.0636749267578125,-0.357086181640625,0.08905029296875
1789481560508697300,8.009697265625,-0.85205078125,-0.414398193359375,0.00390625
1789481560518667500,8.01966748046875,-0.863067626953125,-0.3458099365234375,-0.01568603515625
1789481560528638500,8.029638427734374,-0.978973388671875,-0.1722564697265625,0.0367889404296875
1789481560538608400,8.0396083984375,-1.017913818359375,-0.2692108154296875,-0.0412139892578125
1789481560548579300,8.049579345703124,-1.033721923828125,-0.2822418212890625,-0.0157012939453125
1789481560558549500,8.059549560546875,-0.997650146484375,-0.319366455078125,-0.0377044677734375
1789481560568520200,8.069520263671874,-1.1014556884765625,-0.170989990234375,0.0563507080078125
1789481560578490400,8.079490478515625,-1.0737762451171875,-0.2104949951171875,-0.125640869140625
1789481560588461300,8.08946142578125,-0.9078216552734375,-0.350799560546875,-0.0583648681640625
1789481560598431200,8.09943115234375,-0.7360382080078125,-0.3188018798828125,0.009613037109375
1789481560608402200,8.109402099609374,-0.677337646484375,-0.343902587890625,-0.113555908203125
1789481560618372400,8.119372314453125,-0.9434814453125,-0.18084716796875,-0.0670623779296875
1789481560628343300,8.12934326171875,-1.2070770263671875,0.0644683837890625,0.0024566650390625
1789481560638313200,8.139313232421875,-1.097259521484375,-0.1796417236328125,-0.0101470947265625
1789481560648284400,8.149284423828124,-0.91845703125,-0.3914947509765625,-0.02569580078125
1789481560658254300,8.15925439453125,-0.9453277587890625,-0.239715576171875,-0.12469482421875
1789481560668224300,8.169224365234374,-1.080841064453125,-0.0858612060546875,-0.1706390380859375
1789481560678195200,8.1791953125,-1.166351318359375,-0.0888214111328125,-0.076141357421875
1789481560688165400,8.189165283203126,-1.0646514892578125,-0.2336883544921875,-0.0506744384765625
1789481560698136300,8.19913623046875,-0.83953857421875,-0.4245147705078125,0.040313720703125
1789481560708106200,8.209106201171876,-0.7874298095703125,-0.3540191650390625,-0.048675537109375
1789481560718077400,8.219077392578125,-0.8488616943359375,-0.2812652587890625,-0.002105712890625
1789481560728047400,8.22904736328125,-0.9650421142578125,-0.20184326171875,0.0430908203125
1789481560738018300,8.239018310546875,-1.0998077392578125,-0.246826171875,-0.118377685546875
1789481560747988500,8.248988525390626,-1.1246795654296875,-0.3354644775390625,-0.16082763671875
1789481560757959400,8.25895947265625,-1.0125885009765625,-0.2379913330078125,-0.0433807373046875
1789481560767929300,8.268929443359376,-0.92633056640625,-0.2320098876953125,-0.16387939453125
1789481560777900500,8.278900634765625,-0.901275634765625,-0.35968017578125,-0.3533172607421875
1789481560787870500,8.288870361328126,-0.9541168212890625,-0.346282958984375,-0.264129638671875
1789481560797840400,8.29884033203125,-0.9546966552734375,-0.2746734619140625,-0.0686492919921875
1789481560807811300,8.308811279296876,-0.951171875,-0.178558349609375,-0.2515716552734375
1789481560817781500,8.318781494140625,-0.986236572265625,-0.2198028564453125,-0.2474517822265625
1789481560827752400,8.32875244140625,-0.920196533203125,-0.3605804443359375,-0.0173797607421875
1789481560837722400,8.338722412109375,-0.9760284423828125,-0.268585205078125,0.0714569091796875
1789481560847693600,8.348693603515626,-0.7857208251953125,-0.354736328125,0.0053863525390625
1789481560857663500,8.35866357421875,-1.0400848388671875,-0.1244354248046875,-0.031768798828125
1789481560867634200,8.36863427734375,-1.1173858642578125,-0.1314239501953125,-0.03125
1789481560877604400,8.378604248046875,-1.24578857421875,-0.2107696533203125,0.0429229736328125
1789481560887575300,8.3885751953125,-0.9698486328125,-0.284149169921875,0.09954833984375
1789481560897545200,8.398545166015625,-0.5517120361328125,-0.4604339599609375,-0.0115966796875
1789481560907515400,8.408515380859376,-0.53363037109375,-0.43853759765625,-0.1968994140625
1789481560917486300,8.418486328125,-1.0740966796875,-0.0631256103515625,-0.2229461669921875
1789481560927456300,8.428456298828126,-1.419830322265625,-0.0778350830078125,-0.2404327392578125
1789481560937427200,8.43842724609375,-1.1714324951171875,-0.2597503662109375,-0.0137481689453125
1789481560947397400,8.4483974609375,-0.7746429443359375,-0.483917236328125,-0.10040283203125
1789481560957368300,8.458368408203125,-0.6357574462890625,-0.41424560546875,-0.1181640625
1789481560967338200,8.468338134765625,-0.7448883056640625,-0.3296356201171875,-0.0341644287109375
1789481560977309400,8.478309326171875,-0.99951171875,-0.2358551025390625,0.0166778564453125
1789481560987279400,8.488279296875,-1.0683746337890625,-0.275543212890625,-0.0938262939453125
1789481560997249300,8.498249267578124,-1.202728271484375,-0.2266082763671875,-0.00909423828125
1789481561007220200,8.50822021484375,-1.0251922607421875,-0.2308502197265625,0.078521728515625
1789481561017190400,8.5181904296875,-0.8499755859375,-0.408843994140625,0.00933837890625
1789481561027161300,8.528161376953125,-0.908416748046875,-0.3699951171875,0.10028076171875
1789481561037131300,8.53813134765625,-1.075347900390625,-0.1968841552734375,0.07373046875
1789481561047102500,8.5481025390625,-0.980682373046875,-0.3086395263671875,-0.09002685546875
1789481561057072400,8.558072265625,-0.8311004638671875,-0.4607086181640625,-0.1905517578125
1789481561067043300,8.568043212890625,-0.8805694580078125,-0.3478851318359375,-0.0390777587890625
1789481561077013200,8.57801318359375,-0.927520751953125,-0.3896942138671875,0.0214691162109375
1789481561086984400,8.587984375,-1.110107421875,-0.214630126953125,0.0885467529296875
1789481561096954400,8.597954345703124,-1.1754913330078125,-0.10015869140625,0.04522705078125
1789481561106924300,8.60792431640625,-0.969451904296875,-0.297393798828125,0.04571533203125
1789481561116895500,8.6178955078125,-0.8553314208984375,-0.2949066162109375,0.05535888671875
1789481561126865400,8.627865478515625,-0.9581298828125,-0.212646484375,0.107666015625
1789481561136836400,8.63783642578125,-0.9436187744140625,-0.31915283203125,0.0616912841796875
1789481561146806300,8.64780615234375,-1.0898895263671875,-0.2016754150390625,0.0171356201171875
1789481561156777500,8.657777587890624,-1.1773681640625,-0.1232757568359375,0.0577239990234375
1789481561166747400,8.667747314453125,-1.0363616943359375,-0.219085693359375,-0.0613555908203125
1789481561176718300,8.67771826171875,-0.8309173583984375,-0.3455810546875,0.0615234375
1789481561186688500,8.6876884765625,-0.75830078125,-0.3785552978515625,-0.041748046875
1789481561196658400,8.697658447265624,-0.8897857666015625,-0.296661376953125,-0.102508544921875
1789481561206629400,8.70762939453125,-0.980316162109375,-0.236328125,-0.012359619140625
1789481561216599600,8.717599609375,-0.9080047607421875,-0.28106689453125,0.0740203857421875
1789481561226570200,8.7275703125,-0.9281005859375,-0.3390655517578125,0.1718292236328125
1789481561236540400,8.73754052734375,-1.1248016357421875,-0.2184295654296875,0.0834503173828125
1789481561246511400,8.747511474609375,-1.1747283935546875,-0.11749267578125,0.115447998046875
1789481561256481500,8.7574814453125,-0.909698486328125,-0.383392333984375,0.16522216796875
1789481561266452200,8.7674521484375,-0.863189697265625,-0.342041015625,0.178070068359375
1789481561276422100,8.777422119140626,-0.8814849853515625,-0.2582855224609375,0.1016082763671875
1789481561286392600,8.787392578125,-0.8688507080078125,-0.2229461669921875,0.0920257568359375
1789481561296363300,8.79736328125,-0.9774322509765625,-0.1579437255859375,0.1571502685546875
1789481561306333200,8.807333251953125,-1.0889434814453125,-0.193450927734375,0.036163330078125
1789481561316304400,8.817304443359374,-1.018035888671875,-0.278076171875,-0.0294647216796875
1789481561326274300,8.8272744140625,-0.979583740234375,-0.203338623046875,-0.00390625
1789481561336245200,8.837245361328126,-0.98870849609375,-0.2109832763671875,-0.0400543212890625
1789481561346215200,8.847215087890625,-0.9962158203125,-0.292938232421875,-0.0983123779296875
1789481561356185300,8.857185302734376,-1.1268463134765625,-0.142181396484375,0.0077362060546875
1789481561366156300,8.86715625,-1.01837158203125,-0.3157196044921875,-0.10430908203125
1789481561376126200,8.877126220703126,-0.9925384521484375,-0.296295166015625,-0.0897369384765625
1789481561386097400,8.887097412109375,-1.0248565673828125,-0.289520263671875,-0.0644683837890625
1789481561396067300,8.8970673828125,-0.990478515625,-0.3691253662109375,-0.1222686767578125
1789481561406038300,8.907038330078125,-1.006744384765625,-0.2306671142578125,0.04986572265625
1789481561416008200,8.91700830078125,-0.874542236328125,-0.4007110595703125,-0.03558349609375
1789481561425979400,8.9269794921875,-0.7189483642578125,-0.4628143310546875,-0.08660888671875
1789481561435949300,8.93694921875,-0.760833740234375,-0.4650421142578125,-0.0618133544921875
1789481561445919200,8.946919189453125,-1.07366943359375,-0.171661376953125,-0.0319976806640625
1789481561455890400,8.956890380859376,-1.0983428955078125,-0.2983856201171875,-0.0307769775390625
1789481561465860400,8.9668603515625,-1.0577392578125,-0.364532470703125,-0.1298370361328125
1789481561475831300,8.976831298828126,-1.0552978515625,-0.3239593505859375,-0.1650390625
1789481561485801500,8.986801513671875,-1.197967529296875,-0.1652374267578125,-0.24847412109375
1789481561495772400,8.9967724609375,-1.0753631591796875,-0.216156005859375,-0.1668701171875
1789481561505742300,9.006742431640625,-0.8857269287109375,-0.4109039306640625,-0.0634613037109375
1789481561515712300,9.016712158203125,-0.7288970947265625,-0.4642791748046875,-0.0278778076171875
1789481561525683500,9.026683349609375,-0.7894744873046875,-0.346466064453125,-0.0080108642578125
1789481561535653400,9.0366533203125,-0.9217071533203125,-0.271148681640625,-0.0822296142578125
1789481561545624300,9.046624267578125,-1.0122528076171875,-0.22833251953125,-0.038787841796875
1789481561555594500,9.056594482421875,-0.9991912841796875,-0.353179931640625,-0.1143646240234375
1789481561565565400,9.0665654296875,-0.920379638671875,-0.4001922607421875,-0.0018463134765625
1789481561575535400,9.076535400390625,-1.0277099609375,-0.2452392578125,-0.037994384765625
1789481561585505300,9.08650537109375,-0.9388580322265625,-0.2304229736328125,-0.1503753662109375
1789481561595476500,9.0964765625,-0.7858428955078125,-0.281341552734375,-0.2353973388671875
1789481561605446400,9.1064462890625,-0.7313995361328125,-0.3520965576171875,-0.1569671630859375
1789481561615417300,9.116417236328125,-0.869842529296875,-0.266510009765625,-0.026092529296875
1789481561625387500,9.126387451171874,-1.045166015625,-0.06256103515625,-0.1097412109375
1789481561635358200,9.136358154296875,-1.1078033447265625,-0.093475341796875,-0.0780487060546875
1789481561645328400,9.146328369140624,-1.04266357421875,-0.18145751953125,0.046966552734375
1789481561655298600,9.156298583984375,-0.940399169921875,-0.3056182861328125,-0.04937744140625
1789481561665269200,9.166269287109374,-0.965087890625,-0.337249755859375,-0.0148468017578125
1789481561675239400,9.176239501953125,-1.0251312255859375,-0.2656402587890625,0.0344390869140625
1789481561685210400,9.18621044921875,-1.079833984375,-0.246124267578125,0.08758544921875
1789481561695180500,9.1961806640625,-1.0316314697265625,-0.326934814453125,0.03790283203125
1789481561705151200,9.206151123046874,-1.1413726806640625,-0.3045806884765625,-0.02508544921875
1789481561715121200,9.21612109375,-1.33184814453125,-0.136566162109375,0.0340576171875
1789481561725091600,9.226091552734376,-0.7904510498046875,-0.3939971923828125,0.0288848876953125
1789481561735062300,9.236062255859375,-0.4652557373046875,-0.49566650390625,-0.0050048828125
1789481561745032200,9.2460322265625,-0.6309814453125,-0.44793701171875,-0.1054229736328125
1789481561755003400,9.25600341796875,-1.1624298095703125,-0.0398101806640625,-0.0991363525390625
1789481561764973300,9.265973388671876,-1.2650299072265625,0.03125,0.0669097900390625
1789481561774943200,9.275943115234375,-1.0213775634765625,-0.30078125,-0.02960205078125
1789481561784914200,9.2859140625,-0.9365386962890625,-0.330413818359375,-0.011993408203125
1789481561794884400,9.29588427734375,-1.0224609375,-0.302642822265625,0.06488037109375
1789481561804855300,9.305855224609376,-0.9316558837890625,-0.1591033935546875,-0.0026397705078125
1789481561814825200,9.3158251953125,-0.90313720703125,-0.270965576171875,-0.0803375244140625
1789481561824796400,9.32579638671875,-0.8900909423828125,-0.2689056396484375,-0.091949462890625
1789481561834766300,9.335766357421875,-0.7647857666015625,-0.4405517578125,-0.0144500732421875
1789481561844736300,9.345736328125,-0.8692779541015625,-0.2740936279296875,0.1668701171875
1789481561854707200,9.355707275390625,-0.9601287841796875,-0.2227630615234375,0.0333404541015625
1789481561864677400,9.365677490234376,-1.0582275390625,-0.22760009765625,-0.08660888671875
1789481561874648300,9.3756484375,-0.9886016845703125,-0.393157958984375,-0.2343902587890625
1789481561884618200,9.3856181640625,-1.0387420654296875,-0.2500762939453125,-0.2436676025390625
1789481561894588400,9.39558837890625,-0.9246673583984375,-0.3726959228515625,-0.1733551025390625
1789481561904559400,9.405559326171876,-0.99383544921875,-0.1798553466796875,-0.1605072021484375
1789481561914529300,9.415529296875,-1.0250244140625,-0.29254150390625,-0.22662353515625
1789481561924500500,9.42550048828125,-1.0473480224609375,-0.2376861572265625,-0.063232421875
1789481561934470400,9.435470458984375,-0.8206024169921875,-0.355224609375,-0.0679473876953125
1789481561944441300,9.44544140625,-0.775390625,-0.362060546875,-0.0435333251953125
1789481561954411300,9.455411376953125,-0.80364990234375,-0.3029327392578125,0.002960205078125
1789481561964381400,9.46538134765625,-0.983184814453125,-0.223846435546875,-0.0005340576171875
1789481561974352400,9.475352294921874,-1.101806640625,-0.262847900390625,-0.1830902099609375
1789481561984322300,9.485322265625,-1.1217041015625,-0.290252685546875,-0.0926513671875
1789481561994293500,9.49529345703125,-1.0847320556640625,-0.2981414794921875,-0.0204010009765625
1789481562004263400,9.505263427734375,-0.8180999755859375,-0.4191436767578125,-0.0372314453125
1789481562014233300,9.5152333984375,-0.708343505859375,-0.380126953125,-0.0941009521484375
1789481562024204300,9.525204345703125,-0.7852935791015625,-0.3338775634765625,-0.1341094970703125
1789481562034174500,9.535174560546874,-1.01068115234375,-0.156768798828125,-0.012420654296875
1789481562044145400,9.5451455078125,-1.0281219482421875,-0.2532196044921875,0.1069488525390625
1789481562054115300,9.555115234375,-0.991455078125,-0.3148651123046875,0.183258056640625
1789481562064085200,9.565085205078125,-1.0413818359375,-0.2788238525390625,0.19818115234375
1789481562074056400,9.575056396484374,-1.0478515625,-0.2143096923828125,0.14697265625
1789481562084026400,9.5850263671875,-0.861114501953125,-0.314361572265625,0.21563720703125
1789481562093998000,9.594998046875,-0.8985748291015625,-0.329925537109375,0.0293426513671875
1789481562103968000,9.604968017578125,-1.0012359619140625,-0.3213043212890625,0.0429229736328125
1789481562113938700,9.614938720703124,-1.0704498291015625,-0.1757659912109375,0.09375
1789481562123908900,9.624908935546875,-0.9564208984375,-0.2434539794921875,0.175140380859375
1789481562133879000,9.634879150390624,-0.8787841796875,-0.347503662109375,0.023956298828125
1789481562143849700,9.644849609375,-0.955413818359375,-0.337127685546875,-0.113067626953125
1789481562153820000,9.65481982421875,-1.0648345947265625,-0.2139129638671875,0.0592193603515625
1789481562163790800,9.664790771484375,-1.07806396484375,-0.1990966796875,0.02386474609375
1789481562173760800,9.6747607421875,-0.9932861328125,-0.2479400634765625,0.1115875244140625
1789481562183731000,9.68473095703125,-0.8929290771484375,-0.328948974609375,0.098663330078125
1789481562193701600,9.69470166015625,-0.854339599609375,-0.413909912109375,-0.0294189453125
1789481562203671800,9.704671875,-1.00665283203125,-0.2334136962890625,0.105072021484375
1789481562213642800,9.714642822265626,-1.058349609375,-0.2125244140625,-0.0004119873046875
1789481562223612700,9.72461279296875,-1.03857421875,-0.2887420654296875,0.031280517578125
1789481562233582800,9.734582763671876,-0.9048004150390625,-0.33563232421875,0.09637451171875
1789481562243553800,9.7445537109375,-0.925933837890625,-0.2988128662109375,0.027069091796875
1789481562253523700,9.754523681640626,-0.82098388671875,-0.3582305908203125,0.000457763671875
1789481562263495000,9.764494873046875,-0.75262451171875,-0.45123291015625,-0.1101531982421875
1789481562273464800,9.77446484375,-0.8088836669921875,-0.3695220947265625,-0.04541015625
1789481562283434800,9.784434814453125,-0.97674560546875,-0.2656097412109375,-0.0418243408203125
1789481562293405700,9.79440576171875,-1.0437469482421875,-0.25457763671875,-0.03558349609375
1789481562303376000,9.8043759765625,-1.104888916015625,-0.14569091796875,-0.125823974609375
1789481562313346800,9.814346923828126,-1.0500946044921875,-0.3105926513671875,-0.1745452880859375
1789481562323316700,9.824316650390625,-1.0230560302734375,-0.2568817138671875,0.0505828857421875
1789481562333286700,9.83428662109375,-0.993408203125,-0.242218017578125,0.0396270751953125
1789481562343257900,9.8442578125,-0.8975067138671875,-0.2424163818359375,0.0912628173828125
1789481562353227800,9.854227783203125,-0.6817626953125,-0.384979248046875,0.0911102294921875
1789481562363198700,9.86419873046875,-0.78387451171875,-0.292816162109375,0.0915985107421875
1789481562373169000,9.8741689453125,-0.961334228515625,-0.2262115478515625,0.081207275390625
1789481562383138800,9.884138916015624,-0.97882080078125,-0.2591094970703125,0.123443603515625
1789481562393109800,9.89410986328125,-0.9705352783203125,-0.31231689453125,0.0940399169921875
1789481562403079700,9.90407958984375,-1.16827392578125,-0.223968505859375,-0.02691650390625
1789481562413051000,9.91405078125,-1.280426025390625,-0.171661376953125,0.0279998779296875
1789481562423020800,9.924020751953124,-1.047637939453125,-0.344970703125,0.1198577880859375
1789481562432990700,9.93399072265625,-0.9171905517578125,-0.328338623046875,0.1027679443359375
1789481562442962000,9.9439619140625,-0.6879119873046875,-0.464324951171875,0.0063018798828125
1789481562452931800,9.953931884765625,-0.6794891357421875,-0.35015869140625,0.0490570068359375
1789481562462902800,9.96390283203125,-0.7100067138671875,-0.3607940673828125,0.00482177734375
1789481562472872700,9.973872802734375,-1.0759735107421875,-0.2697601318359375,0.0526885986328125
1789481562482843000,9.9838427734375,-1.135040283203125,-0.24163818359375,0.124755859375
1789481562492813800,9.993813720703125,-0.944244384765625,-0.3389892578125,0.15850830078125
1789481562502783700,10.00378369140625,-0.6408538818359375,-0.4687957763671875,0.0306549072265625
1789481562512754000,10.01375390625,-0.74566650390625,-0.428619384765625,-0.18951416015625
1789481562522724900,10.023724853515626,-1.1797332763671875,-0.1403961181640625,-0.1251373291015625
1789481562532694800,10.03369482421875,-1.3618011474609375,-0.08648681640625,0.0078887939453125
1789481562542666000,10.043666015625,-1.2126617431640625,-0.275299072265625,-0.0203399658203125
1789481562552636000,10.053635986328125,-0.9460601806640625,-0.346405029296875,-0.0599517822265625
1789481562562605800,10.063605712890626,-0.793121337890625,-0.3448333740234375,0.007232666015625
1789481562572576800,10.07357666015625,-0.764801025390625,-0.2436370849609375,0.0500946044921875
1789481562582547000,10.083546875,-0.929656982421875,-0.178253173828125,-0.0849609375
1789481562592518000,10.093517822265625,-1.02838134765625,-0.3498077392578125,-0.2944183349609375
1789481562602487800,10.10348779296875,-1.0766754150390625,-0.1573333740234375,0.0407867431640625
1789481562612457700,10.113457763671875,-0.911163330078125,-0.215850830078125,-0.087371826171875
1789481562622429000,10.123428955078126,-0.99737548828125,-0.1552886962890625,-0.1776275634765625
1789481562632398800,10.13339892578125,-0.998382568359375,-0.2710723876953125,-0.126708984375
1789481562642369800,10.143369873046876,-0.92474365234375,-0.395599365234375,-0.1224822998046875
1789481562652340000,10.153340087890625,-1.033782958984375,-0.133514404296875,-0.018524169921875
1789481562662310000,10.163309814453125,-1.0858001708984375,-0.0749053955078125,-0.0397796630859375
1789481562672280800,10.17328076171875,-0.90399169921875,-0.2551727294921875,0.055389404296875
1789481562682250800,10.183250732421875,-0.7775115966796875,-0.4602203369140625,0.0071258544921875
1789481562692221000,10.193220947265624,-0.791839599609375,-0.399810791015625,-0.0142059326171875
1789481562702191900,10.20319189453125,-0.9777679443359375,-0.222686767578125,-0.004913330078125
1789481562712161800,10.213161865234374,-1.0791168212890625,-0.2073974609375,0.012542724609375
1789481562722133000,10.223133056640625,-1.026031494140625,-0.318328857421875,-0.181488037109375
1789481562732103000,10.23310302734375,-0.9103546142578125,-0.456329345703125,-0.1504974365234375
1789481562742072800,10.24307275390625,-0.9327239990234375,-0.3751983642578125,0.002532958984375
1789481562752044000,10.2530439453125,-0.975341796875,-0.2307586669921875,-0.126922607421875
1789481562762014000,10.263013916015625,-1.0104522705078125,-0.2578125,-0.1452789306640625
1789481562771984000,10.27298388671875,-0.891998291015625,-0.385894775390625,-0.1634979248046875
1789481562781954800,10.282954833984375,-0.8574371337890625,-0.3824615478515625,-0.031005859375
1789481562791925000,10.292925048828126,-0.84942626953125,-0.3119659423828125,-0.032684326171875
1789481562801896000,10.30289599609375,-0.9350128173828125,-0.2281646728515625,-0.1142425537109375
1789481562811865900,10.312865966796876,-1.0124359130859375,-0.2324066162109375,0.0173797607421875
1789481562821835800,10.322835693359375,-1.0229949951171875,-0.2642822265625,-0.038299560546875
1789481562831807000,10.332806884765626,-1.06451416015625,-0.2506256103515625,0.052825927734375
1789481562841777000,10.34277685546875,-1.0594482421875,-0.2233734130859375,0.14764404296875
1789481562851747800,10.352747802734376,-1.0028076171875,-0.23028564453125,0.0481414794921875
1789481562861718000,10.362718017578125,-0.8383636474609375,-0.270751953125,0.1181182861328125
1789481562871688000,10.37268798828125,-0.6754150390625,-0.4122314453125,0.008514404296875
1789481562881659000,10.382658935546875,-0.849609375,-0.2589874267578125,0.0382232666015625
1789481562891628800,10.39262890625,-0.970794677734375,-0.190582275390625,0.1003570556640625
1789481562901599000,10.402598876953125,-0.9751434326171875,-0.2927093505859375,0.13360595703125
1789481562911570000,10.41256982421875,-1.01080322265625,-0.3352508544921875,0.088287353515625
1789481562921539800,10.422539794921875,-1.037078857421875,-0.27557373046875,0.029449462890625
1789481562931511000,10.432510986328126,-0.98828125,-0.2813262939453125,0.006072998046875
1789481562941481000,10.44248095703125,-0.8868255615234375,-0.3919677734375,0.0495452880859375
1789481562951451000,10.452450927734375,-0.941558837890625,-0.2901458740234375,-0.0166015625
1789481562961422000,10.462422119140625,-0.9651641845703125,-0.3173828125,-0.0302276611328125
1789481562971392000,10.47239208984375,-1.039398193359375,-0.31341552734375,0.0720672607421875
1789481562981362000,10.48236181640625,-1.022705078125,-0.3234405517578125,0.1236114501953125
1789481562991332900,10.492332763671875,-0.931549072265625,-0.3937835693359375,0.13055419921875
1789481563001303000,10.502302978515624,-0.9702606201171875,-0.2935333251953125,0.082763671875
1789481563011274000,10.51227392578125,-0.8906402587890625,-0.36773681640625,0.061767578125
1789481563021244000,10.522243896484374,-0.863189697265625,-0.3348388671875,-0.0290679931640625
1789481563031213800,10.5322138671875,-0.977294921875,-0.2597503662109375,0.0293121337890625
1789481563041185000,10.54218505859375,-0.933197021484375,-0.3458709716796875,0.13116455078125
1789481563051155000,10.552155029296875,-1.01348876953125,-0.269134521484375,0.165008544921875
1789481563061124900,10.562124755859376,-1.0610198974609375,-0.1846466064453125,0.0484161376953125
1789481563071096000,10.572095947265625,-0.888397216796875,-0.26971435546875,-0.0001220703125
1789481563081066000,10.58206591796875,-0.9196014404296875,-0.2037811279296875,0.0059051513671875
1789481563091036700,10.59203662109375,-0.9671478271484375,-0.2572174072265625,0.0839385986328125
1789481563101007000,10.602007080078126,-1.032806396484375,-0.226104736328125,0.142730712890625
1789481563110977000,10.61197705078125,-0.93096923828125,-0.2824249267578125,0.089385986328125
1789481563120947700,10.62194775390625,-0.94342041015625,-0.1859283447265625,0.01446533203125
1789481563130918000,10.63191796875,-0.91754150390625,-0.2884063720703125,-0.13592529296875
1789481563140888000,10.64188818359375,-1.0185699462890625,-0.263336181640625,-0.089263916015625
1789481563150858800,10.651858642578125,-1.140350341796875,-0.1905517578125,-0.111328125
1789481563160829000,10.661828857421876,-1.0636444091796875,-0.3057861328125,-0.1349334716796875
1789481563170798800,10.671798828125,-0.977264404296875,-0.3058624267578125,-0.1536712646484375
1789481563180770000,10.68177001953125,-0.9370269775390625,-0.320465087890625,-0.136199951171875
1789481563190740000,10.691739990234375,-0.852874755859375,-0.30609130859375,-0.1891021728515625
1789481563200711000,10.7017109375,-0.8820648193359375,-0.32269287109375,-0.1726837158203125
1789481563210681000,10.71168115234375,-0.8361053466796875,-0.4180145263671875,-0.1094207763671875
1789481563220651000,10.721651123046875,-0.953460693359375,-0.33843994140625,-0.0821533203125
1789481563230621700,10.73162158203125,-0.94024658203125,-0.287078857421875,-0.0650634765625
1789481563240592100,10.741592041015625,-0.887451171875,-0.2873077392578125,-0.0377044677734375
1789481563250562000,10.75156201171875,-0.9226837158203125,-0.3156890869140625,-0.047271728515625
1789481563260532700,10.76153271484375,-0.9908599853515625,-0.22119140625,-0.1490325927734375
1789481563270503000,10.7715029296875,-1.0321502685546875,-0.2698516845703125,-0.114837646484375
1789481563280473000,10.78147314453125,-1.0545501708984375,-0.2607574462890625,-0.1109466552734375
1789481563290443800,10.79144384765625,-1.0434722900390625,-0.215911865234375,-0.138671875
1789481563300414000,10.8014140625,-0.84796142578125,-0.3455352783203125,-0.0409698486328125
1789481563310385000,10.811385009765624,-0.8564453125,-0.2711029052734375,-0.1170806884765625
1789481563320354800,10.821354736328125,-0.8492431640625,-0.2869415283203125,-0.1006317138671875
1789481563330325000,10.831324951171876,-0.858367919921875,-0.36541748046875,0.0556182861328125
1789481563340295700,10.841295654296875,-0.9013214111328125,-0.2694244384765625,0.039764404296875
1789481563350265900,10.851265869140626,-0.901275634765625,-0.29931640625,0.0052337646484375
1789481563360236000,10.861236083984375,-0.8638458251953125,-0.2931976318359375,0.0052032470703125
1789481563370206700,10.871206787109376,-0.9392547607421875,-0.246490478515625,-0.04534912109375
1789481563380177000,10.881177001953125,-1.0695953369140625,-0.195098876953125,-0.0831146240234375
1789481563390147000,10.89114697265625,-1.0929107666015625,-0.1730804443359375,0.037750244140625
1789481563400117800,10.90111767578125,-1.0921478271484375,-0.19329833984375,-0.0009765625
1789481563410088000,10.911087890625,-0.9499969482421875,-0.3281402587890625,0.04840087890625
1789481563420058000,10.92105810546875,-1.019989013671875,-0.2555999755859375,-0.0523223876953125
1789481563430028800,10.93102880859375,-1.077789306640625,-0.2602081298828125,0.0792388916015625
1789481563439999000,10.9409990234375,-1.0584564208984375,-0.328399658203125,0.12591552734375
1789481563449970000,10.950969970703126,-0.90692138671875,-0.4500274658203125,0.0756988525390625
1789481563459939800,10.96093994140625,-0.76171875,-0.4644775390625,-0.0469818115234375
1789481563469910000,10.970909912109375,-0.4866790771484375,-0.5565032958984375,-0.041290283203125
1789481563479880700,10.980880615234375,-0.7137298583984375,-0.328704833984375,0.056915283203125
1789481563489851000,10.990850830078125,-1.0645599365234375,-0.2187347412109375,0.133026123046875
1789481563499821000,11.000821044921874,-1.2687835693359375,-0.161895751953125,0.1181488037109375
1789481563509791700,11.010791748046875,-1.141204833984375,-0.260345458984375,0.0401153564453125
1789481563519762000,11.020761962890624,-0.8629608154296875,-0.3279876708984375,-0.04315185546875
1789481563529732000,11.030732177734375,-0.7431488037109375,-0.3372802734375,-0.029327392578125
1789481563539702800,11.040702880859374,-0.79962158203125,-0.3739166259765625,-0.018310546875
1789481563549673000,11.0506728515625,-0.97137451171875,-0.274444580078125,-0.0178375244140625
1789481563559643000,11.060642822265624,-1.0506439208984375,-0.272308349609375,-0.060546875
1789481563569613800,11.07061376953125,-0.873992919921875,-0.4106597900390625,-0.0478515625
1789481563579584000,11.080583984375,-0.9098358154296875,-0.2774658203125,-0.198211669921875
1789481563589554700,11.0905546875,-0.98760986328125,-0.2421417236328125,-0.1490631103515625
1789481563599524900,11.10052490234375,-1.055755615234375,-0.2516632080078125,0.0275726318359375
1789481563609495000,11.1104951171875,-1.258544921875,-0.180877685546875,-0.022857666015625
1789481563619465700,11.1204658203125,-1.11383056640625,-0.325592041015625,0.08660888671875
1789481563629436000,11.130435791015625,-1.0241851806640625,-0.25274658203125,-0.0338134765625
1789481563639406000,11.140406005859376,-0.8658447265625,-0.38372802734375,-0.0504302978515625
1789481563649376800,11.150376708984375,-0.83673095703125,-0.389404296875,0.0655975341796875
1789481563659347000,11.160346923828126,-0.849700927734375,-0.334197998046875,0.002288818359375
1789481563669317000,11.170317138671875,-0.926116943359375,-0.2730560302734375,0.0887908935546875
1789481563679287800,11.180287841796876,-0.943634033203125,-0.2410430908203125,-0.0086517333984375
1789481563689258000,11.190258056640625,-0.8353271484375,-0.2900848388671875,-0.0321502685546875
1789481563699228000,11.200227783203125,-0.9088897705078125,-0.25836181640625,-0.0291595458984375
1789481563709198800,11.21019873046875,-1.0966033935546875,-0.2326812744140625,0.0569305419921875
1789481563719169000,11.2201689453125,-1.321563720703125,-0.1927337646484375,-0.023101806640625
1789481563729139000,11.230138916015624,-1.1383056640625,-0.3322296142578125,-0.06072998046875
1789481563739110000,11.24010986328125,-0.91656494140625,-0.42633056640625,-0.040771484375
1789481563749080000,11.250080078125,-0.770172119140625,-0.3792572021484375,-0.099395751953125
1789481563759050000,11.260050048828125,-0.797698974609375,-0.3463287353515625,0.0094146728515625
1789481563769020700,11.270020751953124,-0.7501068115234375,-0.3889617919921875,-0.017578125
1789481563778991000,11.2799912109375,-0.7308502197265625,-0.281585693359375,-0.019012451171875
1789481563788961000,11.2899609375,-0.873504638671875,-0.281585693359375,-0.039703369140625
1789481563798931700,11.299931640625,-1.0724639892578125,-0.1238861083984375,-0.0783843994140625
1789481563808902000,11.30990185546875,-1.110504150390625,-0.20782470703125,-0.0888519287109375
1789481563818872000,11.3198720703125,-0.9570465087890625,-0.325714111328125,-0.00848388671875
1789481563828842800,11.3298427734375,-0.9469757080078125,-0.365570068359375,0.0077972412109375
1789481563838813000,11.33981298828125,-1.0084991455078125,-0.178863525390625,-0.00537109375
1789481563848782800,11.349782958984376,-0.9739837646484375,-0.17962646484375,-0.044281005859375
1789481563858753800,11.35975390625,-0.931915283203125,-0.2484893798828125,0.0376739501953125
1789481563868724000,11.369723876953126,-0.98980712890625,-0.2697601318359375,0.00372314453125
1789481563878695000,11.37969482421875,-1.0017547607421875,-0.2313385009765625,-0.0431060791015625
1789481563888665000,11.3896650390625,-0.9790496826171875,-0.2203216552734375,-0.0106048583984375
1789481563898635000,11.399635009765625,-0.9522705078125,-0.2490386962890625,-0.1183929443359375
1789481563908605700,11.409605712890626,-0.861175537109375,-0.44378662109375,0.0639190673828125
1789481563918576000,11.419576171875,-0.9835968017578125,-0.3163909912109375,0.0833587646484375
1789481563928546000,11.429546142578126,-0.901702880859375,-0.28472900390625,0.0056915283203125
1789481563938516700,11.439516845703125,-0.8442230224609375,-0.3966064453125,0.014312744140625
1789481563948487000,11.44948681640625,-0.97784423828125,-0.3092041015625,-0.0111846923828125
1789481563958457000,11.45945703125,-1.1372222900390625,-0.2559661865234375,-0.0359039306640625
1789481563968427800,11.469427734375,-1.0714874267578125,-0.2787017822265625,0.0549163818359375
1789481563978398000,11.47939794921875,-0.9029388427734375,-0.3740692138671875,0.086944580078125
1789481563988368000,11.489367919921875,-0.8149261474609375,-0.3235931396484375,0.0590667724609375
1789481563998338800,11.4993388671875,-0.72271728515625,-0.4334869384765625,0.09130859375
1789481564008309000,11.50930908203125,-0.849151611328125,-0.326324462890625,0.0792694091796875
1789481564018279000,11.51927880859375,-0.99615478515625,-0.2176361083984375,0.01654052734375
1789481564028249900,11.529249755859375,-1.044891357421875,-0.285064697265625,0.0769500732421875
1789481564038220000,11.539219970703124,-1.044403076171875,-0.2668914794921875,0.0470123291015625
1789481564048190000,11.54918994140625,-1.01666259765625,-0.26763916015625,0.1578216552734375
1789481564058161000,11.559160888671874,-1.0910186767578125,-0.165802001953125,0.1852569580078125
1789481564068131000,11.569131103515625,-1.0935516357421875,-0.2479400634765625,0.1309356689453125
1789481564078101000,11.57910107421875,-1.00238037109375,-0.2946319580078125,0.2125091552734375
1789481564088072000,11.589072021484375,-0.93670654296875,-0.3128509521484375,0.1160430908203125
1789481564098041300,11.599041259765626,-0.746826171875,-0.326202392578125,0.1129150390625
1789481564108011300,11.60901123046875,-0.7575836181640625,-0.284027099609375,0.1670684814453125
1789481564117982200,11.618982177734376,-0.8134307861328125,-0.2354888916015625,0.1026611328125
1789481564127952400,11.628952392578125,-0.9137115478515625,-0.2668304443359375,0.17291259765625
1789481564137922300,11.63892236328125,-1.059539794921875,-0.1353302001953125,0.0314788818359375
1789481564147893200,11.648893310546875,-1.092987060546875,-0.140289306640625,-0.015777587890625
1789481564157863200,11.65886328125,-1.1506805419921875,-0.1419219970703125,0.07855224609375
1789481564167833300,11.668833251953124,-1.0029296875,-0.220062255859375,0.0103607177734375
1789481564177804300,11.67880419921875,-0.887969970703125,-0.2962799072265625,0.1068572998046875
1789481564187774200,11.688774169921874,-0.86444091796875,-0.3235626220703125,-0.0241851806640625
1789481564197744000,11.698744140625,-0.8851318359375,-0.3532562255859375,-0.01031494140625
1789481564207715300,11.70871533203125,-0.9447784423828125,-0.3261260986328125,-0.0921478271484375
1789481564217685200,11.718685302734375,-0.95001220703125,-0.3137969970703125,-0.158966064453125
1789481564227655200,11.7286552734375,-0.90960693359375,-0.380706787109375,-0.0579986572265625
1789481564237626400,11.73862646484375,-0.926483154296875,-0.42633056640625,-0.101898193359375
1789481564247596300,11.74859619140625,-0.9481658935546875,-0.3947906494140625,-0.0832977294921875
1789481564257566200,11.758566162109375,-1.01385498046875,-0.3180694580078125,-0.1193084716796875
1789481564267537200,11.768537109375,-1.007720947265625,-0.3312530517578125,-0.0672760009765625
1789481564277507300,11.77850732421875,-1.003265380859375,-0.3636932373046875,-0.0011444091796875
1789481564287477200,11.788477294921876,-0.93096923828125,-0.3610992431640625,-0.0835723876953125
1789481564297447200,11.798447265625,-0.910491943359375,-0.28009033203125,-0.028228759765625
1789481564307418400,11.80841845703125,-0.960601806640625,-0.2887115478515625,0.0353851318359375
1789481564317388300,11.81838818359375,-0.986541748046875,-0.2305908203125,0.036590576171875
1789481564327358200,11.828358154296875,-0.9903564453125,-0.276641845703125,0.0962982177734375
1789481564337329200,11.8383291015625,-1.00323486328125,-0.2508697509765625,-0.0000152587890625
1789481564347299300,11.84829931640625,-0.87237548828125,-0.3793792724609375,0.0421905517578125
1789481564357269200,11.858269287109374,-0.8893585205078125,-0.3216552734375,-0.0103912353515625
1789481564367240200,11.868240234375,-0.8712310791015625,-0.320098876953125,0.01959228515625
1789481564377210000,11.878210205078124,-0.999847412109375,-0.266265869140625,-0.008636474609375
1789481564387180300,11.88818017578125,-1.022918701171875,-0.1982421875,-0.07574462890625
1789481564397151200,11.898151123046874,-0.9686279296875,-0.2289581298828125,-0.034271240234375
1789481564407121200,11.90812109375,-0.840728759765625,-0.3652801513671875,-0.0105743408203125
1789481564417091000,11.918091064453124,-0.9323272705078125,-0.2323760986328125,0.040802001953125
1789481564427062300,11.928062255859375,-0.9480133056640625,-0.2214202880859375,0.040191650390625
1789481564437032200,11.9380322265625,-0.790679931640625,-0.4433441162109375,0.011932373046875
1789481564447002000,11.948002197265625,-0.9250335693359375,-0.2994842529296875,-0.011810302734375
1789481564456973300,11.957973388671874,-1.014373779296875,-0.2640380859375,-0.131072998046875
1789481564466943200,11.967943115234375,-1.00762939453125,-0.3398590087890625,-0.0638427734375
1789481564476913200,11.9779130859375,-1.0086212158203125,-0.256561279296875,0.0769500732421875
1789481564486884000,11.987884033203125,-0.987091064453125,-0.2776031494140625,-0.01226806640625
1789481564496854300,11.997854248046876,-0.9727020263671875,-0.30743408203125,0.1497650146484375
1789481564506824200,12.00782421875,-1.1169891357421875,-0.2200775146484375,-0.0103759765625
1789481564516795100,12.017795166015626,-0.9460296630859375,-0.4072265625,0.04656982421875
1789481564526765300,12.027765380859375,-0.8845672607421875,-0.35906982421875,0.052337646484375
1789481564536735200,12.0377353515625,-0.8038330078125,-0.352081298828125,-0.0634765625
1789481564546705200,12.047705078125,-0.8910369873046875,-0.3180084228515625,-0.0560760498046875
1789481564556676000,12.057676025390625,-1.023956298828125,-0.2454986572265625,-0.1493988037109375
1789481564566646300,12.067646240234374,-0.9848480224609375,-0.32666015625,-0.05682373046875
1789481564576616200,12.0776162109375,-0.9957733154296875,-0.3463134765625,-0.078277587890625
1789481564586587100,12.087587158203124,-1.006866455078125,-0.2215118408203125,-0.1388092041015625
1789481564596557000,12.09755712890625,-0.944549560546875,-0.3152008056640625,-0.10986328125
1789481564606527200,12.10752734375,-1.021209716796875,-0.2028045654296875,-0.144439697265625
1789481564616498200,12.117498291015625,-0.92138671875,-0.367889404296875,-0.1334075927734375
1789481564626468000,12.127468017578124,-0.8357086181640625,-0.3836517333984375,-0.04571533203125
1789481564636438000,12.13743798828125,-0.8214569091796875,-0.3282623291015625,-0.1147918701171875
1789481564646409200,12.1474091796875,-0.941864013671875,-0.2158355712890625,0.0443878173828125
1789481564656379100,12.157379150390625,-0.9951019287109375,-0.253631591796875,-0.059173583984375
1789481564666349000,12.16734912109375,-1.015594482421875,-0.363861083984375,0.143585205078125
1789481564676320300,12.1773203125,-1.095123291015625,-0.308624267578125,0.0748748779296875
1789481564686290200,12.187290283203126,-1.046905517578125,-0.2789459228515625,0.1579132080078125
1789481564696260000,12.197260009765625,-1.00897216796875,-0.2762298583984375,0.1589508056640625
1789481564706231000,12.20723095703125,-0.9620819091796875,-0.3213653564453125,0.059112548828125
1789481564716201200,12.217201171875,-0.9462738037109375,-0.354278564453125,0.13055419921875
1789481564726171100,12.227171142578126,-0.8902130126953125,-0.373809814453125,0.1045989990234375
1789481564736141300,12.237141357421875,-0.8964996337890625,-0.269439697265625,0.1778106689453125
1789481564746112300,12.2471123046875,-0.85382080078125,-0.311492919921875,0.1135406494140625
1789481564756082200,12.257082275390625,-0.849853515625,-0.33203125,0.0873260498046875
1789481564766052400,12.26705224609375,-0.9145355224609375,-0.25653076171875,0.0633544921875
1789481564776023000,12.27702294921875,-0.89300537109375,-0.3575592041015625,-0.005126953125
1789481564785993200,12.2869931640625,-1.0196990966796875,-0.2641448974609375,-0.0059967041015625
1789481564795963400,12.29696337890625,-1.0809783935546875,-0.27093505859375,0.003387451171875
1789481564805934000,12.30693408203125,-1.0470733642578125,-0.323211669921875,-0.07659912109375
1789481564815904300,12.316904296875,-1.13568115234375,-0.1521453857421875,-0.043243408203125
1789481564825874400,12.32687451171875,-1.1127471923828125,-0.20758056640625,-0.081634521484375
1789481564835845000,12.33684521484375,-1.0361328125,-0.21270751953125,-0.1429290771484375
1789481564845815300,12.346815185546875,-0.9035797119140625,-0.3549957275390625,-0.004913330078125
1789481564855785200,12.35678515625,-0.9338531494140625,-0.304412841796875,-0.0290679931640625
1789481564865755400,12.36675537109375,-0.8487091064453125,-0.2831268310546875,-0.0416717529296875
1789481564875726300,12.376726318359376,-0.736053466796875,-0.41400146484375,-0.0732574462890625
1789481564885696300,12.3866962890625,-0.8677520751953125,-0.3285369873046875,-0.0741119384765625
1789481564895666200,12.396666259765626,-1.067779541015625,-0.2147064208984375,-0.0164031982421875
1789481564905637400,12.406637451171875,-1.1283111572265625,-0.1964569091796875,-0.0110321044921875
1789481564915607300,12.416607177734376,-1.0308380126953125,-0.204376220703125,-0.026153564453125
1789481564925577200,12.4265771484375,-0.9828033447265625,-0.22607421875,-0.0068206787109375
1789481564935548400,12.43654833984375,-0.946075439453125,-0.2471160888671875,0.033050537109375
1789481564945518300,12.446518310546875,-0.972686767578125,-0.2401885986328125,0.057098388671875
1789481564955488300,12.45648828125,-1.0006103515625,-0.2699432373046875,-0.0159149169921875
1789481564965458200,12.466458251953124,-0.983367919921875,-0.2794189453125,-0.0676727294921875
1789481564975429400,12.476429443359375,-0.8221893310546875,-0.401153564453125,-0.0917816162109375
1789481564985399300,12.4863994140625,-0.77001953125,-0.3361053466796875,-0.071075439453125
1789481564995369200,12.496369140625,-0.7779083251953125,-0.3870849609375,-0.0189971923828125
1789481565005340400,12.50634033203125,-0.906951904296875,-0.3507843017578125,0.0252685546875
1789481565015310300,12.516310302734375,-0.97625732421875,-0.4128265380859375,0.035064697265625
1789481565025280300,12.5262802734375,-1.0917816162109375,-0.30828857421875,-0.0987548828125
1789481565035251200,12.536251220703125,-0.95819091796875,-0.35614013671875,-0.0225830078125
1789481565045221400,12.546221435546874,-0.8958587646484375,-0.370819091796875,0.1022186279296875
1789481565055191300,12.55619140625,-1.01593017578125,-0.1983642578125,0.0476531982421875
1789481565065161200,12.5661611328125,-0.9751739501953125,-0.2501678466796875,0.1360321044921875
1789481565075132200,12.576132080078125,-0.87786865234375,-0.37799072265625,0.0810089111328125
1789481565085102300,12.586102294921876,-0.9310455322265625,-0.2867431640625,0.143096923828125
1789481565095072300,12.596072265625,-0.864410400390625,-0.261993408203125,0.0283050537109375
1789481565105044200,12.606044189453126,-0.9226837158203125,-0.2115936279296875,0.0705718994140625
1789481565115014100,12.61601416015625,-0.9042816162109375,-0.3133087158203125,0.03228759765625
1789481565124984000,12.625984130859376,-0.9766693115234375,-0.3090667724609375,0.0357818603515625
1789481565134955300,12.635955322265625,-1.110015869140625,-0.17254638671875,0.079071044921875
1789481565144925200,12.64592529296875,-1.1635894775390625,-0.1208953857421875,0.1092071533203125
1789481565154895000,12.65589501953125,-1.045379638671875,-0.198486328125,0.056640625
1789481565164865300,12.665865234375,-0.9311981201171875,-0.2895355224609375,0.0709381103515625
1789481565174836200,12.675836181640625,-0.976470947265625,-0.269989013671875,0.0849456787109375
1789481565184806100,12.68580615234375,-1.0009613037109375,-0.1706695556640625,0.0579833984375
1789481565194776000,12.695776123046874,-0.927764892578125,-0.2196044921875,0.12872314453125
1789481565204747300,12.705747314453125,-0.8691864013671875,-0.2520599365234375,0.0093841552734375
1789481565214717200,12.71571728515625,-0.9510498046875,-0.2528533935546875,-0.09393310546875
1789481565224687000,12.72568701171875,-0.931640625,-0.369384765625,-0.008514404296875
1789481565234657000,12.735656982421874,-1.0067596435546875,-0.2104339599609375,-0.084564208984375
1789481565244628200,12.745628173828125,-0.93927001953125,-0.2962646484375,-0.006805419921875
1789481565254598100,12.75559814453125,-0.9232177734375,-0.4018707275390625,-0.038299560546875
1789481565264568000,12.765568115234375,-1.000396728515625,-0.310333251953125,-0.0879669189453125
1789481565274539300,12.775539306640624,-0.9826507568359375,-0.2835845947265625,-0.07696533203125
1789481565284509200,12.78550927734375,-0.9582061767578125,-0.3596038818359375,-0.125701904296875
1789481565294479000,12.79547900390625,-0.870147705078125,-0.4615020751953125,-0.0673065185546875
