time,seconds_elapsed,z,y,x
1789558187729503000,0.0555029296875,-0.5644420981407166,0.1305265873670578,-0.06969013065099716
1789558187739472000,0.065471923828125,-0.5599493384361267,0.05859300494194031,-0.0002972087822854519
1789558187749441000,0.07544091796875,-0.6111683249473572,0.057793524116277695,0.019634954631328583
1789558187759410000,0.085409912109375,-0.6120511293411255,0.07696402072906494,-0.03567011281847954
1789558187769378000,0.0953779296875,-0.5950812101364136,0.07123849540948868,-0.02172500267624855
1789558187779347000,0.105346923828125,-0.595948338508606,0.0361793078482151,0.0527723990380764
1789558187789315800,0.11531591796875,-0.581906795501709,0.05557670816779137,0.010899785906076431
1789558187799285000,0.125284912109375,-0.5828865766525269,0.07572352141141891,-0.039374835789203644
1789558187809252900,0.1352529296875,-0.5358834266662598,0.027172764763236046,0.011447331868112087
1789558187819222000,0.145221923828125,-0.5236554741859436,-0.003614175831899047,0.0745229721069336
1789558187829191000,0.15519091796875,-0.4910410940647125,0.02136707305908203,0.008749016560614109
1789558187839159000,0.165158935546875,-0.4506680965423584,0.031123030930757523,-0.054900266230106354
1789558187849128000,0.1751279296875,-0.440197616815567,-0.011028682813048363,0.0509454719722271
1789558187859097000,0.18509716796875,-0.3713517189025879,-0.017620805650949478,0.040596961975097656
1789558187869066000,0.19506591796875,-0.3570374846458435,0.018333999440073967,-0.031199198216199875
1789558187879034000,0.2050341796875,-0.33460327982902527,0.009543703868985176,0.0025297366082668304
1789558187889003000,0.2150029296875,-0.2649690806865692,-0.03560566529631615,0.07071651518344879
1789558187898972200,0.22497216796875,-0.20307721197605133,-0.026676351204514503,0.03972850367426872
1789558187908941000,0.234941162109375,-0.20007210969924927,0.028064657002687454,-0.029510753229260445
1789558187918909200,0.2449091796875,-0.19605766236782074,0.03148362413048744,-0.045342180877923965
1789558187928878000,0.254878173828125,-0.1407022625207901,-0.060029782354831696,0.04008110612630844
1789558187938847000,0.264846923828125,-0.11046791821718216,-0.10003925114870071,0.09633506089448929
1789558187948816100,0.274816162109375,-0.09833056479692459,-0.024237696081399918,0.0036943370942026377
1789558187958784000,0.284783935546875,-0.07848069071769714,-0.010585266165435314,-0.0579511821269989
1789558187968753200,0.294753173828125,-0.06438378244638443,-0.05759138986468315,0.006200638134032488
1789558187978722000,0.30472216796875,-0.015254853293299675,-0.10605186969041824,0.11353322118520737
1789558187988691200,0.314691162109375,0.08093666285276413,-0.11446373164653778,0.09849514812231064
1789558187998659000,0.3246591796875,0.09255949407815933,-0.02983752451837063,-0.015668442472815514
1789558188008628200,0.334628173828125,0.04578666388988495,0.013591974973678589,-0.05982258543372154
1789558188018597000,0.34459716796875,0.07190215587615967,-0.03273823857307434,0.021799039095640182
1789558188028566000,0.35456591796875,0.11272282153367996,-0.06955084949731827,0.07143237441778183
1789558188038534000,0.364533935546875,0.13483238220214844,-0.04681703820824623,0.005274123977869749
1789558188048503000,0.3745029296875,0.12024438381195068,-0.036560941487550735,-0.04532460495829582
1789558188058472000,0.384471923828125,0.1397581696510315,-0.03912210091948509,-0.004279699642211199
1789558188068440800,0.39444091796875,0.17802299559116364,-0.035121235996484756,0.027876904234290123
1789558188078409000,0.404408935546875,0.20712734758853912,-0.016408801078796387,0.004513259045779705
1789558188088377900,0.4143779296875,0.15271204710006714,0.017476994544267654,-0.04368436336517334
1789558188098347000,0.424346923828125,0.10254821181297302,-0.008128500543534756,-0.01404657680541277
1789558188108316000,0.43431591796875,-0.24707503616809845,-0.11803769320249557,-0.4474552571773529
1789558188118284000,0.444283935546875,-0.7119910717010498,-0.0337691493332386,-0.2600709795951843
1789558188128253000,0.4542529296875,-0.05193057656288147,-0.41516605019569397,0.07855553179979324
1789558188138222000,0.46422216796875,0.1404159665107727,-0.0954628735780716,0.18638718128204346
1789558188148191000,0.47419091796875,-0.44602808356285095,0.27660736441612244,-0.06275525689125061
1789558188158159000,0.4841591796875,-0.0736108347773552,0.040651287883520126,-0.15367291867733002
1789558188168128000,0.4941279296875,-0.08672957122325897,0.0026264095213264227,0.02520495466887951
1789558188178097000,0.504096923828125,-0.3192419111728668,0.004126301966607571,0.10796374827623367
1789558188188066000,0.514066162109375,-0.20846478641033173,-0.015312910079956055,0.0021374530624598265
1789558188198034200,0.5240341796875,-0.13904577493667603,-0.0031619712244719267,-0.039861928671598434
1789558188208003000,0.534003173828125,-0.17686772346496582,-0.048642635345458984,0.012768525630235672
1789558188217972000,0.543971923828125,-0.061233263462781906,-0.08072680234909058,0.01326946634799242
1789558188227941000,0.553941162109375,-0.035418711602687836,-0.07926392555236816,-0.011720038950443268
1789558188237909000,0.563908935546875,-0.0679556131362915,-0.09072431176900864,0.036672260612249374
1789558188247878100,0.573878173828125,-0.021986525505781174,-0.051788363605737686,-0.009154083207249641
1789558188257847000,0.583846923828125,0.021269602701067924,-0.07110720127820969,-0.05100912228226662
1789558188267816200,0.593816162109375,-0.03602670878171921,-0.019040003418922424,-0.01920085959136486
1789558188277784000,0.6037841796875,-0.07968337833881378,-0.005261607468128204,0.009317069314420223
1789558188287753200,0.613753173828125,-0.012689163908362389,-0.04023929685354233,-0.0593770407140255
1789558188297722000,0.62372216796875,-0.01991112343966961,-0.03792474418878555,0.01227504201233387
1789558188307691000,0.63369091796875,-0.015116368420422077,-0.05329837650060654,0.09130354970693588
1789558188317659100,0.6436591796875,0.10704229772090912,-0.023360982537269592,0.002557966159656644
1789558188327628000,0.6536279296875,0.15063850581645966,-0.00022663500567432493,-0.04652808606624603
1789558188337597200,0.66359716796875,0.15593500435352325,0.017696438357234,-0.05944442003965378
1789558188347566000,0.673566162109375,0.16800445318222046,0.00041758365114219487,-0.05679856613278389
1789558188357534000,0.683533935546875,0.18283826112747192,-0.051177699118852615,-0.026088058948516846
1789558188367502800,0.6935029296875,0.10046109557151794,-0.006143113598227501,-0.010087255388498306
1789558188377472000,0.703471923828125,0.02737649716436863,-0.06637955456972122,0.02329040877521038
1789558188387441000,0.71344091796875,-0.05601932853460312,-0.06696225702762604,0.000054328484111465514
1789558188397409000,0.723408935546875,-0.1117803305387497,-0.05463607981801033,-0.03249775618314743
1789558188407378000,0.7333779296875,-0.20469428598880768,-0.03524453938007355,-0.050939079374074936
1789558188417347000,0.74334716796875,-0.2163757085800171,-0.055931974202394485,-0.026577549055218697
1789558188427316000,0.75331591796875,-0.19575192034244537,-0.09061884880065918,0.03759264945983887
1789558188437284000,0.7632841796875,-0.19963347911834717,-0.07770198583602905,0.04332323744893074
1789558188447253000,0.7732529296875,-0.14938043057918549,-0.06487540155649185,-0.025839852169156075
1789558188457222000,0.783221923828125,-0.13056306540966034,-0.0405743233859539,-0.06737557798624039
1789558188467191000,0.79319091796875,-0.0964149534702301,-0.07820931822061539,-0.010134393349289894
1789558188477159000,0.803158935546875,-0.09272674471139908,-0.05674130842089653,-0.001511343871243298
1789558188487128000,0.813128173828125,-0.11951840668916702,-0.05349065363407135,-0.017556089907884598
1789558188497097000,0.823096923828125,-0.13159291446208954,-0.07307181507349014,-0.0023281353060156107
1789558188507066000,0.833066162109375,-0.0884971097111702,-0.07955554872751236,-0.0018239989876747131
1789558188517034200,0.8430341796875,-0.06852419674396515,-0.06909624487161636,-0.012991432100534439
1789558188527003400,0.85300341796875,-0.046245791018009186,-0.057193782180547714,0.013222861103713512
1789558188536972300,0.86297216796875,0.014156831428408623,-0.0823286920785904,-0.010333864018321037
1789558188546941200,0.872941162109375,0.029741650447249413,-0.08677111566066742,-0.0016287893522530794
1789558188556909300,0.882909423828125,0.041606031358242035,-0.0840190052986145,-0.0004719121498055756
1789558188566878200,0.892878173828125,0.07003367692232132,-0.09962459653615952,-0.001787779969163239
1789558188576847400,0.902847412109375,0.10960505902767181,-0.09058928489685059,0.0017473000334575772
1789558188586816300,0.912816162109375,0.11059708148241043,-0.05607631802558899,0.0017145430902019143
1789558188596784400,0.922784423828125,0.10974753648042679,-0.04512593150138855,0.015199725516140461
1789558188606753300,0.932753173828125,0.09297841042280197,-0.016658339649438858,0.021769210696220398
1789558188616722400,0.942722412109375,0.24946841597557068,-0.11802330613136292,0.009393502026796341
1789558188626691300,0.95269140625,0.1498054713010788,-0.08903320133686066,0.0018218684708699584
1789558188636659500,0.962659423828125,0.16676954925060272,-0.10054125636816025,0.02069276198744774
1789558188646628400,0.97262841796875,0.1647985428571701,-0.10195379704236984,0.05127144232392311
1789558188656597200,0.98259716796875,0.11677295714616776,-0.05661480873823166,0.010016681626439095
1789558188666566400,0.99256640625,0.08426214754581451,-0.01726287603378296,-0.020426444709300995
1789558188676534500,1.002534423828125,0.06386873126029968,-0.03814632073044777,0.004503405187278986
1789558188686503400,1.01250341796875,0.04102493077516556,-0.03803180530667305,0.030598388984799385
1789558188696472300,1.022472412109375,0.013167999684810638,-0.018543856218457222,0.025056084617972374
1789558188706440400,1.0324404296875,-0.06881608068943024,0.00996341835707426,0.012693158350884914
1789558188716409300,1.042409423828125,-0.09356323629617691,-0.04090402275323868,0.029102491214871407
1789558188726378500,1.05237841796875,-0.14908401668071747,-0.06995990872383118,0.03357899934053421
1789558188736347400,1.062347412109375,-0.2609309256076813,-0.046732883900403976,0.0179947130382061
1789558188746316500,1.072316650390625,-0.3071942925453186,-0.09046065807342529,0.020952686667442322
1789558188756284400,1.082284423828125,-0.31569963693618774,-0.12536591291427612,0.042399920523166656
1789558188766253600,1.092253662109375,-0.2786737084388733,-0.13139663636684418,0.029938723891973495
1789558188776222500,1.102222412109375,-0.24596530199050903,-0.10340815037488937,-0.02087651938199997
1789558188786191400,1.11219140625,-0.27036118507385254,-0.10540898144245148,0.015343270264565945
1789558188796159500,1.122159423828125,-0.27188611030578613,-0.08799004554748535,0.037029389292001724
1789558188806128400,1.13212841796875,-0.18186859786510468,-0.11467331647872925,0.027411118149757385
1789558188816097500,1.14209765625,-0.10241851955652237,-0.08973361551761627,-0.012855610810220242
1789558188826065400,1.1520654296875,-0.10907189548015594,-0.07950814068317413,0.01101643219590187
1789558188836034300,1.162034423828125,-0.05876957252621651,-0.07063794881105423,0.015367504209280014
1789558188846003200,1.172003173828125,0.011140801943838596,-0.0629909485578537,-0.033067140728235245
1789558188855972400,1.181972412109375,0.03357873111963272,-0.04017538204789162,-0.06229612976312637
1789558188865940200,1.191940185546875,0.04399089515209198,-0.04354694485664368,-0.022893864661455154
1789558188875909400,1.201909423828125,0.049744121730327606,-0.042269960045814514,-0.011998339556157589
1789558188885878300,1.211878173828125,0.053713031113147736,-0.03835058584809303,0.005662412848323584
1789558188895847400,1.221847412109375,0.06421440839767456,-0.024705613031983376,-0.021452294662594795
1789558188905815300,1.231815185546875,0.07011677324771881,-0.025530127808451653,-0.026621490716934204
1789558188915784400,1.241784423828125,0.10314023494720459,-0.04713182523846626,0.00538437906652689
1789558188925753300,1.25175341796875,0.13719967007637024,-0.008326905779540539,-0.051568653434515
1789558188935722200,1.26172216796875,0.139964297413826,0.003946272190660238,-0.03953489288687706
1789558188945690400,1.2716904296875,0.127094566822052,-0.03900785371661186,0.036370523273944855
1789558188955659300,1.2816591796875,0.18503190577030182,-0.03600300848484039,0.012942164205014706
1789558188965628400,1.29162841796875,0.1622573435306549,-0.012971458956599236,-0.0016343819443136454
1789558188975597300,1.301597412109375,0.11680757254362106,0.015962988138198853,0.03557610511779785
1789558188985565400,1.3115654296875,0.12021669000387192,0.01239435188472271,0.00866113230586052
1789558188995534300,1.321534423828125,0.10049731284379959,0.023561518639326096,-0.02725958451628685
1789558189005503500,1.33150341796875,0.06859797239303589,-0.0011355718597769737,-0.0274414774030447
1789558189015472400,1.341472412109375,0.02713681198656559,-0.017666611820459366,0.008371380157768726
1789558189025440500,1.3514404296875,-0.033963292837142944,-0.016166452318429947,0.024522652849555016
1789558189035409400,1.361409423828125,-0.04075408726930618,-0.022228606045246124,-0.017377391457557678
1789558189045378600,1.371378662109375,-0.03855831176042557,-0.037638988345861435,-0.02087225764989853
1789558189055347500,1.381347412109375,-0.0314045287668705,-0.03754950687289238,-0.002133724745362997
1789558189065315600,1.391315673828125,-0.006903179921209812,-0.027307787910103798,-0.006909571588039398
1789558189075284500,1.401284423828125,-0.028546156361699104,0.01653876341879368,0.014610367827117443
1789558189085253400,1.41125341796875,-0.03319816663861275,0.028834844008088112,0.01726207695901394
1789558189095222500,1.421222412109375,0.02202034741640091,0.034879688173532486,-0.02557007409632206
1789558189105190400,1.4311904296875,0.030416496098041534,0.025305090472102165,-0.01936943642795086
1789558189115159600,1.44115966796875,0.01661013625562191,0.03236539661884308,-0.009070194326341152
1789558189125128400,1.45112841796875,0.0304535124450922,0.03460298478603363,-0.010994860902428627
1789558189135097600,1.46109765625,0.03725629299879074,0.04845727980136871,-0.0012261193478479981
1789558189145065200,1.471065185546875,0.06414489448070526,0.0703282281756401,-0.033311616629362106
1789558189155034400,1.481034423828125,0.03068068064749241,0.06502214074134827,-0.02113005332648754
1789558189165003300,1.491003173828125,0.007966846227645874,0.06654520332813263,0.007756456732749939
1789558189174972400,1.500972412109375,0.039143405854701996,0.05076943710446358,-0.02503105066716671
1789558189184940300,1.510940185546875,0.001912948559038341,0.04447612166404724,-0.021023793146014214
1789558189194909400,1.520909423828125,-0.0021880532149225473,0.041304029524326324,-0.06286071985960007
1789558189204878300,1.53087841796875,-0.03634921833872795,0.03942756727337837,-0.04122094064950943
1789558189214847200,1.54084716796875,-0.03748638927936554,0.042445193976163864,-0.04042172431945801
1789558189224815400,1.5508154296875,-0.06745414435863495,0.034033335745334625,-0.04403297230601311
1789558189234784300,1.5607841796875,-0.17436620593070984,0.06129664555191994,-0.034383006393909454
1789558189244753400,1.57075341796875,-0.12664715945720673,-0.02461612969636917,0.0027270768769085407
1789558189254722300,1.580722412109375,-0.17340320348739624,0.014317953027784824,-0.026986077427864075
1789558189264690400,1.5906904296875,-0.233343243598938,0.008481902070343494,-0.02847079001367092
1789558189274659300,1.600659423828125,-0.20872046053409576,-0.0017875137273222208,-0.04225078225135803
1789558189284628500,1.61062841796875,-0.20114296674728394,-0.01188249234110117,-0.031251128762960434
1789558189294597400,1.620597412109375,-0.2545148432254791,0.023971112444996834,-0.05457429587841034
1789558189304565500,1.6305654296875,-0.2982058525085449,0.024817731231451035,-0.054054711014032364
1789558189314534400,1.640534423828125,-0.2749684453010559,0.016935307532548904,-0.028836708515882492
1789558189324503300,1.65050341796875,-0.268947035074234,-0.02520788460969925,0.01016794890165329
1789558189334472400,1.660472412109375,-0.32087841629981995,0.04294560104608536,0.002403502818197012
1789558189344440600,1.670440673828125,-0.2769429087638855,0.013395434245467186,-0.059719521552324295
1789558189354409500,1.680409423828125,-0.28455954790115356,0.044972002506256104,-0.04537254199385643
1789558189364378400,1.69037841796875,-0.2565723955631256,0.016859939321875572,-0.0037438718136399984
1789558189374347500,1.700347412109375,-0.21406355500221252,-0.013038570061326027,0.019180884584784508
1789558189384315400,1.7103154296875,-0.18672408163547516,0.04588892683386803,-0.03093208372592926
1789558189394284500,1.720284423828125,-0.17551270127296448,0.04825541377067566,-0.017522267997264862
1789558189404253400,1.73025341796875,-0.17222556471824646,0.03106071427464485,0.019520703703165054
1789558189414222600,1.74022265625,-0.20251795649528503,0.04192081838846207,0.02520708553493023
1789558189424190200,1.750190185546875,-0.22574178874492645,0.0620439313352108,0.0011528824688866735
1789558189434159400,1.760159423828125,-0.24673281610012054,0.03116004914045334,0.012222577817738056
1789558189444128500,1.77012841796875,-0.2802993059158325,0.04581489413976669,0.004881307948380709
1789558189454097400,1.780097412109375,-0.21623456478118896,0.020430173724889755,-0.031040474772453308
1789558189464065300,1.790065185546875,-0.25924408435821533,0.05415085330605507,-0.020842697471380234
1789558189474034400,1.800034423828125,-0.25989362597465515,0.0807449147105217,-0.027483290061354637
1789558189484003300,1.81000341796875,-0.2075957953929901,0.031308386474847794,-0.02195563167333603
1789558189493971500,1.819971435546875,-0.20944084227085114,0.030776288360357285,-0.03761555254459381
1789558189503940400,1.8299404296875,-0.260648638010025,0.042872365564107895,-0.04929404705762863
1789558189513909200,1.8399091796875,-0.2666567265987396,0.02912459522485733,-0.016717728227376938
1789558189523878400,1.84987841796875,-0.21151544153690338,-0.0545673705637455,-0.00005805691034765914
1789558189533846300,1.85984619140625,-0.28746187686920166,-0.028675053268671036,-0.032097216695547104
1789558189543815400,1.8698154296875,-0.3079221248626709,-0.05800045281648636,-0.03344796970486641
1789558189553784300,1.879784423828125,-0.2786364257335663,-0.10771634429693222,-0.002582201035693288
1789558189563753500,1.88975341796875,-0.2914089560508728,-0.10629767924547195,0.014463094994425774
1789558189573721300,1.899721435546875,-0.27229544520378113,-0.08798764646053314,-0.005075452383607626
1789558189583690500,1.9096904296875,-0.1965537965297699,-0.08149885386228561,0.009551960043609142
1789558189593659400,1.919659423828125,-0.1403893381357193,-0.06530497223138809,0.02287069521844387
1789558189603628300,1.929628173828125,-0.11623979359865189,-0.038716237992048264,0.01889139972627163
1789558189613596200,1.93959619140625,-0.06112194433808327,-0.031015174463391304,0.00791411567479372
1789558189623565300,1.9495654296875,-0.03454652428627014,-0.02197187766432762,0.026505110785365105
1789558189633534500,1.959534423828125,-0.037271738052368164,-0.004595284350216389,0.013194631785154343
1789558189643503400,1.96950341796875,-0.02455088309943676,-0.0182889923453331,0.011818310245871544
1789558189653471200,1.97947119140625,0.01336001418530941,-0.03365383297204971,-0.018375545740127563
1789558189663440100,1.989440185546875,0.03518728166818619,-0.028788771480321884,-0.027305657044053078
1789558189673409300,1.9994091796875,-0.0019345202017575502,-0.036315131932497025,-0.0426020547747612
1789558189683378200,2.009378173828125,-0.02714427001774311,-0.041183922439813614,-0.007877097465097904
1789558189693346300,2.01934619140625,0.03398885950446129,-0.06750047951936722,-0.01811854913830757
1789558189703315200,2.029315185546875,-0.009667807258665562,-0.07138843089342117,0.0204008799046278
1789558189713284400,2.039284423828125,-0.013193832710385323,-0.0655776783823967,0.0299600288271904
1789558189723253200,2.049253173828125,0.03911970555782318,-0.08411753922700882,0.043960001319646835
1789558189733221400,2.059221435546875,0.05091511085629463,-0.05642545968294144,0.043290749192237854
1789558189743190300,2.069190185546875,0.03393746167421341,-0.05209435895085335,0.011631355620920658
1789558189753159200,2.0791591796875,0.03544587641954422,-0.07979735732078552,0.018623752519488335
1789558189763128300,2.08912841796875,0.027707261964678764,-0.05023520812392235,0.014639928936958313
1789558189773096400,2.099096435546875,0.07633498311042786,-0.05309198051691055,-0.012856676243245602
1789558189783065300,2.1090654296875,0.06017279252409935,-0.015670571476221085,-0.012801283039152622
1789558189793034200,2.1190341796875,0.05191539600491524,-0.030116090551018715,0.05778686702251434
1789558189803003400,2.12900341796875,0.05572211742401123,-0.08501768857240677,0.05216014012694359
1789558189812971300,2.13897119140625,-0.03130625560879707,-0.021692512556910515,-0.05217532068490982
1789558189822940400,2.1489404296875,-0.07870706170797348,-0.04749508202075958,-0.012005530297756195
1789558189832909300,2.158909423828125,-0.09544369578361511,-0.10249548405408859,0.04139697551727295
1789558189842878500,2.16887841796875,-0.10770169645547867,-0.12817154824733734,0.058811649680137634
1789558189852846300,2.178846435546875,-0.12898728251457214,-0.0962303951382637,0.0062429821118712425
1789558189862815500,2.1888154296875,-0.13523797690868378,-0.08634687215089798,0.0068267472088336945
1789558189872784400,2.198784423828125,-0.13065175712108612,-0.10664095729589462,0.04457572475075722
1789558189882753300,2.208753173828125,-0.11329140514135361,-0.09006837010383606,0.05246400833129883
1789558189892721400,2.218721435546875,-0.08727684617042542,-0.09842909872531891,-0.03503228724002838
1789558189902690300,2.228690185546875,-0.10492242127656937,-0.11726190894842148,-0.02413596212863922
1789558189912659500,2.238659423828125,-0.11150015890598297,-0.13524223864078522,0.015935823321342468
1789558189922627300,2.24862744140625,-0.09215469658374786,-0.1283595710992813,-0.01751294732093811
1789558189932596200,2.25859619140625,-0.07742821425199509,-0.10312265902757645,-0.03027321770787239
1789558189942565000,2.268565185546875,-0.12658484280109406,-0.08861348778009415,0.00028815402765758336
1789558189952534300,2.2785341796875,-0.14880891144275665,-0.11323467642068863,0.0909099355340004
1789558189962502100,2.288502197265625,-0.05317320674657822,-0.11955063045024872,0.015503325499594212
1789558189972471300,2.29847119140625,-0.049968890845775604,-0.08423205465078354,-0.003976099658757448
1789558189982440200,2.308440185546875,-0.0778692290186882,-0.10785562545061111,0.054121024906635284
1789558189992409300,2.318409423828125,0.022976955398917198,-0.14705389738082886,0.06563759595155716
1789558190002377200,2.328377197265625,0.10624947398900986,-0.11379234492778778,-0.02648087590932846
1789558190012346400,2.338346435546875,0.09627806395292282,-0.09872950613498688,-0.002157160546630621
1789558190022315300,2.348315185546875,0.11605656147003174,-0.11227887123823166,0.07162891328334808
1789558190032284200,2.3582841796875,0.17912420630455017,-0.1355477124452591,-0.010725614614784718
1789558190042252300,2.368252197265625,0.15518638491630554,-0.0995795875787735,-0.07727774232625961
1789558190052221200,2.37822119140625,0.11207807064056396,-0.12453127652406693,-0.03674736246466637
1789558190062190300,2.3881904296875,0.17975512146949768,-0.124339260160923,-0.007132744416594505
1789558190072159200,2.3981591796875,0.21831369400024414,-0.0792870968580246,-0.006220878101885319
1789558190082127400,2.40812744140625,0.2713409662246704,-0.1054593175649643,-0.042277682572603226
1789558190092096300,2.41809619140625,0.3367740213871002,-0.09550441801548004,0.015002917498350143
1789558190102065400,2.4280654296875,0.3416827619075775,-0.1046832725405693,-0.004231230355799198
1789558190112034300,2.438034423828125,0.29777708649635315,-0.1138240396976471,0.0022423816844820976
1789558190122002400,2.44800244140625,0.24594558775424957,-0.12349823862314224,-0.010932808741927147
1789558190131971300,2.457971435546875,0.20785492658615112,-0.09428016096353531,-0.02905375510454178
1789558190141940500,2.4679404296875,0.15852919220924377,-0.09978172183036804,-0.048833586275577545
1789558190151909400,2.477909423828125,0.1759023219347,-0.10642843693494797,-0.03236832469701767
1789558190161877500,2.48787744140625,0.2141415923833847,-0.09551427513360977,-0.04923199489712715
1789558190171846400,2.497846435546875,0.27162590622901917,-0.12658590078353882,-0.0716845691204071
1789558190181815300,2.507815185546875,0.27165573835372925,-0.09752123057842255,-0.04735979065299034
1789558190191784400,2.517784423828125,0.30253535509109497,-0.1056116446852684,-0.02219291962683201
1789558190201752300,2.52775244140625,0.3659074008464813,-0.05392315238714218,-0.06749062985181808
1789558190211721500,2.537721435546875,0.3199998438358307,-0.05203896760940552,-0.05987744778394699
1789558190221690400,2.5476904296875,0.264308363199234,-0.1284565031528473,0.07363267242908478
1789558190231658200,2.557658203125,0.28538432717323303,-0.1244865357875824,0.08050309866666794
1789558190241627100,2.567627197265625,0.28506210446357727,0.03788452968001366,-0.1792733520269394
1789558190251596300,2.57759619140625,0.24526168406009674,-0.035705000162124634,-0.03767680376768112
1789558190261565200,2.587565185546875,0.2771815359592438,-0.1266021430492401,0.07586733251810074
1789558190271533300,2.597533203125,0.29492777585983276,-0.08755861222743988,-0.01167689636349678
1789558190281502200,2.607502197265625,0.23751774430274963,-0.018196048215031624,-0.051482100039720535
1789558190291471400,2.617471435546875,0.26789191365242004,-0.04132826626300812,0.016442889347672462
1789558190301440300,2.627440185546875,0.28134751319885254,-0.006452839355915785,0.004625111818313599
1789558190311408400,2.637408447265625,0.18365983664989471,0.04376852139830589,-0.017364077270030975
1789558190321377300,2.647377197265625,0.12882456183433533,0.02875734493136406,-0.0019467707024887204
1789558190331346200,2.65734619140625,0.13297589123249054,0.02894829399883747,0.0024985778145492077
1789558190341315300,2.6673154296875,0.05830644816160202,0.07317034900188446,-0.008359395898878574
1789558190351283200,2.677283203125,0.020682908594608307,0.03424345701932907,0.020073575899004936
1789558190361252400,2.68725244140625,0.040835049003362656,-0.03135286271572113,0.015899337828159332
1789558190371221200,2.69722119140625,-0.009374593384563923,-0.02346564456820488,0.058942679315805435
1789558190381190400,2.7071904296875,-0.008422247134149075,-0.006533000618219376,0.027571706101298332
1789558190391158300,2.717158203125,0.0022000374738126993,-0.03804778307676315,0.022157499566674232
1789558190401127400,2.72712744140625,0.0032732912804931402,-0.08935171365737915,0.042877957224845886
1789558190411096300,2.737096435546875,0.014027934521436691,-0.05561958625912666,0.011835088022053242
1789558190421065200,2.747065185546875,0.016582705080509186,0.004240285139530897,-0.003447728231549263
1789558190431033300,2.757033447265625,0.03435451164841652,-0.004436027258634567,-0.004313255660235882
1789558190441002500,2.76700244140625,0.06197761744260788,-0.03407488018274307,-0.007105580065399408
1789558190450971400,2.776971435546875,0.09042363613843918,-0.03015071153640747,-0.016576314345002174
1789558190460940300,2.786940185546875,0.05474580451846123,-0.0112784868106246,0.030174680054187775
1789558190470908400,2.796908447265625,0.1334533989429474,0.006915430538356304,0.08715061098337173
1789558190480877300,2.806877197265625,0.17826373875141144,0.10089891403913498,-0.08943188190460205
1789558190490846500,2.816846435546875,0.06245565414428711,0.09496565908193588,-0.04777764156460762
1789558190500814000,2.82681396484375,0.10734216868877411,-0.002576342085376382,0.08348903059959412
1789558190510783200,2.836783203125,0.11127139627933502,-0.003885019337758422,0.25691914558410645
1789558190520752400,2.84675244140625,0.23893481492996216,0.09207373112440109,0.017182182520627975
1789558190530721500,2.856721435546875,0.13672056794166565,0.13074682652950287,-0.08392472565174103
1789558190540689400,2.866689453125,0.06563759595155716,0.09170621633529663,0.0023371900897473097
1789558190550658600,2.876658447265625,0.0634641945362091,0.08097367733716965,0.016403473913669586
1789558190560627500,2.88662744140625,0.0039087217301130295,0.09685730189085007,-0.03063833713531494
1789558190570596400,2.896596435546875,-0.07007602602243423,0.0849204808473587,-0.06955457478761673
1789558190580564500,2.906564453125,-0.036920733749866486,0.06758064031600952,-0.05276414379477501
1789558190590533400,2.916533447265625,-0.03904540464282036,0.0946737751364708,-0.047560594975948334
1789558190600502500,2.92650244140625,-0.14312812685966492,0.11530821770429611,-0.01781228557229042
1789558190610471400,2.936471435546875,-0.12161032110452652,0.07318712770938873,-0.0013020194601267576
1789558190620439300,2.946439208984375,-0.12490225583314896,0.07046245038509369,0.04117699712514877
1789558190630408200,2.956408203125,-0.19355082511901855,0.14170333743095398,0.01423592772334814
1789558190640377300,2.96637744140625,-0.23293471336364746,0.11086340248584747,-0.0033281524665653706
1789558190650346200,2.97634619140625,-0.2182614952325821,0.06278695166110992,0.025621740147471428
1789558190660314400,2.986314453125,-0.23153576254844666,0.12556378543376923,-0.054249655455350876
1789558190670283300,2.996283203125,-0.26372939348220825,0.14672845602035522,-0.0704219713807106
1789558190680252400,3.00625244140625,-0.3035210072994232,0.061880677938461304,-0.01599947363138199
1789558190690221300,3.01622119140625,-0.2653712034225464,0.0028186896815896034,0.011468104086816311
1789558190700189400,3.026189453125,-0.3040943741798401,0.07612007111310959,-0.028316592797636986
1789558190710158300,3.036158447265625,-0.3454756438732147,0.12344390898942947,-0.06504158675670624
1789558190720127200,3.046127197265625,-0.32817786931991577,0.033179525285959244,-0.08197981864213943
1789558190730095400,3.056095458984375,-0.3526928126811981,0.03701767325401306,-0.019355054944753647
1789558190740064300,3.066064208984375,-0.38017821311950684,0.05597245693206787,0.017967814579606056
1789558190750033400,3.076033447265625,-0.3383311927318573,0.013191968202590942,0.015044729225337505
1789558190760002300,3.086002197265625,-0.3033351004123688,0.006451773922890425,-0.03136218339204788
1789558190769970400,3.095970458984375,-0.3258841037750244,0.010642790235579014,-0.010035590268671513
1789558190779939300,3.105939208984375,-0.17250758409500122,-0.03154540807008743,-0.05284430459141731
1789558190789908500,3.115908447265625,-0.14725708961486816,-0.0158319603651762,-0.040346089750528336
1789558190799877400,3.12587744140625,-0.1486099809408188,-0.014988004229962826,0.02015400491654873
1789558190809845500,3.135845458984375,-0.0901661142706871,-0.020600883290171623,-0.010396714322268963
1789558190819814400,3.145814453125,-0.16084134578704834,0.07892464101314545,-0.04310059919953346
1789558190829783600,3.155783447265625,-0.1569344848394394,0.024512000381946564,-0.02787131257355213
1789558190839752400,3.16575244140625,-0.17893193662166595,0.019395003095269203,-0.012584234587848186
1789558190849720600,3.175720458984375,-0.11263200640678406,-0.03567863628268242,-0.018751583993434906
1789558190859689500,3.185689453125,-0.07270296663045883,-0.018980082124471664,-0.05390317738056183
1789558190869658400,3.195658447265625,-0.026973826810717583,-0.05332154408097267,-0.03407035395503044
1789558190879627500,3.20562744140625,-0.006643255241215229,-0.028987176716327667,0.013675065711140633
1789558190889595400,3.215595458984375,0.022459503263235092,-0.03129373863339424,0.0023273364640772343
1789558190899564500,3.225564453125,0.0046964846551418304,-0.036494895815849304,0.007968710735440254
1789558190909533400,3.235533447265625,0.08032972365617752,-0.10861968994140625,0.024704281240701675
1789558190919502600,3.245502685546875,0.08513113856315613,-0.049804575741291046,0.05663105472922325
1789558190929470200,3.25547021484375,0.08520863950252533,-0.030734211206436157,0.026619359850883484
1789558190939439400,3.265439453125,0.11768881976604462,-0.08469677716493607,0.03208629786968231
1789558190949408300,3.275408203125,0.10254661738872528,-0.02429814822971821,0.04387690871953964
1789558190959376400,3.28537646484375,0.12276240438222885,-0.03157470375299454,0.03267085924744606
1789558190969345300,3.29534521484375,0.12542982399463654,-0.0817105770111084,-0.010549313388764858
1789558190979314400,3.305314453125,0.09674464911222458,-0.05741242691874504,-0.013055347837507725
1789558190989283300,3.315283447265625,0.17595131695270538,-0.1068609356880188,-0.0015789881581440568
1789558190999251500,3.32525146484375,0.09477071464061737,-0.07028854638338089,-0.023125825449824333
1789558191009220400,3.335220458984375,0.05663904547691345,-0.06905070692300797,-0.01056183036416769
1789558191019189200,3.345189208984375,0.12061270326375961,-0.11271323263645172,0.05426190793514252
1789558191029158400,3.355158447265625,0.0889732837677002,-0.11022797226905823,0.06005588173866272
1789558191039126300,3.365126220703125,0.06924991309642792,-0.08827579766511917,0.015278022736310959
1789558191049095400,3.375095458984375,0.14341282844543457,-0.09828981757164001,-0.0010109359864145517
1789558191059064300,3.385064208984375,0.14235687255859375,-0.0634295716881752,-0.0034786208998411894
1789558191069033500,3.395033447265625,0.1591355949640274,-0.07982798665761948,0.001181378262117505
1789558191079001300,3.40500146484375,0.188025563955307,-0.05952138453722,-0.02472665160894394
1789558191088970500,3.414970458984375,0.1654006838798523,-0.04590544104576111,-0.020057598128914833
1789558191098939400,3.424939453125,0.13140569627285004,-0.04072612524032593,0.003635747591033578
1789558191108908300,3.434908203125,0.12588416039943695,-0.042393527925014496,0.05007674917578697
1789558191118876400,3.44487646484375,0.12419598549604416,-0.03651247173547745,0.029342442750930786
1789558191128845600,3.454845458984375,0.10239827632904053,-0.05228530988097191,0.02443370409309864
1789558191138814500,3.464814453125,0.14128336310386658,-0.05241287499666214,0.015631157904863358
1789558191148782600,3.474782470703125,0.13156947493553162,-0.03045058436691761,0.004163586068898439
1789558191158751500,3.48475146484375,0.12336001545190811,-0.04632914811372757,-0.04614219442009926
1789558191168720400,3.494720458984375,0.11605576425790787,-0.023606259375810623,-0.06599686294794083
1789558191178689500,3.504689453125,0.10675068199634552,-0.023368172347545624,-0.05813494324684143
1789558191188657400,3.514657470703125,0.1056382805109024,-0.011830294504761696,-0.03211852163076401
1789558191198626300,3.524626220703125,0.12209182232618332,-0.004658135119825602,-0.07363906502723694
1789558191208595500,3.534595458984375,0.0648551657795906,-0.003010969841852784,-0.016225041821599007
1789558191218564600,3.544564697265625,0.046244461089372635,-0.005007009021937847,0.011754393577575684
1789558191228532200,3.5545322265625,0.020542560145258904,-0.0001651159836910665,0.0035055188927799463
1789558191238501400,3.56450146484375,0.004090349189937115,-0.006128466222435236,0.032823726534843445
1789558191248470300,3.57447021484375,0.059967197477817535,-0.06562189012765884,0.0788484737277031
1789558191258439400,3.584439453125,0.08938340842723846,0.0007265103631652892,-0.014874819666147232
1789558191268407300,3.5944072265625,0.09438535571098328,-0.021675201132893562,-0.05378466844558716
1789558191278376400,3.60437646484375,0.08039630204439163,-0.011775433085858822,-0.04327983036637306
1789558191288345300,3.614345458984375,0.14797481894493103,-0.04336345195770264,-0.01924852840602398
1789558191298314200,3.624314208984375,0.13365286588668823,0.012530173175036907,-0.026315227150917053
1789558191308282400,3.634282470703125,0.07413814216852188,0.040108535438776016,-0.07003367692232132
1789558191318251300,3.644251220703125,0.07227872312068939,-0.01643436774611473,0.018220283091068268
1789558191328220400,3.654220458984375,0.08074518293142319,-0.034099381417036057,0.0002801645314320922
1789558191338188300,3.664188232421875,0.03925366327166557,-0.04314587265253067,0.021454958245158195
1789558191348157400,3.674157470703125,0.053467750549316406,-0.02202940173447132,-0.043775711208581924
1789558191358126300,3.684126220703125,0.05980660766363144,-0.040526654571294785,-0.03851649910211563
1789558191368095500,3.694095458984375,0.1197863221168518,-0.04501168429851532,-0.02208346500992775
1789558191378063400,3.7040634765625,0.10716879367828369,-0.02642042189836502,0.013422598131000996
1789558191388032500,3.714032470703125,0.18883463740348816,-0.06893379241228104,0.002400839701294899
1789558191398001400,3.72400146484375,0.19218355417251587,-0.010013751685619354,-0.017432253807783127
1789558191407970300,3.73397021484375,0.17317044734954834,-0.014183996245265007,0.0035396073944866657
1789558191417938400,3.7439384765625,0.18518877029418945,0.0008293083519674838,-0.024884045124053955
1789558191427907600,3.753907470703125,0.17585891485214233,0.02454742044210434,-0.03218510001897812
1789558191437876500,3.76387646484375,0.14887097477912903,-0.02407231368124485,-0.030585072934627533
1789558191447845400,3.773845458984375,0.12360076606273651,-0.013814082369208336,0.0012857741676270962
1789558191457813500,3.7838134765625,0.11266103386878967,0.024833444505929947,-0.012322712689638138
1789558191467782400,3.793782470703125,0.13902713358402252,0.011920042335987091,-0.05667340010404587
1789558191477751600,3.80375146484375,0.1484304815530777,-0.02052125334739685,-0.016469521448016167
1789558191487719400,3.813719482421875,0.10731074213981628,-0.08683715760707855,0.053337521851062775
1789558191497688300,3.823688232421875,0.11491886526346207,-0.058873169124126434,0.022237660363316536
1789558191507657200,3.8336572265625,0.07369206100702286,-0.006354302167892456,0.008257663808763027
1789558191517626000,3.843626220703125,0.10812859982252121,-0.08524832129478455,-0.041079793125391006
1789558191527594000,3.853593994140625,0.02273993380367756,0.03731274977326393,-0.0017411747248843312
1789558191537563100,3.863563232421875,0.13346858322620392,-0.031503599137067795,-0.034377679228782654
1789558191547532000,3.873531982421875,0.17308096587657928,-0.04117193818092346,-0.041918154805898666
1789558191557501200,3.883501220703125,0.06777399033308029,0.024171914905309677,-0.03265541419386864
1789558191567469000,3.893468994140625,0.058588478714227676,-0.01251978613436222,0.008406001143157482
1789558191577438200,3.903438232421875,0.08391061425209045,0.020362263545393944,0.026794595643877983
1789558191587407000,3.913406982421875,0.02719646692276001,0.06927281618118286,0.03326927497982979
1789558191597376000,3.9233759765625,0.07235009968280792,0.003852795111015439,0.057977549731731415
1789558191607343900,3.93334375,0.03828267380595207,0.07541380077600479,0.0741242915391922
1789558191617313000,3.94331298828125,0.0032722260802984238,0.0911450907588005,0.030729150399565697
1789558191627282000,3.953281982421875,-0.012163721956312656,0.07829613983631134,0.0006508765509352088
1789558191637251000,3.9632509765625,-0.08297450840473175,0.08510344475507736,0.007734884973615408
1789558191647219000,3.973218994140625,-0.10873047262430191,0.043775178492069244,-0.0026581010315567255
1789558191657187800,3.983187744140625,-0.17362478375434875,0.09143351018428802,0.0070674968883395195
1789558191667157000,3.993156982421875,-0.20537659525871277,0.051849614828825,-0.0018338527297601104
1789558191677124900,4.003124755859375,-0.20015519857406616,0.03452974930405617,0.027343740686774254
1789558191687094000,4.013093994140625,-0.2534423768520355,-0.001967543503269553,0.011113903485238552
1789558191697063000,4.02306298828125,-0.22328102588653564,-0.01846982166171074,0.004698082339018583
1789558191707032000,4.033031982421875,-0.22419342398643494,0.009473929181694984,0.003978230059146881
1789558191717000000,4.043,-0.21758638322353363,-0.02726730704307556,0.03416942059993744
1789558191726969000,4.052968994140625,-0.1071871742606163,-0.019391274079680443,-0.030350182205438614
1789558191736938000,4.06293798828125,-0.11037924140691757,-0.005802495405077934,-0.02538764849305153
1789558191746907000,4.072906982421875,-0.05908302590250969,-0.02267974615097046,-0.025603098794817924
1789558191756875000,4.082875,-0.08914878219366074,-0.017479924485087395,0.05324431136250496
1789558191766844200,4.09284423828125,-0.029836459085345268,-0.04662742465734482,-0.0276808962225914
1789558191776813000,4.10281298828125,-0.06301065534353256,0.007871238514780998,-0.020976388826966286
1789558191786782000,4.112781982421875,-0.0057191383093595505,-0.010724283754825592,-0.09112884104251862
1789558191796750000,4.12275,0.04673448204994202,-0.03695562109351158,-0.05723239481449127
1789558191806719000,4.132718994140625,0.03730928897857666,-0.06330866366624832,0.024638500064611435
1789558191816688000,4.142688232421875,0.10949080437421799,-0.06121169030666351,-0.02574664168059826
1789558191826656000,4.152656005859375,0.14730024337768555,-0.03696148097515106,-0.023182017728686333
1789558191836625200,4.162625244140625,0.141418918967247,-0.04319247603416443,0.019230153411626816
1789558191846594000,4.172593994140625,0.1646142452955246,0.013683055527508259,-0.039259254932403564
1789558191856563200,4.182563232421875,0.15509584546089172,-0.02413116954267025,-0.010515491478145123
1789558191866531000,4.192531005859375,0.1559041142463684,-0.0019076223252341151,-0.03245354816317558
1789558191876500200,4.202500244140625,0.14512257277965546,-0.008508000522851944,-0.026064090430736542
1789558191886469000,4.21246923828125,0.08514685183763504,-0.01733504794538021,0.02256709337234497
1789558191896438000,4.22243798828125,0.12465271353721619,0.030183201655745506,-0.02304939366877079
1789558191906406000,4.232406005859375,0.06700140237808228,0.00026258768048137426,0.01643463410437107
1789558191916375000,4.242375,0.06941928714513779,0.028548819944262505,0.006323676090687513
1789558191926344000,4.252343994140625,0.11393429338932037,-0.0033004553988575935,-0.049438655376434326
1789558191936312800,4.262312744140625,0.03899000957608223,0.03148362413048744,-0.0019507654942572117
1789558191946281000,4.272281005859375,0.05279130861163139,-0.00854288786649704,0.019182749092578888
1789558191956249900,4.282249755859375,0.061225272715091705,-0.010264355689287186,-0.02442997507750988
1789558191966219000,4.292218994140625,-0.021101024001836777,0.0488053560256958,-0.03575000911951065
1789558191976187000,4.302186767578125,0.0274441409856081,0.058578625321388245,-0.07554961740970612
1789558191986156000,4.312156005859375,0.12089339643716812,-0.005306082312017679,-0.003625627374276519
1789558191996125000,4.322125,0.08177049458026886,0.018563831225037575,-0.010667824186384678
1789558192006094000,4.332093994140625,0.06347591429948807,0.07720104604959488,-0.021867215633392334
1789558192016062000,4.34206201171875,0.10707025974988937,0.01110138650983572,0.0005036037764512002
1789558192026031000,4.352031005859375,0.09189077466726303,0.06518539786338806,0.07124781608581543
1789558192036000000,4.362,0.06595664471387863,0.05777567997574806,0.02353435382246971
1789558192045969000,4.371968994140625,0.15487267076969147,0.05181792378425598,0.013079849071800709
1789558192055937000,4.38193701171875,0.11049401760101318,0.08823025971651077,-0.004861867055296898
1789558192065906000,4.391906005859375,0.11477478593587875,0.06766479462385178,0.03349857032299042
1789558192075875000,4.401875,0.16063149273395538,0.09136852622032166,-0.012386628426611423
1789558192085843200,4.41184326171875,0.14105325937271118,0.09944509714841843,-0.01619494892656803
1789558192095812000,4.42181201171875,0.17296752333641052,0.11690238118171692,-0.03280668333172798
1789558192105781000,4.431781005859375,0.15281884372234344,0.08453325927257538,-0.004493551794439554
1789558192115750100,4.441750244140625,0.15915529429912567,0.15060734748840332,-0.017851168289780617
1789558192125718000,4.451718017578125,0.18349125981330872,0.1390226036310196,-0.05098675191402435
1789558192135687200,4.461687255859375,0.18391923606395721,0.11356890946626663,0.003778226673603058
1789558192145656000,4.471656005859375,0.14712074398994446,0.11771837621927261,0.06747385114431381
1789558192155625200,4.481625244140625,0.15710653364658356,0.13602015376091003,0.020925255492329597
1789558192165592800,4.4915927734375,0.1082037016749382,0.11500062048435211,0.0073569826781749725
1789558192175562000,4.50156201171875,0.1371874213218689,0.14335262775421143,-0.019785689190030098
1789558192185531100,4.51153125,0.13812671601772308,0.09270250797271729,-0.05007035657763481
1789558192195500000,4.5215,0.05378679931163788,0.13212928175926208,-0.0010910971323028207
1789558192205468000,4.531468017578125,0.047209590673446655,0.12488441169261932,-0.0010135991033166647
1789558192215437000,4.54143701171875,0.0642399713397026,0.11589011549949646,-0.01504259929060936
1789558192225406000,4.551406005859375,0.02611122839152813,0.12152563035488129,-0.00923131499439478
1789558192235374000,4.5613740234375,0.048166997730731964,0.11918817460536957,-0.005822469014674425
1789558192245343000,4.571343017578125,0.06510390341281891,0.10809158533811569,0.02659698948264122
1789558192255312000,4.581311767578125,0.012636433355510235,0.14013554155826569,0.02418203465640545
1789558192265281000,4.591281005859375,-0.011776498518884182,0.18051359057426453,-0.020544689148664474
1789558192275249000,4.601248779296875,-0.01732492819428444,0.12022387981414795,-0.01053120382130146
1789558192285218000,4.611218017578125,-0.014597318135201931,0.11274998635053635,0.006882407236844301
1789558192295187000,4.62118701171875,-0.06355234235525131,0.14686481654644012,-0.02153938077390194
1789558192305156000,4.631156005859375,-0.08629947155714035,0.16762948036193848,-0.0252787247300148
1789558192315124000,4.6411240234375,-0.07571819424629211,0.1591172218322754,0.027706462889909744
1789558192325093000,4.651093017578125,-0.13253620266914368,0.1934269815683365,0.03972610831260681
1789558192335062000,4.66106201171875,-0.1227690652012825,0.21834059059619904,0.05036064237356186
1789558192345030100,4.671030029296875,-0.11732582747936249,0.18265822529792786,0.004274373408406973
1789558192354999000,4.6809990234375,-0.22515907883644104,0.21173009276390076,-0.0017150756902992725
1789558192364968000,4.690968017578125,-0.22846326231956482,0.15745113790035248,0.02605077438056469
1789558192374937000,4.70093701171875,-0.2447253316640854,0.135908305644989,0.027358919382095337
1789558192384905200,4.7109052734375,-0.3025902211666107,0.1667351871728897,-0.028894765302538872
1789558192394874000,4.7208740234375,-0.32186031341552734,0.17267270386219025,-0.04290618747472763
1789558192404843000,4.730843017578125,-0.2577929198741913,0.12568283081054688,-0.019633356481790543
1789558192414812200,4.740812255859375,-0.3152626156806946,0.12025850266218185,-0.001091629732400179
1789558192424780000,4.750780029296875,-0.3443254232406616,0.13302116096019745,0.02154470607638359
1789558192434749200,4.760749267578125,-0.3105650544166565,0.14203649759292603,-0.01623702608048916
1789558192444718000,4.770718017578125,-0.3407956659793854,0.12976039946079254,-0.0012088088551536202
1789558192454686000,4.78068603515625,-0.33025914430618286,0.12012267857789993,0.035238947719335556
1789558192464654800,4.79065478515625,-0.3155784606933594,0.08825209736824036,0.04471180960536003
1789558192474624000,4.8006240234375,-0.3333185911178589,0.042390335351228714,0.04247475415468216
1789558192484593000,4.810593017578125,-0.35510456562042236,0.09458882361650467,-0.009127718396484852
1789558192494561000,4.82056103515625,-0.33862918615341187,0.04248034954071045,-0.01381221879273653
1789558192504530000,4.830530029296875,-0.3422132730484009,0.05278651416301727,0.005597964394837618
1789558192514499000,4.8404990234375,-0.2925647497177124,0.008246212266385555,-0.04925942420959473
1789558192524467700,4.8504677734375,-0.29386571049690247,0.028316060081124306,-0.03050358034670353
1789558192534435800,4.860435791015625,-0.25118348002433777,-0.020443489775061607,-0.006636863574385643
1789558192544404700,4.87040478515625,-0.2519952356815338,0.030758177861571312,-0.030528614297509193
1789558192554373600,4.88037353515625,-0.23337626457214355,0.02923458442091942,-0.06919078528881073
1789558192564341800,4.890341796875,-0.229025200009346,0.010599114932119846,0.04579545184969902
1789558192574310700,4.900310546875,-0.11479183286428452,0.00911253783851862,-0.010608701966702938
1789558192584279800,4.91027978515625,-0.17790955305099487,0.008319182321429253,-0.06343836337327957
1789558192594248700,4.920248779296875,-0.22947074472904205,-0.020083962008357048,0.0019600866362452507
1789558192604216800,4.930216796875,-0.21171490848064423,-0.046721965074539185,-0.04953772574663162
1789558192614185700,4.940185791015625,-0.20188012719154358,-0.05692506954073906,-0.04911667853593826
1789558192624155000,4.95015478515625,-0.2507619261741638,-0.06790953874588013,-0.017480989918112755
1789558192634123800,4.960123779296875,-0.24528352916240692,-0.11170309782028198,0.044493164867162704
1789558192644092000,4.970091796875,-0.22916075587272644,-0.07477916777133942,0.012546151876449585
1789558192654060800,4.980060791015625,-0.16159342229366302,-0.08614633977413177,-0.046611178666353226
1789558192664030000,4.990030029296875,-0.18419913947582245,-0.11490155011415482,-0.025678198784589767
1789558192673997800,4.999997802734375,-0.19932349026203156,-0.1224185898900032,0.007283479440957308
1789558192683967000,5.009967041015625,-0.12201565504074097,-0.18701782822608948,-0.008525044657289982
1789558192693935900,5.019935791015625,-0.1545134037733078,-0.13127653300762177,0.005261074751615524
1789558192703904800,5.02990478515625,-0.11474628746509552,-0.19637803733348846,0.05347414314746857
1789558192713872600,5.03987255859375,-0.0033071134239435196,-0.17968854308128357,-0.015976568683981895
1789558192723841800,5.049841796875,-0.016352608799934387,-0.13480228185653687,-0.03605573996901512
1789558192733810700,5.059810791015625,0.010128001682460308,-0.13379961252212524,-0.013626329600811005
1789558192743779600,5.069779541015625,0.02725345827639103,-0.19128847122192383,0.0398789718747139
1789558192753747700,5.079747802734375,-0.0017686053179204464,-0.17611351609230042,0.05775757133960724
1789558192763716600,5.089716552734375,-0.019051987677812576,-0.14461363852024078,0.02136068232357502
1789558192773685800,5.099685791015625,0.044667068868875504,-0.17018504440784454,-0.025014806538820267
1789558192783653600,5.109653564453125,0.012494753114879131,-0.15520210564136505,0.04300925135612488
1789558192793622800,5.119622802734375,0.044804755598306656,-0.18212373554706573,0.030102508142590523
1789558192803591700,5.129591796875,0.03753219544887543,-0.1408149152994156,-0.016261793673038483
1789558192813560800,5.139560791015625,-0.021585986018180847,-0.12937051057815552,-0.022670958191156387
1789558192823528700,5.14952880859375,-0.00538464542478323,-0.16093455255031586,0.008888034150004387
1789558192833497900,5.159497802734375,-0.008569786325097084,-0.19543874263763428,0.025139175355434418
1789558192843466800,5.169466796875,-0.01369237620383501,-0.13875149190425873,0.027668379247188568
1789558192853435600,5.179435546875,-0.001446096459403634,-0.17795401811599731,0.04776672273874283
1789558192863403800,5.18940380859375,0.009798568673431873,-0.15076687932014465,0.04597494751214981
1789558192873372700,5.19937255859375,-0.0044139232486486435,-0.12848740816116333,0.06487566977739334
1789558192883341800,5.209341796875,0.033957965672016144,-0.17096535861492157,0.08672823756933212
1789558192893310000,5.21931005859375,0.07730437815189362,-0.08237024396657944,-0.011454255320131779
1789558192903278800,5.22927880859375,0.1289374828338623,-0.14411216974258423,0.0008639294537715614
1789558192913247700,5.239247802734375,0.2248576134443283,-0.15755660831928253,0.07909508794546127
1789558192923217000,5.249216796875,0.2707774341106415,-0.11194544285535812,-0.006626211106777191
1789558192933184800,5.259184814453125,0.25694817304611206,-0.0756622701883316,-0.062257517129182816
1789558192943154000,5.26915380859375,0.2330939769744873,-0.08352285623550415,-0.010387393645942211
1789558192953122800,5.279122802734375,0.21362493932247162,-0.0546930730342865,0.006109025329351425
1789558192963090700,5.289090576171875,0.17942622303962708,-0.0482649989426136,0.007514375261962414
1789558192973059600,5.2990595703125,0.18866471946239471,-0.06570497900247574,0.021995047107338905
1789558192983029000,5.309029052734375,0.21274715662002563,-0.07479993999004364,0.0008671252289786935
1789558192992998000,5.318997802734375,0.12960299849510193,-0.053273607045412064,0.030974959954619408
1789558193002965800,5.3289658203125,0.17829330265522003,-0.042459841817617416,0.04122599959373474
1789558193012934700,5.3389345703125,0.1733025461435318,0.0012564794160425663,-0.008806806989014149
1789558193022904800,5.34890478515625,0.18628039956092834,-0.022431273013353348,0.031319040805101395
1789558193032872700,5.358872802734375,0.19091002643108368,-0.031858332455158234,-0.005166798830032349
1789558193042841600,5.368841552734375,0.08893093466758728,0.0475427508354187,-0.015752598643302917
1789558193052810800,5.378810791015625,0.062437012791633606,0.04080335423350334,0.029085181653499603
1789558193062778600,5.388778564453125,0.1329663097858429,0.0006538060260936618,0.012825250625610352
1789558193072747800,5.398747802734375,0.08067460358142853,0.049907904118299484,0.02221156284213066
1789558193082716700,5.408716552734375,0.09078503400087357,0.03133422136306763,-0.033965423703193665
1789558193092685800,5.418685791015625,0.13839302957057953,0.027270236983895302,-0.04645165428519249
1789558193102653700,5.42865380859375,0.07420365512371063,0.04235118627548218,-0.04002997279167175
1789558193112622800,5.438622802734375,0.09716063737869263,0.06035495176911354,-0.0961877852678299
1789558193122591700,5.448591796875,0.1105283722281456,0.029949376359581947,-0.09842324256896973
1789558193132560000,5.458559814453125,0.06680087000131607,0.03945606201887131,-0.035767585039138794
1789558193142528800,5.46852880859375,0.049374740570783615,0.026872094720602036,-0.043649476021528244
1789558193152497700,5.47849755859375,0.013140303082764149,0.11206608265638351,-0.043170373886823654
1789558193162466800,5.488466796875,0.03512096777558327,0.019345467910170555,0.0025414545089006424
1789558193172434700,5.4984345703125,0.00481313094496727,0.05568057298660278,0.05663398280739784
1789558193182403800,5.50840380859375,0.09551693499088287,0.05263951048254967,-0.03874952718615532
1789558193192372700,5.518372802734375,0.0830695852637291,0.046414636075496674,-0.03846962749958038
1789558193202342000,5.528341796875,0.044376254081726074,0.04223533719778061,0.016642093658447266
1789558193212309800,5.538309814453125,0.042216427624225616,0.08558520674705505,-0.03307352960109711
1789558193222279000,5.54827880859375,0.009455286897718906,0.10248216986656189,-0.09413661807775497
1789558193232247800,5.558247802734375,0.048775527626276016,0.06844643503427505,-0.044065460562705994
1789558193242216000,5.5682158203125,0.049192581325769424,0.02238999493420124,-0.012330169789493084
1789558193252184800,5.578184814453125,0.06022019684314728,0.05986519902944565,-0.08404696732759476
1789558193262154000,5.588154052734375,0.042270224541425705,0.10727345943450928,-0.11842677742242813
1789558193272123000,5.598122802734375,0.02020913176238537,0.09683094173669815,-0.11536867171525955
1789558193282090800,5.6080908203125,0.01768685132265091,0.06307137757539749,-0.01828393153846264
1789558193292059600,5.6180595703125,0.015295333229005337,0.06744135916233063,-0.009177785366773605
1789558193302028500,5.628028564453125,-0.033070601522922516,0.09862830489873886,-0.06401626765727997
1789558193311996700,5.63799658203125,-0.07264597713947296,0.049801912158727646,0.04583699628710747
1789558193321965600,5.647965576171875,0.0023076289799064398,0.03417554870247841,0.04379142448306084
1789558193331934700,5.657934814453125,-0.011305385269224644,0.07712594419717789,-0.020596621558070183
1789558193341903600,5.667903564453125,-0.07604043930768967,0.10412347316741943,-0.009591907262802124
1789558193351871700,5.677871826171875,-0.03297925367951393,0.07868202775716782,-0.0020090886391699314
1789558193361840600,5.687840576171875,-0.0501214899122715,0.08086102455854416,0.007133543025702238
1789558193371809800,5.697809814453125,-0.047381363809108734,0.08249753713607788,0.011884622275829315
1789558193381778700,5.70777880859375,-0.058340538293123245,0.08851069211959839,0.047207191586494446
1789558193391746800,5.717746826171875,-0.0651949793100357,0.06049050763249397,0.04602475091814995
1789558193401715700,5.7277158203125,-0.06268441677093506,0.11005246639251709,0.015629293397068977
1789558193411684900,5.737684814453125,-0.061757639050483704,0.09538643807172775,-0.03844805806875229
1789558193421652700,5.74765283203125,-0.09162285923957825,0.1528630554676056,-0.03648477420210838
1789558193431622000,5.757621826171875,-0.08401501178741455,0.14781183004379272,-0.0733375996351242
1789558193441590800,5.7675908203125,-0.1345737874507904,0.14041410386562347,0.01637391373515129
1789558193451559700,5.7775595703125,-0.1290234923362732,0.1399507075548172,0.012711267918348312
1789558193461527800,5.78752783203125,-0.17127880454063416,0.1303420215845108,0.01702052913606167
1789558193471496700,5.79749658203125,-0.14256513118743896,0.08537029474973679,0.05338599160313606
1789558193481465900,5.8074658203125,-0.17623361945152283,0.07661328464746475,0.025142105296254158
1789558193491434800,5.817434814453125,-0.22069349884986877,0.13592667877674103,-0.02093697339296341
1789558193501401600,5.827401611328125,-0.22633087635040283,0.0993279218673706,0.011788749136030674
1789558193511370800,5.837370849609375,-0.20772522687911987,0.059488095343112946,0.054965514689683914
1789558193521340400,5.84734033203125,-0.19378997385501862,0.10227523744106293,-0.029195701703429222
1789558193531309300,5.857309326171875,-0.22539770603179932,0.10920798033475876,-0.04578666388988495
1789558193541277200,5.867277099609375,-0.235977903008461,0.08531995862722397,-0.007787881884723902
1789558193551246000,5.87724609375,-0.2157709151506424,0.053095441311597824,-0.0006221143994480371
1789558193561215200,5.88721533203125,-0.2586802840232849,0.07531072944402695,-0.022535402327775955
1789558193571183000,5.89718310546875,-0.23055438697338104,0.058649998158216476,-0.05895865708589554
1789558193581152300,5.90715234375,-0.26128220558166504,0.04361272603273392,-0.020501280203461647
1789558193591121200,5.91712109375,-0.21525318920612335,0.04361645132303238,-0.03326581045985222
1789558193601090300,5.92709033203125,-0.25921186804771423,0.0418102964758873,-0.04132320359349251
1789558193611058200,5.93705810546875,-0.27216866612434387,0.01919286884367466,0.01242231484502554
1789558193621027300,5.94702734375,-0.2933599650859833,-0.0016863135388121009,0.0025627599097788334
1789558193630996200,5.956996337890625,-0.30064693093299866,-0.007025685161352158,-0.011365572921931744
1789558193640965000,5.966965087890625,-0.28875723481178284,-0.017301226034760475,-0.04849190264940262
1789558193650933200,5.976933349609375,-0.2363363653421402,-0.035765454173088074,-0.047209855169057846
1789558193660902100,5.986902099609375,-0.25538915395736694,-0.06643521785736084,-0.005726595409214497
1789558193670871300,5.996871337890625,-0.2873697280883789,-0.002032258315011859,-0.04174824431538582
1789558193680840200,6.006840087890625,-0.2433127909898758,-0.028270253911614418,-0.03557610511779785
1789558193690808300,6.016808349609375,-0.2605370581150055,-0.05571812391281128,0.008301605470478535
1789558193700777200,6.026777099609375,-0.21248696744441986,-0.06731512397527695,0.011642009019851685
1789558193710746400,6.036746337890625,-0.18494215607643127,-0.09208784997463226,0.013828197494149208
1789558193720714200,6.04671435546875,-0.1764213740825653,-0.0570845901966095,-0.007617439609020948
1789558193730683400,6.056683349609375,-0.1777561455965042,-0.06063724681735039,-0.03875485435128212
1789558193740652300,6.06665234375,-0.2118147760629654,-0.07985302060842514,0.0005539375124499202
1789558193750621400,6.076621337890625,-0.18575336039066315,-0.09574596583843231,-0.01606578566133976
1789558193760589300,6.08658935546875,-0.1460389643907547,-0.12091629952192307,0.002129996195435524
1789558193770558500,6.096558349609375,-0.13248267769813538,-0.11785020679235458,0.012326707132160664
1789558193780527400,6.10652734375,-0.128605917096138,-0.11713141947984695,-0.03135712444782257
1789558193790496300,6.116496337890625,-0.12108407914638519,-0.14808134734630585,0.0035153725184500217
1789558193800464400,6.12646435546875,-0.10085604339838028,-0.13120035827159882,-0.027480892837047577
1789558193810433300,6.136433349609375,-0.043346140533685684,-0.12726661562919617,-0.07129202038049698
1789558193820402400,6.14640234375,-0.05414925515651703,-0.10430216789245605,-0.10240253806114197
1789558193830371300,6.156371337890625,-0.04820481315255165,-0.14033128321170807,-0.051838163286447525
1789558193840339200,6.166339111328125,-0.07719172537326813,-0.10796108841896057,-0.05662013590335846
1789558193850308000,6.17630810546875,-0.10304488986730576,-0.11186661571264267,-0.0001901497016660869
1789558193860277200,6.18627734375,-0.04814143106341362,-0.14681394398212433,0.0068243504501879215
1789558193870245000,6.1962451171875,-0.026647057384252548,-0.1330704391002655,-0.0009859022684395313
1789558193880214300,6.20621435546875,-0.008954079821705818,-0.14609728753566742,0.06810581684112549
1789558193890183200,6.21618310546875,0.012135226279497147,-0.15418264269828796,0.13437725603580475
1789558193900152300,6.22615234375,0.021852834150195122,-0.1599758118391037,0.07370617985725403
1789558193910120200,6.2361201171875,0.0005898901727050543,-0.1467159390449524,0.027770111337304115
1789558193920089300,6.24608935546875,-0.010218016803264618,-0.16247466206550598,0.04791319742798805
1789558193930058200,6.256058349609375,-0.0035712989047169685,-0.20396777987480164,0.014487596228718758
1789558193940027100,6.266027099609375,0.04469423368573189,-0.19290021061897278,-0.030615966767072678
1789558193949995300,6.275995361328125,-0.01721440628170967,-0.17681099474430084,-0.004526308737695217
1789558193959964200,6.285964111328125,0.08566616475582123,-0.20279145240783691,-0.050876498222351074
1789558193969933300,6.295933349609375,0.09142099320888519,-0.16037581861019135,-0.050273291766643524
1789558193979902200,6.305902099609375,0.07596161216497421,-0.14123143255710602,-0.07193250954151154
1789558193989870300,6.315870361328125,0.12238743156194687,-0.18403108417987823,-0.01601465232670307
1789558193999839200,6.325839111328125,0.11235876381397247,-0.1677144318819046,0.06536409258842468
1789558194009808400,6.335808349609375,0.1246441975235939,-0.13959278166294098,-0.018188325688242912
1789558194019776300,6.3457763671875,0.11115714907646179,-0.11046898365020752,0.03592417761683464
1789558194029745400,6.355745361328125,0.19552981853485107,-0.16118702292442322,0.09359359741210938
1789558194039714300,6.36571435546875,0.20537632703781128,-0.13101473450660706,0.03267166018486023
1789558194049683500,6.375683349609375,0.19450822472572327,-0.08353830128908157,0.01624155417084694
1789558194059651300,6.3856513671875,0.15936994552612305,-0.08090763539075851,0.008084291592240334
1789558194069620500,6.395620361328125,0.20470787584781647,-0.1603425294160843,0.08595432341098785
1789558194079589400,6.40558935546875,0.17391879856586456,-0.080153688788414,0.03242185711860657
1789558194089558300,6.415558349609375,0.17834444344043732,-0.10355035960674286,0.014194648712873459
1789558194099526100,6.425526123046875,0.17162102460861206,-0.08034037798643112,-0.011986088939011097
1789558194109495000,6.4354951171875,0.15937075018882751,-0.046300917863845825,-0.047690290957689285
1789558194119464200,6.445464111328125,0.13370293378829956,-0.034572359174489975,-0.07771530002355576
1789558194129433000,6.45543310546875,0.13624411821365356,-0.0550086572766304,-0.06394729018211365
1789558194139401200,6.465401123046875,0.09670284390449524,-0.03491457551717758,-0.032098814845085144
1789558194149370000,6.4753701171875,0.0878470316529274,-0.0642428994178772,-0.02226562425494194
1789558194159339300,6.48533935546875,0.0202203169465065,0.01278610248118639,-0.04110535979270935
1789558194169307100,6.49530712890625,0.07945141941308975,-0.0258659515529871,0.0452423132956028
1789558194179276300,6.5052763671875,0.0808679535984993,-0.01907728798687458,0.09861099720001221
1789558194189245200,6.5152451171875,0.09663280099630356,0.040591102093458176,-0.034982483834028244
1789558194199214300,6.52521435546875,0.09345191717147827,-0.0057798586785793304,0.024532506242394447
1789558194209182200,6.53518212890625,0.06991570442914963,-0.043414320796728134,0.017834657803177834
1789558194219151400,6.5451513671875,0.004296744242310524,0.02046213112771511,-0.03567304089665413
1789558194229120300,6.555120361328125,-0.09424128383398056,0.04797045513987541,-0.059231631457805634
1789558194239089200,6.565089111328125,-0.012952550314366817,0.015439143404364586,-0.13068850338459015
1789558194249057300,6.575057373046875,-0.0029286781791597605,-0.06993328034877777,-0.1085781455039978
1789558194259026200,6.585026123046875,-0.09629032015800476,-0.08973201364278793,0.027762122452259064
1789558194268995300,6.594995361328125,-0.0021201425697654486,-0.03099493309855461,-0.08168287575244904
1789558194278964200,6.604964111328125,0.04266969859600067,-0.0234129149466753,-0.10088426619768143
1789558194288932400,6.614932373046875,-0.002263953210785985,-0.03617904335260391,0.06648022681474686
1789558194298901200,6.6249013671875,0.03876364231109619,-0.06016373634338379,0.05332766845822334
1789558194308870400,6.634870361328125,0.020318055525422096,0.015457252971827984,0.023005450144410133
1789558194318838300,6.64483837890625,0.08515617251396179,-0.02160302922129631,0.015925437211990356
1789558194328807400,6.654807373046875,0.08545897156000137,-0.030373884364962578,0.019180618226528168
1789558194338776300,6.6647763671875,0.04749587923288345,0.014661233872175217,-0.020490894094109535
1789558194348745500,6.674745361328125,0.06544531881809235,0.005768939387053251,-0.06589006632566452
1789558194358713300,6.68471337890625,0.005627259146422148,-0.05919488146901131,-0.01435390580445528
1789558194368682500,6.6946826171875,0.02388535812497139,-0.09912259131669998,0.022714367136359215
1789558194378651400,6.7046513671875,0.06539685279130936,-0.0689830631017685,-0.04307929426431656
1789558194388620300,6.714620361328125,0.003477022983133793,-0.04560982808470726,-0.03253823518753052
1789558194398588200,6.724588134765625,-0.002566754585132003,-0.032696694135665894,0.03462029621005058
1789558194408557000,6.73455712890625,0.07804739475250244,-0.07680024206638336,0.01955905370414257
1789558194418526200,6.744526123046875,0.061880145221948624,-0.03694203868508339,-0.0450577549636364
1789558194428494300,6.754494384765625,0.04658934101462364,-0.0831819698214531,-0.02882871776819229
1789558194438463200,6.764463134765625,0.03598995879292488,-0.07814566791057587,-0.005868807900696993
1789558194448432000,6.77443212890625,0.05043813958764076,-0.09114908427000046,0.006505569908767939
1789558194458401300,6.7844013671875,0.063817597925663,-0.07628411799669266,0.030001042410731316
1789558194468369200,6.794369140625,0.10943301767110825,-0.08766140788793564,0.07853581756353378
1789558194478338300,6.80433837890625,0.10346779972314835,-0.018676215782761574,-0.0027710190042853355
1789558194488307200,6.81430712890625,0.12641146779060364,-0.03515665605664253,-0.03500618785619736
1789558194498276400,6.8242763671875,0.08347012847661972,-0.025020131841301918,0.008725048042833805
1789558194508244200,6.834244140625,0.10913101583719254,-0.04646763205528259,-0.0059244679287076
1789558194518213000,6.844213134765625,0.09910980612039566,-0.08032093942165375,-0.027643878012895584
1789558194528182000,6.85418212890625,0.09255949407815933,-0.018989402800798416,-0.06643415242433548
1789558194538151000,6.86415087890625,0.1387975662946701,-0.05204855278134346,-0.022787071764469147
1789558194548118800,6.874118896484375,0.10318923741579056,-0.05356922000646591,0.006308762356638908
1789558194558088000,6.884087890625,0.12642478942871094,-0.06292890012264252,0.055504802614450455
1789558194568056800,6.894056884765625,0.15580052137374878,-0.014433533884584904,-0.01570572517812252
1789558194578025000,6.90402490234375,0.11229778081178665,-0.05272659286856651,0.026064623147249222
1789558194587993900,6.913993896484375,0.15357890725135803,-0.032827455550432205,0.008123706094920635
1789558194597962800,6.923962646484375,0.25083380937576294,-0.08142641931772232,-0.07167152315378189
1789558194607932000,6.933931884765625,0.0751059353351593,-0.09876705706119537,0.00791624654084444
1789558194617899800,6.943899658203125,0.09748607873916626,-0.10977789759635925,0.042481679469347
1789558194627869000,6.953868896484375,0.17941902577877045,-0.06843764334917068,-0.03157736733555794
1789558194637837800,6.963837890625,0.16729791462421417,-0.05943110212683678,0.04484070837497711
1789558194647807000,6.973806884765625,0.1970512866973877,-0.04278341680765152,0.0696168914437294
1789558194657774800,6.98377490234375,0.27580761909484863,-0.03975833207368851,0.033059414476156235
1789558194667744000,6.993743896484375,0.24886654317378998,0.00996208656579256,0.0003115898580290377
1789558194677713000,7.003712890625,0.18158364295959473,-0.015363509766757488,0.062075886875391006
1789558194687681000,7.013680908203125,0.13648727536201477,-0.007487743627279997,0.08554872125387192
1789558194697650000,7.02364990234375,0.16984257102012634,-0.04159431532025337,0.040292296558618546
1789558194707619000,7.033619140625,0.08611011505126953,0.013066799379885197,0.021917017176747322
1789558194717588000,7.043587890625,0.10771580785512924,-0.06453877687454224,0.016759539023041725
1789558194727556000,7.05355615234375,0.1031237244606018,-0.039078958332538605,0.03893301635980606
1789558194737525000,7.06352490234375,0.07661275565624237,0.0356631875038147,-0.06811833381652832
1789558194747494000,7.073493896484375,0.05522783473134041,0.01266705896705389,-0.06761259585618973
1789558194757462000,7.0834619140625,0.024527713656425476,-0.02906973473727703,0.023672573268413544
1789558194767431000,7.093430908203125,0.05724038556218147,-0.002531068166717887,-0.0075668394565582275
1789558194777400000,7.103400146484375,0.039259523153305054,-0.01284815464168787,-0.026249980553984642
1789558194787369000,7.113368896484375,-0.028921397402882576,-0.012169048190116882,0.02443183958530426
1789558194797337000,7.123337158203125,-0.00267754215747118,-0.017303356900811195,0.014505439437925816
1789558194807306000,7.133305908203125,0.024252874776721,-0.038664836436510086,-0.015458584763109684
1789558194817275100,7.143275146484375,-0.007466704584658146,-0.006342850625514984,-0.0006886934279464185
1789558194827244000,7.153244140625,0.048824798315763474,-0.012300075963139534,0.05882736295461655
1789558194837212000,7.1632119140625,0.10389657318592072,0.02738688327372074,0.03602804243564606
1789558194847180800,7.173180908203125,0.09798488765954971,0.02334793284535408,0.05431943014264107
1789558194857150000,7.18314990234375,0.08992216736078262,0.013371998444199562,0.042446792125701904
1789558194867117800,7.193117919921875,0.13444675505161285,0.014642326161265373,-0.005402754992246628
1789558194877087000,7.2030869140625,0.13145549595355988,0.054367367178201675,-0.0526733323931694
1789558194887056000,7.213055908203125,0.1100974753499031,0.040705617517232895,-0.05443447828292847
1789558194897024800,7.223024658203125,0.09580908715724945,0.0439690537750721,-0.06858038902282715
1789558194906993000,7.232992919921875,0.07784393429756165,0.04030347988009453,-0.04123318940401077
1789558194916961800,7.2429619140625,0.030158434063196182,0.050940677523612976,-0.0014828480780124664
1789558194926931000,7.252930908203125,0.05650535225868225,0.014967231079936028,0.028554679825901985
1789558194936899000,7.262899169921875,0.06049077585339546,0.04536215588450432,0.008870457299053669
1789558194946868000,7.272867919921875,0.04922986403107643,0.03425384312868118,0.019719375297427177
1789558194956836900,7.2828369140625,0.07915926724672318,0.008992962539196014,-0.02695305459201336
1789558194966806000,7.292805908203125,0.044610876590013504,0.018329206854104996,-0.0231721643358469
1789558194976774000,7.30277392578125,-0.006833937484771013,0.02292582206428051,0.04615630954504013
1789558194986743000,7.312742919921875,-0.011699799448251724,0.04356052726507187,0.022729281336069107
1789558194996712000,7.3227119140625,0.01954653672873974,0.01884612627327442,-0.014669756405055523
1789558195006681000,7.33268115234375,0.03837162256240845,-0.008491222746670246,0.03452602028846741
1789558195016649000,7.34264892578125,0.08262137323617935,-0.0038075214251875877,-0.04803117364645004
1789558195026618000,7.3526181640625,-0.0014530207263305783,0.03274063766002655,-0.09815213084220886
1789558195036587000,7.3625869140625,-0.0179893858730793,0.014066816307604313,-0.05266134813427925
1789558195046555100,7.37255517578125,-0.01890604756772518,-0.00893943291157484,0.06133153289556503
1789558195056524000,7.38252392578125,0.02761351875960827,0.00038935415796004236,0.02851393260061741
1789558195066493000,7.392492919921875,0.01666366495192051,0.043947484344244,0.008103999309241772
1789558195076462000,7.402462158203125,-0.002129463478922844,0.051669053733348846,0.04873744398355484
1789558195086430000,7.412429931640625,0.019720707088708878,0.03822408616542816,0.024284301325678825
1789558195096398800,7.42239892578125,-0.02292129397392273,0.05361289530992508,-0.009957293048501015
1789558195106367700,7.43236767578125,-0.05614236369729042,0.056233711540699005,-0.021218735724687576
1789558195116335900,7.4423359375,0.02533092349767685,0.020080767571926117,0.0024546354543417692
1789558195126304800,7.4523046875,-0.03936578333377838,0.07874967157840729,0.010463027283549309
1789558195136274000,7.46227392578125,-0.047993358224630356,0.06166363134980202,0.02448536828160286
1789558195146242800,7.472242919921875,-0.07105287164449692,0.06161382794380188,0.008805476129055023
1789558195156211000,7.4822109375,-0.0326215922832489,0.07201720029115677,0.015409315936267376
1789558195166179800,7.492179931640625,-0.03882063180208206,0.06009982153773308,-0.015056979842483997
1789558195176149000,7.50214892578125,-0.009092831052839756,0.03845950961112976,-0.07696162909269333
1789558195186116900,7.512116943359375,-0.08983774483203888,0.08402619510889053,-0.053710632026195526
1789558195196086000,7.5220859375,-0.04101480916142464,0.043659862130880356,0.01221485435962677
1789558195206055000,7.532054931640625,-0.0621403343975544,0.05917251110076904,0.014458567835390568
1789558195216023800,7.54202392578125,-0.0408792570233345,0.042277414351701736,0.052322860807180405
1789558195225992000,7.551991943359375,0.031015174463391304,0.09066572040319443,-0.0650399848818779
1789558195235961000,7.561961181640625,0.01895877718925476,0.03970373794436455,-0.022175876423716545
1789558195245930000,7.571929931640625,-0.018063955008983612,0.017166735604405403,0.02670937590301037
1789558195255898000,7.581898193359375,0.012101403437554836,-0.014272146858274937,-0.06771273165941238
1789558195265867000,7.591866943359375,0.02346617728471756,-0.014986938796937466,-0.11502166092395782
1789558195275836000,7.6018359375,0.008242483250796795,0.039258722215890884,-0.1023615226149559
1789558195285805000,7.61180517578125,0.06246577575802803,-0.018794460222125053,-0.0341731496155262
1789558195295773000,7.62177294921875,0.10658369958400726,0.005397961009293795,0.020988373085856438
1789558195305742000,7.6317421875,0.17550258338451385,0.00987207144498825,-0.021571870893239975
1789558195315711000,7.6417109375,0.1819642037153244,0.029823942109942436,-0.010582070797681808
1789558195325680000,7.65168017578125,0.1795274168252945,0.027603931725025177,0.04813024401664734
1789558195335647700,7.661647705078125,0.182402566075325,0.029231121763586998,0.0041460092179477215
1789558195345617200,7.6716171875,0.16390424966812134,0.03410657122731209,-0.006095709279179573
1789558195355586000,7.6815859375,0.16420918703079224,0.0018996327416971326,0.025833727791905403
1789558195365554000,7.691553955078125,0.1675272136926651,0.0054392400197684765,-0.01805010624229908
1789558195375522800,7.701522705078125,0.17910318076610565,0.001493500778451562,-0.017530789598822594
1789558195385492000,7.711491943359375,0.18136632442474365,0.009031045250594616,0.0013941648649051785
1789558195395459800,7.7214599609375,0.1695975512266159,0.02827691100537777,-0.01221698522567749
1789558195405429000,7.731428955078125,0.1433028280735016,0.020808076485991478,0.010518155060708523
1789558195415398000,7.74139794921875,0.14301706850528717,0.015916382893919945,0.03067801706492901
1789558195425366800,7.75136669921875,0.11210682988166809,0.07126060128211975,0.02383129671216011
1789558195435335000,7.7613349609375,0.11391991376876831,0.04400793835520744,0.10190346091985703
1789558195445303800,7.7713037109375,0.12980246543884277,0.06720433384180069,0.09492331743240356
1789558195455273000,7.78127294921875,0.08958820253610611,0.05048314854502678,0.032716136425733566
1789558195465240800,7.79124072265625,0.05830059200525284,0.07100733369588852,-0.033428795635700226
1789558195475210000,7.8012099609375,0.04421859234571457,0.03991226106882095,-0.015487879514694214
1789558195485179000,7.811178955078125,0.056287772953510284,0.04664739593863487,-0.0314151793718338
1789558195495148000,7.82114794921875,0.02309759519994259,0.09187053143978119,-0.05296894162893295
1789558195505116000,7.831115966796875,0.0014136058744043112,0.06648208945989609,-0.016378972679376602
1789558195515085000,7.8410849609375,0.01056529302150011,0.07269710302352905,-0.014280135743319988
1789558195525055200,7.85105517578125,-0.034085530787706375,0.1091267541050911,-0.006098372396081686
1789558195535023000,7.861023193359375,-0.05077343061566353,0.09954443573951721,-0.04709374159574509
1789558195544992300,7.8709921875,-0.0767778679728508,0.09373234957456589,-0.01667112112045288
1789558195554961200,7.880961181640625,-0.02580549754202366,0.05329544469714165,0.04733635485172272
1789558195564930300,7.890930419921875,-0.08111855387687683,0.09768634289503098,0.1424463540315628
1789558195574898200,7.900898193359375,-0.08886861801147461,0.07061824202537537,0.20100341737270355
1789558195584867300,7.910867431640625,-0.05157610774040222,0.0918407067656517,0.07417143136262894
1789558195594836200,7.920836181640625,-0.0489363819360733,0.054180946201086044,-0.0034261567052453756
1789558195604804400,7.930804443359375,-0.09649085253477097,0.05360996350646019,0.009757822379469872
1789558195614773200,7.940773193359375,-0.10638369619846344,0.07745830714702606,-0.10099772363901138
1789558195624742100,7.9507421875,-0.08908886462450027,0.050515104085206985,-0.08031082153320312
1789558195634711300,7.960711181640625,-0.09888556599617004,0.04011999070644379,-0.014606373384594917
1789558195644679400,7.970679443359375,-0.07525187730789185,0.05162244662642479,-0.027248665690422058
1789558195654648300,7.9806484375,-0.06642216444015503,0.06097467243671417,-0.03434785455465317
1789558195664617200,7.9906171875,-0.05105146765708923,0.0646037608385086,-0.06931515783071518
1789558195674585300,8.00058544921875,-0.036251746118068695,0.03154461085796356,-0.10942422598600388
1789558195684554200,8.01055419921875,-0.0770159512758255,-0.008348210714757442,-0.014392254874110222
1789558195694523400,8.0205234375,-0.09229211509227753,0.01751880533993244,-0.011628959327936172
1789558195704492300,8.0304921875,-0.08681905269622803,0.01715155690908432,-0.017247164621949196
1789558195714460400,8.04046044921875,-0.13073404133319855,-0.003765443339943886,0.09748021513223648
1789558195724429300,8.05042919921875,-0.0450042262673378,-0.09097198396921158,0.09236588329076767
1789558195734398500,8.0603984375,0.056183911859989166,-0.06385301798582077,-0.024178307503461838
1789558195744366000,8.070365966796874,0.04056287184357643,0.012112323194742203,-0.09952153265476227
1789558195754335200,8.080335205078125,0.0375971756875515,0.024266989901661873,-0.09274511784315109
1789558195764304100,8.09030419921875,0.061049770563840866,-0.017487380653619766,-0.05788673460483551
1789558195774273300,8.100273193359374,0.06167987734079361,-0.006007558666169643,-0.03131398186087608
1789558195784241200,8.1102412109375,0.07287820428609848,0.0170892383903265,-0.03648237884044647
1789558195794210300,8.120210205078125,0.06460722535848618,-0.03670554980635643,0.02521800436079502
1789558195804179200,8.13017919921875,0.03139360994100571,-0.015565644018352032,0.03820490837097168
1789558195814147300,8.140147216796874,0.10027919709682465,-0.030965106561779976,0.007366303354501724
1789558195824116200,8.1501162109375,0.12142416834831238,0.05145386978983879,-0.06251610815525055
1789558195834085000,8.160085205078126,0.07979203760623932,0.08488133549690247,-0.05679324269294739
1789558195844053200,8.17005322265625,0.05974588915705681,0.06669354438781738,0.03693404793739319
1789558195854022100,8.180022216796875,0.10003365576267242,0.04460342228412628,0.07763354480266571
1789558195863991300,8.1899912109375,0.0777834802865982,0.07166433334350586,-0.006325007416307926
1789558195873960200,8.199960205078124,-0.0011342403013259172,0.11921694129705429,-0.019231485202908516
1789558195883928300,8.20992822265625,0.03820837289094925,0.06362824141979218,0.025898175314068794
1789558195893897200,8.219897216796875,0.041254229843616486,0.06313981860876083,-0.017177920788526535
1789558195903866400,8.229866455078126,-0.08032307028770447,0.14955992996692657,-0.0752425566315651
1789558195913834200,8.239834228515624,-0.02852991223335266,0.10542016476392746,-0.13315778970718384
1789558195923803400,8.249803466796875,-0.09629910439252853,0.05363073945045471,0.023666447028517723
1789558195933772300,8.259772216796875,-0.120481938123703,0.07761676609516144,0.07777868211269379
1789558195943741400,8.269741455078124,-0.09096799045801163,0.13387258350849152,0.01937183365225792
1789558195953709300,8.279709228515625,-0.034018419682979584,0.06305433064699173,0.052331116050481796
1789558195963678500,8.289678466796875,-0.07592751830816269,0.03951385244727135,0.15307237207889557
1789558195973647400,8.2996474609375,-0.06073179095983505,0.04313601925969124,0.05537644028663635
1789558195983615200,8.309615234375,-0.09592360258102417,0.09732149541378021,0.02731471136212349
1789558195993584000,8.319584228515625,-0.09127318859100342,0.09073762595653534,0.03271959722042084
1789558196003553300,8.32955322265625,-0.06270758807659149,0.08450769633054733,0.0642239898443222
1789558196013521200,8.339521240234374,-0.04484710097312927,0.07915953546762466,0.026027871295809746
1789558196023490300,8.349490234375,-0.06451960653066635,0.07487291097640991,0.07972732186317444
1789558196033459200,8.359459228515625,-0.0010032127611339092,0.07324918359518051,0.05771069973707199
1789558196043428000,8.369427978515626,-0.02658979967236519,0.11294439435005188,0.031216775998473167
1789558196053396200,8.379396240234374,-0.0426047183573246,0.10151597112417221,-0.014726481400430202
1789558196063365000,8.389365234375,-0.10036548227071762,0.06041593849658966,0.10048612952232361
1789558196073334300,8.399334228515626,-0.11783795058727264,0.08059843629598618,0.05714664235711098
1789558196083302100,8.40930224609375,-0.06868558377027512,0.1120048314332962,-0.034754782915115356
1789558196093271300,8.419271240234375,-0.07941759377717972,0.10286805778741837,-0.04159298166632652
1789558196103240200,8.429240234375,-0.13263128697872162,0.09183911234140396,-0.0015156050212681293
1789558196113209300,8.439209228515624,-0.0759432315826416,0.08767791837453842,-0.08271671831607819
1789558196123177200,8.44917724609375,-0.09477204829454422,0.11862970888614655,-0.20103217661380768
1789558196133146400,8.459146484375,-0.19533275067806244,0.10516344010829926,-0.09525301307439804
1789558196143115300,8.469115234375,-0.25039148330688477,0.10982397198677063,-0.009474461898207664
1789558196153083400,8.47908349609375,-0.21689316630363464,0.11816099286079407,-0.08184879273176193
1789558196163052300,8.48905224609375,-0.2793687880039215,0.16311249136924744,-0.0665004625916481
1789558196173021400,8.499021484375,-0.2546839416027069,0.10741167515516281,-0.07575201988220215
1789558196182989300,8.5089892578125,-0.17901182174682617,0.07794832438230515,-0.06259946525096893
1789558196192958500,8.51895849609375,-0.10567343235015869,0.19608242809772491,-0.27288347482681274
1789558196202927400,8.52892724609375,-0.16419187188148499,0.15606524050235748,-0.12719230353832245
1789558196212896300,8.538896240234376,-0.2485046237707138,-0.08443845063447952,0.3151875138282776
1789558196222864400,8.548864501953124,-0.3328213691711426,0.15273840725421906,-0.2040812224149704
1789558196232833300,8.558833251953125,-0.23024998605251312,0.02798609435558319,-0.4271833002567291
1789558196242802400,8.568802490234376,-0.2887260615825653,-0.06349854916334152,-0.07784552872180939
1789558196252770300,8.578770263671874,-0.2602646052837372,-0.011171428486704826,0.14840438961982727
1789558196262739200,8.5887392578125,-0.18784579634666443,0.16243818402290344,-0.036015525460243225
1789558196272708000,8.5987080078125,-0.0493643544614315,-0.027349598705768585,-0.04247235879302025
1789558196282677200,8.60867724609375,-0.19346986711025238,-0.01679922081530094,0.10362466424703598
1789558196292645000,8.61864501953125,-0.1533711850643158,-0.0019140138756483793,0.14595641195774078
1789558196302614300,8.6286142578125,-0.2131170630455017,0.0003784351865760982,0.07571020722389221
1789558196312583200,8.638583251953126,-0.32363826036453247,-0.06270518898963928,0.16480839252471924
1789558196322551300,8.64855126953125,-0.16161739826202393,-0.12992390990257263,-0.017186444252729416
1789558196332520200,8.658520263671875,-0.14127697050571442,-0.05487043783068657,-0.07985887676477432
1789558196342489300,8.6684892578125,-0.15535390377044678,-0.007004113402217627,-0.03569008782505989
1789558196352457200,8.678457275390626,-0.049255162477493286,0.0017947042360901833,-0.038833148777484894
1789558196362426400,8.68842626953125,-0.0041247038170695305,0.026186330243945122,-0.07416344434022903
1789558196372395300,8.698395263671875,-0.028150144964456558,0.0601232573390007,-0.23694783449172974
1789558196382364200,8.7083642578125,-0.06458538770675659,-0.09129396080970764,0.05776822566986084
1789558196392332300,8.718332275390624,-0.054968178272247314,-0.05131671577692032,0.0026296053547412157
1789558196402301200,8.72830126953125,-0.17207935452461243,-0.04061134159564972,0.2350926697254181
1789558196412270300,8.738270263671875,-0.023444605991244316,-0.07673578709363937,0.07992465794086456
1789558196422238500,8.748238525390626,-0.17567409574985504,-0.05988463759422302,0.12252964079380035
1789558196432207400,8.758207275390625,-0.13597089052200317,-0.14330816268920898,0.10316633433103561
1789558196442176300,8.76817626953125,-0.10376954078674316,-0.10404197871685028,0.03915698826313019
1789558196452145400,8.7781455078125,-0.09203751385211945,-0.013025786727666855,-0.003492469433695078
1789558196462113300,8.78811328125,-0.1348443627357483,-0.02882232703268528,0.0399109311401844
1789558196472082400,8.79808251953125,-0.08633755147457123,-0.08774716407060623,0.021072261035442352
1789558196482051300,8.80805126953125,-0.0494767390191555,-0.1232505589723587,0.023368172347545624
1789558196492019200,8.818019287109376,-0.1234726682305336,-0.09747089445590973,0.025064339861273766
1789558196501988000,8.827988037109375,-0.053099438548088074,-0.1486174315214157,0.07751663029193878
1789558196511957200,8.837957275390625,-0.0797952264547348,-0.13300013542175293,0.05320809409022331
1789558196521924000,8.847924072265625,-0.12232431769371033,-0.04289926216006279,-0.015121161937713623
1789558196531893000,8.85789306640625,-0.03227591514587402,-0.08836022019386292,-0.02659459225833416
1789558196541862000,8.86786181640625,-0.03713112324476242,-0.1361575722694397,0.04879656806588173
1789558196551831000,8.8778310546875,-0.01841495931148529,-0.0630604550242424,0.02436579391360283
1789558196561799200,8.887799072265626,0.08906702697277069,-0.09932631999254227,-0.027842016890645027
1789558196571768000,8.89776806640625,0.019773704931139946,-0.0900001972913742,0.005942577496170998
1789558196581737000,8.907737060546875,0.00004394215648062527,-0.08186797052621841,0.04044143110513687
1789558196591705000,8.917705078125,0.08918686956167221,-0.11895594745874405,0.007504787761718035
1789558196601674000,8.927674072265624,0.09302288293838501,-0.11417264491319656,0.012041216716170311
1789558196611643100,8.93764306640625,0.05992671847343445,-0.07613098621368408,0.0035364115610718727
1789558196621612000,8.947612060546875,0.10664974898099899,-0.12492861598730087,0.025719478726387024
1789558196631580200,8.957580078125,0.07526173442602158,-0.1115502268075943,0.019885823130607605
1789558196641549000,8.967549072265625,0.0607839897274971,-0.10246671736240387,-0.018616827204823494
1789558196651518200,8.977518310546875,0.10805696249008179,-0.1496659219264984,-0.03296993300318718
1789558196661485800,8.98748583984375,0.1301926225423813,-0.1598445326089859,0.0014764565275982022
1789558196671455000,8.997455078125,0.04772757366299629,-0.09675583988428116,-0.022072013467550278
1789558196681424100,9.007424072265625,0.08690959960222244,-0.03873115032911301,-0.0838666707277298
1789558196691392000,9.01739208984375,0.14771302044391632,-0.16454073786735535,-0.000496945867780596
1789558196701361000,9.02736083984375,0.08059843629598618,-0.13607102632522583,0.03621233254671097
1789558196711330000,9.037330078125,0.0912308469414711,-0.07406304031610489,-0.03660248592495918
1789558196721299000,9.047298828125,0.15485402941703796,-0.07256874442100525,-0.12471556663513184
1789558196731267000,9.05726708984375,0.07011677324771881,-0.09368894249200821,-0.05615008622407913
1789558196741236000,9.067236083984374,0.0940290242433548,-0.1332928091287613,0.01363218855112791
1789558196751204900,9.077204833984375,0.15420500934123993,-0.141871377825737,-0.04021666198968887
1789558196761173000,9.087173095703125,0.09291476011276245,-0.0777597725391388,-0.05170873552560806
1789558196771142000,9.097141845703124,0.09883949160575867,-0.1045495793223381,-0.013339241035282612
1789558196781111000,9.107111083984375,0.18306276202201843,-0.09694412350654602,-0.05998770147562027
1789558196791080000,9.117079833984375,0.15254373848438263,-0.07927005738019943,0.012855877168476582
1789558196801048000,9.127048095703126,0.12164866924285889,-0.04240711033344269,0.090875044465065
1789558196811017000,9.137016845703124,0.22292523086071014,-0.04454855993390083,0.08066022396087646
1789558196820986000,9.146986083984375,0.1932791769504547,0.05547098070383072,-0.01618163287639618
1789558196830954000,9.1569541015625,0.16753840446472168,0.03958043083548546,0.011572499759495258
1789558196840923100,9.166923095703124,0.1623132824897766,-0.023969780653715134,0.05152417719364166
1789558196850892000,9.17689208984375,0.13394607603549957,0.00333214714191854,0.0038490667939186096
1789558196860860200,9.186860107421875,0.05425471439957619,0.03356355428695679,-0.01395869255065918
1789558196870829000,9.1968291015625,0.009702161885797977,0.021080784499645233,0.04331072047352791
1789558196880798200,9.206798095703125,0.06672416627407074,0.021677065640687943,0.03876816853880882
1789558196890767000,9.21676708984375,0.08343364298343658,0.036857083439826965,0.009341570548713207
1789558196900735200,9.2267353515625,0.03624748811125755,0.056228652596473694,0.005922603886574507
1789558196910704000,9.2367041015625,0.007184143178164959,0.07184489816427231,0.016644224524497986
1789558196920673000,9.246673095703125,-0.03400670364499092,0.0590345561504364,0.08360940963029861
1789558196930641000,9.256640869140625,-0.03743419051170349,0.07671768218278885,0.06340000778436661
1789558196940610000,9.266610107421876,-0.006335926707834005,0.10242251306772232,0.048236239701509476
1789558196950579000,9.276578857421875,0.005894374568015337,0.10529979318380356,0.07891611754894257
1789558196960547800,9.2865478515625,0.04280099272727966,0.03136324882507324,0.12920406460762024
1789558196970516000,9.296515869140626,-0.019519371911883354,0.09944962710142136,0.031315311789512634
1789558196980484900,9.30648486328125,-0.04571742191910744,0.07033887505531311,0.006425408646464348
1789558196990454000,9.3164541015625,-0.0123658562079072,0.03659875690937042,0.037992656230926514
1789558197000422000,9.326421875,0.027153857052326202,0.09261568635702133,-0.02852165699005127
1789558197010391000,9.33639111328125,0.028318723663687706,0.09651429206132889,-0.002472745021805167
1789558197020360000,9.34635986328125,0.06485915929079056,0.10581538081169128,-0.08157475292682648
1789558197030329000,9.3563291015625,0.0021603561472147703,0.1382681280374527,-0.10958880931138992
1789558197040298000,9.366298095703126,-0.09650257229804993,0.08376360684633255,0.06658568233251572
1789558197050267000,9.376266845703125,-0.09291449189186096,0.09481332451105118,0.16301661729812622
1789558197060235000,9.386235107421875,0.07455173134803772,0.25142717361450195,-0.21050423383712769
1789558197070204000,9.396203857421876,0.1174485981464386,0.3731514811515808,-0.4996817111968994
1789558197080173000,9.406173095703124,0.43628570437431335,0.38143762946128845,-0.7726189494132996
1789558197090142000,9.416141845703125,0.5374464392662048,0.08428345620632172,-0.2323773205280304
1789558197100110000,9.426110107421875,-0.07404972612857819,-0.6064286828041077,0.9670329093933105
1789558197110079000,9.436078857421874,-1.1641944646835327,0.5446979403495789,0.4312203824520111
1789558197120048000,9.446048095703125,-0.18198232352733612,0.3777446448802948,0.017433851957321167
1789558197130016000,9.45601611328125,-1.6654325723648071,0.24846360087394714,-0.3639465272426605
1789558197139985200,9.465985107421876,-0.7433193922042847,0.07497624307870865,-0.36851996183395386
1789558197149954000,9.4759541015625,0.6068337559700012,-0.11918098479509354,-0.3198390007019043
1789558197159923200,9.485923095703125,-0.06216563656926155,-0.12297971546649933,0.2919865846633911
1789558197169891000,9.49589111328125,0.7504037022590637,-0.1557009071111679,0.1193317174911499
1789558197179860200,9.505860107421874,0.08524778485298157,0.3165627717971802,-0.16446563601493835
1789558197189829000,9.5158291015625,-0.40537014603614807,0.2741132974624634,0.09074828028678894
1789558197199797000,9.525796875,-0.407321959733963,0.22279419004917145,-0.004111121874302626
1789558197209766000,9.535765869140626,-0.42430466413497925,0.18308007717132568,-0.2874557375907898
1789558197219734800,9.54573486328125,-0.40601009130477905,-0.03676733374595642,-0.02002910152077675
1789558197229704200,9.5557041015625,-0.37970712780952454,0.00621022516861558,0.11684699356555939
1789558197239672000,9.565672119140626,-0.42794227600097656,0.05121871083974838,0.13714800775051117
1789558197249641000,9.575640869140624,-0.49622467160224915,0.08884571492671967,0.30014652013778687
1789558197259609900,9.58560986328125,-0.4869467616081238,0.08947023004293442,0.09817636758089066
1789558197269578000,9.595577880859375,-0.19075876474380493,-0.13207681477069855,-0.07116872072219849
1789558197279547000,9.605546875,0.1670832633972168,0.02046825736761093,-0.22263067960739136
1789558197289516000,9.61551611328125,0.006834736559540033,0.0814778134226799,-0.12019937485456467
1789558197299485000,9.62548486328125,0.03262105956673622,-0.08406001329421997,0.19583767652511597
1789558197309453000,9.635453125,-0.0065194182097911835,-0.011831891722977161,0.04439515992999077
1789558197319422000,9.645421875,-0.09888236969709396,0.01245054416358471,-0.12787087261676788
1789558197329391000,9.65539111328125,-0.20976893603801727,-0.018976621329784393,-0.012112589552998543
1789558197339359000,9.66535888671875,-0.0671185851097107,-0.1643945425748825,0.060559749603271484
1789558197349328100,9.675328125,-0.04236556589603424,-0.14591912925243378,0.0715748518705368
1789558197359297000,9.685297119140625,-0.09590096026659012,-0.032337166368961334,-0.026089390739798546
1789558197369266000,9.695265869140625,0.00700944010168314,-0.07656614482402802,-0.0714787095785141
1789558197379234000,9.705234130859376,0.04538425803184509,-0.10051462054252625,-0.08692025393247604
1789558197389203000,9.715202880859374,-0.11159683763980865,-0.04452139511704445,0.051656801253557205
1789558197399172000,9.725172119140625,-0.09839235246181488,-0.06959718465805054,0.05019286274909973
1789558197409140200,9.73514013671875,-0.01648177206516266,-0.05617938190698624,-0.1305505484342575
1789558197419109000,9.745109130859374,-0.115867480635643,-0.030368026345968246,-0.07508143782615662
1789558197429078000,9.755078125,-0.18317408859729767,-0.07670489698648453,0.1589699387550354
1789558197439047200,9.765047119140625,-0.07555920630693436,-0.08601051568984985,0.17685359716415405
1789558197449015000,9.77501513671875,-0.14835458993911743,-0.0756223201751709,0.05200381204485893
1789558197458984200,9.784984130859375,-0.1851634681224823,-0.030537668615579605,-0.09362742304801941
1789558197468953000,9.794953125,-0.10215699672698975,-0.15491580963134766,-0.09705038368701935
1789558197478921000,9.8049208984375,-0.16533009707927704,-0.16802389919757843,0.01721680350601673
1789558197488889900,9.814889892578124,-0.16815145313739777,-0.13312290608882904,-0.012018579989671707
1789558197498859000,9.82485888671875,-0.07038814574480057,-0.15893025696277618,-0.03063327632844448
1789558197508828000,9.834827880859375,-0.08836688101291656,-0.1304301768541336,-0.057324543595314026
1789558197518796000,9.844796142578126,-0.13895255327224731,-0.11736151576042175,-0.05109008029103279
1789558197528765000,9.854764892578125,0.0090568782761693,-0.1621960997581482,-0.09413262456655502
1789558197538734000,9.864734130859375,0.013028450310230255,-0.2580246329307556,0.005973204039037228
1789558197548703000,9.874702880859376,-0.04637495428323746,-0.13259932398796082,-0.0005989448982290924
1789558197558671000,9.884671142578124,-0.041012946516275406,-0.1212790235877037,-0.05161792039871216
1789558197568640000,9.894639892578125,-0.023003585636615753,-0.14091557264328003,0.029698774218559265
1789558197578609000,9.90460888671875,-0.06421813368797302,-0.16511571407318115,0.07509421557188034
1789558197588576800,9.91457666015625,-0.10192609578371048,-0.14219841361045837,0.011200456880033016
1789558197598545700,9.924545654296875,-0.07788627594709396,-0.1323561817407608,-0.08725687116384506
1789558197608514800,9.934514892578125,-0.10653789341449738,-0.17194965481758118,0.034270357340574265
1789558197618483700,9.944483642578126,-0.08415669202804565,-0.18266914784908295,0.051786765456199646
1789558197628451800,9.954451904296874,-0.12503407895565033,-0.17196376621723175,0.04711398109793663
1789558197638420700,9.964420654296875,-0.08655886352062225,-0.2037331461906433,0.0016466324450448155
1789558197648390000,9.974389892578126,-0.0626537948846817,-0.2513238489627838,0.02967453934252262
1789558197658357800,9.984357666015624,-0.011415107175707817,-0.21279428899288177,0.028484638780355453
1789558197668327000,9.994326904296875,0.00914502888917923,-0.20503996312618256,0.005023254547268152
1789558197678295800,10.0042958984375,0.08073186129331589,-0.2193603217601776,0.01064944826066494
1789558197688265000,10.014264892578124,0.12882909178733826,-0.22720599174499512,-0.06516408920288086
1789558197698232800,10.02423291015625,0.12226305902004242,-0.1933489590883255,-0.05292979255318642
1789558197708202000,10.034201904296875,0.17907202243804932,-0.227888286113739,-0.037814754992723465
1789558197718171000,10.0441708984375,0.1507868468761444,-0.2219369262456894,0.051230963319540024
1789558197728139800,10.054139892578124,0.22384613752365112,-0.2114480584859848,-0.015166436322033405
1789558197738108000,10.06410791015625,0.23957131803035736,-0.19864784181118011,-0.02659379318356514
1789558197748076800,10.074076904296875,0.22737057507038116,-0.2304353415966034,0.0997614786028862
1789558197758046000,10.0840458984375,0.30019310116767883,-0.2641701400279999,0.11655537784099579
1789558197768014800,10.094014892578125,0.3345758616924286,-0.2266102433204651,0.04548998549580574
1789558197777983000,10.10398291015625,0.32527637481689453,-0.16678765416145325,-0.01389637403190136
1789558197787951900,10.113951904296876,0.3682222366333008,-0.20971247553825378,0.016832510009407997
1789558197797921000,10.123921142578125,0.436311274766922,-0.21864818036556244,0.030106769874691963
1789558197807889000,10.133888916015625,0.4528769254684448,-0.1795218288898468,0.02503877319395542
1789558197817858000,10.143858154296876,0.44338488578796387,-0.18325982987880707,0.03617345169186592
1789558197827827000,10.153826904296874,0.4503096342086792,-0.1674092411994934,0.012031096033751965
1789558197837796000,10.163796142578125,0.42664292454719543,-0.15608440339565277,0.04387744143605232
1789558197847764000,10.173763916015625,0.3853223919868469,-0.12552303075790405,0.04120495915412903
1789558197857733000,10.183733154296876,0.4195895493030548,-0.11357823014259338,-0.021161211654543877
1789558197867702000,10.193701904296875,0.3797832727432251,-0.07285210490226746,-0.0019592875614762306
1789558197877671000,10.2036708984375,0.38557031750679016,-0.04405773803591728,-0.02051299810409546
1789558197887638800,10.213638671875,0.35935178399086,-0.022898657247424126,0.03864726051688194
1789558197897607700,10.223607666015624,0.4163985550403595,-0.045350704342126846,0.04379834607243538
1789558197907576800,10.233576904296875,0.4597145915031433,-0.03965286910533905,0.014671620912849903
1789558197917545000,10.243544921875,0.3529769778251648,0.050937481224536896,0.02677435614168644
1789558197927513900,10.253513916015624,0.28587275743484497,0.09359733015298843,-0.006981210317462683
1789558197937482800,10.263482666015625,0.21833260357379913,0.16047489643096924,0.018634138628840446
1789558197947452000,10.273451904296875,0.22442299127578735,0.10049545019865036,-0.00657587731257081
1789558197957419800,10.283419677734376,0.19650612771511078,0.09259731322526932,-0.0025214808993041515
1789558197967389000,10.293388916015624,0.08584539592266083,0.17904937267303467,-0.061294250190258026
1789558197977357800,10.30335791015625,0.13368774950504303,0.12568043172359467,-0.039331160485744476
1789558197987327000,10.313326904296876,0.018250375986099243,0.18824580311775208,-0.005228584166616201
1789558197997294800,10.323294921875,-0.11415666341781616,0.1779329776763916,0.027724038809537888
1789558198007264000,10.333263916015625,-0.07510833442211151,0.1328781545162201,-0.017560884356498718
1789558198017233000,10.34323291015625,-0.16078142821788788,0.17811860144138336,-0.13009648025035858
1789558198027201800,10.353201904296874,-0.21793818473815918,0.17706266045570374,-0.07145154476165771
1789558198037170000,10.363169921875,-0.29289737343788147,0.15096049010753632,-0.051900215446949005
1789558198047138800,10.373138916015625,-0.3292689621448517,0.1301337629556656,0.005410477984696627
1789558198057108000,10.38310791015625,-0.3011054992675781,0.14695802330970764,-0.01267025526612997
1789558198067075800,10.393075927734374,-0.2832103967666626,0.16597618162631989,-0.09821099042892456
1789558198077045000,10.403044921875,-0.2980460822582245,0.14220693707466125,-0.057192448526620865
1789558198087014000,10.413013916015625,-0.33261629939079285,0.09719499200582504,-0.0002665824140422046
1789558198096983000,10.422983154296874,-0.31884297728538513,0.07683832198381424,-0.012995959259569645
1789558198106951000,10.432950927734375,-0.3342629373073578,0.1294940710067749,-0.03879320248961449
1789558198116920000,10.442920166015625,-0.2879556119441986,0.0603988952934742,0.015805860981345177
1789558198126889000,10.452888916015626,-0.23713798820972443,0.06537128239870071,0.03182637318968773
1789558198136858000,10.462858154296875,-0.2304965853691101,0.07277220487594604,0.051975317299366
1789558198146825700,10.47282568359375,-0.2121197134256363,0.05368320271372795,0.0806620866060257
1789558198156795000,10.482794921875,-0.20942246913909912,0.04114557057619095,0.05778633430600166
1789558198166763800,10.492763671875,-0.21855443716049194,0.005631786771118641,0.05308132618665695
1789558198176732000,10.50273193359375,-0.20552518963813782,-0.05092789605259895,0.09986880421638489
1789558198186700800,10.51270068359375,-0.10353784263134003,-0.08741267025470734,0.02298840694129467
1789558198196669700,10.522669677734376,-0.16757701337337494,-0.01828313246369362,-0.06296378374099731
1789558198206638800,10.532638916015625,-0.14196299016475677,-0.040832649916410446,-0.034813106060028076
1789558198216607000,10.54260693359375,0.029255622997879982,-0.1275065541267395,0.012042813934385777
1789558198226576000,10.552575927734376,0.034025344997644424,-0.0977097824215889,0.0017659420846030116
1789558198236544800,10.562544677734374,0.02027065120637417,-0.04526654630899429,0.030047914013266563
1789558198246514000,10.572513916015625,0.0908002108335495,-0.089716836810112,0.03489646315574646
1789558198256481800,10.582481689453125,0.0717460885643959,-0.060741111636161804,0.05325496569275856
1789558198266451000,10.592450927734374,0.030903587117791176,-0.05200168117880821,0.03290708363056183
1789558198276419800,10.602419921875,0.15114212036132812,-0.11615723371505737,0.1063472107052803
1789558198286389000,10.612388916015625,0.23426122963428497,-0.06553985923528671,0.06595637649297714
1789558198296356900,10.62235693359375,0.22443310916423798,-0.056591641157865524,0.048046354204416275
1789558198306326000,10.632325927734374,0.1806057244539261,-0.046172287315130234,0.11951894313097
1789558198316295000,10.642294921875,0.23776090145111084,-0.09129981696605682,0.13086506724357605
1789558198326263000,10.652262939453125,0.1599246859550476,-0.06695479899644852,0.0303813423961401
1789558198336232000,10.66223193359375,0.15585963428020477,-0.08887235075235367,-0.010126137174665928
1789558198346200800,10.672200927734375,0.173417329788208,-0.1772722452878952,-0.0027177559677511454
1789558198356170000,10.682169921875,0.10216977447271347,-0.0957678034901619,0.031502000987529755
1789558198366137900,10.692137939453126,0.16948889195919037,-0.09166227281093597,0.01444179005920887
1789558198376107000,10.70210693359375,0.15786951780319214,-0.08943533897399902,0.025502430275082588
1789558198386076000,10.712075927734375,0.12955479323863983,-0.05191938951611519,0.11069855093955994
1789558198396045000,10.722045166015626,0.18800824880599976,-0.11184930056333542,0.07638558745384216
1789558198406013000,10.732012939453124,0.1541576087474823,-0.1175423413515091,0.012798885814845562
1789558198415982000,10.741982177734375,0.12577897310256958,-0.09816225618124008,0.011507784947752953
1789558198425951000,10.751950927734375,0.2264041155576706,-0.16944974660873413,0.07288166135549545
1789558198435920100,10.761920166015624,0.1660560816526413,-0.06768716871738434,0.0784950777888298
1789558198445887700,10.7718876953125,0.2693651616573334,-0.06373583525419235,-0.020422983914613724
1789558198455857000,10.78185693359375,0.2884312570095062,-0.06576090306043625,0.013315006159245968
1789558198465825800,10.79182568359375,0.3272838592529297,-0.06243940815329552,0.05734744668006897
1789558198475794000,10.8017939453125,0.333577960729599,-0.029415680095553398,0.0311049222946167
1789558198485762800,10.8117626953125,0.28151610493659973,-0.017307350412011147,-0.032587505877017975
1789558198495731700,10.821731689453125,0.24090927839279175,-0.06668023020029068,0.0025539714843034744
1789558198505700900,10.831700927734374,0.2207118719816208,-0.06600937992334366,0.00896952673792839
1789558198515669000,10.8416689453125,0.31280583143234253,-0.07404546439647675,-0.009280583821237087
1789558198525637600,10.8516376953125,0.26649266481399536,-0.010313623584806919,0.02201901562511921
1789558198535606500,10.8616064453125,0.30206212401390076,0.04808390513062477,-0.0452316589653492
1789558198545575700,10.87157568359375,0.3229929804801941,0.03009425289928913,-0.04840348660945892
1789558198555543600,10.88154345703125,0.23627911508083344,0.06377685070037842,0.004459995776414871
1789558198565512700,10.8915126953125,0.17997190356254578,0.07626654207706451,0.06776093691587448
1789558198575481600,10.901481689453124,0.16300010681152344,0.06100130081176758,0.09248039871454239
1789558198585449700,10.91144970703125,0.05071217939257622,0.13580337166786194,0.10043100267648697
1789558198595418600,10.921418701171875,0.08641238510608673,0.1387200653553009,0.005154548212885857
1789558198605387800,10.9313876953125,0.0705932080745697,0.11859908699989319,-0.013084908947348595
1789558198615356700,10.941356689453125,-0.08348210901021957,0.15591636300086975,-0.033187247812747955
1789558198625324800,10.95132470703125,-0.16154815256595612,0.09898756444454193,0.09773854166269302
1789558198635293700,10.961293701171876,-0.1990068405866623,0.051842425018548965,0.12316667288541794
1789558198645262600,10.9712626953125,-0.2458888590335846,0.12053680419921875,-0.018635470420122147
1789558198655231700,10.981231689453125,-0.29864129424095154,0.02973179705440998,0.09525834023952484
1789558198665199900,10.991199951171875,-0.3667686879634857,0.09228731691837311,0.09700510650873184
1789558198675168800,11.001168701171874,-0.2906550168991089,0.14320163428783417,-0.05589761957526207
1789558198685137700,11.0111376953125,-0.29173704981803894,0.10823379456996918,-0.09639844298362732
1789558198695106800,11.02110693359375,-0.31240370869636536,0.06733376532793045,-0.09814999997615814
1789558198705074700,11.03107470703125,-0.35530537366867065,0.011451059952378273,0.08555831015110016
1789558198715043800,11.0410439453125,-0.4147402048110962,0.0881466343998909,0.03334756940603256
1789558198725012700,11.0510126953125,-0.3320953845977783,0.17765282094478607,-0.1112532839179039
1789558198734980600,11.060980712890625,-0.2266097068786621,0.10409896820783615,-0.15961548686027527
1789558198744949500,11.070949462890624,-0.1164613664150238,-0.009209210984408855,-0.024530643597245216
1789558198754918700,11.080918701171875,-0.09238611906766891,-0.02485181950032711,0.07707986980676651
1789558198764887600,11.090887451171875,-0.061774950474500656,0.005511411931365728,0.08514206111431122
1789558198774855700,11.100855712890626,-0.08256678283214569,0.09866958856582642,-0.02056785859167576
1789558198784824600,11.110824462890625,0.023662718012928963,0.09526393562555313,-0.09386257827281952
1789558198794793700,11.120793701171875,0.04717603325843811,0.06857772916555405,-0.04121854156255722
1789558198804762600,11.1307626953125,0.0768982395529747,0.015617841854691505,0.05992458760738373
1789558198814730800,11.140730712890624,0.10455010831356049,0.010451842099428177,0.02068956568837166
1789558198824699600,11.15069970703125,0.05816902965307236,0.013145096600055695,-0.055207595229148865
1789558198834668500,11.16066845703125,0.09172326326370239,0.005194495897740126,-0.05392634868621826
1789558198844636700,11.17063671875,0.03363572433590889,0.02768542431294918,-0.05777940899133682
1789558198854605600,11.18060546875,0.04320206493139267,0.026285400614142418,-0.0940798968076706
1789558198864574700,11.19057470703125,0.08049511164426804,-0.03284742683172226,-0.0937507301568985
1789558198874543600,11.200543701171876,0.18272534012794495,-0.06285938620567322,-0.029091039672493935
1789558198884511700,11.21051171875,0.14336062967777252,-0.0344887338578701,0.08133453875780106
1789558198894480600,11.220480712890625,0.04406199976801872,0.014089453965425491,0.09194324165582657
1789558198904449800,11.23044970703125,-0.042812444269657135,0.09377522766590118,0.0611344613134861
1789558198914418700,11.240418701171874,0.0522829107940197,0.02280118688941002,0.0020905814599245787
1789558198924386800,11.25038671875,0.13738130033016205,-0.03019918128848076,-0.02888970449566841
1789558198934355700,11.260355712890625,0.06952368468046188,0.005163869354873896,-0.07689211517572403
1789558198944324600,11.27032470703125,0.09208651632070541,-0.04683195427060127,0.028176244348287582
1789558198954292700,11.280292724609374,0.19880177080631256,-0.058936554938554764,0.09478802978992462
1789558198964262000,11.290261962890625,0.22587867081165314,0.036970801651477814,-0.003922836389392614
1789558198974230800,11.300230712890626,0.191128671169281,0.01871296763420105,0.12055517733097076
1789558198984199700,11.31019970703125,0.26914599537849426,0.007811584044247866,0.06507700681686401
1789558198994167800,11.320167724609375,0.2916118800640106,0.04769748076796532,-0.0029672940727323294
1789558199004136700,11.33013671875,0.17671965062618256,0.12374724447727203,-0.027408188208937645
1789558199014105900,11.34010595703125,0.15185557305812836,0.03146178647875786,0.04421832785010338
1789558199024074800,11.35007470703125,0.11549756675958633,0.03647705167531967,0.09582240134477615
1789558199034042600,11.360042724609375,0.16215801239013672,0.08024423569440842,0.04525456205010414
1789558199044011500,11.370011474609376,0.15905223786830902,0.10276898741722107,-0.005059206858277321
1789558199053980700,11.379980712890625,0.08350154757499695,0.12002307921648026,0.051899682730436325
1789558199063948500,11.389948486328125,0.17045322060585022,0.037764422595500946,0.0937211662530899
1789558199073917700,11.399917724609375,0.08742625266313553,0.0683865174651146,0.11324959248304367
1789558199083886600,11.409886474609374,-0.009080314077436924,0.136604443192482,0.13995817303657532
1789558199093855700,11.419855712890625,0.08462966978549957,0.11070840805768967,0.1198318600654602
1789558199103823600,11.42982373046875,0.10021235048770905,0.129539355635643,0.056048087775707245
1789558199113792800,11.439792724609376,-0.003326554549857974,0.15370780229568481,0.05041470378637314
1789558199123761700,11.44976171875,0.017343569546937943,0.08269993960857391,0.07173916697502136
1789558199133730600,11.45973046875,0.04434962198138237,0.06380987167358398,-0.01637045107781887
1789558199143698700,11.46969873046875,-0.03117842599749565,0.1297963410615921,-0.05529255047440529
1789558199153667600,11.47966748046875,-0.08069324493408203,0.09877903759479523,-0.07145793735980988
1789558199163636700,11.48963671875,-0.10700075328350067,0.09577260166406631,-0.10535837709903717
1789558199173604600,11.4996044921875,-0.2175525575876236,0.1133505254983902,-0.12443327158689499
1789558199183573800,11.50957373046875,-0.2736523151397705,0.1285816729068756,-0.06034376844763756
1789558199193542700,11.519542724609375,-0.17252810299396515,0.04645325243473053,-0.04441487044095993
1789558199203511800,11.52951171875,-0.2114909440279007,0.09082470834255219,-0.008386027999222279
1789558199213479700,11.539479736328126,-0.2587982714176178,0.09691616147756577,-0.007497597485780716
1789558199223448800,11.54944873046875,-0.18941013514995575,0.07912278175354004,-0.06716784834861755
1789558199233417700,11.559417724609375,-0.1754802167415619,0.14298991858959198,-0.10939386487007141
1789558199243386600,11.56938671875,-0.16087757050991058,0.04798110947012901,-0.08574526757001877
1789558199253354800,11.579354736328124,-0.20560722053050995,0.108003169298172,-0.05937837064266205
1789558199263324000,11.589323974609375,-0.19799964129924774,0.04216023534536362,-0.07572218775749207
1789558199273292800,11.599292724609375,-0.24721725285053253,0.03275554999709129,-0.013607953675091267
1789558199283260700,11.6092607421875,-0.33529970049858093,0.04308302327990532,0.01278423797339201
1789558199293229600,11.6192294921875,-0.3302125334739685,0.022824622690677643,0.10046295821666718
1789558199303198500,11.629198486328125,-0.24410134553909302,0.03864007070660591,-0.028329376131296158
1789558199313167600,11.639167724609376,-0.1720830798149109,0.04235677793622017,-0.1029447540640831
1789558199323135500,11.649135498046874,-0.13361291587352753,0.02701963298022747,-0.10693656653165817
1789558199333104600,11.659104736328125,-0.0647672787308693,-0.03852289170026779,-0.024531975388526917
1789558199343073500,11.669073486328125,-0.13749288022518158,-0.03746961057186127,0.044070255011320114
1789558199353041700,11.679041748046876,-0.20728634297847748,-0.009735983796417713,0.03309403732419014
1789558199363010600,11.689010498046875,-0.196882963180542,-0.05339052155613899,0.0459216870367527
1789558199372979700,11.698979736328125,-0.10117881745100021,-0.13869982957839966,0.07823061943054199
1789558199382948600,11.708948486328126,-0.09440053999423981,-0.1309737265110016,0.11948192119598389
1789558199392916700,11.718916748046874,-0.0399617962539196,-0.15371260046958923,0.13136520981788635
1789558199402885600,11.7288857421875,-0.03275182098150253,-0.10120358318090439,0.08601158112287521
1789558199412854800,11.738854736328125,0.030732879415154457,-0.10482468456029892,0.0739184319972992
1789558199422823700,11.74882373046875,0.08510424196720123,-0.14457449316978455,0.10663483291864395
1789558199432791800,11.758791748046875,0.11556228250265121,-0.1415800303220749,0.039741020649671555
1789558199442760700,11.7687607421875,0.09100660681724548,-0.11990056931972504,0.0023310647811740637
1789558199452729600,11.7787294921875,0.13652215898036957,-0.1622573435306549,0.03458966687321663
1789558199462697700,11.78869775390625,0.13753336668014526,-0.15511316061019897,0.05747740715742111
1789558199472666600,11.79866650390625,0.11510048806667328,-0.14823873341083527,0.05379984900355339
1789558199482635800,11.8086357421875,0.17473186552524567,-0.12464925646781921,0.017005614936351776
1789558199492604700,11.818604736328124,0.18490859866142273,-0.07413548231124878,-0.012009791098535061
1789558199502572800,11.82857275390625,0.19199766218662262,-0.02966894581913948,-0.0009661948424763978
1789558199512541700,11.838541748046875,0.2194945365190506,-0.06750687211751938,0.0889783427119255
1789558199522510800,11.8485107421875,0.17535556852817535,-0.014949388802051544,0.11403442919254303
1789558199532480500,11.85848046875,0.1829136312007904,0.026627348735928535,0.10089652240276337
1789558199542448400,11.868448486328125,0.2063763439655304,0.009680590592324734,0.15893612802028656
1789558199552417500,11.87841748046875,0.19676871597766876,0.018126007169485092,0.10759303718805313
1789558199562386400,11.888386474609375,0.22764061391353607,0.016774186864495277,0.007582818623632193
1789558199572354300,11.898354248046875,0.08019443601369858,0.0669713094830513,0.021921010687947273
1789558199582323200,11.9083232421875,0.10716879367828369,0.022955648601055145,-0.001116130850277841
1789558199592292400,11.918292236328124,-0.03846297040581703,0.05657539516687393,0.07624710351228714
1789558199602261200,11.92826123046875,0.008718656376004219,0.005221127066761255,0.058509647846221924
1789558199612229400,11.9382294921875,-0.016404805704951286,-0.02983752451837063,0.12809085845947266
1789558199622198300,11.9481982421875,-0.017061274498701096,0.002776345470920205,0.012403938919305801
1789558199632167400,11.95816748046875,-0.08557695150375366,0.05361795425415039,-0.003166232258081436
1789558199642136300,11.96813623046875,-0.07047123461961746,0.02780233696103096,-0.02347549796104431
1789558199652104400,11.9781044921875,-0.09020419418811798,0.04241137206554413,-0.05810484662652016
1789558199662073300,11.9880732421875,-0.16469387710094452,0.04331444948911667,-0.028243888169527054
1789558199672042500,11.99804248046875,-0.10865164548158646,-0.021882129833102226,0.07152531296014786
1789558199682010400,12.00801025390625,-0.021377727389335632,0.07704125344753265,-0.13574504852294922
1789558199691979500,12.0179794921875,-0.02760978974401951,0.09805146604776382,-0.19217263162136078
1789558199701948400,12.027948486328125,-0.10006188601255417,0.04499410465359688,-0.016056464985013008
1789558199711917300,12.037917236328125,0.01883440837264061,0.009440906345844269,-0.045874547213315964
1789558199721885400,12.047885498046876,-0.01877155713737011,0.06809436529874802,-0.18713261187076569
1789558199731854300,12.057854248046874,-0.14040638506412506,0.0567287914454937,0.01613529399037361
1789558199741823500,12.067823486328125,0.06209772452712059,-0.02611096203327179,0.030736340209841728
1789558199751791400,12.077791259765625,0.065489262342453,0.13736025989055634,-0.09559895843267441
1789558199761760500,12.087760498046874,0.0026378610637038946,0.11607281118631363,-0.06851541250944138
