time,seconds_elapsed,z,y,x
1789548997033725700,0.0557255859375,-0.10851556062698364,-0.07382522523403168,-0.060087304562330246
1789548997043693800,0.06569384765625,-0.0704754963517189,-0.0895964652299881,-0.08267703652381897
1789548997053662700,0.075662841796875,-0.028294488787651062,-0.07283239811658859,-0.09746796637773514
1789548997063630600,0.085630615234375,-0.03714630380272865,-0.052190765738487244,-0.07604549825191498
1789548997073598700,0.0955986328125,0.05127570405602455,-0.06566103547811508,-0.11961481720209122
1789548997083567600,0.105567626953125,0.12626045942306519,-0.10098813474178314,-0.07155194878578186
1789548997093535700,0.11553564453125,0.03753965348005295,-0.0693492442369461,-0.03755003958940506
1789548997103503600,0.125503662109375,-0.004462658893316984,-0.05362514406442642,-0.03876524046063423
1789548997113472800,0.13547265625,0.08974985778331757,-0.08564858883619308,-0.06944352388381958
1789548997123440600,0.145440673828125,0.014023940078914165,-0.0724736675620079,0.04120389372110367
1789548997133408800,0.15540869140625,-0.04914810508489609,-0.04153013229370117,0.02899862825870514
1789548997143377700,0.165377685546875,-0.013440974056720734,-0.05849739909172058,-0.08274175226688385
1789548997153345500,0.175345458984375,-0.07605881243944168,-0.07634057849645615,-0.021045630797743797
1789548997163313700,0.185313720703125,-0.14511431753635406,-0.08227410167455673,0.10655440390110016
1789548997173281800,0.19528173828125,-0.022462697699666023,-0.07109228521585464,-0.031800005584955215
1789548997183250700,0.205250732421875,-0.05615781247615814,-0.05432955175638199,-0.0774814784526825
1789548997193218800,0.21521875,-0.19611971080303192,-0.08174040168523788,0.021374797448515892
1789548997203186700,0.225186767578125,-0.1567094475030899,-0.13224191963672638,0.12354457378387451
1789548997213155800,0.23515576171875,-0.021311413496732712,-0.11941081285476685,0.008808405138552189
1789548997223123700,0.245123779296875,-0.14729224145412445,-0.04168432950973511,-0.0229327455163002
1789548997233091600,0.255091552734375,-0.2696266770362854,-0.054662447422742844,-0.023144200444221497
1789548997243060500,0.265060546875,-0.15683647990226746,-0.13700684905052185,0.00814980547875166
1789548997253028600,0.275028564453125,-0.13076786696910858,-0.13082751631736755,0.03038427047431469
1789548997262996700,0.284996826171875,-0.17252330482006073,-0.08050975948572159,0.01474405825138092
1789548997272964600,0.294964599609375,-0.11491832882165909,-0.12068060785531998,0.011563711799681187
1789548997282933800,0.304933837890625,-0.0982285663485527,-0.1362031102180481,-0.11544270813465118
1789548997292901600,0.314901611328125,-0.18535920977592468,-0.09057836979627609,-0.005399026442319155
1789548997302869800,0.324869873046875,-0.11668746918439865,-0.1051517203450203,0.0356738418340683
1789548997312839000,0.3348388671875,-0.06603015214204788,-0.1561989188194275,0.020016318187117577
1789548997322806500,0.344806640625,-0.11502592265605927,-0.16151805222034454,0.020785439759492874
1789548997332774700,0.354774658203125,-0.18456771969795227,-0.1611342877149582,0.07897470891475677
1789548997342743600,0.36474365234375,-0.06975244730710983,-0.14587251842021942,-0.040412936359643936
1789548997352711700,0.374711669921875,-0.06475156545639038,-0.12256480008363724,0.043173301964998245
1789548997362679800,0.3846796875,-0.17083832621574402,-0.13704094290733337,0.1730215847492218
1789548997372648700,0.394648681640625,-0.03894713148474693,-0.19434231519699097,0.03394198790192604
1789548997382616800,0.404616943359375,0.07029999792575836,-0.18150880932807922,-0.17860755324363708
1789548997392584400,0.41458447265625,-0.08198541402816772,-0.11710532009601593,-0.06615238636732101
1789548997402552600,0.424552490234375,-0.023923441767692566,-0.16237612068653107,0.07049813121557236
1789548997412521700,0.434521728515625,0.23366868495941162,-0.20438829064369202,0.00344586418941617
1789548997422489600,0.444489501953125,0.2932462692260742,-0.14993436634540558,-0.20673586428165436
1789548997432457700,0.454457763671875,0.2097199410200119,-0.15581676363945007,-0.0665888786315918
1789548997442426600,0.464426513671875,0.2686908543109894,-0.20728901028633118,-0.0020213392563164234
1789548997452394800,0.474394775390625,0.38485845923423767,-0.22167779505252838,-0.010792993009090424
1789548997462363000,0.48436279296875,0.36269137263298035,-0.16883376240730286,-0.014133395627140999
1789548997472331800,0.494331787109375,0.4316456913948059,-0.18437543511390686,-0.0894036516547203
1789548997482299600,0.504299560546875,0.4564567506313324,-0.18889828026294708,-0.0758923664689064
1789548997492267500,0.514267578125,0.37911057472229004,-0.1736021488904953,0.018758507445454597
1789548997502236700,0.524236572265625,0.4654787480831146,-0.144522562623024,0.004441353492438793
1789548997512204500,0.53420458984375,0.5923943519592285,-0.14231079816818237,-0.12770123779773712
1789548997522172700,0.544172607421875,0.5830258727073669,-0.11034594476222992,-0.11940549314022064
1789548997532141800,0.554141845703125,0.5260382294654846,-0.12027394771575928,-0.08398810774087906
1789548997542109700,0.564109619140625,0.5968170762062073,-0.16127997636795044,0.023062707856297493
1789548997552077800,0.574077880859375,0.6915352940559387,-0.1498454213142395,-0.027646807953715324
1789548997562046700,0.584046630859375,0.6877136826515198,-0.0815286785364151,-0.08337877690792084
1789548997572014800,0.594014892578125,0.6436045169830322,-0.09020046889781952,-0.09270303696393967
1789548997581983000,0.60398291015625,0.6293544769287109,-0.09149795770645142,-0.06733349710702896
1789548997591952000,0.613951904296875,0.6217567920684814,-0.08987955749034882,-0.08635725826025009
1789548997601920000,0.623919921875,0.6109541654586792,-0.08496655523777008,-0.04012904316186905
1789548997611887600,0.6338876953125,0.6074646711349487,-0.0774921253323555,-0.0599253848195076
1789548997621856800,0.643856689453125,0.6362648606300354,-0.0736960619688034,-0.03335875645279884
1789548997631824600,0.65382470703125,0.6457251906394958,-0.06788264214992523,-0.012120578438043594
1789548997641792800,0.663792724609375,0.649749755859375,-0.06625199317932129,0.005387308541685343
1789548997651761000,0.673760986328125,0.6240228414535522,-0.045107290148735046,0.0006676545017398894
1789548997661729800,0.683729736328125,0.6230180263519287,-0.04712330177426338,0.027451330795884132
1789548997671698000,0.693697998046875,0.5822245478630066,-0.017485249787569046,0.0019656792283058167
1789548997681665800,0.703665771484375,0.5871180891990662,-0.011599131859838963,-0.011974104680120945
1789548997691635000,0.713635009765625,0.5790886878967285,-0.02381851337850094,0.04538479074835777
1789548997701602800,0.723602783203125,0.6266069412231445,0.02215190790593624,-0.08694981038570404
1789548997711570700,0.73357080078125,0.6033356785774231,0.023991085588932037,-0.13303475081920624
1789548997721539800,0.743539794921875,0.5471906661987305,0.018452510237693787,-0.005967078730463982
1789548997731507700,0.7535078125,0.6198188066482544,0.004820588044822216,0.03191345930099487
1789548997741475800,0.763475830078125,0.7488563656806946,0.010267284698784351,0.04965117573738098
1789548997751444700,0.77344482421875,0.7394794225692749,0.09184177219867706,-0.040412403643131256
1789548997761412900,0.783412841796875,0.6622464060783386,0.09524289518594742,-0.0772247463464737
1789548997771381000,0.793381103515625,0.6837607622146606,0.051485028117895126,-0.014302772469818592
1789548997781350000,0.803349853515625,0.7104549407958984,0.01164413895457983,0.055776447057724
1789548997791317800,0.81331787109375,0.7447106242179871,0.0518120639026165,0.07254237681627274
1789548997801285600,0.82328564453125,0.6931273341178894,0.09751084446907043,-0.02847079001367092
1789548997811254800,0.8332548828125,0.6143358945846558,0.08753623813390732,-0.061650313436985016
1789548997821222700,0.84322265625,0.5606289505958557,0.0669071301817894,0.02003229781985283
1789548997831190800,0.853190673828125,0.5764864683151245,0.06789915263652802,0.04211576282978058
1789548997841160000,0.863159912109375,0.594153642654419,0.06925284117460251,0.04195437580347061
1789548997851127800,0.8731279296875,0.5643835067749023,0.09012802690267563,0.028138427063822746
1789548997861096000,0.883095947265625,0.5391777157783508,0.09620456397533417,-0.014699051156640053
1789548997871064800,0.89306494140625,0.5357055068016052,0.0939699038863182,-0.021377461031079292
1789548997881032700,0.90303271484375,0.4871864318847656,0.1021018698811531,0.0569133497774601
1789548997891000800,0.913000732421875,0.43882980942726135,0.09434594213962555,0.07971666753292084
1789548997900969700,0.9229697265625,0.4210047423839569,0.1075672060251236,0.09814281016588211
1789548997910937900,0.932937744140625,0.32569393515586853,0.1396804004907608,0.03803526610136032
1789548997920905700,0.94290576171875,0.22853784263134003,0.18304625153541565,-0.03519074246287346
1789548997930875000,0.952875,0.10848839581012726,0.14691834151744843,0.04050881043076515
1789548997940842800,0.9628427734375,0.07507237792015076,0.1154584214091301,0.12319010496139526
1789548997950811000,0.972810791015625,0.091043621301651,0.12416242808103561,0.08435935527086258
1789548997960780000,0.982780029296875,0.054488543421030045,0.16149328649044037,0.07109654694795609
1789548997970747600,0.99274755859375,0.002204830991104245,0.18544548749923706,0.022550849243998528
1789548997980715800,1.0027158203125,0.008076834492385387,0.1730620563030243,0.055632367730140686
1789548997990684700,1.0126845703125,-0.0369657427072525,0.18569210171699524,0.07788734138011932
1789548998000652800,1.02265283203125,-0.052132975310087204,0.15952947735786438,0.09683706611394882
1789548998010621000,1.032620849609375,-0.06600245088338852,0.1599646359682083,0.11099336296319962
1789548998020589800,1.04258984375,-0.08123946189880371,0.17282743752002716,0.024083498865365982
1789548998030558000,1.052557861328125,-0.16107730567455292,0.2008955478668213,-0.00649598240852356
1789548998040525800,1.06252587890625,-0.21126537024974823,0.1709834635257721,0.043659064918756485
1789548998050495000,1.072494873046875,-0.21583428978919983,0.1525043249130249,0.04705033451318741
1789548998060462600,1.082462646484375,-0.23344364762306213,0.11320378631353378,0.008351939730346203
1789548998070430700,1.0924306640625,-0.27792030572891235,0.08192309737205505,0.04796033352613449
1789548998080400000,1.10239990234375,-0.2651589512825012,0.06987335532903671,0.04682636260986328
1789548998090367700,1.11236767578125,-0.20166361331939697,0.09708020836114883,-0.03580806404352188
1789548998100335900,1.1223359375,-0.22597694396972656,0.08624966442584991,-0.03699343651533127
1789548998110304800,1.1323046875,-0.25739237666130066,0.05624702572822571,0.05434819310903549
1789548998120273000,1.14227294921875,-0.15963999927043915,0.04426812753081322,-0.000041545314161339775
1789548998130241000,1.152240966796875,-0.137238547205925,0.07263931632041931,-0.03183462843298912
1789548998140210000,1.1622099609375,-0.2316388189792633,0.08156383782625198,0.08332125842571259
1789548998150177800,1.172177734375,-0.1819026917219162,0.06637343019247055,0.02490748092532158
1789548998160146700,1.182146728515625,-0.10655414313077927,0.04950337111949921,-0.04110376164317131
1789548998170114800,1.19211474609375,-0.1693062037229538,0.0840914398431778,-0.0517398938536644
1789548998180082700,1.202082763671875,-0.18931452929973602,0.03991252928972244,0.03783499822020531
1789548998190051800,1.2120517578125,-0.04572434350848198,0.017302824184298515,0.037582527846097946
1789548998200019700,1.222019775390625,0.029268672689795494,0.03187697380781174,-0.021495439112186432
1789548998209987800,1.23198779296875,-0.00006498113361885771,0.035535622388124466,-0.00012090751260984689
1789548998219957000,1.24195703125,-0.020117785781621933,0.03250974044203758,0.0008886968716979027
1789548998229924900,1.2519248046875,0.037688255310058594,0.011022291146218777,0.00484429020434618
1789548998239892700,1.261892822265625,0.04954198747873306,-0.027114974334836006,0.04351818189024925
1789548998249861600,1.271861572265625,0.026224946603178978,-0.01696140691637993,0.04681544378399849
1789548998259829800,1.281829833984375,0.010477674193680286,0.005762814078480005,0.014195714145898819
1789548998269798000,1.2917978515625,0.05720549821853638,0.015390674583613873,0.0014588796766474843
1789548998279766800,1.301766845703125,0.12199248373508453,-0.007813714444637299,-0.012636166997253895
1789548998289735000,1.31173486328125,0.1646864116191864,-0.00202267081476748,0.0290036890655756
1789548998299702800,1.321702880859375,0.19031427800655365,-0.011579690501093864,0.05576339736580849
1789548998309672000,1.331671875,0.23409612476825714,-0.011521367356181145,0.04375467076897621
1789548998319639800,1.341639892578125,0.2515145242214203,-0.010264089331030846,0.004206462763249874
1789548998329607700,1.351607666015625,0.260954350233078,0.0012082761386409402,-0.027349332347512245
1789548998339576800,1.361576904296875,0.27518975734710693,0.008855010382831097,-0.0035175031516700983
1789548998349544700,1.371544677734375,0.25053927302360535,0.016384566202759743,0.02617967315018177
1789548998359513900,1.381513916015625,0.3015039265155792,0.005304217804223299,-0.02594291791319847
1789548998369481700,1.391481689453125,0.3265672028064728,0.020956413820385933,-0.005578257143497467
1789548998379449900,1.401449951171875,0.3039851784706116,0.013995444402098656,0.010965831577777863
1789548998389418800,1.411418701171875,0.3032328486442566,0.06474517285823822,-0.049322277307510376
1789548998399387000,1.421386962890625,0.34665995836257935,0.03795723617076874,-0.06909491866827011
1789548998409354800,1.431354736328125,0.29818135499954224,0.007678425870835781,0.04069390147924423
1789548998419324000,1.441323974609375,0.3232869803905487,-0.016272179782390594,0.07271920889616013
1789548998429291800,1.451291748046875,0.3326570391654968,0.029531793668866158,0.03581685200333595
1789548998439259600,1.461259765625,0.29178738594055176,0.04549531266093254,0.016646355390548706
1789548998449228800,1.471228759765625,0.2410443127155304,0.0492306612432003,0.06240745261311531
1789548998459197000,1.481197021484375,0.2762225270271301,0.059113387018442154,0.01014078501611948
1789548998469164800,1.491164794921875,0.31007105112075806,0.06250891834497452,-0.03253397345542908
1789548998479134000,1.501134033203125,0.24278227984905243,0.11705870926380157,0.015211443416774273
1789548998489101800,1.511101806640625,0.24972407519817352,0.054129812866449356,0.051596879959106445
1789548998499071000,1.521071044921875,0.2770387828350067,0.05874214321374893,0.0028485171496868134
1789548998509038600,1.53103857421875,0.16227012872695923,0.08690134435892105,-0.005541505757719278
1789548998519006700,1.5410068359375,0.11803316324949265,0.09441331773996353,0.009194829501211643
1789548998528975400,1.550975341796875,0.1169404685497284,0.046296127140522,0.015233813785016537
1789548998538943500,1.560943603515625,0.1210758239030838,0.07129095494747162,0.000910268456209451
1789548998548911600,1.57091162109375,0.07714245468378067,0.09712814539670944,-0.006956709548830986
1789548998558880500,1.580880615234375,0.09586554020643234,0.10102621465921402,0.025779133662581444
1789548998568848600,1.5908486328125,0.09225402772426605,0.09035306423902512,0.022956447675824165
1789548998578816800,1.600816650390625,0.01558401994407177,0.11607147753238678,-0.002523345174267888
1789548998588785700,1.61078564453125,-0.0752745121717453,0.09132938086986542,0.024864070117473602
1789548998598753500,1.62075341796875,-0.11807923763990402,0.08306585997343063,0.035586223006248474
1789548998608722400,1.630722412109375,-0.13325153291225433,0.09111978858709335,-0.02292688749730587
1789548998618690600,1.640690673828125,-0.1072058156132698,0.1023990735411644,-0.06077147275209427
1789548998628658400,1.650658447265625,-0.10303184390068054,0.10492934286594391,-0.044854022562503815
1789548998638627600,1.660627685546875,-0.0654091015458107,0.096123605966568,-0.021223530173301697
1789548998648595500,1.670595458984375,-0.04500928521156311,0.06571083515882492,0.028418058529496193
1789548998658563600,1.6805634765625,-0.04037272185087204,0.0685042291879654,0.032223716378211975
1789548998668532700,1.69053271484375,0.0158908162266016,0.0365430973470211,0.02785693109035492
1789548998678500600,1.70050048828125,0.051594220101833344,0.0629347562789917,0.027534421533346176
1789548998688469800,1.7104697265625,-0.02575942501425743,0.13347257673740387,-0.03603177145123482
1789548998698437400,1.720437255859375,0.007418235298246145,0.10367339849472046,-0.01901763305068016
1789548998708405500,1.730405517578125,0.027967453002929688,0.03964381664991379,-0.001184041379019618
1789548998718374400,1.74037451171875,0.061174940317869186,0.014882276766002178,0.048981923609972
1789548998728342500,1.750342529296875,0.09427936375141144,0.04008163884282112,0.034030672162771225
1789548998738310700,1.760310546875,0.12906211614608765,0.057247843593358994,0.020005399361252785
1789548998748279600,1.770279541015625,0.20528417825698853,0.07096099108457565,-0.013246030546724796
1789548998758247700,1.78024755859375,0.21022647619247437,0.08236571401357651,-0.017233582213521004
1789548998768215600,1.790215576171875,0.18091093003749847,0.060275059193372726,0.043353065848350525
1789548998778184700,1.800184814453125,0.2563124895095825,0.04370460286736488,0.052617672830820084
1789548998788152600,1.810152587890625,0.24659672379493713,0.06534411758184433,0.0029518476221710443
1789548998798121500,1.82012158203125,0.19996212422847748,0.08340301364660263,0.018136126920580864
1789548998808089600,1.830089599609375,0.1755257546901703,0.07817123085260391,-0.002079662401229143
1789548998818057500,1.840057373046875,0.20937319099903107,0.055993493646383286,-0.05413780361413956
1789548998828026600,1.850026611328125,0.18434587121009827,0.07678612321615219,-0.07495120912790298
1789548998837994500,1.859994384765625,0.10642071813344955,0.05704917013645172,0.033908430486917496
1789548998847963600,1.869963623046875,0.12972843647003174,0.03483494743704796,0.0502338744699955
1789548998857931500,1.879931640625,0.1953122317790985,0.05480385944247246,-0.021562017500400543
1789548998867899600,1.889899658203125,0.1306418925523758,0.07576879858970642,-0.005096491426229477
1789548998877868500,1.89986865234375,0.09842564165592194,0.08055369555950165,0.014978683553636074
1789548998887836400,1.90983642578125,0.17492839694023132,0.05987318605184555,0.01937742717564106
1789548998897804500,1.919804443359375,0.18730437755584717,0.08902548253536224,-0.04211096838116646
1789548998907773400,1.9297734375,0.0909498780965805,0.12519386410713196,-0.05537537485361099
1789548998917741600,1.939741455078125,0.05492370203137398,0.08555937558412552,-0.05000298097729683
1789548998927710500,1.94971044921875,0.028023645281791687,0.03592471033334732,-0.013951768167316914
1789548998937678600,1.9596787109375,-0.00768854608759284,0.04264146834611893,0.016142750158905983
1789548998947646700,1.969646728515625,-0.025783926248550415,0.07033461332321167,0.012006329372525215
1789548998957615600,1.97961572265625,0.011510714888572693,0.0775323435664177,-0.038062430918216705
1789548998967583700,1.989583740234375,0.012176505289971828,0.07787935435771942,-0.061892129480838776
1789548998977551400,1.99955126953125,-0.025721607729792595,0.07033061981201172,-0.05186159908771515
1789548998987520500,2.0095205078125,-0.07523670047521591,0.027214311063289642,0.01212856825441122
1789548998997488400,2.01948828125,-0.09589537233114243,0.01558242179453373,0.03527010604739189
1789548999007457500,2.02945751953125,-0.13726277649402618,0.04953106865286827,0.007981760427355766
1789548999017425700,2.03942578125,-0.1268375664949417,0.06732204556465149,-0.020292755216360092
1789548999027393500,2.0493935546875,-0.12589427828788757,0.12915825843811035,-0.07157831639051437
1789548999037362700,2.05936279296875,-0.12011655420064926,0.11668746918439865,-0.01906610280275345
1789548999047330600,2.06933056640625,-0.08427759259939194,0.08621451258659363,-0.010373012162744999
1789548999057299700,2.0792998046875,-0.07814913243055344,0.07871638238430023,-0.05029566213488579
1789548999067267600,2.089267578125,-0.144690603017807,0.05834772810339928,0.0524006225168705
1789548999077235500,2.0992353515625,-0.1762479990720749,0.03927896171808243,0.09806105494499207
1789548999087204400,2.109204345703125,-0.1192941665649414,0.05655675381422043,0.0028104339726269245
1789548999097172500,2.11917236328125,-0.12346547842025757,0.10356820374727249,-0.021581724286079407
1789548999107140600,2.129140625,-0.14281627535820007,0.08647017925977707,0.02726730704307556
1789548999117109500,2.139109619140625,-0.10582230240106583,0.10037773847579956,-0.02377164177596569
1789548999127077600,2.14907763671875,-0.07665136456489563,0.06828638166189194,-0.03380883112549782
1789548999137046500,2.159046630859375,-0.10958854854106903,0.04765114188194275,0.0419599674642086
1789548999147014700,2.1690146484375,-0.11957140266895294,0.018853582441806793,0.06605464965105057
1789548999156982800,2.178982666015625,-0.047269243746995926,0.02460414543747902,-0.00734366662800312
1789548999166951700,2.18895166015625,-0.05146532133221626,0.015179218724370003,0.027339478954672813
1789548999176919600,2.19891943359375,-0.06977535039186478,0.05916212499141693,0.032455410808324814
1789548999186888400,2.208888427734375,-0.04916168749332428,0.06138799339532852,-0.049253031611442566
1789548999196856600,2.218856689453125,-0.09520880877971649,0.07079294323921204,-0.07465159893035889
1789548999206824400,2.228824462890625,-0.1195964366197586,0.00669332267716527,-0.031434886157512665
1789548999216793600,2.238793701171875,-0.09078343212604523,-0.02833789773285389,-0.022530609741806984
1789548999226761500,2.248761474609375,-0.07786577194929123,-0.037087712436914444,0.032585106790065765
1789548999236729600,2.2587294921875,-0.015089204534888268,-0.026502979919314384,0.0443568117916584
1789548999246698500,2.268698486328125,0.04641437157988548,0.024521853774785995,0.017554758116602898
1789548999256666600,2.27866650390625,0.08990485221147537,0.020266123116016388,0.0033577135764062405
1789548999266635800,2.2886357421875,0.10078945755958557,0.059305932372808456,-0.048778191208839417
1789548999276603400,2.298603271484375,0.08157608658075333,0.055268313735723495,-0.10617277771234512
1789548999286571500,2.308571533203125,0.1045069694519043,0.01841362752020359,-0.10443905740976334
1789548999296540400,2.31854052734375,0.02959677390754223,0.008379103615880013,-0.0640580803155899
1789548999306508500,2.328508544921875,0.007408381439745426,-0.007602259516716003,-0.005723133217543364
1789548999316477400,2.3384775390625,0.11642488092184067,-0.02761618047952652,0.059302739799022675
1789548999326445600,2.348445556640625,0.20043961703777313,-0.036253079771995544,0.04045234993100166
1789548999336413700,2.35841357421875,0.2400946170091629,0.016104934737086296,-0.04857499152421951
1789548999346382600,2.368382568359375,0.14986087381839752,0.000594950164668262,-0.02635224536061287
1789548999356350700,2.378350830078125,0.1313423067331314,-0.007836084812879562,0.0012096078135073185
1789548999366318600,2.388318603515625,0.14495453238487244,-0.01788179576396942,-0.05654556676745415
1789548999376287500,2.39828759765625,0.08907874673604965,-0.0012026835465803742,-0.06324687600135803
1789548999386255600,2.408255615234375,0.016744358465075493,-0.007135673891752958,-0.03840384632349014
1789548999396224500,2.418224609375,0.08119099587202072,-0.018187260255217552,-0.004265052266418934
1789548999406192600,2.428192626953125,0.16566406190395355,-0.015497732907533646,-0.038900792598724365
1789548999416160500,2.438160400390625,0.19644993543624878,-0.007247793022543192,0.014535799622535706
1789548999426129700,2.448129638671875,0.22839482128620148,-0.00031132352887652814,0.04560423642396927
1789548999436097500,2.45809765625,0.2960393726825714,0.00318886898458004,0.007791077718138695
1789548999446066700,2.468066650390625,0.28001007437705994,0.03795190900564194,0.007502923719584942
1789548999456034600,2.47803466796875,0.23494699597358704,0.018324678763747215,0.05116971209645271
1789548999466002400,2.48800244140625,0.3061729669570923,0.02064082957804203,0.026014557108283043
1789548999475971600,2.4979716796875,0.2812809348106384,0.059850018471479416,-0.06551962345838547
1789548999485939500,2.507939453125,0.2592528760433197,0.08720041811466217,-0.08030815422534943
1789548999495907600,2.517907470703125,0.23423327505588531,0.053472280502319336,-0.013259346596896648
1789548999505876500,2.52787646484375,0.2373073548078537,0.017848504707217216,0.0054640076123178005
1789548999515845600,2.537845703125,0.22008362412452698,0.0468900091946125,0.020558005198836327
1789548999525814500,2.547814453125,0.18290004134178162,0.01242364663630724,0.09102871268987656
1789548999535782400,2.557782470703125,0.22553299367427826,0.045036185532808304,0.027104854583740234
1789548999545750300,2.567750244140625,0.18813049793243408,0.06407379359006882,0.01612011343240738
1789548999555719400,2.577719482421875,0.13247708976268768,0.07618477940559387,0.010359696112573147
1789548999565687300,2.587687255859375,0.14547677338123322,0.06443571299314499,-0.0037798245903104544
1789548999575656400,2.597656494140625,0.11004713922739029,0.09075573831796646,0.0009781790431588888
1789548999585624600,2.60762451171875,0.010926683433353901,0.09947013109922409,0.027037477120757103
1789548999595592400,2.617592529296875,0.032524921000003815,0.08048605173826218,0.0003398193512111902
1789548999605561600,2.6275615234375,0.1989106982946396,0.08721799403429031,-0.17402851581573486
1789548999615529500,2.637529541015625,-0.044609811156988144,0.0451754666864872,0.031850073486566544
1789548999625497300,2.647497314453125,-0.2759080231189728,0.0715402290225029,0.08004290610551834
1789548999635466200,2.65746630859375,-0.19793091714382172,0.016585635021328926,-0.09310091286897659
1789548999645434400,2.667434326171875,-0.22546614706516266,-0.020930316299200058,-0.04465482011437416
1789548999655403300,2.6774033203125,-0.39242023229599,-0.000022636868379777297,0.060144029557704926
1789548999665371400,2.687371337890625,-0.4219682812690735,-0.0017238641157746315,0.015055116266012192
1789548999675339500,2.697339599609375,-0.3512831926345825,-0.0019022959750145674,-0.006839796435087919
1789548999685308400,2.707308349609375,-0.4331391751766205,0.051411524415016174,0.029438316822052002
1789548999695276500,2.717276611328125,-0.461902379989624,0.05904760584235191,0.025366343557834625
1789548999705245400,2.727245361328125,-0.37097594141960144,0.044742170721292496,0.019625898450613022
1789548999715213600,2.737213623046875,-0.30709177255630493,0.02106187492609024,0.028797026723623276
1789548999725181400,2.747181396484375,-0.2994157373905182,-0.006138053722679615,0.04625191539525986
1789548999735150300,2.757150390625,-0.24281291663646698,0.009911486878991127,-0.003063700394704938
1789548999745118500,2.767118408203125,-0.17400109767913818,-0.03261466696858406,-0.04717470332980156
1789548999755086300,2.77708642578125,-0.19259367883205414,-0.043893955647945404,0.03361894562840462
1789548999765055500,2.787055419921875,-0.11990190297365189,-0.02863723784685135,0.022191854193806648
1789548999775023400,2.7970234375,-0.032288163900375366,0.0027542412281036377,-0.04507027193903923
1789548999784992500,2.806992431640625,-0.01203802041709423,-0.0032586439047008753,-0.009956227615475655
1789548999794960400,2.81696044921875,0.09052776545286179,-0.003929493948817253,0.021871477365493774
1789548999804928500,2.826928466796875,0.12432141602039337,-0.0013283847365528345,0.03442801535129547
1789548999814897700,2.836897705078125,0.14280268549919128,0.02611256018280983,-0.0006391586503013968
1789548999824865300,2.846865234375,0.213336780667305,-0.07419619709253311,0.05265389010310173
1789548999834834400,2.85683447265625,0.28519207239151,-0.07564762234687805,-0.020382236689329147
1789548999844802300,2.86680224609375,0.2799842357635498,-0.04240844398736954,-0.0665808916091919
1789548999854770400,2.8767705078125,0.30468106269836426,-0.09174536913633347,0.002799514913931489
1789548999864739300,2.8867392578125,0.35519909858703613,-0.0880741998553276,0.024095483124256134
1789548999874707500,2.89670751953125,0.37390807271003723,-0.042817238718271255,-0.016531039029359818
1789548999884676400,2.90667626953125,0.4166955053806305,-0.05880552530288696,0.026021746918559074
1789548999894644500,2.91664453125,0.47991761565208435,-0.01683703623712063,-0.01696939580142498
1789548999904612600,2.926612548828125,0.48390594124794006,0.0378618948161602,-0.0734981819987297
1789548999914581500,2.93658154296875,0.5014252662658691,0.00452843913808465,-0.02996056154370308
1789548999924549400,2.94654931640625,0.5051174759864807,0.026165291666984558,-0.04140523076057434
1789548999934517500,2.956517578125,0.5170069336891174,0.02533065713942051,-0.025378594174981117
1789548999944486400,2.966486328125,0.5652591586112976,0.03404185548424721,-0.007950601167976856
1789548999954454500,2.97645458984375,0.5430909991264343,0.046069223433732986,-0.042150914669036865
1789548999964423400,2.98642333984375,0.526314377784729,0.08187302947044373,-0.06917507946491241
1789548999974391600,2.9963916015625,0.5028817653656006,0.045166414231061935,-0.029929669573903084
1789548999984359400,3.006359375,0.46652138233184814,0.05476577579975128,0.026310699060559273
1789548999994328600,3.01632861328125,0.47665682435035706,0.06716997921466827,-0.005366535857319832
1789549000004296400,3.02629638671875,0.4810369312763214,0.11441579461097717,-0.030099578201770782
1789549000014265600,3.036265625,0.48762986063957214,0.09525994211435318,0.002397377509623766
1789549000024233200,3.046233154296875,0.48356133699417114,0.12645727396011353,0.02028236910700798
1789549000034201300,3.056201416015625,0.4799916446208954,0.18036843836307526,0.02340598963201046
1789549000044170500,3.06617041015625,0.4561382532119751,0.18978111445903778,0.013996242545545101
1789549000054138400,3.076138427734375,0.3880438804626465,0.22375479340553284,0.02678474225103855
1789549000064107500,3.086107421875,0.34899047017097473,0.2112528532743454,0.006648847833275795
1789549000074075400,3.096075439453125,0.2607905864715576,0.2579127550125122,-0.032218921929597855
1789549000084043500,3.10604345703125,0.18734033405780792,0.2050572782754898,-0.008200405165553093
1789549000094012400,3.116012451171875,0.07574403285980225,0.20558111369609833,0.020565196871757507
1789549000103980500,3.12598046875,0.02929770201444626,0.20260609686374664,-0.011766644194722176
1789549000113948400,3.135948486328125,-0.058516304939985275,0.23786476254463196,-0.015327290631830692
1789549000123917300,3.145917236328125,-0.14737960696220398,0.26833850145339966,-0.029228191822767258
1789549000133885400,3.155885498046875,-0.18251095712184906,0.21676160395145416,0.016037022694945335
1789549000143854300,3.165854248046875,-0.2380692958831787,0.25560835003852844,-0.01967410184442997
1789549000153822500,3.175822509765625,-0.33069509267807007,0.2587977349758148,0.021566543728113174
1789549000163790600,3.18579052734375,-0.3860267996788025,0.28285008668899536,-0.0007621967233717442
1789549000173759500,3.195759521484375,-0.4383975863456726,0.29566439986228943,0.008212123066186905
1789549000183727600,3.2057275390625,-0.5017794966697693,0.3104550838470459,0.0136023610830307
1789549000193696500,3.215696533203125,-0.5861276388168335,0.29283666610717773,0.03453587368130684
1789549000203664600,3.22566455078125,-0.6373019218444824,0.29884421825408936,0.009073656052350998
1789549000213632300,3.23563232421875,-0.6946573257446289,0.30118274688720703,-0.008462727069854736
1789549000223601400,3.245601318359375,-0.7544602155685425,0.2500990629196167,0.03627118840813637
1789549000233569300,3.2555693359375,-0.7790462374687195,0.24346885085105896,0.020112458616495132
1789549000243538400,3.265538330078125,-0.8006093502044678,0.250449538230896,-0.05981273204088211
1789549000253506300,3.27550634765625,-0.8553506135940552,0.17782139778137207,-0.014997591264545918
1789549000263474400,3.285474365234375,-0.8867564797401428,0.17333289980888367,-0.02485181950032711
1789549000273443600,3.295443603515625,-0.880024254322052,0.16668884456157684,-0.06138106808066368
1789549000283411500,3.305411376953125,-0.8894462585449219,0.14334863424301147,-0.013146694749593735
1789549000293380600,3.315380615234375,-0.8801624774932861,0.13077878952026367,0.022161761298775673
1789549000303348500,3.325348388671875,-0.8372064828872681,0.10573522001504898,0.037404097616672516
1789549000313316400,3.33531640625,-0.7910547256469727,0.11446692049503326,0.037469878792762756
1789549000323285200,3.34528515625,-0.7601468563079834,0.12129100412130356,0.04549664631485939
1789549000333253400,3.35525341796875,-0.7134885191917419,0.08532155305147171,0.08751839399337769
1789549000343221500,3.365221435546875,-0.6403608322143555,0.07410138845443726,0.07289950549602509
1789549000353190400,3.3751904296875,-0.6108479499816895,0.07901652157306671,0.042997799813747406
1789549000363158500,3.385158447265625,-0.5744094848632812,0.029284652322530746,0.05356442555785179
1789549000373127400,3.39512744140625,-0.5343257188796997,0.02027810737490654,0.05981219932436943
1789549000383095600,3.405095458984375,-0.4747377634048462,0.00035260253935121,0.03574255108833313
1789549000393063400,3.4150634765625,-0.4520995616912842,0.006328203249722719,-0.012375709600746632
1789549000403032600,3.425032470703125,-0.4266226887702942,-0.003144926857203245,0.001955559244379401
1789549000413000400,3.43500048828125,-0.3555522561073303,-0.030487600713968277,0.008988435380160809
1789549000422969300,3.44496923828125,-0.32199135422706604,-0.03719104453921318,0.01913880743086338
1789549000432937500,3.4549375,-0.29949402809143066,-0.039982568472623825,0.01793878711760044
1789549000442905300,3.4649052734375,-0.2537531852722168,-0.06499018520116806,0.039802804589271545
1789549000452874500,3.47487451171875,-0.2223944514989853,-0.08377718925476074,0.0754351019859314
1789549000462842400,3.48484228515625,-0.17807705700397491,-0.06461840867996216,0.016624249517917633
1789549000472811500,3.4948115234375,-0.1558508425951004,-0.07554322481155396,0.023506924510002136
1789549000482779400,3.504779296875,-0.1309060901403427,-0.121397003531456,0.0486583486199379
1789549000492747500,3.51474755859375,-0.14773966372013092,-0.09362795203924179,0.026918966323137283
1789549000502716400,3.52471630859375,-0.10632457584142685,-0.10147789120674133,0.004573712591081858
1789549000512684300,3.534684326171875,-0.1096561923623085,-0.1205168291926384,0.018863968551158905
1789549000522653400,3.5446533203125,-0.12536270916461945,-0.11769254505634308,0.029084915295243263
1789549000532621300,3.554621337890625,-0.07311975210905075,-0.11485414952039719,0.000011451592399680521
1789549000542589400,3.56458935546875,-0.05998344346880913,-0.12243589758872986,0.029950974509119987
1789549000552558300,3.574558349609375,-0.0779227614402771,-0.08667764067649841,0.012987704016268253
1789549000562526500,3.5845263671875,-0.04285851866006851,-0.09925734251737595,0.01369477342814207
1789549000572495400,3.594495361328125,-0.009836118668317795,-0.1061120554804802,0.020122312009334564
1789549000582463200,3.604463134765625,-0.029334452003240585,-0.09590283036231995,0.04421486705541611
1789549000592431400,3.614431396484375,0.02159450761973858,-0.11957939714193344,0.03179255127906799
1789549000602400300,3.624400146484375,0.011855860240757465,-0.09657447785139084,0.044561609625816345
1789549000612368400,3.634368408203125,0.048764877021312714,-0.10565745085477829,0.041722677648067474
1789549000622337300,3.644337158203125,0.09874628484249115,-0.09790073335170746,-0.008125304244458675
1789549000632305400,3.654305419921875,0.0728992372751236,-0.06847546249628067,0.014733139425516129
1789549000642273500,3.6642734375,0.08074011653661728,-0.07234690338373184,-0.02521267905831337
1789549000652242400,3.674242431640625,0.06324475258588791,-0.045768555253744125,-0.03407274931669235
1789549000662210600,3.68421044921875,0.08911948651075363,-0.06449883431196213,-0.016760604456067085
1789549000672179500,3.694179443359375,0.0830293744802475,-0.026741866022348404,-0.026102706789970398
1789549000682147300,3.704147216796875,0.07107950001955032,-0.02683188021183014,-0.003400590270757675
1789549000692115200,3.714115234375,0.1052665039896965,-0.027824973687529564,-0.011000187136232853
1789549000702084400,3.72408447265625,0.11131107807159424,-0.015670571476221085,-0.020666129887104034
1789549000712052200,3.73405224609375,0.08068818598985672,0.0018793927738443017,-0.053642988204956055
1789549000722021400,3.744021484375,0.07804366946220398,0.006323409732431173,-0.033123333007097244
1789549000731989500,3.753989501953125,0.08155903965234756,-0.025261681526899338,-0.007194529753178358
1789549000741957400,3.763957275390625,0.07333812862634659,0.0144697530195117,-0.0034996599424630404
1789549000751926500,3.773926513671875,0.09060873091220856,0.008461395278573036,-0.017900969833135605
1789549000761894400,3.783894287109375,0.05465712025761604,0.014395983889698982,0.01053040474653244
1789549000771863600,3.793863525390625,0.05850512161850929,-0.003406715579330921,0.015025821514427662
1789549000781831200,3.8038310546875,0.04902373626828194,0.0005422196118161082,-0.004462658893316984
1789549000791799300,3.81379931640625,0.021331122145056725,-0.015123825520277023,-0.044427916407585144
1789549000801768200,3.823768310546875,0.024588167667388916,-0.02310372143983841,-0.010203368961811066
1789549000811736300,3.833736328125,0.018256235867738724,-0.044370658695697784,-0.002889529801905155
1789549000821705200,3.843705322265625,-0.04177487641572952,-0.030286533758044243,0.0068358019925653934
1789549000831673300,3.85367333984375,-0.04607934504747391,-0.02809075638651848,-0.015782957896590233
1789549000841641500,3.863641357421875,-0.048295095562934875,-0.06576196849346161,0.005258677992969751
1789549000851610400,3.8736103515625,-0.08865769952535629,-0.06865575909614563,-0.01426522247493267
1789549000861578500,3.88357861328125,-0.10156497359275818,-0.05157237872481346,-0.0036586506757885218
1789549000871547400,3.89354736328125,-0.06847040355205536,-0.0772567018866539,-0.022185463458299637
1789549000881515300,3.903515380859375,-0.09087477624416351,-0.06867653131484985,-0.016393886879086494
1789549000891483400,3.9134833984375,-0.08449890464544296,-0.08322298526763916,-0.03219788521528244
1789549000901452300,3.923452392578125,-0.1000155434012413,-0.09786877036094666,-0.006433664355427027
1789549000911420400,3.93342041015625,-0.08653569221496582,-0.09184975922107697,-0.06538007408380508
1789549000921388300,3.94338818359375,-0.09704239666461945,-0.08562915027141571,-0.09590442478656769
1789549000931357400,3.953357421875,-0.10728970170021057,-0.07528117299079895,-0.0897863432765007
1789549000941325300,3.9633251953125,-0.08966650068759918,-0.08113932609558105,-0.06853058934211731
1789549000951294500,3.97329443359375,-0.12613582611083984,-0.06908372789621353,-0.06900916248559952
1789549000961262600,3.9832626953125,-0.13693414628505707,-0.054077617824077606,-0.03814978152513504
1789549000971230200,3.993230224609375,-0.1234031617641449,-0.07121585309505463,0.0036016590893268585
1789549000981199400,4.003199462890625,-0.11698654294013977,-0.07466331869363785,-0.008983374573290348
1789549000991167200,4.013167236328125,-0.13702869415283203,-0.07137884199619293,-0.008845156989991665
1789549001001136400,4.023136474609375,-0.16112390160560608,-0.10284249484539032,0.010399111546576023
1789549001011104300,4.033104248046875,-0.21702951192855835,-0.08309515565633774,0.009092564694583416
1789549001021072400,4.043072265625,-0.2483576089143753,-0.06892313808202744,-0.011206315830349922
1789549001031041300,4.053041259765625,-0.2624009847640991,-0.0759645402431488,-0.020176108926534653
1789549001041009400,4.063009521484375,-0.2640044689178467,-0.07327874004840851,-0.03050517849624157
1789549001050978300,4.072978271484375,-0.29152345657348633,-0.08417799323797226,-0.016893763095140457
1789549001060946400,4.082946533203125,-0.26994121074676514,-0.08738630264997482,-0.02725745365023613
1789549001070914300,4.092914306640625,-0.26660531759262085,-0.08201976865530014,-0.01828419789671898
1789549001080883200,4.10288330078125,-0.30461370944976807,-0.06029796227812767,-0.040401753038167953
1789549001090851300,4.112851318359375,-0.3205188810825348,-0.06999079883098602,-0.003885285696014762
1789549001100820200,4.1228203125,-0.2922619581222534,-0.0978860855102539,0.017061807215213776
1789549001110788400,4.132788330078125,-0.30388692021369934,-0.05318918451666832,-0.02155243046581745
1789549001120756500,4.142756591796875,-0.29936620593070984,-0.05697966367006302,-0.0004223773430567235
1789549001130725400,4.152725341796875,-0.2817411422729492,-0.0672898218035698,-0.018493523821234703
1789549001140693500,4.162693603515625,-0.2800297737121582,-0.044617533683776855,-0.025552764534950256
1789549001150662400,4.172662353515625,-0.27702999114990234,-0.023637419566512108,-0.03118002414703369
1789549001160630500,4.182630615234375,-0.26081693172454834,-0.04151362180709839,0.009385245852172375
1789549001170598100,4.19259814453125,-0.20987360179424286,-0.05379931628704071,-0.017792578786611557
1789549001180567300,4.2025673828125,-0.1725667119026184,-0.047319844365119934,-0.044613808393478394
1789549001190535400,4.212535400390625,-0.17190438508987427,-0.09404607117176056,0.025667812675237656
1789549001200504300,4.22250439453125,-0.13412025570869446,-0.09474222362041473,0.023542344570159912
1789549001210472400,4.232472412109375,-0.08015182614326477,-0.08180751651525497,-0.010970359668135643
1789549001220440300,4.2424404296875,-0.11948511749505997,-0.04653128236532211,-0.008527175523340702
1789549001230409500,4.252409423828125,-0.09059008955955505,-0.062136609107255936,-0.021856563165783882
1789549001240377300,4.26237744140625,-0.08396893739700317,-0.08208421617746353,0.019180351868271828
1789549001250346500,4.272346435546875,-0.07558050751686096,-0.06348816305398941,-0.019299129024147987
1789549001260314400,4.282314453125,-0.023373765870928764,-0.07332960516214371,-0.03747547045350075
1789549001270282200,4.2922822265625,-0.02255537547171116,-0.10378897935152054,-0.002170742489397526
1789549001280251400,4.30225146484375,0.0002956108655780554,-0.0930660292506218,-0.008671252056956291
1789549001290219300,4.31221923828125,0.017004815861582756,-0.08794929832220078,-0.01194188091903925
1789549001300188400,4.3221884765625,0.01847887597978115,-0.07450859248638153,-0.007874701172113419
1789549001310156300,4.33215625,0.04796352982521057,-0.10597170889377594,0.015737418085336685
1789549001320124400,4.34212451171875,0.04501594603061676,-0.09446951001882553,0.02678527496755123
1789549001330093300,4.35209326171875,0.04517946392297745,-0.08534739166498184,0.008360461331903934
1789549001340061400,4.3620615234375,0.0749027356505394,-0.09786797314882278,-0.0032314795535057783
1789549001350030300,4.3720302734375,0.054361242800951004,-0.1085139587521553,-0.02442464977502823
1789549001359998500,4.38199853515625,0.03363998606801033,-0.10183422267436981,0.0032842103391885757
1789549001369966300,4.39196630859375,0.07710757106542587,-0.12950100004673004,-0.04583406820893288
1789549001379935200,4.401935302734375,0.05357374623417854,-0.06950051337480545,-0.07424893230199814
1789549001389903400,4.4119033203125,0.03842994570732117,-0.06913646310567856,-0.0563168004155159
1789549001399872300,4.421872314453125,0.06125590205192566,-0.09332355856895447,-0.017552895471453667
1789549001409840400,4.43184033203125,0.06447166949510574,-0.08514925092458725,-0.03647278994321823
1789549001419808500,4.44180859375,0.054062969982624054,-0.04351125657558441,-0.03435930609703064
1789549001429777400,4.45177734375,0.05373327061533928,-0.08083253353834152,0.007667773403227329
1789549001439745500,4.46174560546875,0.025404691696166992,-0.030181072652339935,0.006859504152089357
1789549001449714400,4.47171435546875,0.011151720769703388,-0.0397852286696434,-0.07267820090055466
1789549001459682600,4.4816826171875,-0.061582405120134354,-0.05632905289530754,0.009944509714841843
1789549001469650200,4.491650146484375,-0.020789701491594315,-0.0869697853922844,-0.009155947715044022
1789549001479619300,4.501619384765625,-0.05879434198141098,-0.029878536239266396,-0.012854013592004776
1789549001489587200,4.511587158203125,-0.06897933036088943,-0.006376939360052347,-0.05246427282691002
1789549001499555300,4.521555419921875,-0.06757131963968277,-0.0165555402636528,-0.04246436804533005
1789549001509524200,4.531524169921875,-0.07277113944292068,0.0008298410102725029,-0.012779178097844124
1789549001519491800,4.541491943359375,-0.075202077627182,0.007670969236642122,-0.05480359494686127
1789549001529461000,4.5514609375,-0.15501408278942108,0.03495638445019722,-0.023146064952015877
1789549001539428900,4.561428955078125,-0.13235244154930115,-0.0006969492533244193,-0.03392281383275986
1789549001549397000,4.57139697265625,-0.17928028106689453,0.02912406250834465,-0.04962880536913872
1789549001559366000,4.581365966796875,-0.1726657748222351,0.02786731719970703,-0.039981503039598465
1789549001569334000,4.591333984375,-0.1826409250497818,0.04507346823811531,-0.027959728613495827
1789549001579303000,4.601302978515625,-0.20791511237621307,0.04968073591589928,-0.031558725982904434
1789549001589270800,4.611270751953125,-0.18079987168312073,0.026705913245677948,-0.018763834610581398
1789549001599239000,4.621239013671875,-0.18458928167819977,0.02167014218866825,0.033169936388731
1789549001609207800,4.631207763671875,-0.19017526507377625,0.01299356296658516,0.022586002945899963
1789549001619176000,4.641176025390625,-0.2046644538640976,0.006838198751211166,0.01900458335876465
1789549001629144800,4.651144775390625,-0.21048054099082947,-0.00817803479731083,0.03295421972870827
1789549001639113000,4.661113037109375,-0.2127050757408142,-0.013063071295619011,0.041364751756191254
1789549001649081000,4.6710810546875,-0.20212486386299133,-0.025861158967018127,0.04567055031657219
1789549001659050000,4.681050048828125,-0.15584366023540497,-0.033846646547317505,0.09810739010572433
1789549001669018000,4.69101806640625,-0.08392206579446793,0.03145486116409302,-0.022374814376235008
1789549001678987000,4.700987060546875,-0.13912752270698547,0.04104597121477127,0.0006791060441173613
1789549001688955000,4.710954833984375,-0.08559320122003555,-0.03335396200418472,0.05498229339718819
1789549001698922800,4.7209228515625,-0.024880582466721535,-0.028209000825881958,-0.008920257911086082
1789549001708892000,4.730891845703125,-0.07877177745103836,-0.002895388752222061,-0.010733604431152344
1789549001718860000,4.740860107421875,-0.04562154784798622,-0.051958806812763214,0.02929876558482647
1789549001728829000,4.750828857421875,0.01834411919116974,-0.06331958621740341,0.03804432228207588
1789549001738797000,4.760797119140625,0.02251622825860977,0.009272061288356781,0.03388739377260208
1789549001748765000,4.770764892578125,0.023992683738470078,0.058111771941185,-0.04039376229047775
1789549001758734000,4.780734130859375,0.04255891218781471,0.07472270727157593,-0.06380321085453033
1789549001768702000,4.790701904296875,0.0689777359366417,-0.028921397402882576,0.13750699162483215
1789549001778671000,4.800671142578125,0.0680546835064888,0.009321330115199089,0.08689308911561966
1789549001788638700,4.810638671875,0.0023941819090396166,0.04362763836979866,0.03501284494996071
1789549001798606800,4.82060693359375,-0.01296560000628233,-0.003832821501418948,0.07344279438257217
1789549001808575700,4.83057568359375,-0.05972884222865105,-0.016812002286314964,0.05498628690838814
1789549001818543900,4.8405439453125,-0.12102575600147247,0.025422269478440285,-0.1005692183971405
1789549001828513000,4.850512939453125,-0.0988011434674263,-0.06269001215696335,-0.04254772514104843
1789549001838481000,4.86048095703125,-0.10063499957323074,-0.055447012186050415,-0.005859486758708954
1789549001848449000,4.870448974609375,-0.08335108309984207,0.004421379882842302,-0.08835595846176147
1789549001858418000,4.88041796875,-0.13329200446605682,-0.015805594623088837,-0.036378245800733566
1789549001868386000,4.890385986328125,-0.04994971677660942,-0.023383352905511856,-0.005676794331520796
1789549001878354000,4.90035400390625,-0.018123077228665352,-0.03682512417435646,0.0038743666373193264
1789549001888322800,4.91032275390625,-0.005331914871931076,-0.05661454424262047,-0.014829812571406364
1789549001898291000,4.920291015625,-0.04476427659392357,-0.09315311163663864,-0.015441806986927986
1789549001908259800,4.930259765625,-0.11846166849136353,-0.08801694214344025,0.038711708039045334
1789549001918228000,4.94022802734375,-0.17626237869262695,-0.026393789798021317,0.004630704410374165
1789549001928195800,4.95019580078125,-0.21618609130382538,-0.0161222442984581,-0.00002450108149787411
1789549001938165000,4.9601650390625,-0.2107042372226715,-0.05240008980035782,0.04165849834680557
1789549001948132900,4.9701328125,-0.18658559024333954,-0.051356930285692215,0.017777398228645325
1789549001958102000,4.98010205078125,-0.19601717591285706,-0.018583005294203758,-0.009936253540217876
1789549001968070100,4.990070068359375,-0.15244759619235992,-0.04284839704632759,0.004268514458090067
1789549001978037800,5.000037841796875,-0.18304970860481262,-0.006707170978188515,-0.0011773834703490138
1789549001988007000,5.0100068359375,-0.20388709008693695,0.007407848723232746,-0.0453600250184536
1789549001997974800,5.019974853515625,-0.23660801351070404,-0.024206269532442093,0.004591822158545256
1789549002007944000,5.02994384765625,-0.21988096833229065,-0.06113605946302414,0.027789819985628128
1789549002017911800,5.039911865234375,-0.2311277538537979,-0.032705217599868774,-0.009611348621547222
1789549002027880000,5.0498798828125,-0.2435402274131775,-0.052320729941129684,-0.011856392957270145
1789549002037848800,5.059848876953125,-0.2350551187992096,-0.05895119905471802,0.0015598133904859424
1789549002047817000,5.06981689453125,-0.2127506136894226,-0.09215336292982101,0.018573950976133347
1789549002057785000,5.07978515625,-0.25260376930236816,-0.040702689439058304,-0.013728328980505466
1789549002067754000,5.08975390625,-0.1930038034915924,-0.06928426772356033,-0.13591362535953522
1789549002077721900,5.099721923828125,-0.23458907008171082,-0.11745952069759369,-0.07444733381271362
1789549002087690800,5.109690673828125,-0.230632945895195,-0.17529618740081787,0.013971742242574692
1789549002097659000,5.119658935546875,-0.19892720878124237,-0.1709272712469101,-0.008625445887446404
1789549002107627000,5.129626953125,-0.1771622598171234,-0.14075471460819244,-0.03429219499230385
1789549002117596000,5.139595947265625,-0.10621511936187744,-0.1577930897474289,-0.04812571778893471
1789549002127564000,5.14956396484375,-0.09545514732599258,-0.1752261519432068,0.02112632431089878
1789549002137533000,5.159532958984375,-0.07340257614850998,-0.1831573098897934,0.022976156324148178
1789549002147501000,5.1695009765625,-0.066917784512043,-0.16954828798770905,0.008028099313378334
1789549002157469000,5.179468994140625,-0.04361512139439583,-0.1800544559955597,-0.0218949131667614
1789549002167438000,5.18943798828125,-0.032770995050668716,-0.20624850690364838,-0.0008309062686748803
1789549002177406000,5.199406005859375,-0.0038458709605038166,-0.20528444647789001,-0.00959776621311903
1789549002187374800,5.209374755859375,0.01823732629418373,-0.1696404367685318,-0.04135729372501373
1789549002197343000,5.219343017578125,0.04448277875781059,-0.17522427439689636,-0.008716526441276073
1789549002207310800,5.229310791015625,0.13013909757137299,-0.18001291155815125,0.0035862126387655735
1789549002217280000,5.239280029296875,0.16640308499336243,-0.14068840444087982,-0.02316550724208355
1789549002227247900,5.249247802734375,0.1891494244337082,-0.14312094449996948,0.009706955403089523
1789549002237216000,5.259216064453125,0.22207380831241608,-0.18414640426635742,0.054907724261283875
1789549002247185000,5.269184814453125,0.2593138515949249,-0.16627579927444458,0.01561278197914362
1789549002257153000,5.279153076171875,0.2794787883758545,-0.14187245070934296,-0.02738342061638832
1789549002267122000,5.289121826171875,0.30744996666908264,-0.13592587411403656,-0.042383141815662384
1789549002277089800,5.29908984375,0.33519822359085083,-0.15518160164356232,0.0075665730983018875
1789549002287058000,5.309057861328125,0.36658811569213867,-0.13851793110370636,0.021229920908808708
1789549002297026800,5.31902685546875,0.4092665910720825,-0.14459766447544098,0.006381999235600233
1789549002306995000,5.328994873046875,0.4495636820793152,-0.14522776007652283,0.0010807107901200652
1789549002316963800,5.3389638671875,0.47363361716270447,-0.1316475123167038,0.005559881217777729
1789549002326932000,5.348931884765625,0.4985405504703522,-0.12328171730041504,0.003472495824098587
1789549002336900000,5.358900146484375,0.5177699327468872,-0.1426120102405548,0.0028935244772583246
1789549002346869000,5.368868896484375,0.5555351376533508,-0.15107926726341248,-0.002025866648182273
1789549002356837000,5.378837158203125,0.5488277077674866,-0.13955123722553253,-0.03580193966627121
1789549002366806000,5.388805908203125,0.5502506494522095,-0.1400681585073471,-0.03609009459614754
1789549002376774000,5.39877392578125,0.5934516191482544,-0.12398958951234818,-0.020779579877853394
1789549002386741800,5.40874169921875,0.6200464963912964,-0.13014841079711914,0.022943930700421333
1789549002396711000,5.4187109375,0.6284682154655457,-0.07202599197626114,-0.00199310970492661
1789549002406679000,5.428678955078125,0.6810286045074463,-0.047749944031238556,-0.028234567493200302
1789549002416647000,5.43864697265625,0.693678081035614,-0.05273378640413284,0.02154364064335823
1789549002426616000,5.448615966796875,0.6251245737075806,-0.024445954710245132,0.04463271424174309
1789549002436584000,5.458583984375,0.6102114319801331,0.01212723646312952,-0.005125786177814007
1789549002446553000,5.468552978515625,0.5267961621284485,0.03858814015984535,-0.023081084713339806
1789549002456521000,5.47852099609375,0.372241735458374,0.061162691563367844,0.044263601303100586
1789549002466488800,5.48848876953125,0.2910776436328888,0.040878988802433014,0.06979772448539734
1789549002476457700,5.498457763671875,0.23463860154151917,0.0548161119222641,0.006825681775808334
1789549002486425900,5.50842578125,0.12966105341911316,0.06757824122905731,-0.009375392459332943
1789549002496394800,5.518394775390625,0.03651460260152817,0.04453551024198532,0.006493852008134127
1789549002506363000,5.52836279296875,0.0024493092205375433,0.030670560896396637,-0.06409057229757309
1789549002516331000,5.5383310546875,-0.08438066393136978,0.02828330360352993,-0.047078829258680344
1789549002526300200,5.548300048828125,-0.1687927395105362,0.025233717635273933,0.001728657865896821
1789549002536268300,5.558268310546875,-0.2229531854391098,0.011347463354468346,-0.0012141350889578462
1789549002546236200,5.568236083984375,-0.24685798585414886,0.0106505136936903,0.0006929545197635889
1789549002556205300,5.578205322265625,-0.30781668424606323,0.05578257143497467,-0.02267921343445778
1789549002566173400,5.58817333984375,-0.32188189029693604,0.04206090047955513,-0.011843609623610973
1789549002576142300,5.598142333984375,-0.3302748501300812,0.035707928240299225,0.024634240195155144
1789549002586110200,5.608110107421875,-0.40721383690834045,0.0267714262008667,0.022763902321457863
1789549002596078000,5.618078125,-0.4453867971897125,0.05798766762018204,-0.008768457919359207
1789549002606047200,5.628047119140625,-0.42069104313850403,0.0009116000146605074,-0.003736681304872036
1789549002616015000,5.63801513671875,-0.4734035134315491,0.018099108710885048,0.03220454230904579
1789549002625984300,5.647984375,-0.4733062982559204,-0.032939307391643524,0.10043393075466156
1789549002635952000,5.6579521484375,-0.3982946574687958,0.011292335577309132,-0.003576359013095498
1789549002645920300,5.667920166015625,-0.40712621808052063,0.04673527926206589,-0.05907716974616051
1789549002655889200,5.67788916015625,-0.4243725836277008,-0.0015749934827908874,0.059545617550611496
1789549002665857300,5.687857177734375,-0.33459264039993286,-0.07276208698749542,0.0797044187784195
1789549002675825200,5.6978251953125,-0.3380880355834961,0.029205555096268654,-0.018102571368217468
1789549002685794000,5.7077939453125,-0.2493208795785904,-0.048105478286743164,-0.03435850515961647
1789549002695762200,5.71776220703125,-0.24959439039230347,-0.06496461480855942,0.015362444333732128
1789549002705731000,5.72773095703125,-0.20550495386123657,-0.07665376365184784,-0.031183484941720963
1789549002715699200,5.73769921875,-0.19946303963661194,-0.08985638618469238,-0.03576225787401199
1789549002725667300,5.747667236328125,-0.13926415145397186,-0.11867018789052963,-0.06471587717533112
1789549002735636200,5.75763623046875,-0.11116620153188705,-0.12083560973405838,-0.051180630922317505
1789549002745604400,5.767604248046875,-0.060857489705085754,-0.12066250294446945,-0.029700104147195816
1789549002755573200,5.7775732421875,0.04447079449892044,-0.09901100397109985,-0.04434642568230629
1789549002765541400,5.787541259765625,0.08570931106805801,-0.10057827085256577,-0.041362885385751724
1789549002775509000,5.797509033203125,0.10262038558721542,-0.09119755029678345,-0.012021508999168873
1789549002785478100,5.80747802734375,0.1846044659614563,-0.11456439644098282,0.011470234952867031
1789549002795446300,5.8174462890625,0.22557400166988373,-0.08474045246839523,-0.028071582317352295
1789549002805414100,5.8274140625,0.17277683317661285,-0.044855888932943344,-0.031191475689411163
1789549002815383300,5.83738330078125,0.26352325081825256,-0.09414274245500565,0.009094960987567902
1789549002825351200,5.84735107421875,0.3730851709842682,-0.07679730653762817,-0.032654084265232086
1789549002835320300,5.8573203125,0.3629901707172394,-0.04500848799943924,-0.018703380599617958
1789549002845288200,5.8672880859375,0.38404911756515503,-0.059068646281957626,0.0454857274889946
1789549002855256300,5.87725634765625,0.45154720544815063,-0.09437070786952972,0.03608796373009682
1789549002865225200,5.88722509765625,0.4489849805831909,-0.08766620606184006,-0.007151652593165636
1789549002875193000,5.897193115234375,0.43655040860176086,-0.09925708174705505,-0.014770956709980965
1789549002885162200,5.907162353515625,0.47758015990257263,-0.13519030809402466,-0.001597363967448473
1789549002895130000,5.917130126953125,0.5228453874588013,-0.1275196075439453,-0.04579811543226242
1789549002905098200,5.92709814453125,0.5465214252471924,-0.14914341270923615,0.0063196811825037
1789549002915067100,5.937067138671875,0.5836671590805054,-0.12255068123340607,-0.0095082838088274
1789549002925035300,5.94703515625,0.6170168519020081,-0.081357441842556,-0.04638933762907982
1789549002935003400,5.95700341796875,0.645713746547699,-0.05703612044453621,-0.047748345881700516
1789549002944972300,5.96697216796875,0.6520414352416992,-0.0421152301132679,-0.0244294423609972
1789549002954940400,5.9769404296875,0.6529812812805176,-0.01894253119826317,-0.019844012334942818
1789549002964909300,5.986909423828125,0.674921989440918,-0.024271517992019653,-0.0018426411552354693
1789549002974877200,5.996877197265625,0.6781367063522339,0.0046967510133981705,-0.00926353968679905
1789549002984845000,6.006844970703125,0.6637886166572571,-0.003952663857489824,0.03038373775780201
1789549002994814200,6.016814208984375,0.6328014135360718,-0.022713568061590195,0.10031595081090927
1789549003004782000,6.026781982421875,0.6315478682518005,0.00008655273268232122,0.05133216455578804
1789549003014750200,6.036750244140625,0.5744031071662903,0.025848375633358955,0.024142621085047722
1789549003024719400,6.04671923828125,0.5507997870445251,-0.005109807010740042,0.06822618842124939
1789549003034687200,6.056687255859375,0.5151922106742859,0.04447585344314575,0.03298378363251686
1789549003044656400,6.066656494140625,0.49384060502052307,0.04671797156333923,0.0092334458604455
1789549003054624300,6.076624267578125,0.4137577712535858,0.09945201873779297,0.030641797930002213
1789549003064592100,6.086592041015625,0.38047730922698975,0.09021484851837158,0.06871727854013443
1789549003074561000,6.09656103515625,0.31560564041137695,0.12992417812347412,0.03852475434541702
1789549003084529200,6.106529052734375,0.3045670986175537,0.12961845099925995,-0.005175587255507708
1789549003094498000,6.116498046875,0.273056298494339,0.09869381785392761,0.020063189789652824
1789549003104466200,6.126466064453125,0.2546304166316986,0.08219287544488907,0.03305196017026901
1789549003114434300,6.136434326171875,0.22030360996723175,0.12183801829814911,-0.03290628269314766
1789549003124403200,6.1464033203125,0.15638241171836853,0.1376822292804718,-0.02599378302693367
1789549003134371300,6.156371337890625,0.13115055859088898,0.11121892929077148,0.002413090318441391
1789549003144339200,6.166339111328125,0.10122648626565933,0.10661033540964127,0.014195714145898819
1789549003154308400,6.176308349609375,0.08214174211025238,0.15434882044792175,-0.006068544927984476
1789549003164276200,6.186276123046875,0.10651072859764099,0.1701488345861435,-0.029800772666931152
1789549003174245000,6.1962451171875,0.10189414024353027,0.17722751200199127,0.014690529555082321
1789549003184213200,6.206213134765625,0.09043721854686737,0.17140743136405945,0.018914835527539253
1789549003194181000,6.21618115234375,-0.0019345202017575502,0.1896599382162094,0.01618349738419056
1789549003204150300,6.226150390625,-0.009443568997085094,0.16793493926525116,0.05700256675481796
1789549003214118100,6.2361181640625,-0.06023271381855011,0.20650017261505127,0.00688959751278162
1789549003224086300,6.246086181640625,-0.07719118893146515,0.18509076535701752,-0.010578608140349388
1789549003234055200,6.25605517578125,-0.07937657833099365,0.1381075382232666,0.003084473079070449
1789549003244023300,6.266023193359375,-0.07731928676366806,0.11541101336479187,0.015184545889496803
1789549003253992200,6.2759921875,-0.09923230856657028,0.1487380713224411,0.029920082539319992
1789549003263960000,6.2859599609375,-0.11570928990840912,0.18430805206298828,-0.04289020970463753
1789549003273928200,6.29592822265625,-0.16039793193340302,0.1464994251728058,0.0037116475868970156
1789549003283897000,6.30589697265625,-0.18179962038993835,0.11332682520151138,0.07069920003414154
1789549003293865200,6.315865234375,-0.14936818182468414,0.11655111610889435,0.0016676714876666665
1789549003303833300,6.325833251953125,-0.18996913731098175,0.10796748101711273,0.000358461489668116
1789549003313802200,6.33580224609375,-0.2511208951473236,0.11634871363639832,0.0640687346458435
1789549003323770400,6.345770263671875,-0.19270579516887665,0.012285960838198662,0.12413632869720459
1789549003333739300,6.3557392578125,-0.217204749584198,0.11295904219150543,-0.04409342631697655
1789549003343707400,6.365707275390625,-0.25990134477615356,0.13557353615760803,-0.12367373704910278
1789549003353675000,6.375675048828125,-0.28944912552833557,0.0005731122801080346,-0.044264134019613266
1789549003363644200,6.38564404296875,-0.2702881991863251,0.00529729388654232,-0.04325719177722931
1789549003373612300,6.3956123046875,-0.2716647982597351,0.0520395003259182,-0.1301119327545166
1789549003383580200,6.405580078125,-0.296852171421051,0.016699617728590965,-0.06072619929909706
1789549003393549300,6.41554931640625,-0.24329280853271484,0.009866212494671345,-0.0890345349907875
1789549003403517200,6.42551708984375,-0.2105385959148407,0.0028961875941604376,-0.05537644028663635
1789549003413486300,6.435486328125,-0.22769281268119812,0.0001893507578643039,0.015064436942338943
1789549003423454200,6.4454541015625,-0.18540634214878082,-0.02183392643928528,0.012356001883745193
1789549003433422300,6.45542236328125,-0.14374971389770508,-0.04091174528002739,-0.006050701718777418
1789549003443391200,6.46539111328125,-0.1672784686088562,-0.017551297321915627,0.0005182511522434652
1789549003453359000,6.475359130859375,-0.12325642257928848,-0.04719254747033119,-0.009812949225306511
1789549003463327200,6.4853271484375,-0.11453031003475189,-0.0336407832801342,-0.003943875432014465
1789549003473296100,6.495296142578125,-0.061043914407491684,-0.013046027161180973,-0.024206535890698433
1789549003483264300,6.50526416015625,-0.016978982836008072,-0.012860405258834362,-0.009223592467606068
1789549003493233200,6.515233154296875,0.013452159240841866,-0.0024501082953065634,-0.04031147062778473
1789549003503201300,6.525201171875,0.05933602899312973,-0.017482588067650795,-0.05845052748918533
1789549003513169400,6.53516943359375,0.036969736218452454,-0.026440395042300224,-0.012491823174059391
1789549003523138000,6.545137939453125,0.046853259205818176,-0.028715800493955612,-0.026015887036919594
1789549003533106200,6.555106201171875,0.04189019277691841,-0.02413809299468994,-0.020309265702962875
1789549003543074000,6.565073974609375,0.05704038217663765,-0.015894010663032532,-0.03332386910915375
1789549003553043200,6.575043212890625,0.06915563344955444,-0.038968704640865326,0.006120210513472557
1789549003563011000,6.585010986328125,0.07880426943302155,-0.031494010239839554,0.05000617355108261
1789549003572980200,6.594980224609375,0.09454861283302307,-0.023723971098661423,0.03506824001669884
1789549003582948000,6.604947998046875,0.0868600606918335,0.016101738438010216,0.0019236012594774365
1789549003592916000,6.614916015625,0.08460330218076706,-0.004793690051883459,0.018993664532899857
1789549003602885000,6.624885009765625,0.09811005741357803,0.0005637911963276565,0.03407035395503044
1789549003612853000,6.63485302734375,0.13636529445648193,-0.036376118659973145,0.003748931922018528
1789549003622821000,6.644821044921875,0.11484136432409286,-0.031068170443177223,0.001612277701497078
1789549003632790000,6.6547900390625,0.14957325160503387,-0.04971295967698097,-0.004799815360456705
1789549003642758100,6.664758056640625,0.12453127652406693,-0.04147180914878845,0.015668176114559174
1789549003652727000,6.67472705078125,0.1206718236207962,-0.0442846417427063,0.02472159080207348
1789549003662695200,6.684695068359375,0.13954591751098633,-0.05191299691796303,0.054368965327739716
1789549003672663000,6.6946630859375,0.21562443673610687,-0.03659289702773094,0.02099902555346489
1789549003682632000,6.7046318359375,0.22424881160259247,0.0026059031952172518,0.001085770782083273
1789549003692600000,6.71460009765625,0.22528691589832306,0.009840913116931915,0.03370390087366104
1789549003702568000,6.72456787109375,0.2474697083234787,0.006301837973296642,0.009349559433758259
1789549003712537000,6.734537109375,0.22210843861103058,0.05018407478928566,-0.039510924369096756
1789549003722505200,6.744505126953125,0.2069992572069168,0.027546672150492668,-0.0014034858904778957
1789549003732474000,6.75447412109375,0.2262171506881714,-0.01483380701392889,0.007870174013078213
1789549003742442200,6.764442138671875,0.20014560222625732,-0.028802087530493736,0.09650523215532303
1789549003752410000,6.77441015625,0.20081432163715363,0.032276712357997894,0.01991591788828373
1789549003762379300,6.784379150390625,0.2321232557296753,0.008702411316335201,-0.012576245702803135
1789549003772347000,6.794346923828125,0.19498999416828156,-0.023059247061610222,0.034098315984010696
1789549003782315000,6.80431494140625,0.1957647055387497,0.002858637133613229,0.017361946403980255
1789549003792284000,6.814283935546875,0.18428941071033478,0.0018109495285898447,-0.011969044804573059
1789549003802252000,6.824251953125,0.16913816332817078,0.026344522833824158,-0.004911668132990599
1789549003812221000,6.834220947265625,0.18725857138633728,0.03286820277571678,-0.021633390337228775
1789549003822189000,6.84418896484375,0.17009450495243073,0.041485127061605453,0.011835088022053242
1789549003832157200,6.8541572265625,0.23947569727897644,-0.0049348375760018826,0.000993891735561192
1789549003842126000,6.8641259765625,0.21144220232963562,0.038296256214380264,-0.03346448391675949
1789549003852094200,6.87409423828125,0.18496133387088776,0.017493773251771927,-0.03978496417403221
1789549003862062000,6.88406201171875,0.20129555463790894,-0.01576458103954792,0.005792108830064535
1789549003872031000,6.894031005859375,0.21849532425403595,-0.028117654845118523,0.020126307383179665
1789549003881999000,6.9039990234375,0.1980145424604416,0.044313933700323105,0.00649651512503624
1789549003891968000,6.913968017578125,0.22866752743721008,0.04574298858642578,0.044262804090976715
1789549003901936000,6.92393603515625,0.2627179026603699,0.10758425295352936,0.004273840691894293
1789549003911904000,6.933904052734375,0.27683746814727783,0.13165895640850067,-0.011754393577575684
1789549003921873200,6.943873046875,0.2715955674648285,0.12263936549425125,-0.028565598651766777
1789549003931841000,6.953841064453125,0.26962295174598694,0.09954763203859329,-0.08272843807935715
1789549003941809000,6.963808837890625,0.15379248559474945,0.10740341991186142,-0.06924857944250107
1789549003951778000,6.973778076171875,0.18844367563724518,0.0433698445558548,-0.058407384902238846
1789549003961746000,6.983745849609375,0.14505279064178467,0.06449483335018158,-0.047079626470804214
1789549003971714000,6.993714111328125,0.1184411570429802,0.10173062235116959,-0.03978070244193077
1789549003981683000,7.003682861328125,0.11361311376094818,0.13885055482387543,-0.04637175798416138
1789549003991651000,7.013651123046875,0.15189765393733978,0.12113840878009796,-0.021255221217870712
1789549004001620000,7.023619873046875,0.09177759289741516,0.14394359290599823,0.027269437909126282
1789549004011588000,7.033588134765625,0.07138310372829437,0.13197827339172363,0.0244267787784338
1789549004021556200,7.04355615234375,0.05410531163215637,0.09694865345954895,0.017792312428355217
1789549004031525000,7.053525146484375,0.07695923000574112,0.08929232507944107,-0.03280694782733917
1789549004041493000,7.063492919921875,0.027909129858016968,0.10054951161146164,-0.04902719706296921
1789549004051460900,7.0734609375,0.0052964948117733,0.08884625136852264,-0.0419386625289917
1789549004061430000,7.083429931640625,0.020604610443115234,0.06759395450353622,-0.019412580877542496
1789549004071398100,7.093398193359375,0.0031531827989965677,0.10555944591760635,-0.02028609625995159
1789549004081367000,7.103366943359375,0.007189203519374132,0.11743634939193726,-0.009455819614231586
1789549004091335200,7.113335205078125,0.013361877761781216,0.12532728910446167,-0.025783127173781395
1789549004101303000,7.123302978515625,-0.01065024733543396,0.13033562898635864,-0.005405418109148741
1789549004111272200,7.133272216796875,-0.025743979960680008,0.11807417869567871,-0.02352902851998806
1789549004121240000,7.143239990234375,-0.05519374832510948,0.1200968474149704,-0.026207102462649345
1789549004131208000,7.1532080078125,-0.055572181940078735,0.09222633391618729,-0.03338006138801575
1789549004141176800,7.1631767578125,-0.05861138179898262,0.09169423580169678,0.0030780816450715065
1789549004151145000,7.17314501953125,-0.007325024344027042,0.09101006388664246,-0.017429057508707047
1789549004161113900,7.18311376953125,-0.0382499173283577,0.1194683387875557,0.03560326620936394
1789549004171082000,7.19308203125,-0.05704677477478981,0.13006240129470825,0.07462257146835327
1789549004181049000,7.203049072265625,-0.017791779711842537,0.13317909836769104,0.03191665560007095
1789549004191018000,7.21301806640625,-0.05796157196164131,0.1196768656373024,0.04913958162069321
1789549004200986000,7.222986083984375,-0.04875076189637184,0.0890800729393959,0.08983827382326126
1789549004210954000,7.2329541015625,-0.005289570428431034,0.13179264962673187,-0.062067899852991104
1789549004220923000,7.2429228515625,-0.08619720488786697,0.14451643824577332,-0.05193297192454338
1789549004230891000,7.25289111328125,-0.15125688910484314,0.053344182670116425,0.11741025000810623
1789549004240860000,7.26285986328125,-0.13961675763130188,0.08340993523597717,0.0497228167951107
1789549004250828000,7.272828125,-0.18617039918899536,0.16503342986106873,-0.047149136662483215
1789549004260796200,7.282796142578125,-0.15330113470554352,0.1351700723171234,-0.025959694758057594
1789549004270765000,7.29276513671875,-0.16461478173732758,0.07273119688034058,0.0644540935754776
1789549004280733200,7.302733154296875,-0.21852248907089233,0.1112426370382309,0.07209416478872299
1789549004290702000,7.3127021484375,-0.25070279836654663,0.15025022625923157,0.016562199220061302
1789549004300670200,7.322670166015625,-0.2717830538749695,0.12645114958286285,0.0526467002928257
1789549004310637800,7.332637939453125,-0.24023523926734924,0.09415366500616074,0.05482010543346405
1789549004320607000,7.34260693359375,-0.2775250971317291,0.13470055162906647,0.02990330383181572
1789549004330575000,7.3525751953125,-0.2738318145275116,0.12796223163604736,-0.04969591647386551
1789549004340543000,7.36254296875,-0.27573996782302856,0.06863711774349213,0.025585254654288292
1789549004350512000,7.37251220703125,-0.2503507137298584,0.10017773509025574,-0.07918083667755127
1789549004360480000,7.38247998046875,-0.3326447904109955,0.11364134401082993,-0.06833804398775101
1789549004370449200,7.39244921875,-0.3497691750526428,0.03973010182380676,0.008058459497988224
1789549004380417000,7.4024169921875,-0.3434862494468689,0.017123060300946236,-0.016084427013993263
1789549004390385200,7.41238525390625,-0.31695106625556946,0.059729110449552536,-0.10436955094337463
1789549004400354000,7.42235400390625,-0.36777055263519287,0.03363625705242157,-0.04150243476033211
1789549004410322000,7.432322021484375,-0.329203724861145,-0.038299184292554855,0.05884147807955742
1789549004420290000,7.4422900390625,-0.30138593912124634,0.009531985968351364,-0.008638495579361916
1789549004430259000,7.452259033203125,-0.2915724515914917,0.06692869961261749,-0.06865256279706955
1789549004440227000,7.46222705078125,-0.30184346437454224,0.0013752563390880823,0.0466841496527195
1789549004450196000,7.472196044921875,-0.3090960681438446,0.0026043052785098553,0.0812959223985672
1789549004460164000,7.4821640625,-0.2523941695690155,-0.008268848992884159,-0.021976139396429062
1789549004470132200,7.49213232421875,-0.32356715202331543,0.013289440423250198,-0.02365446276962757
1789549004480101000,7.50210107421875,-0.2998189330101013,-0.07607372850179672,0.08209273964166641
1789549004490069200,7.5120693359375,-0.30292871594429016,-0.07094740867614746,0.02466779574751854
1789549004500036900,7.522036865234375,-0.31336110830307007,-0.051964130252599716,-0.030524885281920433
1789549004510006000,7.532006103515625,-0.2799043655395508,-0.06340213865041733,-0.050747066736221313
1789549004519974000,7.541973876953125,-0.22871387004852295,-0.10374530404806137,-0.04141109064221382
1789549004529944000,7.551944091796875,-0.2475927472114563,-0.08724994957447052,-0.046555519104003906
1789549004539912000,7.561911865234375,-0.19304801523685455,-0.08338011056184769,-0.0888180211186409
1789549004549880000,7.571880126953125,-0.16828301548957825,-0.08650825917720795,-0.07942158728837967
1789549004559849000,7.581848876953125,-0.174538254737854,-0.11203572154045105,0.009563677944242954
1789549004569816800,7.59181689453125,-0.10775655508041382,-0.11627308279275894,-0.021804098039865494
1789549004579785700,7.60178564453125,-0.08471861481666565,-0.1000797301530838,-0.07169096171855927
1789549004589753900,7.61175390625,-0.08529465645551682,-0.16989849507808685,0.009400160051882267
1789549004599722000,7.621721923828125,-0.008883772417902946,-0.21855151653289795,0.024577781558036804
1789549004609691000,7.63169091796875,-0.0101389205083251,-0.15197302401065826,-0.048593368381261826
1789549004619659000,7.641658935546875,0.012733371928334236,-0.18727028369903564,-0.003656253917142749
1789549004629627000,7.651626953125,0.06010222062468529,-0.1901872456073761,0.008675780147314072
1789549004639596000,7.661595947265625,0.12579654157161713,-0.15881973505020142,-0.04015514254570007
1789549004649564000,7.67156396484375,0.1502677947282791,-0.1274746060371399,-0.050041064620018005
1789549004659533000,7.681532958984375,0.18301722407341003,-0.17454597353935242,0.018187260255217552
1789549004669501000,7.6915009765625,0.21897070109844208,-0.15880802273750305,0.0313938744366169
1789549004679468800,7.70146875,0.25209856033325195,-0.13183926045894623,-0.028443358838558197
1789549004689438000,7.71143798828125,0.2512010633945465,-0.13897493481636047,-0.03177870064973831
1789549004699405800,7.72140576171875,0.247685968875885,-0.1777963638305664,0.10054098814725876
1789549004709374000,7.7313740234375,0.3144681751728058,-0.14694631099700928,-0.009249158203601837
1789549004719342800,7.7413427734375,0.2675664722919464,-0.09240929037332535,-0.062011171132326126
1789549004729311000,7.75131103515625,0.2994823157787323,-0.1312730610370636,0.02809581719338894
1789549004739280000,7.76127978515625,0.32468512654304504,-0.10214128345251083,0.03766881674528122
1789549004749248000,7.771248046875,0.33286502957344055,-0.08963161706924438,0.06348896026611328
1789549004759215900,7.7812158203125,0.34753134846687317,-0.06506981700658798,0.06905656307935715
1789549004769184800,7.791184814453125,0.3719187080860138,-0.05840818211436272,0.023722905665636063
1789549004779153000,7.80115283203125,0.32762181758880615,-0.08748804032802582,0.10347792506217957
1789549004789121800,7.811121826171875,0.3558686375617981,-0.11909309774637222,0.09385645389556885
1789549004799090000,7.82108984375,0.3218728303909302,-0.10577090084552765,0.029532592743635178
1789549004809058000,7.83105810546875,0.2871851623058319,-0.059662796556949615,-0.028127508237957954
1789549004819027000,7.84102685546875,0.27873310446739197,-0.08988301455974579,0.0250393059104681
1789549004828995000,7.8509951171875,0.2968465983867645,-0.057325609028339386,-0.044626858085393906
1789549004838963000,7.860962890625,0.27238863706588745,-0.032874058932065964,-0.05517963320016861
1789549004848932000,7.87093212890625,0.2715710699558258,-0.023668577894568443,-0.02660391293466091
1789549004858899700,7.880899658203125,0.28707996010780334,-0.04674859717488289,-0.002162486780434847
1789549004868868900,7.890868896484375,0.26106250286102295,-0.013192234560847282,-0.03383839130401611
1789549004878837000,7.9008369140625,0.2374064326286316,0.008755408227443695,-0.06763177365064621
1789549004888804900,7.910804931640625,0.24836400151252747,-0.04387211799621582,-0.024747690185904503
1789549004898774000,7.92077392578125,0.24517513811588287,-0.030538201332092285,-0.010106164030730724
1789549004908742000,7.930741943359375,0.23560799658298492,-0.01720934733748436,-0.010872354730963707
1789549004918710000,7.9407099609375,0.22526560723781586,0.0020298613235354424,0.0052205948159098625
1789549004928679000,7.950678955078125,0.2132965624332428,0.028191957622766495,0.014392787590622902
1789549004938647000,7.96064697265625,0.19329942762851715,0.04003716632723808,0.047693219035863876
1789549004948616000,7.970615966796875,0.18860507011413574,0.03813566640019417,0.04945942759513855
1789549004958583800,7.980583740234375,0.15901894867420197,0.08276785165071487,0.0009486179915256798
1789549004968552000,7.990552001953125,0.1455894261598587,0.0298516396433115,0.01552436500787735
1789549004978520800,8.000520751953125,0.10635387152433395,0.050767041742801666,0.009923204779624939
1789549004988489000,8.010489013671876,0.12917742133140564,0.033363018184900284,-0.05408560484647751
1789549004998457900,8.020457763671875,0.07147684693336487,0.05794479325413704,-0.09721816331148148
1789549005008426000,8.030426025390625,0.03765123710036278,0.010814297944307327,0.010148507542908192
1789549005018394000,8.04039404296875,0.07320204377174377,0.00047830372932367027,-0.006915962789207697
1789549005028363000,8.050363037109374,0.03209135681390762,0.044499821960926056,-0.03946831449866295
1789549005038331100,8.0603310546875,0.010332532227039337,0.029320338740944862,0.003418167121708393
1789549005048298800,8.070298828125,0.02858344092965126,0.05423474311828613,-0.017916416749358177
1789549005058268000,8.080267822265625,0.0556827038526535,-0.009417736902832985,0.06321172416210175
1789549005068235800,8.09023583984375,0.039384424686431885,0.06127001345157623,-0.00609304616227746
1789549005078205000,8.100204833984375,0.02448776550590992,0.05373646691441536,-0.05979595705866814
1789549005088172800,8.1101728515625,-0.023150593042373657,0.07058628648519516,0.012277971021831036
1789549005098141000,8.120140869140625,0.033954769372940063,0.003925499506294727,0.018192851915955544
1789549005108109800,8.13010986328125,0.022250710055232048,0.059725381433963776,-0.03302053362131119
1789549005118078000,8.140077880859375,0.004092745948582888,0.08873119950294495,-0.015588547103106976
1789549005128046000,8.150046142578125,0.019210180267691612,0.07266221940517426,-0.03479047119617462
1789549005138015000,8.160014892578126,0.03881024569272995,0.03524240851402283,-0.014223943464457989
1789549005147982800,8.16998291015625,0.004275172483175993,0.0661260262131691,-0.01811162568628788
1789549005157951700,8.17995166015625,-0.016561133787035942,0.07807376235723495,-0.022177740931510925
1789549005167919900,8.189919921875,0.04090429097414017,0.00803049560636282,0.002326537622138858
1789549005177888000,8.199887939453125,-0.019756127148866653,0.04524417594075203,0.016350211575627327
1789549005187857000,8.20985693359375,-0.02913018874824047,0.04559837654232979,-0.02382943220436573
1789549005197825000,8.219824951171875,-0.024478711187839508,0.039446476846933365,-0.026617228984832764
1789549005207793000,8.22979296875,0.0019885823130607605,0.04258447885513306,-0.007487210910767317
1789549005217762000,8.239761962890626,0.037278130650520325,0.06642696261405945,-0.05501265078783035
1789549005227730000,8.24972998046875,0.01877075806260109,0.054308246821165085,-0.05174761638045311
1789549005237699000,8.259698974609375,0.09862644225358963,0.01673370599746704,-0.016620788723230362
1789549005247667000,8.2696669921875,0.10912834852933884,0.029930468648672104,-0.03676147758960724
1789549005257634800,8.279634765625,0.06744828075170517,0.08317770808935165,-0.0709569975733757
1789549005267604000,8.28960400390625,0.10789477825164795,0.042505647987127304,-0.02093803882598877
1789549005277571800,8.29957177734375,0.13000114262104034,0.09064068645238876,-0.0141139542683959
1789549005287541000,8.309541015625,0.1566665768623352,0.1021154522895813,-0.03823074325919151
1789549005297508900,8.3195087890625,0.15929777920246124,0.040777791291475296,0.07484414428472519
1789549005307477000,8.32947705078125,0.14916445314884186,0.04728495702147484,0.11949284374713898
1789549005317446000,8.33944580078125,0.1585736721754074,0.10802313685417175,0.0032019184436649084
1789549005327414000,8.3494140625,0.17418910562992096,0.11263919621706009,-0.033846382051706314
1789549005337382000,8.3593818359375,0.16319264471530914,0.02913365140557289,0.04460129141807556
1789549005347350800,8.369350830078124,0.11080853641033173,0.0210709311068058,0.04302709549665451
1789549005357319000,8.37931884765625,0.10533947497606277,0.06124285236001015,-0.023141538724303246
1789549005367287000,8.389287109375,0.1328190267086029,0.08174439519643784,-0.035422973334789276
1789549005377256000,8.399255859375,0.09821178764104843,0.08609414100646973,0.017957162111997604
1789549005387224000,8.40922412109375,0.077957384288311,0.11023436486721039,-0.012425776571035385
1789549005397193000,8.41919287109375,0.07984796166419983,0.09441038966178894,-0.006856308318674564
1789549005407161000,8.4291611328125,0.09662187844514847,0.06389988958835602,0.012896889820694923
1789549005417129000,8.43912890625,0.1004810705780983,0.06720487028360367,0.030589867383241653
1789549005427098000,8.44909814453125,0.08509358763694763,0.1021260991692543,-0.049252767115831375
1789549005437065700,8.459065673828125,0.019749736413359642,0.11578811705112457,0.005342567339539528
1789549005447033900,8.469033935546875,0.012268916703760624,0.10783085972070694,0.042099516838788986
1789549005457002800,8.479002685546876,-0.014459366910159588,0.15053518116474152,0.020355870947241783
1789549005466971000,8.488970947265624,-0.02154657058417797,0.12939873337745667,0.010291785933077335
1789549005476940000,8.49893994140625,-0.04241004213690758,0.12548121809959412,-0.03208762779831886
1789549005486908000,8.508907958984375,-0.059299275279045105,0.08545311540365219,-0.02233166992664337
1789549005496876000,8.5188759765625,-0.13557301461696625,0.12146304547786713,-0.014123275876045227
1789549005506845000,8.528844970703124,-0.18372003734111786,0.10734802484512329,0.029755499213933945
1789549005516813000,8.53881298828125,-0.17157228291034698,0.10543081909418106,-0.03345942124724388
1789549005526779600,8.548779541015625,-0.20884881913661957,0.1645876169204712,-0.028688902035355568
1789549005536748500,8.55874853515625,-0.1996995359659195,0.11195023357868195,0.049665823578834534
1789549005546716700,8.568716552734376,-0.1939886510372162,0.12692439556121826,-0.021433120593428612
1789549005556685600,8.578685546875,-0.2493525743484497,0.12066277116537094,-0.01407533884048462
1789549005566653700,8.58865380859375,-0.29913344979286194,0.0930793434381485,0.044319529086351395
1789549005576621800,8.598621826171875,-0.26858991384506226,0.08899245411157608,-0.008530903607606888
1789549005586590700,8.6085908203125,-0.2756955027580261,0.1176035925745964,-0.03183675929903984
1789549005596558600,8.61855859375,-0.30967795848846436,0.04837419092655182,0.10085497796535492
1789549005606526700,8.628526611328125,-0.3006516993045807,0.08156996220350266,-0.022481074556708336
1789549005616495600,8.63849560546875,-0.3258657157421112,0.08927875012159348,-0.007158044259995222
1789549005626463700,8.648463623046876,-0.32727107405662537,0.05639350041747093,-0.07996673882007599
1789549005636432600,8.6584326171875,-0.3610077202320099,0.02099556289613247,0.08146769553422928
1789549005646400800,8.66840087890625,-0.268906831741333,0.08367811888456345,-0.18451657891273499
1789549005656368600,8.67836865234375,-0.35013216733932495,0.047140613198280334,-0.08669601380825043
1789549005666337800,8.688337890625,-0.39381495118141174,-0.06626344472169876,0.0872638002038002
1789549005676305700,8.6983056640625,-0.2531430423259735,-0.03723764792084694,-0.04460102319717407
1789549005686273500,8.7082734375,-0.29945889115333557,0.056480586528778076,-0.16652587056159973
1789549005696242700,8.71824267578125,-0.3263735771179199,0.010069678537547588,-0.03560539707541466
1789549005706210600,8.72821044921875,-0.28448793292045593,-0.025184182450175285,0.031074829399585724
1789549005716178700,8.7381787109375,-0.25916817784309387,0.004779841285198927,-0.04414775222539902
1789549005726147600,8.748147705078125,-0.288114070892334,0.0184027086943388,-0.031015174463391304
1789549005736115700,8.75811572265625,-0.22999697923660278,-0.07228325307369232,0.04173945635557175
1789549005746084600,8.768084716796874,-0.18062837421894073,-0.07171972841024399,-0.011876899749040604
1789549005756052700,8.778052734375,-0.18731635808944702,-0.07194902747869492,-0.06486687809228897
1789549005766020900,8.788020751953125,-0.1920943409204483,-0.10017134249210358,-0.0015094797126948833
1789549005775989800,8.79798974609375,-0.12575845420360565,-0.13486087322235107,0.07153437286615372
1789549005785957600,8.80795751953125,-0.034217093139886856,-0.10608462244272232,-0.06401626765727997
1789549005795925500,8.817925537109375,-0.01786208711564541,-0.09045399725437164,-0.05200354754924774
1789549005805894700,8.827894775390625,0.0529329888522625,-0.13167546689510345,-0.01101456768810749
1789549005815862500,8.837862548828125,0.09281808882951736,-0.10678769648075104,-0.021825935691595078
1789549005825831700,8.847831787109374,0.1100628525018692,-0.07878375798463821,-0.033842384815216064
1789549005835799800,8.8577998046875,0.128811776638031,-0.11114542931318283,-0.006776147056370974
1789549005845767700,8.867767578125,0.16544701159000397,-0.10888414084911346,0.020083431154489517
1789549005855736800,8.87773681640625,0.21818746626377106,-0.11638812720775604,-0.030763238668441772
1789549005865704700,8.88770458984375,0.2168545424938202,-0.13934670388698578,-0.002231995342299342
1789549005875672600,8.897672607421875,0.21829478442668915,-0.10819917172193527,0.01504206657409668
1789549005885641500,8.907641357421875,0.26242947578430176,-0.10575225949287415,0.02454262785613537
1789549005895609600,8.917609619140626,0.3029702603816986,-0.11542965471744537,0.024468325078487396
1789549005905578500,8.92757861328125,0.2864067256450653,-0.0485353097319603,0.0029523803386837244
1789549005915546600,8.937546630859375,0.3253464102745056,0.005219263024628162,-0.1282953917980194
1789549005925514800,8.9475146484375,0.2902637720108032,-0.09116905927658081,0.051053065806627274
1789549005935483600,8.957483642578126,0.2837209403514862,-0.09901552647352219,0.06527114659547806
1789549005945451800,8.96745166015625,0.24793976545333862,-0.05330609902739525,-0.011500595137476921
1789549005955420000,8.977419921875,0.24254658818244934,-0.05356389284133911,-0.03339790552854538
1789549005965388800,8.987388916015625,0.2180633544921875,-0.0920654758810997,0.11211109161376953
1789549005975356700,8.997356689453126,0.23791348934173584,-0.016644757241010666,0.0003283677506260574
1789549005985324500,9.007324462890624,0.18628466129302979,0.081788070499897,-0.07888522744178772
1789549005995293700,9.017293701171875,0.15834756195545197,0.03405783697962761,0.033413615077733994
1789549006005261600,9.027261474609375,0.17576836049556732,0.004543619230389595,0.03838254138827324
1789549006015229700,9.037229736328126,0.14176885783672333,0.031617049127817154,-0.04755020886659622
1789549006025198600,9.047198486328124,0.08868486434221268,0.013817811384797096,0.00872158631682396
1789549006035166700,9.057166748046875,0.09716596454381943,0.00939217023551464,0.03801502659916878
1789549006045135600,9.067135498046875,0.07173650711774826,0.028569858521223068,-0.000978978001512587
1789549006055103700,9.077103759765626,0.009218265302479267,0.05745343863964081,0.03274143487215042
1789549006065071600,9.087071533203124,0.05061550810933113,0.04633074626326561,-0.007523430045694113
1789549006075040500,9.09704052734375,0.04224439337849617,0.035651471465826035,0.023015037178993225
1789549006085008600,9.107008544921875,-0.000401604687795043,0.050336141139268875,0.051311392337083817
1789549006094976800,9.116976806640626,-0.032215725630521774,0.06623734533786774,0.04435308277606964
1789549006104945700,9.126945556640624,-0.012354670092463493,0.07630196213722229,-0.017528394237160683
1789549006114913800,9.136913818359375,-0.03902942314743996,0.03473854064941406,0.008166849613189697
1789549006124881700,9.146881591796875,-0.07319165766239166,0.052813947200775146,-0.013085974380373955
1789549006134850800,9.156850830078126,-0.06992954760789871,0.018544388934969902,-0.010089385323226452
1789549006144818700,9.166818603515624,-0.06807785481214523,0.020670924335718155,-0.01552303321659565
1789549006154787800,9.176787841796875,-0.06740274280309677,0.036968670785427094,0.0033771544694900513
1789549006164755500,9.18675537109375,-0.05606992542743683,0.05299637094140053,-0.0227990560233593
1789549006174723600,9.1967236328125,-0.05217558518052101,0.03321787342429161,-0.013468137942254543
1789549006184692700,9.206692626953124,-0.06264154613018036,0.030781880021095276,0.02364913746714592
1789549006194660600,9.21666064453125,-0.033295903354883194,0.014390923082828522,-0.0007374293054454029
1789549006204628700,9.226628662109375,-0.07544442266225815,0.05378067493438721,-0.032227709889411926
1789549006214597600,9.23659765625,-0.04248860478401184,0.04469024017453194,-0.04860641807317734
1789549006224565800,9.246565673828124,-0.009752229787409306,0.033188845962285995,-0.04572487622499466
1789549006234534000,9.256533935546875,-0.06744907796382904,0.05567790940403938,0.03707066923379898
1789549006244502800,9.266502685546875,-0.057794056832790375,0.06278375536203384,0.03177204355597496
1789549006254470700,9.276470703125,-0.09085720032453537,0.06789196282625198,0.01167423278093338
1789549006264439600,9.286439453125,-0.10825030505657196,0.04896780848503113,0.019236013293266296
1789549006274407700,9.29640771484375,-0.11873304098844528,0.03702086955308914,0.035482361912727356
1789549006284375600,9.30637548828125,-0.09219250828027725,0.022588932886719704,0.027879567816853523
1789549006294344700,9.3163447265625,-0.09804640710353851,0.0680253878235817,-0.0266617052257061
1789549006304312800,9.326312744140624,-0.11796125769615173,0.07438208907842636,-0.042693935334682465
1789549006314280700,9.33628076171875,-0.16067463159561157,0.052029646933078766,0.03635268285870552
1789549006324249900,9.346249755859375,-0.12038367241621017,0.012051336467266083,0.011326690204441547
1789549006334217700,9.3562177734375,-0.13056066632270813,0.0763632133603096,-0.06386073678731918
1789549006344185600,9.366185546875,-0.1111704632639885,0.05591360107064247,-0.07111412286758423
1789549006354154500,9.376154541015625,-0.13093164563179016,0.039201997220516205,0.021646972745656967
1789549006364122600,9.38612255859375,-0.07711449265480042,0.0486823171377182,-0.08215159177780151
1789549006374091500,9.396091552734376,-0.1393730789422989,0.13081473112106323,-0.11029481887817383
1789549006384059600,9.4060595703125,-0.12307612597942352,0.02299399860203266,0.05464566871523857
1789549006394027800,9.41602783203125,-0.08754982054233551,0.06856468319892883,0.025106685236096382
1789549006403996700,9.42599658203125,-0.06283222883939743,0.13964338600635529,-0.10537435859441757
1789549006413964800,9.43596484375,-0.11194464564323425,0.11481686681509018,0.009914948605000973
1789549006423932700,9.4459326171875,-0.0537513792514801,0.017485782504081726,0.1012864038348198
1789549006433901800,9.45590185546875,-0.08315054327249527,0.06947095692157745,0.008700813166797161
1789549006443869700,9.46586962890625,-0.12400663644075394,0.0782732367515564,-0.04061853140592575
1789549006453837600,9.475837646484376,-0.11260377615690231,0.0604843832552433,0.005135905928909779
1789549006463806700,9.485806640625,-0.1303902268409729,0.045464687049388885,0.05029645934700966
1789549006473774600,9.495774658203125,-0.13660231232643127,0.03407301381230354,0.07777176052331924
1789549006483742700,9.50574267578125,-0.11245730519294739,0.06927414238452911,-0.03296993300318718
1789549006493711600,9.515711669921876,-0.13198572397232056,0.03416569158434868,-0.03822195529937744
1789549006503679700,9.5256796875,-0.1754370629787445,-0.013517673127353191,0.044025782495737076
1789549006513648600,9.535648681640625,-0.2068794071674347,0.014591459184885025,0.032100412994623184
1789549006523617500,9.545617431640625,-0.12772467732429504,0.013741911388933659,-0.016892964020371437
1789549006533585700,9.555585693359374,-0.16861404478549957,0.012735236436128616,0.021894380450248718
1789549006543554600,9.565554443359375,-0.20484448969364166,0.017249826341867447,0.004539357963949442
1789549006553522400,9.5755224609375,-0.19072547554969788,0.04541994631290436,-0.07633019238710403
1789549006563490300,9.585490234375,-0.2370186746120453,-0.05854133889079094,0.13694213330745697
1789549006573459500,9.59545947265625,-0.14671114087104797,-0.030550451949238777,0.07994356751441956
1789549006583427300,9.60542724609375,-0.1510787308216095,0.12053333967924118,-0.12801681458950043
1789549006593395500,9.6153955078125,-0.17888052761554718,0.06065748631954193,-0.02497192844748497
1789549006603364400,9.6253642578125,0.23193976283073425,0.18672408163547516,-0.1898261308670044
1789549006613332500,9.63533251953125,-0.12569613754749298,0.3303488790988922,-0.22623367607593536
1789549006623300400,9.64530029296875,0.19680893421173096,0.007710650097578764,-0.041437722742557526
1789549006633269500,9.65526953125,0.05024372786283493,-0.02437005378305912,0.06222342699766159
1789549006643237400,9.6652373046875,-0.06298482418060303,0.07892677187919617,-0.03181438893079758
1789549006653206300,9.675206298828124,-0.0773664265871048,0.015969378873705864,-0.04825035482645035
1789549006663174400,9.68517431640625,-0.1350153386592865,0.006452572997659445,0.007457117084413767
1789549006673142500,9.695142578125,-0.2703220248222351,0.08073639124631882,-0.008268049918115139
1789549006683111400,9.705111328125,-0.2564011514186859,0.021988922730088234,-0.015260978601872921
1789549006693079600,9.71507958984375,-0.198356494307518,-0.01991352066397667,-0.007548197638243437
1789549006703047400,9.72504736328125,-0.26317623257637024,-0.0023694143164902925,0.05604063346982002
1789549006713016600,9.7350166015625,-0.28766587376594543,0.05505792424082756,0.021337512880563736
1789549006722984200,9.744984130859375,-0.2514894902706146,0.024600151926279068,-0.005030711181461811
1789549006732952300,9.754952392578126,-0.28850024938583374,0.028556011617183685,0.0008852347382344306
1789549006742921500,9.76492138671875,-0.2517526149749756,-0.01703677326440811,0.004464257042855024
1789549006752889300,9.774889404296875,-0.23193016648292542,0.022784408181905746,-0.135258749127388
1789549006762857500,9.784857421875,-0.26216158270835876,-0.024747690185904503,-0.11666829138994217
1789549006772826400,9.794826416015624,-0.2727905213832855,-0.0680064782500267,-0.020309265702962875
1789549006782794500,9.80479443359375,-0.16814400255680084,-0.07676428556442261,-0.07596480846405029
1789549006792763400,9.814763427734375,-0.2809600234031677,-0.04279433563351631,-0.050930291414260864
1789549006802731500,9.8247314453125,-0.27585023641586304,-0.09080580621957779,-0.00634924229234457
1789549006812699400,9.834699462890624,-0.24930410087108612,-0.13753442466259003,0.043781835585832596
1789549006822668300,9.844668212890625,-0.22153106331825256,-0.0868009403347969,-0.08772079646587372
1789549006832636400,9.854636474609375,-0.28224900364875793,-0.1621529459953308,0.08557375520467758
1789549006842604300,9.864604248046875,-0.13564811646938324,-0.14083515107631683,-0.009966081008315086
1789549006852573400,9.874573486328124,-0.0694565698504448,-0.10891024023294449,-0.06662003695964813
1789549006862541300,9.884541259765625,-0.06740806996822357,-0.11452657729387283,-0.023085344582796097
1789549006872509400,9.894509521484375,-0.04677203297615051,-0.2074197679758072,0.136807382106781
1789549006882478600,9.904478515625,0.023981764912605286,-0.1579779088497162,0.057382598519325256
1789549006892446500,9.914446533203124,0.04063690826296806,-0.10568728297948837,-0.052508216351270676
1789549006902414300,9.924414306640625,0.07411417365074158,-0.08293935656547546,-0.05853255093097687
1789549006912383200,9.93438330078125,0.1229589432477951,-0.13341957330703735,0.06536808609962463
1789549006922351400,9.944351318359375,0.25515133142471313,-0.058280084282159805,-0.1381181925535202
1789549006932319500,9.954319580078124,0.30506908893585205,-0.13177932798862457,-0.033906299620866776
1789549006942288400,9.964288330078125,0.27687501907348633,-0.15463325381278992,0.10397353768348694
1789549006952256500,9.974256591796875,0.29030346870422363,-0.1576106697320938,0.06726985424757004
1789549006962225400,9.984225341796876,0.26518774032592773,-0.0922899842262268,-0.021557489410042763
1789549006972193500,9.994193603515624,0.2381553053855896,-0.13126987218856812,0.02762443758547306
1789549006982161400,10.004161376953125,0.33277982473373413,-0.1764858216047287,0.04902826249599457
1789549006992130600,10.014130615234375,0.3036682605743408,-0.11649785190820694,-0.005064267199486494
1789549007002098400,10.024098388671876,0.30191218852996826,-0.08833891898393631,-0.047333694994449615
1789549007012066300,10.03406640625,0.34442901611328125,-0.12121031433343887,-0.0017739315517246723
1789549007022035500,10.044035400390625,0.3640493154525757,-0.1345982849597931,0.011388476006686687
1789549007032003300,10.05400341796875,0.3590167462825775,-0.08645952492952347,-0.052746303379535675
1789549007041971500,10.063971435546875,0.31964483857154846,-0.09363221377134323,-0.05825691297650337
1789549007051940400,10.0739404296875,0.32406356930732727,-0.09739606082439423,-0.0019283948931843042
1789549007061908500,10.083908447265625,0.37124812602996826,-0.07749665528535843,-0.01341594010591507
1789549007071876600,10.093876708984375,0.36621394753456116,-0.03255181759595871,-0.037267476320266724
1789549007081845500,10.103845458984376,0.3349446952342987,-0.040943440049886703,0.007239270955324173
1789549007091813400,10.1138134765625,0.30392101407051086,-0.06349535286426544,0.035103924572467804
1789549007101781200,10.12378125,0.23418426513671875,-0.02237534709274769,0.04761545732617378
1789549007111750400,10.13375048828125,0.20765812695026398,-0.01245187595486641,0.038245923817157745
1789549007121718500,10.143718505859376,0.17957349121570587,0.04601090028882027,-0.03485545143485069
1789549007131686400,10.153686279296876,0.09203272312879562,0.06694574654102325,-0.058948270976543427
1789549007141655600,10.163655517578125,0.06857319921255112,-0.03796788677573204,0.019898872822523117
1789549007151623400,10.17362353515625,0.01353604905307293,-0.015676964074373245,0.034808315336704254
1789549007161592600,10.183592529296876,-0.0243197213858366,0.04737790301442146,-0.006108492612838745
1789549007171560400,10.193560546875,-0.05203230679035187,0.04346012696623802,-0.006595318205654621
1789549007181528300,10.2035283203125,-0.14441123604774475,0.05741509050130844,0.01449718326330185
1789549007191497200,10.213497314453125,-0.1929233819246292,-0.01347825862467289,0.03623230755329132
1789549007201465300,10.22346533203125,-0.20307348668575287,-0.05967558175325394,0.03025723807513714
1789549007211433500,10.23343359375,-0.2544908821582794,-0.0349675714969635,0.02117852121591568
1789549007221402400,10.24340234375,-0.25618332624435425,-0.024039555341005325,0.04270671680569649
1789549007231370500,10.25337060546875,-0.21801435947418213,-0.03773752599954605,0.021348698064684868
1789549007241338400,10.26333837890625,-0.19638362526893616,-0.018880214542150497,0.028852686285972595
1789549007251307500,10.2733076171875,-0.15379860997200012,-0.047999218106269836,0.026790335774421692
1789549007261275600,10.283275634765625,-0.1399214118719101,-0.0035183019936084747,-0.04814276099205017
1789549007271243300,10.2932431640625,-0.16034546494483948,-0.0018761969404295087,-0.0035478631034493446
1789549007281212400,10.30321240234375,-0.11464376002550125,-0.031677503138780594,0.006708769127726555
1789549007291180300,10.31318017578125,-0.05591972544789314,0.019710320979356766,-0.03789491951465607
1789549007301148400,10.3231484375,-0.03111823834478855,-0.03178749233484268,-0.025904834270477295
1789549007311117300,10.333117431640625,0.00869282428175211,-0.05391276627779007,-0.006454437039792538
1789549007321085400,10.34308544921875,-0.040581781417131424,0.0012796488590538502,-0.025793513283133507
1789549007331053600,10.353053466796876,-0.05988996475934982,0.038716770708560944,-0.004554005339741707
1789549007341022500,10.3630224609375,-0.01239035651087761,-0.010860104113817215,-0.0022620889358222485
1789549007350990600,10.372990478515625,0.041130393743515015,-0.08233135938644409,0.038723960518836975
1789549007360958500,10.38295849609375,0.0205092690885067,-0.01830071024596691,-0.03334810212254524
1789549007370927400,10.39292724609375,0.0602542869746685,-0.05282992497086525,-0.009779393672943115
1789549007380895500,10.4028955078125,0.08412020653486252,0.002359294332563877,0.006710633169859648
1789549007390863400,10.41286328125,0.07488595694303513,-0.011681423522531986,-0.009492305107414722
1789549007400832500,10.42283251953125,0.08531356602907181,-0.02912779152393341,-0.012205533683300018
1789549007410800400,10.43280029296875,0.14359551668167114,-0.0974663719534874,-0.019406987354159355
1789549007420769500,10.44276953125,0.07054420560598373,-0.009311210364103317,-0.0494178831577301
1789549007430737400,10.4527373046875,0.08046767860651016,-0.047937698662281036,0.0006886934279464185
1789549007440705500,10.46270556640625,0.10097002238035202,-0.057857174426317215,0.011408449150621891
1789549007450674400,10.47267431640625,-0.004756671842187643,0.0017323862994089723,-0.04568492993712425
1789549007460642300,10.482642333984375,-0.011795938946306705,0.003285009181126952,0.013413543812930584
1789549007470610400,10.4926103515625,0.11169590801000595,-0.009017463773488998,0.00250470289029181
1789549007480579300,10.502579345703126,0.05240035802125931,0.03214408829808235,-0.028969068080186844
1789549007490547500,10.51254736328125,-0.04532087594270706,0.010100305080413818,-0.005013933405280113
1789549007500515600,10.522515625,-0.018365956842899323,-0.04839229956269264,0.03668664023280144
1789549007510484500,10.532484375,-0.08652769774198532,-0.012204734608530998,0.058027882128953934
1789549007520452600,10.54245263671875,-0.02870967611670494,0.009487777948379517,0.0005241101025603712
1789549007530420700,10.552420654296874,-0.059670254588127136,0.05044080317020416,-0.025528263300657272
1789549007540390000,10.562389892578125,-0.0722970962524414,-0.0022338596172630787,-0.013129384256899357
1789549007550357500,10.572357421875,-0.15670838952064514,-0.006923153530806303,0.003689809702336788
1789549007560325600,10.58232568359375,-0.19548161327838898,-0.014603443443775177,-0.011169830337166786
1789549007570294500,10.59229443359375,-0.27467283606529236,0.000045540054998127744,-0.05180567502975464
1789549007580262700,10.6022626953125,-0.359985888004303,-0.03612604737281799,-0.0120702451094985
1789549007590230800,10.612230712890625,-0.36988112330436707,-0.08759748935699463,0.04087233170866966
1789549007600199700,10.62219970703125,-0.3439674973487854,-0.09113416820764542,-0.0036615801509469748
1789549007610167800,10.632167724609374,-0.335294634103775,-0.10509046912193298,-0.06941662728786469
1789549007620135700,10.6421357421875,-0.37633049488067627,-0.10930385440587997,0.0222706850618124
1789549007630104800,10.652104736328125,-0.2993190586566925,-0.185203418135643,0.05885825678706169
1789549007640072700,10.66207275390625,-0.27518150210380554,-0.1666765958070755,0.04164065420627594
1789549007650040600,10.67204052734375,-0.26433923840522766,-0.13532879948616028,0.05650508776307106
1789549007660009700,10.682009765625,-0.1972382366657257,-0.10646279156208038,0.03033127449452877
1789549007669977600,10.6919775390625,-0.07128988951444626,-0.09484794735908508,0.014038586989045143
1789549007679945700,10.70194580078125,-0.037692517042160034,-0.08417213708162308,0.04890202730894089
1789549007689914600,10.71191455078125,0.054136473685503006,-0.04079483449459076,-0.051531899720430374
1789549007699882800,10.7218828125,0.1381607949733734,-0.11402430385351181,-0.0038866172544658184
1789549007709851000,10.731850830078125,0.15265291929244995,-0.11388155817985535,0.0465022549033165
1789549007719819800,10.74181982421875,0.17984353005886078,-0.10724762827157974,0.07438874989748001
1789549007729787600,10.75178759765625,0.233883336186409,-0.05805584788322449,-0.010976751334965229
1789549007739755500,10.761755615234375,0.2300577014684677,-0.0328008234500885,-0.007345530670136213
1789549007749724700,10.771724609375,0.22319872677326202,0.03699690103530884,-0.0041734399273991585
1789549007759692500,10.781692626953125,0.3710387945175171,-0.03130039945244789,-0.030128341168165207
1789549007769661700,10.79166162109375,0.6037260890007019,-0.11840254068374634,0.0067844027653336525
1789549007779630600,10.801630615234375,0.7782425284385681,-0.16140061616897583,0.009696036577224731
1789549007789598700,10.8115986328125,0.8361194133758545,-0.08620918542146683,0.009726130403578281
1789549007799566800,10.82156689453125,0.7633154988288879,0.012924853712320328,0.027063841000199318
1789549007809535700,10.83153564453125,0.7013525366783142,-0.030537934973835945,0.04296610876917839
1789549007819503900,10.84150390625,0.648768961429596,-0.020179569721221924,0.039803870022296906
1789549007829471500,10.851471435546875,0.5007719993591309,0.07452323287725449,-0.04003210365772247
1789549007839440600,10.861440673828126,0.3852187991142273,0.023007314652204514,0.03983236849308014
1789549007849408500,10.871408447265624,0.3538920283317566,0.009771936573088169,-0.04813503846526146
1789549007859376600,10.881376708984375,0.24650059640407562,0.006645385641604662,-0.011148258112370968
1789549007869345800,10.891345703125,0.25902676582336426,-0.014116884209215641,-0.010702977888286114
1789549007879313700,10.901313720703126,0.23878754675388336,0.018259432166814804,0.004351871553808451
1789549007889282800,10.91128271484375,0.20797982811927795,0.03683338314294815,0.005468002520501614
1789549007899250700,10.921250732421875,0.16337162256240845,0.04958033561706543,-0.01720588468015194
1789549007909218800,10.93121875,0.19472740590572357,0.006166016682982445,-0.05957997217774391
1789549007919187700,10.941187744140626,0.14148469269275665,0.05793360620737076,0.00884781964123249
1789549007929155600,10.951155517578124,0.12764877080917358,0.07901252806186676,-0.022885873913764954
1789549007939123700,10.961123779296875,0.1944187432527542,0.08455882966518402,-0.10200679302215576
1789549007949092600,10.971092529296875,0.13096946477890015,0.07553417235612869,-0.07153650373220444
1789549007959060700,10.981060791015626,0.1337471455335617,0.07290855795145035,-0.03407621011137962
1789549007969028600,10.991028564453124,0.17287403345108032,0.04489263892173767,-0.04080761596560478
1789549007978997800,11.000997802734375,0.07801251113414764,0.0710078626871109,-0.03105964884161949
1789549007988965600,11.010965576171875,0.02754933573305607,0.053043510764837265,0.04923998564481735
1789549007998933800,11.020933837890626,-0.03490632027387619,0.11601075530052185,-0.002377403900027275
1789549008008903000,11.03090283203125,-0.0867154523730278,0.1370428055524826,-0.024153273552656174
1789549008018870500,11.04087060546875,-0.08508932590484619,0.11307169497013092,-0.054499994963407516
1789549008028838700,11.050838623046875,-0.09278532862663269,0.09687142074108124,-0.06487220525741577
1789549008038807600,11.0608076171875,-0.15452592074871063,0.08330154418945312,-0.05164055898785591
1789549008048775700,11.070775634765624,-0.1675703525543213,0.13764148950576782,-0.04146701470017433
1789549008058743800,11.080743896484375,-0.13784122467041016,0.1780586838722229,-0.10288803279399872
1789549008068712700,11.090712646484375,-0.1282157599925995,0.12193282693624496,-0.05742547661066055
1789549008078680800,11.100680908203126,-0.12212670594453812,0.05710083618760109,0.0175800584256649
1789549008088648700,11.110648681640624,-0.058282479643821716,0.10475091636180878,-0.0652754083275795
1789549008098617900,11.120617919921875,-0.03399205580353737,0.1525954008102417,-0.1061200425028801
1789549008108585500,11.13058544921875,-0.026271019130945206,0.11268527060747147,-0.005561479367315769
1789549008118553600,11.1405537109375,0.07014340162277222,0.0968431904911995,-0.005964948330074549
1789549008128522800,11.150522705078124,0.07764951884746552,0.1113148033618927,-0.003172091208398342
1789549008138490600,11.16049072265625,0.07048934698104858,0.10986311733722687,0.008816128596663475
1789549008148458800,11.170458740234375,0.023127423599362373,0.09491506218910217,-0.015992548316717148
1789549008158427600,11.180427734375,-0.08735274523496628,0.07638584822416306,0.04345719516277313
1789549008168395800,11.190395751953124,-0.11512898653745651,0.07173517346382141,0.056358080357313156
1789549008178363600,11.20036376953125,-0.13365259766578674,0.09693879634141922,0.027363181114196777
1789549008188331500,11.21033154296875,-0.10910704731941223,0.11508477479219437,0.038483209908008575
1789549008198299600,11.220299560546875,-0.08149538934230804,0.13882499933242798,0.008606270886957645
1789549008208267800,11.230267822265626,-0.15027232468128204,0.14959721267223358,0.037884797900915146
1789549008218236700,11.240236572265625,-0.18442124128341675,0.13005414605140686,0.036249350756406784
1789549008228204800,11.250204833984375,-0.2055283933877945,0.15076127648353577,0.0261213481426239
1789549008238173700,11.260173583984376,-0.2813006341457367,0.1380356401205063,0.010596451349556446
1789549008248141800,11.270141845703124,-0.3397365212440491,0.0949249118566513,-0.0032349417451769114
1789549008258109700,11.280109619140624,-0.4167229235172272,0.05505765974521637,0.03831383213400841
1789549008268078600,11.29007861328125,-0.4652702212333679,0.07545188069343567,0.028172248974442482
1789549008278046700,11.300046630859375,-0.5022599101066589,0.06834949553012848,0.03195047751069069
1789549008288014600,11.3100146484375,-0.49601107835769653,0.049131594598293304,0.008462460711598396
1789549008297983700,11.319983642578125,-0.4743601083755493,0.05631626769900322,-0.041664354503154755
1789549008307951600,11.32995166015625,-0.538489043712616,0.0305792149156332,0.02448616735637188
1789549008317919700,11.339919677734375,-0.6058667302131653,0.044956024736166,0.06902407854795456
1789549008327888600,11.349888671875,-0.6113813519477844,0.03467195853590965,0.015560317784547806
1789549008337856800,11.359856689453125,-0.5897367596626282,0.03026868961751461,0.002323341788724065
1789549008347824600,11.36982470703125,-0.5822176337242126,-0.012298477813601494,0.03597104921936989
1789549008357793500,11.37979345703125,-0.5592156052589417,0.02280917577445507,0.017908159643411636
1789549008367761700,11.38976171875,-0.5320274233818054,0.003692739177495241,-0.03208576515316963
1789549008377729500,11.3997294921875,-0.5326471328735352,0.00455746753141284,0.02768781967461109
1789549008387698700,11.40969873046875,-0.49570563435554504,-0.08398810774087906,0.09205722063779831
1789549008397666800,11.419666748046875,-0.4820409417152405,-0.05759618431329727,0.038127146661281586
1789549008407634700,11.429634765625,-0.472621351480484,-0.06076481193304062,0.03560326620936394
1789549008417603800,11.439603759765625,-0.43649423122406006,-0.0870659276843071,0.05094707012176514
1789549008427571700,11.44957177734375,-0.40182065963745117,-0.08484324812889099,0.06619872897863388
1789549008437539600,11.45953955078125,-0.36711248755455017,-0.12809032201766968,0.06233261525630951
1789549008447508500,11.469508544921876,-0.29140254855155945,-0.1002323254942894,-0.017956629395484924
1789549008457476600,11.4794765625,-0.2934683561325073,-0.12365003675222397,-0.07935953885316849
1789549008467444700,11.48944482421875,-0.3549666106700897,-0.17706532776355743,0.01383991539478302
1789549008477413600,11.49941357421875,-0.31093069911003113,-0.2929067015647888,0.05657592788338661
1789549008487381800,11.5093818359375,-0.2963608205318451,-0.17352145910263062,-0.03664562851190567
1789549008497349600,11.519349609375,-0.24271570146083832,-0.1467561572790146,-0.029576268047094345
1789549008507318800,11.52931884765625,-0.11511273682117462,-0.21515464782714844,0.013488911092281342
1789549008517286700,11.53928662109375,-0.022167352959513664,-0.18797363340854645,-0.02141953818500042
1789549008527256000,11.549256103515624,0.012485697865486145,-0.16761323809623718,-0.01011175662279129
1789549008537224000,11.559223876953125,0.1279454529285431,-0.18698373436927795,-0.010460097342729568
1789549008547191800,11.56919189453125,0.14534281194210052,-0.20560163259506226,0.05592132359743118
1789549008557161000,11.579160888671876,0.16337135434150696,-0.20041325688362122,0.01696939580142498
1789549008567128800,11.58912890625,0.22947819530963898,-0.2368311882019043,-0.006679474376142025
1789549008577097000,11.599096923828125,0.2384147047996521,-0.2178652137517929,-0.038352448493242264
1789549008587065900,11.60906591796875,0.2795408368110657,-0.21295754611492157,0.003242398612201214
1789549008597034000,11.619033935546875,0.33702942728996277,-0.22424934804439545,-0.0013480921043083072
1789549008607002000,11.629002197265624,0.3728864789009094,-0.24109837412834167,0.014172011986374855
1789549008616971000,11.638970947265625,0.42982593178749084,-0.21959680318832397,0.009015865623950958
1789549008626939000,11.64893896484375,0.4795841872692108,-0.16785424947738647,0.017354222014546394
1789549008636906800,11.65890673828125,0.5348644852638245,-0.1949860006570816,-0.023744743317365646
1789549008646876000,11.6688759765625,0.49712082743644714,-0.20830820500850677,-0.04132826626300812
1789549008656843800,11.67884375,0.506737232208252,-0.17667090892791748,-0.015544870868325233
1789549008666812000,11.68881201171875,0.5366940498352051,-0.14781422913074493,-0.04688042402267456
1789549008676781000,11.698781005859376,0.47468823194503784,-0.18945728242397308,0.000330231967382133
1789549008686749000,11.7087490234375,0.4784342348575592,-0.21752886474132538,0.028669727966189384
1789549008696717000,11.718717041015625,0.519888699054718,-0.14648105204105377,0.014586132951080799
1789549008706686000,11.72868603515625,0.554326593875885,-0.09574943035840988,-0.021938854828476906
1789549008716653800,11.73865380859375,0.4895438551902771,-0.12057089060544968,-0.020146546885371208
1789549008726622000,11.7486220703125,0.4853006601333618,-0.14300349354743958,0.0021856562234461308
1789549008736590800,11.7585908203125,0.5025113224983215,-0.13614985346794128,0.014609036035835743
1789549008746559000,11.76855908203125,0.4680130183696747,-0.09429081529378891,0.039748210459947586
1789549008756526800,11.77852685546875,0.43710437417030334,-0.0505870096385479,0.02069808728992939
1789549008766496000,11.78849609375,0.45211127400398254,-0.07677414268255234,0.01309289876371622
1789549008776464000,11.7984638671875,0.46165046095848083,-0.037817154079675674,0.016402941197156906
1789549008786433000,11.80843310546875,0.4074511229991913,-0.0195529293268919,0.0748518705368042
1789549008796401000,11.81840087890625,0.3618506193161011,-0.00484189298003912,0.004230697639286518
1789549008806368800,11.82836865234375,0.3023894131183624,-0.04716191813349724,0.03467702120542526
1789549008816338000,11.838337890625,0.2787453532218933,-0.04054156690835953,0.055086422711610794
1789549008826305800,11.848305908203125,0.2018071562051773,0.05890459567308426,-0.01991032436490059
1789549008836274000,11.85827392578125,0.1697344332933426,0.017230385914444923,0.01564766839146614
1789549008846242800,11.868242919921874,0.11090148240327835,-0.02371704764664173,0.04482686147093773
1789549008856211000,11.8782109375,0.13633067905902863,0.00896553136408329,-0.06705813109874725
1789549008866179000,11.888178955078125,-0.0023374564480036497,0.06082287058234215,-0.0174423735588789
1789549008876148000,11.89814794921875,0.036857884377241135,-0.03187137842178345,0.012119246646761894
1789549008886116000,11.9081162109375,0.03870318830013275,-0.08672717213630676,0.02955016866326332
1789549008896083700,11.918083740234374,0.008685899898409843,0.01811322383582592,-0.026098711416125298
1789549008906052900,11.928052978515625,0.007420632056891918,0.058345064520835876,-0.007948470301926136
1789549008916021000,11.93802099609375,0.05633677542209625,-0.015415973961353302,0.05049460008740425
1789549008925988900,11.94798876953125,0.004040015395730734,-0.003337473375722766,0.08449464291334152
1789549008935958000,11.9579580078125,0.05812269076704979,-0.014698252081871033,0.046421028673648834
1789549008945926000,11.96792578125,0.04981203004717827,0.02474289759993553,0.05254017189145088
1789549008955894000,11.97789404296875,0.0339377261698246,0.053110089153051376,0.008349009789526463
1789549008965863000,11.98786279296875,0.023606792092323303,0.042031873017549515,-0.06516435742378235
1789549008975831000,11.9978310546875,0.06578540802001953,-0.03321361169219017,-0.03188256546854973
1789549008985799000,12.007798828125,0.07231254875659943,-0.004580104257911444,-0.003213636577129364
1789549008995767800,12.017767822265625,0.12931564450263977,0.02550695836544037,-0.04135116934776306
1789549009005736000,12.02773583984375,0.12143215537071228,0.03664003685116768,-0.10678370296955109
1789549009015703800,12.037703857421874,0.12891164422035217,-0.007896006107330322,-0.041360221803188324
1789549009025673000,12.0476728515625,0.1318829357624054,-0.01932096667587757,0.02069808728992939
1789549009035640800,12.057640869140625,0.14391456544399261,0.05293751507997513,-0.011286210268735886
1789549009045609000,12.06760888671875,0.15090855956077576,0.02081127278506756,-0.048229046165943146
1789549009055578000,12.077578125,0.16154202818870544,-0.025075258687138557,0.004536694847047329
1789549009065546000,12.0875458984375,0.16149622201919556,0.01991378702223301,-0.030191192403435707
1789549009075513900,12.097513916015625,0.22086367011070251,0.04736458510160446,-0.025436384603381157
1789549009085482800,12.107482666015626,0.2188681662082672,0.028423385694622993,0.01673583686351776
