time,seconds_elapsed,z,y,x
1789548997041201700,0.06320166015625,-0.004489200189709663,-0.06786853075027466,-0.10520560294389725
1789548997051170600,0.073170654296875,-0.07337404787540436,-0.045927949249744415,-0.06501707434654236
1789548997061138700,0.083138671875,-0.05641237273812294,-0.052242837846279144,-0.09043561667203903
1789548997071106600,0.0931064453125,0.05943380296230316,-0.0876157358288765,-0.16433009505271912
1789548997081075700,0.10307568359375,0.07405617088079453,-0.08847300708293915,-0.07576034963130951
1789548997091043600,0.113043701171875,0.02872731164097786,-0.07484401762485504,-0.007857464253902435
1789548997101011700,0.12301171875,0.055035434663295746,-0.07113814353942871,-0.09373091906309128
1789548997110980900,0.13298095703125,0.07374733686447144,-0.07111656665802002,-0.10657054930925369
1789548997120948700,0.14294873046875,-0.033091288059949875,-0.05434858798980713,0.006180776748806238
1789548997130916600,0.15291650390625,-0.029557542875409126,-0.06672056764364243,-0.0577462762594223
1789548997140884700,0.162884765625,-0.03386567905545235,-0.0828951969742775,-0.06477836519479752
1789548997150853600,0.172853515625,-0.1129133552312851,-0.09284556657075882,0.04967178404331207
1789548997160821800,0.18282177734375,-0.09146557003259659,-0.08451545983552933,-0.007776140235364437
1789548997170789600,0.19278955078125,-0.04224156588315964,-0.0731072723865509,-0.12331605702638626
1789548997180758800,0.2027587890625,-0.18290381133556366,-0.08094721287488937,0.03332551568746567
1789548997190726700,0.2127265625,-0.17786350846290588,-0.12222141772508621,0.141536682844162
1789548997200694800,0.22269482421875,-0.007326004095375538,-0.12833154201507568,0.06140058487653732
1789548997210663700,0.23266357421875,-0.03836940973997116,-0.04848943278193474,-0.07113189250230789
1789548997220631600,0.242631591796875,-0.2515624165534973,-0.01834931969642639,0.01849113218486309
1789548997230599700,0.252599609375,-0.22204500436782837,-0.11836619675159454,0.042950935661792755
1789548997240567800,0.26256787109375,-0.10784108936786652,-0.1452726274728775,0.04859022796154022
1789548997250536700,0.27253662109375,-0.15866059064865112,-0.07672818750143051,0.02775551937520504
1789548997260504800,0.2825048828125,-0.18479502201080322,-0.06866727024316788,-0.001827550120651722
1789548997270472700,0.29247265625,-0.10609834641218185,-0.13756723701953888,0.010808350518345833
1789548997280441900,0.30244189453125,-0.12363980710506439,-0.13486672937870026,0.00437153410166502
1789548997290409500,0.312409423828125,-0.17642764747142792,-0.08963772654533386,0.042704273015260696
1789548997300377600,0.322377685546875,-0.04560484364628792,-0.11975313723087311,0.030127178877592087
1789548997310346500,0.332346435546875,-0.10950819402933121,-0.11428406834602356,0.055505771189928055
1789548997320314600,0.342314697265625,-0.1513422429561615,-0.12015761435031891,0.1001615896821022
1789548997330282800,0.35228271484375,-0.07562510669231415,-0.15457257628440857,0.05649426952004433
1789548997340251600,0.362251708984375,-0.030556967481970787,-0.13285183906555176,-0.04546990990638733
1789548997350219800,0.3722197265625,-0.15985263884067535,-0.10578054189682007,0.0922839567065239
1789548997360187600,0.382187744140625,-0.1480436474084854,-0.1157594844698906,0.13487645983695984
1789548997370155500,0.392155517578125,0.013838455080986023,-0.18218138813972473,-0.05478721857070923
1789548997380124700,0.402124755859375,-0.015530800446867943,-0.17479301989078522,-0.13683661818504333
1789548997390092500,0.412092529296875,-0.1500374674797058,-0.14656831324100494,0.019104234874248505
1789548997400060700,0.422060791015625,0.05747663229703903,-0.18535035848617554,-0.001900124829262495
1789548997410029600,0.432029541015625,0.2040652632713318,-0.17352619767189026,-0.032787468284368515
1789548997419997700,0.441997802734375,0.15385247766971588,-0.1604374200105667,-0.09729126840829849
1789548997429965800,0.4519658203125,0.21770256757736206,-0.21180367469787598,0.018891800194978714
1789548997439934700,0.461934814453125,0.36649903655052185,-0.20798635482788086,-0.062233418226242065
1789548997449902800,0.47190283203125,0.3480161726474762,-0.13243725895881653,-0.03474373370409012
1789548997459870500,0.481870361328125,0.33310413360595703,-0.14403405785560608,-0.04132034257054329
1789548997469839600,0.491839599609375,0.4412370026111603,-0.23455889523029327,-0.06906195729970932
1789548997479807500,0.501807373046875,0.4262252449989319,-0.2175748646259308,-0.008662725798785686
1789548997489775600,0.511775634765625,0.36473819613456726,-0.14118129014968872,-0.015365635976195335
1789548997499744800,0.521744873046875,0.5008655190467834,-0.1377202719449997,-0.08928460627794266
1789548997509712600,0.531712646484375,0.5380110144615173,-0.15407687425613403,-0.14265355467796326
1789548997519680800,0.5416806640625,0.48749518394470215,-0.1433929204940796,-0.04467100277543068
1789548997529649700,0.551649658203125,0.5478969812393188,-0.15769116580486298,-0.004076705779880285
1789548997539617800,0.56161767578125,0.6623244881629944,-0.13526125252246857,0.01423201896250248
1789548997549586000,0.5715859375,0.6957021355628967,-0.08598371595144272,-0.09146804362535477
1789548997559554800,0.581554931640625,0.6538127660751343,-0.05513957515358925,-0.09744091331958771
1789548997569523000,0.59152294921875,0.644183874130249,-0.11574114114046097,-0.061813678592443466
1789548997579490800,0.60149072265625,0.6377769112586975,-0.10901569575071335,-0.0694800615310669
1789548997589458700,0.611458740234375,0.6084360480308533,-0.08880336582660675,-0.07898381352424622
1789548997599427600,0.621427490234375,0.5945857167243958,-0.08281518518924713,-0.017883582040667534
1789548997609395700,0.631395751953125,0.6238192319869995,-0.08094777166843414,-0.03952416032552719
1789548997619363800,0.64136376953125,0.6447865962982178,-0.07481347024440765,0.007197414059191942
1789548997629332700,0.651332763671875,0.6450971364974976,-0.058744486421346664,-0.018691707402467728
1789548997639300900,0.66130078125,0.6397475600242615,-0.0464416928589344,-0.024740079417824745
1789548997649269000,0.67126904296875,0.6272581219673157,-0.03841492533683777,-0.0737779289484024
1789548997659238000,0.68123779296875,0.6197707056999207,-0.029242457821965218,-0.038094572722911835
1789548997669206000,0.6912060546875,0.5888702869415283,-0.0030055271927267313,-0.05388392135500908
1789548997679173600,0.701173583984375,0.5784911513328552,-0.016105076298117638,-0.03973328694701195
1789548997689142800,0.711142822265625,0.5661711096763611,-0.00937473401427269,-0.04900987446308136
1789548997699110700,0.721110595703125,0.5952132940292358,0.00028749241027981043,-0.13634583353996277
1789548997709078800,0.731078857421875,0.5396818518638611,-0.02289319410920143,-0.02681560441851616
1789548997719047700,0.741047607421875,0.5575668811798096,-0.011457627639174461,0.05122486501932144
1789548997729015800,0.751015869140625,0.6798693537712097,0.010142739862203598,0.010550140403211117
1789548997738984000,0.76098388671875,0.7112712264060974,0.03275570273399353,-0.05803091824054718
1789548997748952800,0.770952880859375,0.6706409454345703,0.09077399969100952,-0.09351461380720139
1789548997758921000,0.7809208984375,0.6179694533348083,0.0646982416510582,-0.043010760098695755
1789548997768888800,0.790888916015625,0.7198832631111145,0.03393447399139404,0.0445244163274765
1789548997778857700,0.800857666015625,0.7588576078414917,0.030673911795020103,0.03330644965171814
1789548997788825900,0.810825927734375,0.7433942556381226,0.08194801211357117,-0.006074779666960239
1789548997798793700,0.820793701171875,0.6496509909629822,0.08047875761985779,-0.06226508319377899
1789548997808763000,0.830762939453125,0.5710618495941162,0.06197755038738251,0.018357861787080765
1789548997818730800,0.840730712890625,0.6035272479057312,0.03193892911076546,0.06492122262716293
1789548997828699000,0.850698974609375,0.6400924324989319,0.0771988183259964,0.05413249507546425
1789548997838667800,0.860667724609375,0.5643473267555237,0.08935786783695221,0.01623798906803131
1789548997848636000,0.870635986328125,0.5160123109817505,0.10787669569253922,-0.015754563733935356
1789548997858603800,0.880603759765625,0.5415745377540588,0.0830996111035347,-0.0274103581905365
1789548997868572700,0.89057275390625,0.5587979555130005,0.09121878445148468,0.03084016591310501
1789548997878540800,0.900540771484375,0.5143516063690186,0.10075481981039047,0.09178680926561356
1789548997888508700,0.9105087890625,0.4759720265865326,0.12895503640174866,0.04950220137834549
1789548997898477800,0.920477783203125,0.43168750405311584,0.12758180499076843,0.038789235055446625
1789548997908446000,0.930446044921875,0.3296620547771454,0.15528880059719086,-0.013355189934372902
1789548997918413800,0.940413818359375,0.21687938272953033,0.13533440232276917,0.03960976004600525
1789548997928383000,0.950383056640625,0.12079600244760513,0.12097170203924179,0.1587049961090088
1789548997938350800,0.960350830078125,0.13363543152809143,0.1286998987197876,0.1263142228126526
1789548997948318700,0.970318603515625,0.130455881357193,0.14985524117946625,0.05471673980355263
1789548997958287600,0.98028759765625,0.02437765710055828,0.18760794401168823,0.017038868740200996
1789548997968255700,0.990255859375,-0.012551155872642994,0.18287499248981476,0.003346225945279002
1789548997978223900,1.000223876953125,-0.0019500862108543515,0.13760949671268463,0.08626800775527954
1789548997988192800,1.01019287109375,-0.01979619450867176,0.17172539234161377,0.09650466591119766
1789548997998161000,1.020160888671875,-0.03768354281783104,0.17431259155273438,0.09911976009607315
1789548998008128800,1.030128662109375,-0.058950215578079224,0.18418332934379578,0.03503797948360443
1789548998018098000,1.040097900390625,-0.09689908474683762,0.1889043003320694,-0.00935426726937294
1789548998028065800,1.050065673828125,-0.18115298449993134,0.16875988245010376,0.04903314262628555
1789548998038033700,1.06003369140625,-0.19397594034671783,0.1304497867822647,0.08784819394350052
1789548998048002800,1.0700029296875,-0.1925911009311676,0.13584215939044952,0.04773886129260063
1789548998057970700,1.079970703125,-0.2679463028907776,0.1455152928829193,0.04122909530997276
1789548998067938800,1.089938720703125,-0.2828086018562317,0.09611178189516068,0.0516740120947361
1789548998077907700,1.09990771484375,-0.22054313123226166,0.08633662015199661,-0.03883678466081619
1789548998087875800,1.109875732421875,-0.22339244186878204,0.1082025021314621,-0.06853422522544861
1789548998097844000,1.119843994140625,-0.28229305148124695,0.08668898046016693,0.04831530153751373
1789548998107812900,1.129812744140625,-0.24209608137607574,0.05236295983195305,0.055844590067863464
1789548998117781000,1.139781005859375,-0.12691958248615265,0.048644281923770905,-0.04366322606801987
1789548998127748600,1.14974853515625,-0.16988861560821533,0.0808325707912445,0.03444249555468559
1789548998137717800,1.1597177734375,-0.22475694119930267,0.08833841979503632,0.07859111577272415
1789548998147686000,1.169685791015625,-0.14887842535972595,0.0792546421289444,-0.04727254435420036
1789548998157653800,1.17965380859375,-0.16517174243927002,0.07011612504720688,-0.04383726418018341
1789548998167623000,1.189622802734375,-0.2026922106742859,0.06275008618831635,0.033464714884757996
1789548998177590800,1.1995908203125,-0.12898576259613037,0.031467001885175705,0.05912933498620987
1789548998187559000,1.209558837890625,-0.01911972649395466,0.055157147347927094,-0.03607414662837982
1789548998197527800,1.21952783203125,-0.04500342160463333,0.06574948877096176,-0.030797962099313736
1789548998207495700,1.22949560546875,-0.04253866523504257,0.010088887065649033,0.03825860470533371
1789548998217464800,1.23946484375,0.017548587173223495,-0.013815323822200298,0.020064886659383774
1789548998227432700,1.2494326171875,0.03200582414865494,0.007565331179648638,0.03218546509742737
1789548998237400800,1.25940087890625,0.010970259085297585,-0.007421020418405533,0.04062069207429886
1789548998247369700,1.26936962890625,0.027633659541606903,-0.009171515703201294,0.04032135754823685
1789548998257337900,1.279337890625,0.03414437919855118,0.014355229213833809,-0.009230898693203926
1789548998267305700,1.2893056640625,0.054328471422195435,0.04144223779439926,-0.0059445579536259174
1789548998277275000,1.29927490234375,0.09854158014059067,-0.001623603980988264,0.010582473129034042
1789548998287243000,1.309242919921875,0.15856869518756866,-0.016164729371666908,0.0647122859954834
1789548998297210600,1.319210693359375,0.19823479652404785,-0.00996366050094366,0.058795634657144547
1789548998307179800,1.3291796875,0.2214016318321228,0.0232843067497015,0.015780523419380188
1789548998317147600,1.339147705078125,0.23783673346042633,0.006165521219372749,-0.00929828081279993
1789548998327115800,1.34911572265625,0.26048558950424194,-0.012859037145972252,-0.00619223527610302
1789548998337084700,1.359084716796875,0.27213138341903687,-0.01769774593412876,0.05965637043118477
1789548998347052800,1.369052734375,0.2706890106201172,0.022223303094506264,0.03241675719618797
1789548998357021000,1.37902099609375,0.28141653537750244,0.02811681479215622,-0.03010294958949089
1789548998366989800,1.38898974609375,0.3025575280189514,0.018751543015241623,0.012942787259817123
1789548998376958000,1.3989580078125,0.3167968988418579,0.025209663435816765,0.01449805498123169
1789548998386925800,1.40892578125,0.3303672969341278,0.05675800144672394,-0.05421070381999016
1789548998396894700,1.418894775390625,0.31798255443573,0.03614198416471481,0.04084792360663414
1789548998406862800,1.42886279296875,0.2977481186389923,0.002389612840488553,0.091532401740551
1789548998416831700,1.438831787109375,0.37034252285957336,0.00606517493724823,0.03804440423846245
1789548998426799900,1.4487998046875,0.3313109576702118,0.05913478508591652,-0.01852034032344818
1789548998436767700,1.458767822265625,0.25418320298194885,0.06978656351566315,-0.000352395698428154
1789548998446737000,1.46873681640625,0.2513357698917389,0.06059280037879944,0.042548999190330505
1789548998456704800,1.478704833984375,0.32638663053512573,0.04921731725335121,0.005011009983718395
1789548998466673000,1.4886728515625,0.27518337965011597,0.06226733699440956,0.016696162521839142
1789548998476641800,1.498641845703125,0.22908572852611542,0.0795932337641716,0.08786734938621521
1789548998486609700,1.508609619140625,0.268170028924942,0.03283344954252243,0.041494257748126984
1789548998496577800,1.518577880859375,0.2618681788444519,0.06976616382598877,0.0018736098427325487
1789548998506546700,1.528546630859375,0.1421297937631607,0.09319932013750076,-0.006616280879825354
1789548998516514800,1.538514892578125,0.15110449492931366,0.09402264654636383,0.009475527331233025
1789548998526483500,1.5484833984375,0.1254366785287857,0.07879522442817688,-0.0128774493932724
1789548998536451600,1.55845166015625,0.12728160619735718,0.10366552323102951,0.003172553377225995
1789548998546419700,1.568419677734375,0.1130257099866867,0.09920206665992737,-0.010498518124222755
1789548998556388600,1.578388671875,0.11445482075214386,0.10759338736534119,0.02407032437622547
1789548998566356700,1.588356689453125,0.07226768136024475,0.07626210153102875,0.022424491122364998
1789548998576324400,1.598324462890625,-0.0010046646930277348,0.0933806300163269,0.03391256928443909
1789548998586293500,1.60829345703125,-0.07617254555225372,0.07182329148054123,0.034046389162540436
1789548998596261400,1.618261474609375,-0.09588350355625153,0.09982810914516449,0.009651614353060722
1789548998606229500,1.6282294921875,-0.12257663160562515,0.11786942929029465,-0.05150707811117172
1789548998616197600,1.63819775390625,-0.12444979697465897,0.09269765764474869,-0.03983570635318756
1789548998626165500,1.64816552734375,-0.11750613898038864,0.0826018825173378,0.006073197349905968
1789548998636134700,1.658134765625,-0.08185993880033493,0.06962529569864273,0.023443255573511124
1789548998646102800,1.668102783203125,-0.06813560426235199,0.07479236274957657,0.05683636665344238
1789548998656070400,1.6780703125,-0.019726138561964035,0.10110823810100555,0.01528575923293829
1789548998666039600,1.68803955078125,0.04801003262400627,0.09840565919876099,-0.014932330697774887
1789548998676007400,1.69800732421875,0.05492592975497246,0.09285812824964523,-0.008182516321539879
1789548998685976600,1.7079765625,-0.01684679463505745,0.12880441546440125,-0.02027726173400879
1789548998695944400,1.7179443359375,-0.02661580592393875,0.09132523089647293,0.03563196212053299
1789548998705912600,1.72791259765625,0.02724316529929638,0.03753763437271118,0.020211724564433098
1789548998715881500,1.737881591796875,0.046394865959882736,0.02160753682255745,0.031448379158973694
1789548998725849600,1.747849609375,0.08730421960353851,0.054494380950927734,0.005337949842214584
1789548998735817700,1.757817626953125,0.12267808616161346,0.0685836672782898,-0.03155862167477608
1789548998745786600,1.76778662109375,0.17839832603931427,0.06989367306232452,-0.032020412385463715
1789548998755754500,1.77775439453125,0.17878220975399017,0.05014461278915405,0.05546008422970772
1789548998765722600,1.78772265625,0.1878713220357895,0.05842278152704239,0.062111061066389084
1789548998775691500,1.79769140625,0.27458006143569946,0.045853517949581146,0.023944173008203506
1789548998785659600,1.80765966796875,0.2422703206539154,0.07613685727119446,-0.004841402638703585
1789548998795628500,1.817628662109375,0.1648816168308258,0.08551272004842758,0.015582812950015068
1789548998805596700,1.8275966796875,0.1887051910161972,0.07749687135219574,-0.01935626193881035
1789548998815564500,1.837564453125,0.20874829590320587,0.04366683587431908,-0.024045096710324287
1789548998825533700,1.84753369140625,0.16485434770584106,0.053647030144929886,0.03264082223176956
1789548998835501600,1.85750146484375,0.1296197772026062,0.0524711087346077,0.11000562459230423
1789548998845470700,1.867470703125,0.17777584493160248,0.07314043492078781,0.010554671287536621
1789548998855438600,1.8774384765625,0.1826513558626175,0.07780516892671585,-0.031153829768300056
1789548998865406500,1.887406494140625,0.10491528362035751,0.09505312889814377,0.026268716901540756
1789548998875375600,1.897375732421875,0.14036670327186584,0.08438241481781006,0.002794863423332572
1789548998885343500,1.907343505859375,0.19815810024738312,0.0746738612651825,-0.03402280434966087
1789548998895311600,1.9173115234375,0.14614617824554443,0.09199093282222748,-0.038057997822761536
1789548998905280500,1.927280517578125,0.06811316311359406,0.08461344987154007,-0.01522459089756012
1789548998915248600,1.93724853515625,0.06610939651727676,0.0394747257232666,0.02394464984536171
1789548998925217500,1.947217529296875,0.0299785565584898,0.0358152762055397,0.012862969189882278
1789548998935185700,1.957185546875,0.0050349971279501915,0.07370548695325851,-0.022723384201526642
1789548998945153500,1.967153564453125,0.0005267979577183723,0.09587177634239197,-0.0708770677447319
1789548998955122400,1.977122314453125,-0.002113540191203356,0.08070891350507736,-0.07931557297706604
1789548998965090600,1.987090576171875,-0.040776778012514114,0.06123960763216019,-0.03982861712574959
1789548998975058400,1.997058349609375,-0.035705920308828354,0.024939483031630516,0.016588883474469185
1789548998985027600,2.007027587890625,-0.06484835594892502,0.012263903394341469,0.04164523631334305
1789548998994995700,2.01699560546875,-0.07650762051343918,0.05682544410228729,0.01787797547876835
1789548999004964600,2.026964599609375,-0.10250433534383774,0.1043093353509903,-0.01424693688750267
1789548999014932700,2.0369326171875,-0.08858036249876022,0.11211274564266205,-0.03655619919300079
1789548999024900400,2.046900390625,-0.09256338328123093,0.13317860662937164,-0.027832213789224625
1789548999034869800,2.056869873046875,-0.12538892030715942,0.09830421209335327,0.04377886280417442
1789548999044837400,2.06683740234375,-0.09230953454971313,0.0724523738026619,0.02932375855743885
1789548999054806500,2.076806640625,-0.11014717072248459,0.041827406734228134,0.05034082755446434
1789548999064774400,2.0867744140625,-0.15317614376544952,0.043449271470308304,0.10923024266958237
1789548999074742500,2.096742431640625,-0.12524281442165375,0.07519524544477463,0.0222940593957901
1789548999084711400,2.10671142578125,-0.10381875187158585,0.11619354784488678,-0.057524874806404114
1789548999094679600,2.116679443359375,-0.14357155561447144,0.0945645347237587,-0.01022215187549591
1789548999104647700,2.126647705078125,-0.14930906891822815,0.05785205960273743,0.008827971294522285
1789548999114616600,2.136616455078125,-0.12069520354270935,0.06025627255439758,-0.016823891550302505
1789548999124584400,2.14658447265625,-0.15841861069202423,0.011814436875283718,0.007169324904680252
1789548999134553600,2.1565537109375,-0.14910078048706055,0.03719517961144447,0.06546682119369507
1789548999144521500,2.166521484375,-0.09083747863769531,0.03457596153020859,0.004382161423563957
1789548999154489600,2.176489501953125,-0.03083920292556286,0.06540854275226593,-0.032925285398960114
1789548999164458500,2.18645849609375,-0.06657110154628754,0.043906982988119125,0.010320990346372128
1789548999174426600,2.196426513671875,-0.02734939567744732,0.04904395341873169,-0.04034538194537163
1789548999184395500,2.2063955078125,-0.0823090523481369,0.03544958308339119,-0.06537936627864838
1789548999194363600,2.21636376953125,-0.17784780263900757,0.025387857109308243,-0.006490577943623066
1789548999204331500,2.22633154296875,-0.14870190620422363,-0.06188872829079628,0.01180640421807766
1789548999214300700,2.23630078125,-0.08743946254253387,-0.03590625524520874,0.007161077111959457
1789548999224268500,2.2462685546875,-0.08678459376096725,-0.007327077444642782,0.020626552402973175
1789548999234236400,2.256236328125,-0.006664566230028868,0.03286518156528473,-0.02803773060441017
1789548999244205600,2.26620556640625,0.0719388946890831,0.05557795241475105,-0.04323319345712662
1789548999254173400,2.27617333984375,0.08616257458925247,0.06473337858915329,-0.03762037307024002
1789548999264142600,2.286142578125,0.09667540341615677,0.06439755111932755,-0.04692785441875458
1789548999274110500,2.2961103515625,0.08112505078315735,0.013195762410759926,-0.056301459670066833
1789548999284078600,2.30607861328125,0.06872484087944031,-0.02101600542664528,-0.0012499280273914337
1789548999294047500,2.316047607421875,0.022174222394824028,-0.02309950441122055,0.03340724855661392
1789548999304015600,2.326015625,0.02320113778114319,0.013501115143299103,0.026311788707971573
1789548999313984500,2.335984619140625,0.1380743682384491,0.009374633431434631,0.031023167073726654
1789548999323952400,2.345952392578125,0.19189898669719696,0.02386569231748581,-0.049113743007183075
1789548999333920500,2.35592041015625,0.19795586168766022,0.02724490873515606,-0.05830446258187294
1789548999343889400,2.365889404296875,0.15245789289474487,0.008842199109494686,0.0010765721090137959
1789548999353857500,2.375857421875,0.18976391851902008,0.0007990013109520078,-0.027011428028345108
1789548999363825700,2.38582568359375,0.16794145107269287,-0.007331629283726215,-0.06173105910420418
1789548999373794600,2.395794677734375,0.04202372953295708,-0.003032234963029623,-0.019856257364153862
1789548999383762700,2.4057626953125,0.022992512211203575,-0.01337728463113308,-0.005393429659307003
1789548999393731600,2.415731689453125,0.10507922619581223,-0.03550051525235176,-0.01758403144776821
1789548999403699700,2.42569970703125,0.12725377082824707,0.00535956583917141,-0.018690574914216995
1789548999413667300,2.435667236328125,0.15806463360786438,-0.02029328979551792,0.055063001811504364
1789548999423636500,2.445636474609375,0.26048022508621216,-0.005147360265254974,0.03657160699367523
1789548999433604400,2.455604248046875,0.29360899329185486,0.011278385296463966,-0.0313224159181118
1789548999443573500,2.465573486328125,0.2529481053352356,0.05795294791460037,0.006856128573417664
1789548999453541600,2.475541748046875,0.23826776444911957,0.02743728831410408,0.012177618220448494
1789548999463509500,2.485509521484375,0.3283902108669281,0.028980590403079987,-0.027286436408758163
1789548999473478700,2.495478759765625,0.25431936979293823,0.06449738889932632,-0.055697474628686905
1789548999483446500,2.505446533203125,0.2256736159324646,0.04527069255709648,0.0015335902571678162
1789548999493414700,2.51541455078125,0.2671251893043518,-0.00005440530367195606,0.06302128732204437
1789548999503383600,2.525383544921875,0.2291112095117569,0.0195443294942379,0.048166707158088684
1789548999513352400,2.5353525390625,0.2039092481136322,0.05108032375574112,0.07180355489253998
1789548999523321300,2.5453212890625,0.2156495302915573,0.0498289056122303,0.061801254749298096
1789548999533289500,2.55528955078125,0.2603100836277008,0.0711367279291153,-0.015526261180639267
1789548999543257600,2.565257568359375,0.17285694181919098,0.11321067810058594,0.004992061760276556
1789548999553226500,2.5752265625,0.14598852396011353,0.09326229989528656,-0.03072088025510311
1789548999563194600,2.585194580078125,0.1738758087158203,0.05258597433567047,-0.011729080229997635
1789548999573163500,2.59516357421875,0.09641144424676895,0.08610685169696808,0.02674146555364132
1789548999583131400,2.60513134765625,0.01342654787003994,0.12035323679447174,0.017705360427498817
1789548999593099300,2.615099365234375,0.04417624697089195,0.10287967324256897,-0.03366013616323471
1789548999603068400,2.625068359375,0.24647314846515656,-0.07718383520841599,-0.02120000682771206
1789548999613036300,2.635036376953125,-0.22351735830307007,-0.003593380795791745,0.1863040030002594
1789548999623004400,2.64500439453125,-0.1895974725484848,0.11190072447061539,-0.019591642543673515
1789548999632973300,2.654973388671875,-0.13757890462875366,0.02122396044433117,-0.07996132969856262
1789548999642941400,2.66494140625,-0.2646332383155823,0.0023602580185979605,0.045559849590063095
1789548999652910600,2.67491064453125,-0.3576018512248993,0.047419361770153046,0.0611966997385025
1789548999662878500,2.68487841796875,-0.2989361584186554,0.05329269915819168,-0.033627547323703766
1789548999672846300,2.694846435546875,-0.3126363456249237,0.06643977016210556,-0.023467184975743294
1789548999682815200,2.704815185546875,-0.44122228026390076,0.09601496905088425,0.0059010908007621765
1789548999692783400,2.714783447265625,-0.451611191034317,0.04885750636458397,0.027120057493448257
1789548999702752300,2.724752197265625,-0.3869940936565399,0.010317306034266949,0.0016511823050677776
1789548999712720400,2.734720458984375,-0.38719165325164795,-0.0015535363927483559,0.011778504587709904
1789548999722688500,2.7446884765625,-0.3545309007167816,-0.02694624476134777,0.01887955702841282
1789548999732657400,2.754657470703125,-0.24907080829143524,0.016554640606045723,-0.0825299471616745
1789548999742625500,2.76462548828125,-0.2371787279844284,-0.049918923527002335,-0.006165664177387953
1789548999752593400,2.774593505859375,-0.17975226044654846,-0.036631036549806595,0.04616958647966385
1789548999762562600,2.7845625,-0.10795211046934128,-0.02192612737417221,-0.007074992172420025
1789548999772530400,2.794530517578125,-0.058731742203235626,0.0013026781380176544,-0.027336832135915756
1789548999782499300,2.804499267578125,-0.034343309700489044,-0.020277447998523712,0.03696173056960106
1789548999792467500,2.814467529296875,0.07848676294088364,-0.05630460008978844,0.03290364146232605
1789548999802435300,2.824435302734375,0.08819851279258728,-0.008408976718783379,0.04254535213112831
1789548999812404500,2.834404541015625,0.11374180018901825,0.0017732287524268031,0.06547614932060242
1789548999822372400,2.844372314453125,0.2130012810230255,-0.08004973083734512,0.0938851535320282
1789548999832341500,2.854341552734375,0.25666752457618713,-0.02686372958123684,-0.013726312667131424
1789548999842309400,2.864309326171875,0.29025983810424805,-0.04739004373550415,0.01063655037432909
1789548999852277500,2.874277587890625,0.34374886751174927,-0.06977013498544693,0.03813447803258896
1789548999862246400,2.884246337890625,0.36052411794662476,-0.03940904140472412,-0.006764553487300873
1789548999872214300,2.89421435546875,0.37216705083847046,-0.007193171419203281,-0.04922474920749664
1789548999882183400,2.904183349609375,0.41891777515411377,-0.038957756012678146,-0.03239942342042923
1789548999892151300,2.9141513671875,0.4611894190311432,0.0034990557469427586,-0.09339692443609238
1789548999902119400,2.924119384765625,0.4411102533340454,-0.025836195796728134,-0.06956402957439423
1789548999912088300,2.93408837890625,0.4509879946708679,-0.05170221999287605,-0.010581975802779198
1789548999922056400,2.944056396484375,0.47176089882850647,-0.0010923075024038553,-0.05374941974878311
1789548999932024600,2.954024658203125,0.49810609221458435,-0.010916592553257942,-0.007522242609411478
1789548999941993500,2.963993408203125,0.5611212849617004,0.010229972191154957,-0.017763961106538773
1789548999951961600,2.973961669921875,0.5173797011375427,0.06186119094491005,-0.030496099963784218
1789548999961930500,2.983930419921875,0.5204823017120361,0.04756294563412666,0.004937523044645786
1789548999971898400,2.9938984375,0.5196714401245117,0.03139830008149147,0.06885211914777756
1789548999981866200,3.0038662109375,0.5230435132980347,0.0891827642917633,0.054944030940532684
1789548999991835400,3.01383544921875,0.5073627233505249,0.13849928975105286,0.018238406628370285
1789549000001803500,3.023803466796875,0.5190891623497009,0.14566931128501892,0.021178802475333214
1789549000011772400,3.0337724609375,0.5265377759933472,0.12871795892715454,0.04364588111639023
1789549000021740500,3.043740478515625,0.5100224614143372,0.16321389377117157,0.009790711104869843
1789549000031708400,3.05370849609375,0.49603667855262756,0.18506506085395813,-0.0025836024433374405
1789549000041677600,3.063677490234375,0.44833865761756897,0.18220137059688568,-0.00583159364759922
1789549000051645400,3.0736455078125,0.3784690797328949,0.20261014997959137,-0.011025120504200459
1789549000061614600,3.083614501953125,0.3328499495983124,0.19186483323574066,-0.05443677678704262
1789549000071582200,3.093582275390625,0.2236189842224121,0.20121607184410095,-0.034917041659355164
1789549000081550300,3.10355029296875,0.16580575704574585,0.15591490268707275,-0.0020437799394130707
1789549000091519200,3.113519287109375,0.09602204710245132,0.20776326954364777,0.003635123837739229
1789549000101487400,3.1234873046875,0.06953105330467224,0.21902577579021454,-0.03235563635826111
1789549000111455500,3.13345556640625,-0.04223177209496498,0.25193217396736145,0.0003959056921303272
1789549000121424400,3.14342431640625,-0.11451608687639236,0.2972506582736969,0.002944550709798932
1789549000131392500,3.153392578125,-0.1323097050189972,0.26679736375808716,0.01731843501329422
1789549000141361400,3.163361328125,-0.20028474926948547,0.31498244404792786,-0.005088869947940111
1789549000151329500,3.17332958984375,-0.27566811442375183,0.2844172716140747,0.030952028930187225
1789549000161297400,3.18329736328125,-0.3532678186893463,0.32338517904281616,0.01262948103249073
1789549000171266300,3.193266357421875,-0.41021808981895447,0.31147301197052,0.011855854652822018
1789549000181234400,3.203234375,-0.4827505946159363,0.31790533661842346,0.024198807775974274
1789549000191203300,3.213203369140625,-0.5743303298950195,0.29784005880355835,0.04191409796476364
1789549000201171500,3.22317138671875,-0.6506062150001526,0.28819382190704346,0.02427997812628746
1789549000211139300,3.233139404296875,-0.6960448026657104,0.2639089822769165,0.04329521581530571
1789549000221108500,3.2431083984375,-0.7532138228416443,0.22791901230812073,0.06764955818653107
1789549000231076400,3.253076416015625,-0.8030186891555786,0.2318163514137268,0.024580735713243484
1789549000241045500,3.26304541015625,-0.8196133971214294,0.2013319432735443,0.002743614139035344
1789549000251013600,3.273013671875,-0.8620157837867737,0.15992997586727142,0.04286375269293785
1789549000260981200,3.282981201171875,-0.8689096570014954,0.18815948069095612,0.004011162091046572
1789549000270950400,3.292950439453125,-0.8589410781860352,0.17378544807434082,0.001287778839468956
1789549000280918300,3.302918212890625,-0.8801009654998779,0.15234461426734924,0.046657659113407135
1789549000290887400,3.312887451171875,-0.857052743434906,0.1643761545419693,0.04899678751826286
1789549000300855300,3.322855224609375,-0.8116154670715332,0.15678587555885315,0.05837777256965637
1789549000310823400,3.332823486328125,-0.7779580950737,0.14869722723960876,0.037995342165231705
1789549000320792300,3.342792236328125,-0.768845796585083,0.1399250328540802,0.04412461072206497
1789549000330760400,3.352760498046875,-0.7188047766685486,0.09930920600891113,0.06415887922048569
1789549000340728600,3.362728515625,-0.665425181388855,0.08497900515794754,0.035920049995183945
1789549000350697500,3.372697509765625,-0.6495940685272217,0.07673095911741257,0.020245792344212532
1789549000360665300,3.382665283203125,-0.6095734238624573,0.024058956652879715,0.047339726239442825
1789549000370634200,3.39263427734375,-0.5545253753662109,0.00584273599088192,0.04716198146343231
1789549000380602400,3.402602294921875,-0.5083478093147278,-0.008708243258297443,0.006018269807100296
1789549000390570500,3.412570556640625,-0.4938092529773712,0.0007216340163722634,-0.012614265084266663
1789549000400539400,3.422539306640625,-0.4498641788959503,-0.04231744259595871,0.014709768816828728
1789549000410507500,3.432507568359375,-0.38024789094924927,-0.0591207891702652,0.00145296985283494
1789549000420476400,3.442476318359375,-0.3647746741771698,-0.03583411127328873,0.004661812912672758
1789549000430444500,3.452444580078125,-0.31277957558631897,-0.046074315905570984,0.02503143809735775
1789549000440412400,3.462412353515625,-0.2529985308647156,-0.07053917646408081,0.05601252615451813
1789549000450381600,3.472381591796875,-0.21520772576332092,-0.0536787286400795,0.0242733433842659
1789549000460349400,3.482349365234375,-0.19884686172008514,-0.04110301658511162,-0.024573026224970818
1789549000470318300,3.492318359375,-0.17181307077407837,-0.08631795644760132,0.022104261443018913
1789549000480286500,3.502286376953125,-0.15656353533267975,-0.11138789355754852,0.03365838900208473
1789549000490254300,3.51225439453125,-0.15447905659675598,-0.07043754309415817,-0.009898094460368156
1789549000500223500,3.522223388671875,-0.10121850669384003,-0.09618444740772247,0.0035628536716103554
1789549000510191400,3.53219140625,-0.11119701713323593,-0.07254790514707565,0.053763676434755325
1789549000520160500,3.542160400390625,-0.08366978913545609,-0.06477546691894531,0.048771582543849945
1789549000530128100,3.552128173828125,-0.03908155858516693,-0.07236519455909729,0.025110408663749695
1789549000540096300,3.56209619140625,-0.05158643051981926,-0.05816149339079857,0.03397899866104126
1789549000550065200,3.572065185546875,-0.056534625589847565,-0.014991353265941143,0.012602647766470909
1789549000560033300,3.582033203125,-0.003470606869086623,-0.05909835919737816,0.01416752114892006
1789549000570002400,3.59200244140625,-0.00578010780736804,-0.040582455694675446,0.04027869552373886
1789549000579970300,3.60197021484375,0.003296477720141411,-0.04164452478289604,0.040174033492803574
1789549000589938400,3.6119384765625,0.04118344932794571,-0.05114191770553589,0.030826561152935028
1789549000599907300,3.6219072265625,0.033755891025066376,-0.024117223918437958,0.05630582198500633
1789549000609875500,3.63187548828125,0.09944791346788406,-0.03587813302874565,0.04055728018283844
1789549000619844400,3.64184423828125,0.117160864174366,-0.04262099042534828,0.012889966368675232
1789549000629812200,3.651812255859375,0.09456600248813629,-0.025013163685798645,0.03733314201235771
1789549000639780400,3.6617802734375,0.10469081252813339,-0.0165653508156538,-0.019398843869566917
1789549000649749200,3.671749267578125,0.08526846766471863,-0.013536876998841763,-0.0020350655540823936
1789549000659717400,3.68171728515625,0.1095767393708229,-0.020202767103910446,-0.016640108078718185
1789549000669686300,3.691686279296875,0.10067802667617798,0.011351964436471462,-0.011804195120930672
1789549000679654400,3.701654296875,0.09676344692707062,0.0020969463512301445,0.004870922304689884
1789549000689622500,3.71162255859375,0.11412995308637619,0.0023275476414710283,-0.013433555141091347
1789549000699591400,3.72159130859375,0.09867190569639206,-0.007501114625483751,-0.028537672013044357
1789549000709559600,3.7315595703125,0.0714755654335022,0.000712733599357307,-0.031449608504772186
1789549000719528400,3.741528564453125,0.09758413583040237,-0.044918399304151535,0.021997367963194847
1789549000729496300,3.751496337890625,0.07741667330265045,-0.023521065711975098,0.025069788098335266
1789549000739464200,3.761464111328125,0.07681293040513992,-0.02095351368188858,-0.002140526659786701
1789549000749433300,3.771433349609375,0.05876600742340088,-0.03479446843266487,-0.012777566909790039
1789549000759401200,3.781401123046875,0.023057011887431145,-0.047704942524433136,0.021611832082271576
1789549000769370400,3.791370361328125,0.016883620992302895,-0.07271319627761841,0.008314413949847221
1789549000779338200,3.801338134765625,-0.005615030415356159,-0.06821218878030777,-0.037641361355781555
1789549000789306400,3.811306396484375,-0.036246731877326965,-0.07017306238412857,-0.05796758085489273
1789549000799275500,3.821275634765625,-0.006615339312702417,-0.13697685301303864,-0.005234593991190195
1789549000809243400,3.831243408203125,-0.042650822550058365,-0.10937239229679108,-0.0012506474740803242
1789549000819212500,3.841212646484375,-0.06672739237546921,-0.10061804950237274,-0.02197802998125553
1789549000829180200,3.85118017578125,-0.08179066330194473,-0.09659731388092041,-0.049199458211660385
1789549000839148300,3.861148193359375,-0.10541956126689911,-0.11909542977809906,-0.008764415979385376
1789549000849117200,3.8711171875,-0.1317538022994995,-0.11832328140735626,-0.004883198998868465
1789549000859085300,3.881085205078125,-0.11164560168981552,-0.12200509756803513,-0.012713158503174782
1789549000869054200,3.89105419921875,-0.12124662846326828,-0.11921539902687073,0.004402040503919125
1789549000879022300,3.901022216796875,-0.10645676404237747,-0.1329684853553772,0.01102319173514843
1789549000888990500,3.910990478515625,-0.10932737588882446,-0.1278621256351471,0.0026811796706169844
1789549000898959400,3.92095947265625,-0.11231251060962677,-0.11773759126663208,-0.009704649448394775
1789549000908927500,3.930927490234375,-0.10150204598903656,-0.0931735560297966,-0.04604680836200714
1789549000918895400,3.940895263671875,-0.10715886950492859,-0.09104461967945099,-0.06239622086286545
1789549000928864300,3.9508642578125,-0.09619247168302536,-0.09210541099309921,-0.0483398474752903
1789549000938832400,3.960832275390625,-0.09609527140855789,-0.10490802675485611,-0.019806474447250366
1789549000948801300,3.97080126953125,-0.12888702750205994,-0.03948614001274109,-0.04237809404730797
1789549000958769400,3.980769287109375,-0.11153965443372726,-0.06522592902183533,-0.004928484559059143
1789549000968737300,3.9907373046875,-0.11277706921100616,-0.05782755836844444,0.01830507069826126
1789549000978706400,4.00070654296875,-0.1262638419866562,-0.048621807247400284,0.017951402813196182
1789549000988674300,4.01067431640625,-0.12737710773944855,-0.08256851881742477,0.05103254318237305
1789549000998643500,4.0206435546875,-0.14258749783039093,-0.08376241475343704,0.04154476523399353
1789549001008611300,4.030611328125,-0.18851400911808014,-0.04629277437925339,0.03593139350414276
1789549001018579200,4.0405791015625,-0.21149736642837524,-0.02765144594013691,0.031020525842905045
1789549001028548400,4.05054833984375,-0.22227105498313904,-0.02136996015906334,0.02914978377521038
1789549001038516200,4.06051611328125,-0.22035785019397736,-0.026343945413827896,0.02524106204509735
1789549001048485400,4.0704853515625,-0.24644887447357178,-0.002641772385686636,0.02051325887441635
1789549001058453200,4.080453369140625,-0.21991153061389923,-0.021713467314839363,0.019272491335868835
1789549001068421400,4.09042138671875,-0.22933390736579895,-0.01046762615442276,0.013960156589746475
1789549001078390300,4.100390380859375,-0.27717599272727966,0.003848462365567684,0.025452762842178345
1789549001088358400,4.1103583984375,-0.2710784375667572,-0.026297999545931816,0.061510562896728516
1789549001098327300,4.120327392578125,-0.2522927522659302,-0.007358929608017206,0.0424087755382061
1789549001108295400,4.13029541015625,-0.254916787147522,0.021300410851836205,0.03783373162150383
1789549001118263300,4.14026318359375,-0.23887954652309418,0.0006556574953719974,0.05292627960443497
1789549001128232200,4.150232177734375,-0.24792510271072388,0.02730443887412548,0.04549895599484444
1789549001138200300,4.160200439453125,-0.22329485416412354,0.0104527547955513,0.03770574554800987
1789549001148169200,4.170169189453125,-0.2288966327905655,0.029887523502111435,0.05077104642987251
1789549001158137300,4.180137451171875,-0.21661733090877533,0.022653577849268913,0.05035452917218208
1789549001168105500,4.19010546875,-0.20492994785308838,0.03226321563124657,0.011198466643691063
1789549001178074400,4.200074462890625,-0.16675113141536713,-0.03841281682252884,0.04278755187988281
1789549001188042500,4.21004248046875,-0.14838720858097076,-0.05740230530500412,0.08250568807125092
1789549001198011400,4.220011474609375,-0.11297328770160675,-0.03563815355300903,0.0325637012720108
1789549001207979500,4.2299794921875,-0.06801585108041763,-0.02395174279808998,-0.01260913535952568
1789549001217947100,4.239947021484375,-0.08739354461431503,-0.01555053610354662,0.02735345996916294
1789549001227916300,4.249916259765625,-0.057578667998313904,-0.029726820066571236,0.001773996278643608
1789549001237884200,4.25988427734375,-0.09710822999477386,-0.02246730960905552,0.029614148661494255
1789549001247853300,4.269853271484375,-0.053335901349782944,0.006553619168698788,-0.024647783488035202
1789549001257821400,4.279821533203125,0.010085415095090866,-0.027660544961690903,-0.01662900671362877
1789549001267789300,4.289789306640625,-0.00045406504068523645,-0.022884391248226166,0.019533630460500717
1789549001277758500,4.299758544921875,0.0389961376786232,-0.02386496588587761,0.0020587656181305647
1789549001287726300,4.309726318359375,0.03800205886363983,-0.019461525604128838,-0.0053733596578240395
1789549001297695500,4.319695556640625,0.03654477372765541,-0.025175338611006737,0.007918477058410645
1789549001307663400,4.329663330078125,0.06515371799468994,-0.051355991512537,0.02737829089164734
1789549001317631200,4.33963134765625,0.06949946284294128,-0.01951550506055355,0.020870057865977287
1789549001327600000,4.34960009765625,0.07690262049436569,-0.028086721897125244,0.03454599529504776
1789549001337568300,4.359568359375,0.09684330224990845,-0.02132602035999298,0.014116356149315834
1789549001347537200,4.369537109375,0.06347405165433884,-0.0318288691341877,0.041701193898916245
1789549001357505300,4.37950537109375,0.11484242975711823,-0.040350720286369324,0.03510268032550812
1789549001367473400,4.389473388671875,0.11183859407901764,0.0017485854914411902,-0.04807589575648308
1789549001377442300,4.3994423828125,0.10355882346630096,0.02034170925617218,-0.07296499609947205
1789549001387410400,4.409410400390625,0.09562955796718597,-0.0018219659104943275,-0.03211348503828049
1789549001397379300,4.41937939453125,0.10224458575248718,-0.01576867327094078,-0.010765589773654938
1789549001407347500,4.429347412109375,0.06733700633049011,0.004689379595220089,-0.03269761800765991
1789549001417315300,4.4393154296875,0.09224741160869598,-0.021914001554250717,-0.030733270570635796
1789549001427284200,4.4492841796875,0.05804239213466644,-0.0152122275903821,-0.01969423145055771
1789549001437252400,4.45925244140625,0.03171491250395775,0.00791226513683796,-0.014158851467072964
1789549001447221200,4.46922119140625,0.004415647126734257,-0.03269188851118088,0.04505440592765808
1789549001457189400,4.479189453125,0.002155422465875745,-0.042010288685560226,0.06410426646471024
1789549001467157200,4.4891572265625,-0.0017826671246439219,-0.006703333929181099,-0.012658918276429176
1789549001477126400,4.49912646484375,-0.03369346261024475,0.005818849429488182,0.05892019346356392
1789549001487094500,4.509094482421875,0.005179223138839006,0.014240692369639874,0.015463234856724739
1789549001497062400,4.5190625,-0.055560026317834854,0.015173597261309624,0.024048998951911926
1789549001507031600,4.529031494140625,-0.07367298007011414,-0.001420558663085103,0.021079575642943382
1789549001516999000,4.5389990234375,-0.09396759420633316,0.008417424745857716,-0.041916169226169586
1789549001526968000,4.548968017578125,-0.14992722868919373,0.005565960425883532,-0.02552211470901966
1789549001536936000,4.55893603515625,-0.1601007729768753,-0.016872502863407135,-0.029109658673405647
1789549001546903800,4.56890380859375,-0.1883026659488678,0.0037569222040474415,-0.035850245505571365
1789549001556873000,4.578873046875,-0.15678654611110687,-0.010906442999839783,-0.04893035814166069
1789549001566840800,4.5888408203125,-0.21757745742797852,0.022326065227389336,-0.029106801375746727
1789549001576810000,4.59881005859375,-0.2307305485010147,0.023597991093993187,-0.03870350494980812
1789549001586777900,4.60877783203125,-0.20548099279403687,-0.005430553108453751,-0.03667137399315834
1789549001596746000,4.61874609375,-0.19129006564617157,0.006877511739730835,-0.020339805632829666
1789549001606715000,4.62871484375,-0.20711219310760498,0.012863769195973873,-0.02733284793794155
1789549001616683000,4.63868310546875,-0.23363275825977325,-0.006098469719290733,-0.016388854011893272
1789549001626652000,4.64865185546875,-0.21849222481250763,-0.030328892171382904,0.0007713194936513901
1789549001636620000,4.6586201171875,-0.2205556482076645,-0.03275476396083832,-0.013271529227495193
1789549001646588000,4.668587890625,-0.22847764194011688,-0.03388592228293419,-0.02405533939599991
1789549001656556800,4.678556884765625,-0.1723480522632599,-0.039637818932533264,-0.09693753719329834
1789549001666525000,4.68852490234375,-0.17603044211864471,-0.02268703281879425,-0.09643148630857468
1789549001676493800,4.698493896484375,-0.20021967589855194,-0.08212479203939438,-0.005980421788990498
1789549001686462000,4.7084619140625,-0.14133784174919128,-0.10492902249097824,0.010503455996513367
1789549001696430000,4.71843017578125,-0.11064092069864273,-0.07742096483707428,-0.03719748929142952
1789549001706399000,4.72839892578125,-0.1164388358592987,-0.07803595066070557,0.06672311574220657
1789549001716367000,4.7383671875,-0.01806139573454857,-0.09919822961091995,0.09212807565927505
1789549001726336000,4.7483359375,0.02464500442147255,-0.04197510704398155,0.05406004190444946
1789549001736304000,4.75830419921875,0.03288322687149048,0.022113865241408348,0.01759284734725952
1789549001746271700,4.768271728515625,0.017751842737197876,0.02887865900993347,0.028486432507634163
1789549001756241000,4.778240966796875,0.03889041766524315,0.016308005899190903,0.02835220843553543
1789549001766208800,4.788208740234375,0.040441423654556274,-0.046831510961055756,0.16309255361557007
1789549001776178000,4.798177978515625,0.050144657492637634,0.021351803094148636,0.07110829651355743
1789549001786146000,4.80814599609375,0.005564190912991762,0.02454700879752636,0.03157932683825493
1789549001796114000,4.818114013671875,-0.007871722802519798,-0.025650382041931152,0.09514738619327545
1789549001806083000,4.8280830078125,-0.05344681069254875,-0.0042357733473181725,0.06053425371646881
1789549001816051000,4.838051025390625,-0.12893891334533691,0.026032917201519012,-0.01674588955938816
1789549001826020000,4.84802001953125,-0.09036096185445786,-0.05479338392615318,-0.0013171527534723282
1789549001835988000,4.857988037109375,-0.06160521134734154,-0.008025878109037876,-0.04659675061702728
1789549001845955800,4.867955810546875,-0.07553686201572418,0.051781073212623596,-0.12057597935199738
1789549001855924700,4.8779248046875,-0.13400442898273468,0.02714097499847412,-0.031382717192173004
1789549001865892900,4.887892822265625,-0.054437559098005295,-0.006751619279384613,-0.032864950597286224
1789549001875861000,4.897861083984375,-0.03268885239958763,-0.010747958905994892,-0.017874013632535934
1789549001885830000,4.907829833984375,-0.01645897701382637,-0.052362795919179916,-0.017900479957461357
1789549001895798000,4.917798095703125,-0.040205586701631546,-0.09147584438323975,-0.006335702259093523
1789549001905767000,4.927766845703125,-0.0950443372130394,-0.08497265726327896,0.0027054070960730314
1789549001915735000,4.937735107421875,-0.1732797473669052,-0.026557819917798042,-0.030723122879862785
1789549001925703200,4.947703125,-0.22841259837150574,-0.046663835644721985,0.015441589057445526
1789549001935672000,4.957672119140625,-0.22006064653396606,-0.08093766123056412,0.04694491997361183
1789549001945640000,4.967639892578125,-0.20532171428203583,-0.07068386673927307,-0.00695603433996439
1789549001955608800,4.97760888671875,-0.21834297478199005,-0.05720961093902588,-0.029681585729122162
1789549001965577000,4.987576904296875,-0.18472786247730255,-0.09905150532722473,-0.02165191061794758
1789549001975544800,4.997544921875,-0.22650939226150513,-0.06930453330278397,-0.04224799573421478
1789549001985514000,5.007513916015625,-0.2579498887062073,-0.07474586367607117,-0.07837420701980591
1789549001995481900,5.01748193359375,-0.2857186794281006,-0.09773826599121094,-0.011262018233537674
1789549002005451000,5.027450927734375,-0.25093117356300354,-0.11039993911981583,-0.01528212334960699
1789549002015419000,5.0374189453125,-0.2513125538825989,-0.08029983192682266,-0.02511744201183319
1789549002025387000,5.047386962890625,-0.26394006609916687,-0.08680715411901474,0.00598137965425849
1789549002035356200,5.057356201171875,-0.23779955506324768,-0.09503871202468872,0.02266102284193039
1789549002045323800,5.06732373046875,-0.22059710323810577,-0.10982777178287506,0.029203133657574654
1789549002055292000,5.0772919921875,-0.2701917886734009,-0.06214600056409836,0.020231209695339203
1789549002065260800,5.0872607421875,-0.21340489387512207,-0.10312577337026596,-0.05673918500542641
1789549002075229000,5.09722900390625,-0.24779482185840607,-0.13439181447029114,0.01482155080884695
1789549002085197800,5.10719775390625,-0.21239882707595825,-0.1684492528438568,0.07026022672653198
1789549002095166000,5.117166015625,-0.1847030073404312,-0.10882402211427689,0.011630740016698837
1789549002105134000,5.127134033203125,-0.14911197125911713,-0.11122305691242218,0.01607184112071991
1789549002115103000,5.13710302734375,-0.10449390858411789,-0.14548276364803314,0.02089402638375759
1789549002125071000,5.147071044921875,-0.08745153993368149,-0.1601881980895996,0.06782051920890808
1789549002135040000,5.1570400390625,-0.0667092427611351,-0.14219002425670624,0.031083280220627785
1789549002145007900,5.1670078125,-0.05958838388323784,-0.145244762301445,0.010618293657898903
1789549002154976000,5.17697607421875,-0.06471949070692062,-0.1752718985080719,0.02154790610074997
1789549002164945000,5.18694482421875,-0.0426909439265728,-0.20556558668613434,0.030312038958072662
1789549002174913000,5.1969130859375,-0.006516696885228157,-0.18934373557567596,-0.009393827989697456
1789549002184882000,5.2068818359375,0.013256475329399109,-0.16335581243038177,-0.019511710852384567
1789549002194850000,5.21685009765625,0.04816039651632309,-0.19119197130203247,0.008888772688806057
1789549002204818000,5.22681787109375,0.12568746507167816,-0.18058544397354126,-0.03807574510574341
1789549002214787000,5.236787109375,0.13765624165534973,-0.17761841416358948,-0.007433410733938217
1789549002224755000,5.2467548828125,0.151935413479805,-0.19628193974494934,0.046772319823503494
1789549002234722800,5.256722900390625,0.20097486674785614,-0.20634761452674866,0.050437893718481064
1789549002244692000,5.26669189453125,0.24105225503444672,-0.17903080582618713,0.012890364974737167
1789549002254659800,5.276659912109375,0.26361775398254395,-0.16792622208595276,-0.009451692923903465
1789549002264629000,5.28662890625,0.27778369188308716,-0.18721872568130493,0.021831881254911423
1789549002274596900,5.296596923828125,0.3183401823043823,-0.19150055944919586,0.03724519535899162
1789549002284565000,5.30656494140625,0.3640895485877991,-0.163735494017601,0.019932249560952187
1789549002294534000,5.316533935546875,0.38512957096099854,-0.1505454033613205,0.005265688989311457
1789549002304502000,5.326501953125,0.4251786768436432,-0.1563481241464615,0.002575675491243601
1789549002314471000,5.336470947265625,0.4575379490852356,-0.15955831110477448,-0.0031200270168483257
1789549002324439000,5.34643896484375,0.4754394590854645,-0.13053299486637115,-0.005492060910910368
1789549002334407000,5.356406982421875,0.5009858012199402,-0.13104912638664246,0.004878820851445198
1789549002344375800,5.366375732421875,0.540049135684967,-0.1596803367137909,-0.0028922632336616516
1789549002354344000,5.376343994140625,0.5364066958427429,-0.13379201292991638,-0.008492091670632362
1789549002364312800,5.386312744140625,0.5536733865737915,-0.11805939674377441,-0.010491217486560345
1789549002374281000,5.396281005859375,0.6262192130088806,-0.1169121041893959,0.028928358107805252
1789549002384249000,5.4062490234375,0.6258020401000977,-0.09311353415250778,0.02629043348133564
1789549002394218000,5.416218017578125,0.6141677498817444,-0.029947612434625626,-0.016057290136814117
1789549002404186000,5.42618603515625,0.6827319264411926,-0.07674704492092133,0.009730841964483261
1789549002414153700,5.43615380859375,0.6900833249092102,-0.0657910630106926,0.053257014602422714
1789549002424123100,5.446123046875,0.630320131778717,-0.008471003733575344,0.013310921378433704
1789549002434090800,5.4560908203125,0.6219511032104492,-0.012129655107855797,-0.0189460851252079
1789549002444060000,5.466059814453125,0.5192657709121704,-0.01814979873597622,0.022610800340771675
1789549002454027800,5.47602783203125,0.3891264498233795,0.021895354613661766,0.0858110710978508
1789549002463996000,5.485995849609375,0.3328440189361572,0.045767124742269516,0.030305305495858192
1789549002473965000,5.495965087890625,0.25167781114578247,0.06469713896512985,-0.005256149917840958
1789549002483933000,5.505932861328125,0.13571549952030182,0.05497044697403908,0.03587697073817253
1789549002493902000,5.515902099609375,0.06680194288492203,0.05746503174304962,0.023016832768917084
1789549002503870000,5.525869873046875,0.02875530906021595,0.05661305785179138,-0.03168396279215813
1789549002513837800,5.535837890625,-0.060033682733774185,0.04392336308956146,0.03972630202770233
1789549002523807200,5.54580712890625,-0.12045148015022278,0.04087667167186737,0.04693538695573807
1789549002533775400,5.555775390625,-0.19343647360801697,0.061367832124233246,0.012567294761538506
1789549002543743200,5.5657431640625,-0.23013387620449066,0.05442054197192192,0.004162019118666649
1789549002553712000,5.575712158203125,-0.27919647097587585,0.0865960568189621,-0.030953090637922287
1789549002563680300,5.58568017578125,-0.31749632954597473,0.05338548123836517,-0.02275068499147892
1789549002573649200,5.595649169921875,-0.34712985157966614,0.023438235744833946,-0.011808287352323532
1789549002583617300,5.6056171875,-0.43670353293418884,0.05620402470231056,-0.014579812064766884
1789549002593585200,5.615585205078125,-0.3963550627231598,0.04938846081495285,-0.049256566911935806
1789549002603554300,5.62555419921875,-0.442495197057724,0.0040924702771008015,-0.008815743029117584
1789549002613522200,5.635522216796875,-0.47014039754867554,0.03447248041629791,0.013489028438925743
1789549002623491300,5.6454912109375,-0.44527509808540344,-0.002975775860249996,0.026681149378418922
1789549002633459500,5.65545947265625,-0.41654732823371887,0.037563126534223557,-0.10890703648328781
1789549002643427000,5.665427001953125,-0.44714677333831787,0.0071639688685536385,-0.03625291958451271
1789549002653396200,5.675396240234375,-0.44666820764541626,-0.08480483293533325,0.12051405757665634
1789549002663364000,5.685364013671875,-0.38115790486335754,-0.043130334466695786,0.028354456648230553
1789549002673332200,5.695332275390625,-0.33061325550079346,0.022505398839712143,-0.01822875812649727
1789549002683301000,5.705301025390625,-0.2555510699748993,-0.06921590119600296,0.0649920254945755
1789549002693269200,5.715269287109375,-0.2630942165851593,-0.06830029934644699,0.0851747915148735
1789549002703238100,5.725238037109375,-0.21551695466041565,-0.04720127582550049,0.020179033279418945
1789549002713206300,5.735206298828125,-0.16244788467884064,-0.04834403842687607,0.022960703819990158
1789549002723174400,5.74517431640625,-0.12078996002674103,-0.047821253538131714,-0.03420201689004898
1789549002733143300,5.755143310546875,-0.08742827922105789,-0.045602306723594666,-0.0016278307884931564
1789549002743111200,5.765111083984375,-0.019690832123160362,-0.05530441179871559,-0.007330788299441338
1789549002753080000,5.775080078125,0.06799428164958954,-0.10514121502637863,-0.05156775563955307
1789549002763048200,5.785048095703125,-0.012865521013736725,-0.10638667643070221,-0.025440355762839317
1789549002773016300,5.795016357421875,0.07219903916120529,-0.1392173171043396,-0.046066541224718094
1789549002782985200,5.804985107421875,0.15635482966899872,-0.15498846769332886,-0.06425946205854416
1789549002792953300,5.814953369140625,0.16569054126739502,-0.14179064333438873,-0.03680999577045441
1789549002802921200,5.824921142578125,0.18068571388721466,-0.06254156678915024,0.013966403901576996
1789549002812890400,5.834890380859375,0.3154248893260956,-0.08474195003509521,-0.005441115703433752
1789549002822858200,5.844858154296875,0.33467015624046326,-0.07730905711650848,-0.02152245119214058
1789549002832827400,5.854827392578125,0.3027101159095764,-0.08046223968267441,0.02162315510213375
1789549002842795000,5.864794921875,0.38007551431655884,-0.12042166292667389,0.06579796969890594
1789549002852763100,5.87476318359375,0.41987138986587524,-0.08662428706884384,0.005545813124626875
1789549002862732300,5.884732177734375,0.40987586975097656,-0.06680408120155334,-0.03420253470540047
1789549002872700200,5.8947001953125,0.43095239996910095,-0.07484203577041626,-0.015601687133312225
1789549002882669300,5.90466943359375,0.4924812614917755,-0.11218325048685074,-0.004715658258646727
1789549002892637200,5.91463720703125,0.5148494243621826,-0.09696195274591446,-0.0016367780044674873
1789549002902605300,5.924605224609375,0.5537985563278198,-0.11222844570875168,0.03382352367043495
1789549002912574200,5.93457421875,0.6112568378448486,-0.09596265852451324,0.005507996305823326
1789549002922542300,5.944542236328125,0.62583988904953,-0.08907130360603333,-0.00387845141813159
1789549002932510200,5.95451025390625,0.624640941619873,-0.0829782634973526,-0.002641680184751749
1789549002942479000,5.96447900390625,0.6251828670501709,-0.08860231935977936,0.016537073999643326
1789549002952447200,5.974447265625,0.6569598913192749,-0.061757318675518036,-0.014384581707417965
1789549002962416000,5.984416015625,0.6627679467201233,-0.02514812909066677,-0.03437929227948189
1789549002972384300,5.99438427734375,0.6558136343955994,-0.001461973413825035,-0.026301654055714607
1789549002982352400,6.004352294921875,0.657805323600769,-0.01858976110816002,0.01187756285071373
1789549002992321300,6.0143212890625,0.6370283961296082,0.0064356978982687,0.030378276482224464
1789549003002289400,6.024289306640625,0.63618004322052,0.03046208806335926,-0.0044302185997366905
1789549003012257300,6.03425732421875,0.5717850923538208,0.03978421911597252,0.028916552662849426
1789549003022226400,6.044226318359375,0.5723878145217896,0.021949520334601402,0.03672259673476219
1789549003032194000,6.054194091796875,0.5326379537582397,0.05720524862408638,0.016930781304836273
1789549003042163200,6.0641630859375,0.4944227635860443,0.05670825392007828,0.009337315335869789
1789549003052131000,6.074131103515625,0.44304534792900085,0.06562105566263199,0.04206357151269913
1789549003062099200,6.08409912109375,0.3845038115978241,0.09971312433481216,0.032295286655426025
1789549003072068000,6.094068115234375,0.3249576687812805,0.14092154800891876,0.003199185011908412
1789549003082036200,6.1040361328125,0.3019888699054718,0.11228469759225845,0.008255804888904095
1789549003092005400,6.11400537109375,0.2771914005279541,0.0927426889538765,0.05502410978078842
1789549003101973200,6.12397314453125,0.27379268407821655,0.11667139083147049,0.0021415785886347294
1789549003111941400,6.13394140625,0.23271211981773376,0.16403064131736755,-0.06293994933366776
1789549003121910300,6.14391015625,0.1714002937078476,0.1460827887058258,0.028675835579633713
1789549003131878100,6.153878173828125,0.15191315114498138,0.14404040575027466,0.03661977872252464
1789549003141846300,6.16384619140625,0.11894214153289795,0.13889651000499725,0.04102017730474472
1789549003151815200,6.173815185546875,0.11193669587373734,0.1954825520515442,-0.042780447751283646
1789549003161783300,6.183783203125,0.09283330291509628,0.15233111381530762,-0.01917622610926628
1789549003171752200,6.193752197265625,0.07706392556428909,0.11956971138715744,0.048982590436935425
1789549003181720300,6.20372021484375,0.057100288569927216,0.11668156832456589,0.009903563186526299
1789549003191688200,6.213688232421875,-0.02205152064561844,0.1473396122455597,0.025147762149572372
1789549003201657300,6.2236572265625,0.00047823681961745024,0.13135696947574615,0.03323604166507721
1789549003211625200,6.233625244140625,-0.05746149271726608,0.20253367722034454,0.020047537982463837
1789549003221593000,6.243593017578125,-0.05911776423454285,0.19107970595359802,0.060002781450748444
1789549003231562200,6.253562255859375,-0.04934209585189819,0.18555550277233124,0.04734984040260315
1789549003241530000,6.263530029296875,-0.039069440215826035,0.16629794239997864,0.08334404230117798
1789549003251499300,6.273499267578125,-0.04860036075115204,0.18015968799591064,0.037389062345027924
1789549003261467100,6.283467041015625,-0.14097283780574799,0.20262731611728668,-0.005514310207217932
1789549003271435300,6.293435302734375,-0.17526157200336456,0.12199053168296814,0.03869682550430298
1789549003281404200,6.303404052734375,-0.18087834119796753,0.11937814950942993,0.023863835260272026
1789549003291372300,6.313372314453125,-0.16725414991378784,0.11774829775094986,-0.06048567220568657
1789549003301340200,6.323340087890625,-0.22470280528068542,0.06409469991922379,0.03847662732005119
1789549003311309300,6.333309326171875,-0.22789832949638367,0.05039699748158455,0.08035057783126831
1789549003321277200,6.343277099609375,-0.1945897340774536,0.04854030907154083,0.011737532913684845
1789549003331246000,6.35324609375,-0.26102468371391296,0.1369900107383728,-0.08236926048994064
1789549003341214200,6.363214111328125,-0.24882644414901733,0.07563436031341553,-0.016662605106830597
1789549003351182300,6.373182373046875,-0.2882620096206665,0.024843089282512665,0.006334057077765465
1789549003361151200,6.383151123046875,-0.26480406522750854,0.05137692764401436,-0.10303673148155212
1789549003371119400,6.393119384765625,-0.275454580783844,0.06225940212607384,-0.10482584685087204
1789549003381087200,6.403087158203125,-0.2594282925128937,0.023851674050092697,-0.031430017203092575
1789549003391056400,6.413056396484375,-0.24672287702560425,0.03158602491021156,-0.07713225483894348
1789549003401024000,6.42302392578125,-0.2406984269618988,-0.018634112551808357,-0.03427121415734291
1789549003410993400,6.432993408203125,-0.22981221973896027,-0.003104687901213765,0.002591196447610855
1789549003420961000,6.4429609375,-0.1826700121164322,-0.02232072688639164,-0.028521183878183365
1789549003430929200,6.45292919921875,-0.20132865011692047,-0.04346036538481712,-0.016587024554610252
1789549003440898300,6.462898193359375,-0.17658580839633942,-0.066209577023983,-0.0009627970866858959
1789549003450866200,6.4728662109375,-0.1507432907819748,-0.0643584132194519,-0.004849148448556662
1789549003460834300,6.482834228515625,-0.1345565915107727,-0.061715781688690186,0.012155785225331783
1789549003470803200,6.49280322265625,-0.07168468832969666,-0.0587916299700737,-0.0002910303883254528
1789549003480771300,6.502771240234375,-0.04657476022839546,-0.04587613046169281,0.01179647259414196
1789549003490740200,6.512740234375,-0.010945392772555351,-0.03949759155511856,0.0011262516491115093
1789549003500708000,6.5227080078125,0.03573177754878998,-0.05799984931945801,0.0007586702704429626
1789549003510676200,6.53267626953125,0.035829782485961914,-0.030226275324821472,0.013431321829557419
1789549003520645000,6.54264501953125,0.04876582324504852,-0.006589390337467194,-0.034374017268419266
1789549003530613000,6.552613037109375,0.04229380935430527,-0.0037619115319103003,-0.018436329439282417
1789549003540580900,6.562580810546875,0.06801263988018036,-0.0013979789800941944,-0.021746769547462463
1789549003550550000,6.572550048828125,0.07083585858345032,-0.0214539784938097,0.030529484152793884
1789549003560518100,6.58251806640625,0.08203066885471344,-0.021872304379940033,0.0334106907248497
1789549003570487000,6.592487060546875,0.09682692587375641,-0.02358977682888508,0.015789087861776352
1789549003580455200,6.602455078125,0.06870368123054504,-0.011515539139509201,0.015425301156938076
1789549003590423000,6.612423095703125,0.06617394089698792,-0.046795498579740524,0.05547498166561127
1789549003600392200,6.62239208984375,0.09112797677516937,-0.040450215339660645,0.05100758373737335
1789549003610360000,6.632360107421875,0.1098763644695282,-0.04130961745977402,0.01194007694721222
1789549003620328000,6.642327880859375,0.09954655170440674,-0.041289668530225754,0.018830090761184692
1789549003630296800,6.652296875,0.12854091823101044,-0.052969761192798615,0.008098618127405643
1789549003640265000,6.662264892578125,0.11520988494157791,-0.03521553426980972,0.019078262150287628
1789549003650233900,6.67223388671875,0.13112066686153412,-0.019816603511571884,0.016285140067338943
1789549003660202000,6.682201904296875,0.16156485676765442,-0.023371657356619835,0.024707918986678123
1789549003670170000,6.692170166015625,0.20265546441078186,-0.02014242671430111,-0.011804325506091118
1789549003680139000,6.702138916015625,0.20128078758716583,-0.028156977146863937,0.024295566603541374
1789549003690107100,6.712107177734375,0.23489734530448914,-0.024948934093117714,0.03301209211349487
1789549003700075300,6.7220751953125,0.21779803931713104,0.0045854561030864716,-0.021124519407749176
1789549003710044200,6.732044189453125,0.19955486059188843,0.01296935323625803,0.0168918389827013
1789549003720012000,6.742011962890625,0.22162260115146637,0.010649184696376324,0.03800443187355995
1789549003729981000,6.75198095703125,0.23068347573280334,0.0299184862524271,0.005993237718939781
1789549003739949000,6.761948974609375,0.23939840495586395,0.04099327698349953,0.014217165298759937
1789549003749917000,6.7719169921875,0.21658816933631897,0.09079492092132568,-0.020194869488477707
1789549003759886000,6.781885986328125,0.22552774846553802,0.00923997350037098,0.0012986334040760994
1789549003769854000,6.79185400390625,0.16031917929649353,-0.017667274922132492,0.028636781498789787
1789549003779822000,6.801822021484375,0.18431688845157623,-0.03081633150577545,-0.04066713899374008
1789549003789792000,6.8117919921875,0.14276517927646637,-0.02894865721464157,0.019309379160404205
1789549003799760100,6.821760009765625,0.1602172553539276,-0.04134603962302208,-0.0023274007253348827
1789549003809728300,6.831728271484375,0.16198505461215973,-0.01248962339013815,-0.009087834507226944
1789549003819697200,6.841697265625,0.1754102110862732,0.003998917061835527,0.03947903588414192
1789549003829665000,6.8516650390625,0.22188930213451385,-0.001628075959160924,0.014718297868967056
1789549003839634000,6.861634033203125,0.20332956314086914,0.04840783774852753,-0.0016444213688373566
1789549003849602000,6.87160205078125,0.1880909502506256,0.03398708626627922,0.0250425823032856
1789549003859570000,6.88156982421875,0.22807149589061737,-0.0033571994863450527,0.02941775694489479
1789549003869539000,6.8915390625,0.2037975788116455,0.0047571854665875435,0.01863807812333107
1789549003879507000,6.9015068359375,0.2174968421459198,0.04153019189834595,-0.007266678847372532
1789549003889475000,6.91147509765625,0.2465367466211319,0.02211175113916397,-0.003560624085366726
1789549003899444200,6.9214443359375,0.22829121351242065,0.0881788432598114,-0.031204313039779663
1789549003909412000,6.931412109375,0.2479884773492813,0.06817903369665146,-0.005404140800237656
1789549003919381200,6.94138134765625,0.246781587600708,0.07746995240449905,0.005195572040975094
1789549003929348900,6.951348876953125,0.23381279408931732,0.08412838727235794,-0.060668133199214935
1789549003939317000,6.96131689453125,0.14620666205883026,0.10800956934690475,-0.00437504006549716
1789549003949286000,6.971285888671875,0.21620039641857147,0.06598595529794693,-0.029281986877322197
1789549003959254000,6.98125390625,0.1600724160671234,0.09063936769962311,-0.021225925534963608
1789549003969222100,6.99122216796875,0.15829822421073914,0.11646962910890579,-0.06792739033699036
1789549003979191000,7.00119091796875,0.11867602914571762,0.12593606114387512,-0.03483281284570694
1789549003989159200,7.0111591796875,0.14401787519454956,0.08442404121160507,-0.02417537197470665
1789549003999127000,7.021126953125,0.07320096343755722,0.11303247511386871,0.04314605891704559
1789549004009096200,7.03109619140625,0.07600127905607224,0.11361384391784668,0.020469238981604576
1789549004019064000,7.04106396484375,0.05780906230211258,0.12312258780002594,0.024851690977811813
1789549004029033000,7.051032958984375,0.07104657590389252,0.11013621836900711,-0.008517185226082802
1789549004039001000,7.0610009765625,0.02150746062397957,0.11642107367515564,0.0028432016260921955
1789549004048969000,7.070968994140625,0.021422240883111954,0.09618957340717316,0.004670662805438042
1789549004058938000,7.080938232421875,0.019067157059907913,0.08280053734779358,-0.02752438746392727
1789549004068906000,7.090906005859375,0.0005984007148072124,0.10824251919984818,-0.06609601527452469
1789549004078874000,7.1008740234375,0.0014306358061730862,0.11303437501192093,-0.08207888901233673
1789549004088843000,7.110843017578125,0.004771837964653969,0.12085928022861481,-0.07778614014387131
1789549004098811100,7.12081103515625,-0.019713103771209717,0.1255928874015808,-0.02275417186319828
1789549004108780000,7.130780029296875,-0.03587636351585388,0.1106879860162735,0.0000070659443736076355
1789549004118748000,7.140747802734375,-0.032259151339530945,0.11578783392906189,0.0191749706864357
1789549004128716000,7.150716064453125,-0.0434231236577034,0.12971962988376617,0.031549081206321716
1789549004138685000,7.160684814453125,-0.026797698810696602,0.11779014021158218,0.02711005136370659
1789549004148653000,7.170653076171875,-0.003810891415923834,0.11188991367816925,0.0011724596843123436
1789549004158621200,7.18062109375,-0.03382450342178345,0.08012083917856216,0.08903759717941284
1789549004168590000,7.190590087890625,-0.04460630938410759,0.13662086427211761,0.023999739438295364
1789549004178558200,7.20055810546875,-0.02778967283666134,0.1281023472547531,-0.0005400362424552441
1789549004188527000,7.210527099609375,-0.08921867609024048,0.10245584696531296,0.08762603998184204
1789549004198495200,7.2204951171875,-0.04097066447138786,0.09554195404052734,0.01650245301425457
1789549004208462800,7.230462890625,-0.05035244673490524,0.10666942596435547,-0.04537422955036163
1789549004218432000,7.240431884765625,-0.10588101297616959,0.07768446207046509,0.06982594728469849
1789549004228399900,7.25039990234375,-0.11669610440731049,0.040378373116254807,0.13157320022583008
1789549004238368000,7.260367919921875,-0.143729105591774,0.13434724509716034,-0.04211891070008278
1789549004248337200,7.270337158203125,-0.20940399169921875,0.15228283405303955,-0.06541970372200012
1789549004258305000,7.280304931640625,-0.16814187169075012,0.071934275329113,0.0021375396754592657
1789549004268274200,7.290274169921875,-0.17082607746124268,0.06472243368625641,0.06067435443401337
1789549004278242000,7.300241943359375,-0.1927063912153244,0.1376422494649887,0.013857459649443626
1789549004288210200,7.310210205078125,-0.2204195111989975,0.16024209558963776,0.004690059460699558
1789549004298179000,7.320178955078125,-0.24036191403865814,0.16407984495162964,0.05242010951042175
1789549004308147000,7.33014697265625,-0.24778786301612854,0.15476596355438232,0.01919504627585411
1789549004318115000,7.340114990234375,-0.2914850115776062,0.14997942745685577,-0.012451128102838993
1789549004328084000,7.350083984375,-0.31292665004730225,0.09868055582046509,-0.009679043665528297
1789549004338052000,7.360052001953125,-0.2986985146999359,0.031120488420128822,-0.0048862723633646965
1789549004348021000,7.37002099609375,-0.29370826482772827,0.06623959541320801,-0.13549861311912537
1789549004357989000,7.379989013671875,-0.3873746395111084,0.016531774774193764,0.04216841235756874
1789549004367957000,7.38995703125,-0.3378712832927704,0.003645536256954074,0.05715268477797508
1789549004377926100,7.399926025390625,-0.33251774311065674,0.06485264748334885,-0.030454065650701523
1789549004387894300,7.409894287109375,-0.29459670186042786,0.0749814510345459,-0.027581844478845596
1789549004397862000,7.41986181640625,-0.3165212869644165,0.04492378979921341,0.12913280725479126
1789549004407831000,7.4298310546875,-0.26435819268226624,0.0285477451980114,0.11433761566877365
1789549004417799000,7.439798828125,-0.271846741437912,0.11285863071680069,-0.056422945111989975
1789549004427768000,7.44976806640625,-0.296798437833786,0.05770323425531387,-0.011939099058508873
1789549004437736000,7.45973583984375,-0.30500948429107666,-0.029604554176330566,0.09265518188476562
1789549004447704000,7.4697041015625,-0.3107222318649292,0.008740169927477837,0.00993979349732399
1789549004457673000,7.4796728515625,-0.31614524126052856,-0.009128006175160408,-0.05334187671542168
1789549004467641000,7.48964111328125,-0.35391685366630554,-0.051353223621845245,0.045786838978528976
1789549004477610000,7.49960986328125,-0.2674793601036072,-0.10001885145902634,0.07407143712043762
1789549004487578000,7.509578125,-0.3230379521846771,-0.004441201686859131,0.0054953088983893394
1789549004497546000,7.5195458984375,-0.28929582238197327,-0.005998214706778526,-0.03989611566066742
1789549004507515000,7.529514892578125,-0.24589350819587708,-0.036256786435842514,-0.032828085124492645
1789549004517483000,7.53948291015625,-0.24067893624305725,-0.07365965098142624,-0.016399770975112915
1789549004527452000,7.549451904296875,-0.25773540139198303,-0.06150391697883606,-0.035238705575466156
1789549004537421000,7.559421142578125,-0.19134584069252014,-0.10976453125476837,-0.09043050557374954
1789549004547389000,7.569388916015625,-0.21997961401939392,-0.11699741333723068,-0.01654190570116043
1789549004557358000,7.579358154296875,-0.17889969050884247,-0.14781753718852997,0.022178415209054947
1789549004567326000,7.589325927734375,-0.11008202284574509,-0.10120609402656555,-0.06378735601902008
1789549004577293800,7.5992939453125,-0.10642258822917938,-0.13743358850479126,0.022298678755760193
1789549004587263000,7.609262939453125,-0.07864847779273987,-0.14399747550487518,0.08140887320041656
1789549004597230800,7.61923095703125,0.017178919166326523,-0.15875981748104095,-0.005462083034217358
1789549004607199000,7.629198974609375,-0.0034416699782013893,-0.10485077649354935,-0.0037062615156173706
1789549004617168000,7.63916796875,0.031141124665737152,-0.15840566158294678,0.05111891031265259
1789549004627136000,7.649135986328125,0.055101051926612854,-0.1605314016342163,-0.00988532230257988
1789549004637105000,7.65910498046875,0.09304924309253693,-0.18176349997520447,-0.030471060425043106
1789549004647073000,7.669072998046875,0.12676459550857544,-0.1888110190629959,-0.008366290479898453
1789549004657041000,7.679041015625,0.15597516298294067,-0.2020426094532013,0.032082799822092056
1789549004667009800,7.689009765625,0.22444742918014526,-0.15767914056777954,-0.026648689061403275
1789549004676978000,7.69897802734375,0.23961970210075378,-0.1236814558506012,-0.02632342278957367
1789549004686946800,7.70894677734375,0.24491460621356964,-0.13822364807128906,0.014267146587371826
1789549004696915000,7.7189150390625,0.2631731927394867,-0.14324449002742767,0.056221626698970795
1789549004706883000,7.728883056640625,0.2997564971446991,-0.10573412477970123,-0.0646725669503212
1789549004716852000,7.73885205078125,0.23479747772216797,-0.10786998271942139,-0.025070032104849815
1789549004726820000,7.748820068359375,0.3044745624065399,-0.1622738391160965,0.020712371915578842
1789549004736788000,7.7587880859375,0.30981361865997314,-0.09687242656946182,-0.02599276974797249
1789549004746757000,7.768757080078125,0.32465860247612,-0.08911570906639099,-0.007311493158340454
1789549004756724700,7.778724853515625,0.3459406793117523,-0.07681956142187119,-0.0068130698055028915
1789549004766694000,7.78869384765625,0.3456423878669739,-0.04609839618206024,-0.014909878373146057
1789549004776661800,7.798661865234375,0.34090110659599304,-0.0789252296090126,0.08421353995800018
1789549004786630000,7.8086298828125,0.3558520972728729,-0.07139487564563751,0.05086730048060417
1789549004796598800,7.818598876953125,0.3148021996021271,-0.03414185717701912,-0.006075164303183556
1789549004806567000,7.82856689453125,0.28105035424232483,-0.10037680715322495,0.04747088626027107
1789549004816536000,7.8385361328125,0.2855507731437683,-0.12046255171298981,0.069553904235363
1789549004826504000,7.84850390625,0.2735697329044342,-0.07308810949325562,-0.02503385581076145
1789549004836472000,7.85847216796875,0.25938504934310913,-0.05937880277633667,-0.021072272211313248
1789549004846441000,7.86844091796875,0.3037450611591339,-0.05442851781845093,-0.0278185922652483
1789549004856408800,7.878408935546875,0.28859826922416687,-0.02575051598250866,-0.0067510176450014114
1789549004866377000,7.888376953125,0.27262943983078003,0.02600029483437538,-0.026452286168932915
1789549004876345900,7.898345947265625,0.254005491733551,0.0333862379193306,-0.026143506169319153
1789549004886314000,7.90831396484375,0.2688760459423065,-0.019137954339385033,0.028594311326742172
1789549004896283000,7.918282958984375,0.2553105354309082,0.006382788997143507,0.017998825758695602
1789549004906251000,7.9282509765625,0.23830677568912506,-0.0008969618938863277,-0.0037501449696719646
1789549004916219000,7.938218994140625,0.2376748025417328,-0.006667245179414749,0.005194405559450388
1789549004926188000,7.94818798828125,0.21725289523601532,0.015974683687090874,0.01716851070523262
1789549004936156200,7.95815625,0.20637179911136627,0.025091450661420822,0.033192697912454605
1789549004946123800,7.968123779296875,0.20145374536514282,0.06195519492030144,0.017114663496613503
1789549004956093000,7.978093017578125,0.17770595848560333,0.10039937496185303,0.022361433133482933
1789549004966060800,7.988060791015625,0.14860665798187256,0.07214643806219101,0.06271551549434662
1789549004976030000,7.998030029296875,0.13376928865909576,0.08758913725614548,0.024185627698898315
1789549004985997800,8.007997802734375,0.1287284642457962,0.06493496149778366,-0.052769340574741364
1789549004995966000,8.017966064453125,0.03619122877717018,0.05363073945045471,-0.019688423722982407
1789549005005934800,8.027934814453126,0.06703808903694153,-0.0186527781188488,0.023347459733486176
1789549005015903000,8.037903076171874,0.07792951166629791,0.011587528511881828,-0.028890572488307953
1789549005025871000,8.04787109375,0.041601333767175674,0.043635208159685135,0.003086000680923462
1789549005035840000,8.057840087890625,0.04739413782954216,0.06005234271287918,0.009333021938800812
1789549005045807900,8.067807861328125,0.06381625682115555,0.07742387801408768,0.03499923646450043
1789549005055776800,8.07777685546875,0.04996754601597786,0.025696013122797012,0.0633893609046936
1789549005065745000,8.087744873046875,0.028274498879909515,0.08800199627876282,-0.07825485616922379
1789549005075713000,8.097713134765625,-0.026148684322834015,0.022553613409399986,-0.02735626883804798
1789549005085682000,8.107681884765626,-0.016643065959215164,0.014344420284032822,0.035387806594371796
1789549005095650000,8.117650146484374,0.017422877252101898,0.01985861361026764,-0.026218263432383537
1789549005105618000,8.127617919921875,0.006622161250561476,0.07036972045898438,-0.07396820932626724
1789549005115587000,8.137587158203125,0.03290845453739166,0.05805893614888191,-0.043309733271598816
1789549005125555000,8.147554931640625,0.00106983189471066,0.07441899925470352,-0.020419064909219742
1789549005135524000,8.157524169921874,0.03246583789587021,0.057848844677209854,-0.013469457626342773
1789549005145491700,8.16749169921875,0.01159624196588993,0.10240858793258667,-0.015992270782589912
1789549005155459800,8.1774599609375,0.017748212441802025,0.07002467662096024,0.006312440149486065
1789549005165429000,8.187428955078126,0.008058566600084305,0.03779536858201027,-0.006196427159011364
1789549005175396900,8.19739697265625,-0.02194019965827465,0.05326157063245773,-0.012104474008083344
1789549005185366000,8.207365966796875,-0.02054763212800026,0.048461753875017166,-0.038355521857738495
1789549005195334000,8.217333984375,-0.042794402688741684,0.029231136664748192,-0.0017568864859640598
1789549005205302000,8.227302001953126,0.002229797188192606,0.023229170590639114,0.014586400240659714
1789549005215271000,8.23727099609375,0.03630302846431732,0.05036630481481552,-0.013029048219323158
1789549005225239000,8.247239013671875,0.013212885707616806,0.047680772840976715,0.035747282207012177
1789549005235207000,8.25720703125,0.10626693069934845,0.023586366325616837,0.00017511146143078804
1789549005245175800,8.26717578125,0.09522093832492828,0.07852498441934586,-0.033969007432460785
1789549005255144000,8.27714404296875,0.09512735158205032,0.10743237286806107,-0.059471309185028076
1789549005265112800,8.28711279296875,0.12023137509822845,0.08292090892791748,-0.04310165345668793
1789549005275081000,8.2970810546875,0.1397373229265213,0.10198096930980682,-0.04794994741678238
1789549005285049000,8.307049072265626,0.1358107477426529,0.09617181867361069,-0.02942260168492794
1789549005295018000,8.31701806640625,0.1370696872472763,0.027761826291680336,0.0877612829208374
1789549005304986000,8.326986083984375,0.18717066943645477,0.0805259719491005,0.025572210550308228
1789549005314954000,8.3369541015625,0.16604045033454895,0.1525830179452896,-0.050773829221725464
1789549005324923100,8.346923095703126,0.15562988817691803,0.07043221592903137,0.025327330455183983
1789549005334890800,8.356890869140624,0.14497725665569305,0.03707905113697052,0.07634471356868744
1789549005344860000,8.36685986328125,0.10724692046642303,0.07538595795631409,-0.0015018866397440434
1789549005354827800,8.376827880859375,0.12354552000761032,0.05824475735425949,-0.036057788878679276
1789549005364796000,8.3867958984375,0.14291255176067352,0.04968535527586937,-0.00859127752482891
1789549005374764800,8.396764892578124,0.1075960099697113,0.0701979249715805,0.03830372169613838
1789549005384733000,8.40673291015625,0.07392832636833191,0.10537215322256088,-0.027920303866267204
1789549005394701000,8.416701171875,0.06282474845647812,0.10677488148212433,0.009682460688054562
1789549005404670000,8.426669921875,0.08196595311164856,0.08862144500017166,0.002894329372793436
1789549005414638000,8.43663818359375,0.11041474342346191,0.0674971342086792,-0.043177101761102676
1789549005424607000,8.44660693359375,0.03784601017832756,0.08065740764141083,-0.043841294944286346
1789549005434574800,8.456574951171875,0.019520636647939682,0.04950632527470589,0.04576529935002327
1789549005444543000,8.46654296875,0.014720821753144264,0.07633128017187119,0.01468141470104456
1789549005454511900,8.476511962890624,-0.022723115980625153,0.13938787579536438,0.002086717402562499
1789549005464480000,8.48647998046875,-0.017675360664725304,0.14400899410247803,0.021096359938383102
1789549005474448000,8.49644775390625,-0.014794939197599888,0.15978297591209412,-0.022409962490200996
1789549005484417000,8.5064169921875,-0.060548845678567886,0.10094469040632248,0.018087929114699364
1789549005494385000,8.516385009765624,-0.12686000764369965,0.11913760751485825,0.03476877883076668
1789549005504354000,8.52635400390625,-0.16839998960494995,0.08585448563098907,0.036800503730773926
1789549005514322000,8.536322021484375,-0.18634235858917236,0.11293382942676544,-0.06985972821712494
1789549005524289800,8.546289794921876,-0.21211881935596466,0.1130099967122078,0.004470428451895714
1789549005534257700,8.556257568359374,-0.19205264747142792,0.09821933507919312,0.030388612300157547
1789549005544225800,8.566225830078125,-0.2103552222251892,0.1503342092037201,-0.049706753343343735
1789549005554193700,8.576193603515625,-0.26016947627067566,0.1152663379907608,0.01594695821404457
1789549005564162800,8.586162841796876,-0.27904197573661804,0.11060634255409241,0.007962267845869064
1789549005574130700,8.596130615234374,-0.29292187094688416,0.09190990775823593,-0.04461453855037689
1789549005584099800,8.606099853515625,-0.3034898340702057,0.061295539140701294,0.02597280964255333
1789549005594067500,8.6160673828125,-0.2933092415332794,0.03698977828025818,0.07835040241479874
1789549005604035600,8.62603564453125,-0.3025035262107849,0.12178748846054077,-0.056385576725006104
1789549005614004700,8.636004638671874,-0.32269442081451416,0.06720086932182312,0.009731873869895935
1789549005623972600,8.64597265625,-0.376610666513443,0.05239449068903923,-0.03243395686149597
1789549005633940700,8.655940673828125,-0.35032808780670166,0.060150038450956345,-0.035429082810878754
1789549005643909600,8.66590966796875,-0.3156345784664154,0.02900676429271698,-0.12606629729270935
1789549005653877800,8.675877685546874,-0.3687315583229065,-0.01922794245183468,0.04278036206960678
1789549005663846000,8.685845947265625,-0.3481690287590027,-0.023964907974004745,0.08599334955215454
1789549005673814800,8.695814697265625,-0.17795175313949585,0.07054749131202698,-0.1912423074245453
1789549005683782700,8.70578271484375,-0.31438228487968445,0.09538733214139938,-0.1310119926929474
1789549005693751600,8.71575146484375,-0.3363693058490753,-0.013890734873712063,0.008138172328472137
1789549005703719700,8.7257197265625,-0.2941773533821106,-0.0460292287170887,-0.019182130694389343
1789549005713687600,8.7356875,-0.31688177585601807,-0.008314485661685467,-0.07983984053134918
1789549005723656700,8.74565673828125,-0.32761165499687195,-0.04734018072485924,-0.0026489151641726494
1789549005733624600,8.75562451171875,-0.24571897089481354,-0.09885471314191818,0.02718294970691204
1789549005743592700,8.7655927734375,-0.16814321279525757,-0.03981136903166771,-0.05307407304644585
1789549005753561900,8.775561767578125,-0.20425382256507874,-0.0390361025929451,0.021314289420843124
1789549005763529700,8.78552978515625,-0.15724477171897888,-0.08511437475681305,0.05897165462374687
1789549005773499000,8.795498779296874,-0.08933783322572708,-0.06889763474464417,0.014562379568815231
1789549005783466500,8.805466552734375,-0.063175730407238,-0.04286763444542885,-0.08414795249700546
1789549005793434600,8.8154345703125,-0.042302727699279785,-0.1068849116563797,-0.03799516707658768
1789549005803403500,8.825403564453126,0.037958286702632904,-0.16159476339817047,-0.01923559419810772
1789549005813371600,8.83537158203125,0.06926567107439041,-0.11881325393915176,-0.07170679420232773
1789549005823339800,8.84533984375,0.06124848872423172,-0.10528652369976044,-0.03090556152164936
1789549005833308700,8.85530859375,0.10953404754400253,-0.13298028707504272,0.003377823391929269
1789549005843276800,8.86527685546875,0.17486856877803802,-0.11609452217817307,-0.013873068615794182
1789549005853244700,8.87524462890625,0.18617679178714752,-0.09031577408313751,-0.01952381245791912
1789549005863213800,8.8852138671875,0.20432516932487488,-0.13110288977622986,0.03614397719502449
1789549005873181700,8.895181640625,0.24748094379901886,-0.11269649863243103,0.01821105182170868
1789549005883150600,8.905150634765626,0.2808127999305725,-0.08774907141923904,0.014741486869752407
1789549005893118700,8.91511865234375,0.29396018385887146,-0.07562814652919769,-0.018847841769456863
1789549005903086600,8.925086669921875,0.28726738691329956,-0.03466952592134476,-0.06564544141292572
1789549005913055700,8.9350556640625,0.28660911321640015,-0.046512894332408905,-0.09604581445455551
1789549005923023600,8.945023681640626,0.25327539443969727,-0.1388300359249115,0.11341766268014908
1789549005932991700,8.95499169921875,0.30159494280815125,-0.0914182960987091,0.016642507165670395
1789549005942960600,8.964960693359375,0.25180235505104065,-0.021126553416252136,-0.036231629550457
1789549005952928800,8.9749287109375,0.2299330085515976,-0.06968291103839874,0.033275604248046875
1789549005962897700,8.984897705078126,0.2701733708381653,-0.058702435344457626,0.027156993746757507
1789549005972865500,8.994865478515624,0.23589107394218445,0.027791399508714676,-0.08378523588180542
1789549005982833700,9.004833740234375,0.19581209123134613,0.04411045089364052,-0.05500951036810875
1789549005992802600,9.014802490234375,0.17012335360050201,0.002220957772806287,0.042719516903162
1789549006002770700,9.024770751953126,0.1412821263074875,0.04303789883852005,-0.04125421494245529
1789549006012738800,9.03473876953125,0.09517934173345566,0.025408823043107986,-0.048761069774627686
1789549006022707700,9.044707763671875,0.1001402735710144,-0.04760280251502991,0.041568826884031296
1789549006032675800,9.05467578125,0.10547561198472977,-0.014748627319931984,0.018312253057956696
1789549006042643700,9.064643798828126,0.042925942689180374,0.03233712539076805,0.025059638544917107
1789549006052612900,9.07461279296875,0.05217564478516579,0.05463153123855591,0.06347107887268066
1789549006062580500,9.08458056640625,0.09418247640132904,0.056055791676044464,0.009591339156031609
1789549006072549600,9.094549560546875,0.021003805100917816,0.039926622062921524,0.04119345545768738
1789549006082517500,9.104517578125,-0.029468689113855362,0.0499425046145916,0.0449298694729805
1789549006092485600,9.114485595703124,-0.028930723667144775,0.04527667909860611,0.024874214082956314
1789549006102454800,9.124454833984375,-0.028674528002738953,0.036286115646362305,0.00048685120418667793
1789549006112422700,9.134422607421875,-0.07686656713485718,0.019618146121501923,0.04652410000562668
1789549006122390800,9.144390869140626,-0.05935681238770485,0.04571232944726944,0.0128854438662529
1789549006132359700,9.154359619140624,-0.052555833011865616,0.034083638340234756,0.018643487244844437
1789549006142327800,9.164327880859375,-0.0658724457025528,0.05755674093961716,-0.005445071030408144
1789549006152295700,9.174295654296875,-0.05460572987794876,0.04665084928274155,-0.006823933217674494
1789549006162264600,9.1842646484375,-0.05748860538005829,0.06722509860992432,-0.03783857449889183
1789549006172232700,9.194232666015624,-0.06316699832677841,0.029848158359527588,0.04506542533636093
1789549006182200600,9.20420068359375,-0.03320057690143585,0.04964236915111542,0.042558591812849045
1789549006192169700,9.214169677734375,-0.004406849853694439,0.05208460986614227,0.005506903864443302
1789549006202137600,9.2241376953125,-0.08086753636598587,0.09913147985935211,0.012736054137349129
1789549006212106800,9.234106689453125,-0.007058822549879551,0.04780092462897301,-0.003822744358330965
1789549006222074600,9.24407470703125,-0.026730794459581375,0.03289095312356949,-0.019222473725676537
1789549006232042800,9.254042724609375,-0.07957791537046432,0.0346464067697525,0.02262091636657715
1789549006242012000,9.264011962890624,-0.06246737763285637,0.051564402878284454,-0.015787992626428604
1789549006251979500,9.2739794921875,-0.09528573602437973,0.07598604261875153,0.027096282690763474
1789549006261947600,9.28394775390625,-0.09287717193365097,0.05898655578494072,0.03808155283331871
1789549006271916500,9.29391650390625,-0.11056486517190933,0.056523486971855164,0.03186069056391716
1789549006281884700,9.303884765625,-0.11044874787330627,0.03786591440439224,-0.021539684385061264
1789549006291852800,9.313852783203124,-0.13334038853645325,0.03384014964103699,-0.026265207678079605
1789549006301821700,9.32382177734375,-0.1269192397594452,-0.0009098434820771217,0.015543493442237377
1789549006311789800,9.333789794921875,-0.13844439387321472,0.04673308879137039,0.04505264386534691
1789549006321758700,9.3437587890625,-0.10924708843231201,0.10159553587436676,-0.061313480138778687
1789549006331726800,9.353726806640625,-0.12588220834732056,0.10062476992607117,-0.05384410172700882
1789549006341694700,9.36369482421875,-0.10910801589488983,0.03327236324548721,-0.007437989115715027
1789549006351663600,9.37366357421875,-0.117886483669281,0.036400675773620605,-0.010661410167813301
1789549006361631700,9.3836318359375,-0.11015639454126358,0.07982777804136276,-0.10702842473983765
1789549006371599600,9.393599609375,-0.14367280900478363,0.07124866545200348,0.011534705758094788
1789549006381568800,9.40356884765625,-0.08751552551984787,0.030172074213624,0.07443110644817352
1789549006391536600,9.41353662109375,-0.08888427913188934,0.13197185099124908,-0.05662350729107857
1789549006401504800,9.4235048828125,-0.10980021953582764,0.11578807234764099,-0.07870350778102875
1789549006411473700,9.4334736328125,-0.1151924803853035,0.039721425622701645,0.08369645476341248
1789549006421441800,9.44344189453125,-0.042623475193977356,0.032834492623806,0.051055680960416794
1789549006431410700,9.45341064453125,-0.0992937758564949,0.13546831905841827,-0.0649753138422966
1789549006441378600,9.463378662109376,-0.12487130612134933,0.08613086491823196,0.0004092920571565628
1789549006451346700,9.4733466796875,-0.07890349626541138,0.012123432010412216,0.050589706748723984
1789549006461315600,9.483315673828125,-0.13468793034553528,0.04710271954536438,0.052812378853559494
1789549006471283700,9.49328369140625,-0.13776825368404388,0.07066807150840759,-0.02258870378136635
1789549006481251800,9.503251953125,-0.12730975449085236,0.05697089806199074,-0.054692044854164124
1789549006491220700,9.513220703125,-0.1495499312877655,-0.0094557274132967,0.03631627559661865
1789549006501188900,9.52318896484375,-0.18876232206821442,0.0010230123298242688,0.05387423187494278
1789549006511156700,9.53315673828125,-0.1635991632938385,0.019320281222462654,-0.05127787962555885
1789549006521126000,9.5431259765625,-0.1514705866575241,-0.006454322952777147,-0.027801046147942543
1789549006531094300,9.55309423828125,-0.21532446146011353,-0.006031091324985027,0.028046704828739166
1789549006541062400,9.5630625,-0.2179519385099411,-0.0036076148971915245,-0.013281824998557568
1789549006551031300,9.57303125,-0.20287834107875824,0.02582555077970028,-0.035968225449323654
1789549006560999400,9.58299951171875,-0.23471935093402863,-0.07811842858791351,0.20187708735466003
1789549006570968300,9.59296826171875,-0.127863809466362,0.07956429570913315,-0.10627420991659164
1789549006580936400,9.6029365234375,-0.14816775918006897,0.12299885600805283,-0.1580556482076645
1789549006590904600,9.612904541015626,-0.18422555923461914,-0.004941970109939575,0.15668870508670807
1789549006600873500,9.62287353515625,0.08057521283626556,0.08807265758514404,0.018076227977871895
1789549006610841600,9.632841552734375,-0.18202827870845795,0.02853943407535553,0.036840006709098816
1789549006620809200,9.642809326171875,0.0810515508055687,-0.14516738057136536,0.16993308067321777
1789549006630778400,9.6527783203125,-0.006481597200036049,0.01608685962855816,0.07723290473222733
1789549006640746200,9.662746337890624,-0.006857103202491999,0.04967224970459938,-0.016664832830429077
1789549006650714400,9.67271435546875,0.02615135721862316,0.021276691928505898,0.004325405694544315
1789549006660683500,9.68268359375,-0.12256062030792236,0.09118946641683578,0.03698934242129326
1789549006670651400,9.6926513671875,-0.22631436586380005,0.1336936354637146,0.014640158042311668
1789549006680619500,9.70261962890625,-0.20799501240253448,0.02586650848388672,0.05924171581864357
1789549006690588400,9.71258837890625,-0.18507616221904755,0.001513543538749218,0.06748232990503311
1789549006700556500,9.722556640625,-0.2458130121231079,0.04567248374223709,0.02932988479733467
1789549006710525400,9.732525390625,-0.255319207906723,0.09796291589736938,-0.018790367990732193
1789549006720493300,9.742493408203124,-0.23505735397338867,0.033824678510427475,0.014885568991303444
1789549006730461400,9.75246142578125,-0.3008308410644531,0.01286485604941845,0.07517467439174652
1789549006740430300,9.762430419921875,-0.2464056760072708,-0.005775673780590296,0.0015635723248124123
1789549006750398500,9.7723984375,-0.2665235102176666,0.011997764930129051,-0.0664292648434639
1789549006760366300,9.782366455078124,-0.27712157368659973,-0.02664629928767681,-0.027317550033330917
1789549006770335500,9.79233544921875,-0.24997791647911072,-0.08186359703540802,0.014231367036700249
1789549006780303400,9.802303466796875,-0.1695919930934906,-0.07803024351596832,-0.06571938842535019
1789549006790271500,9.812271484375,-0.2871340215206146,-0.05088576301932335,0.01626289263367653
1789549006800240600,9.82224072265625,-0.2627336084842682,-0.08209934085607529,0.026056667789816856
1789549006810208300,9.832208251953125,-0.21131634712219238,-0.10611084848642349,0.020390789955854416
1789549006820176400,9.84217626953125,-0.2666219472885132,-0.09087943285703659,0.0018482652958482504
1789549006830145300,9.852145263671876,-0.2506508529186249,-0.1469459980726242,0.10991601645946503
1789549006840113400,9.862113525390624,-0.13894402980804443,-0.10026265680789948,-0.04689037799835205
1789549006850081500,9.87208154296875,-0.07778755575418472,-0.10898677259683609,-0.03075801208615303
1789549006860050400,9.882050537109375,-0.0829748585820198,-0.10274006426334381,0.0590863898396492
1789549006870018600,9.8920185546875,-0.002038703067228198,-0.17729933559894562,0.13272492587566376
1789549006879987500,9.901987548828124,0.0467434823513031,-0.08451081067323685,-0.01764274761080742
1789549006889955600,9.91195556640625,0.0047139558009803295,-0.10604614019393921,-0.016498452052474022
1789549006899923200,9.921923095703125,0.05023350566625595,-0.1375843584537506,-0.03375254198908806
1789549006909892400,9.931892333984376,0.11160103231668472,-0.12353187054395676,-0.037685826420784
1789549006919860500,9.941860595703124,0.18443848192691803,-0.06266985088586807,-0.12985357642173767
1789549006929828400,9.951828369140625,0.2590470314025879,-0.2327551692724228,0.048436541110277176
1789549006939797500,9.961797607421875,0.27709871530532837,-0.19212359189987183,0.10657520592212677
1789549006949765400,9.971765380859376,0.2656436264514923,-0.14401459693908691,-0.02977251261472702
1789549006959733500,9.9817333984375,0.25770607590675354,-0.08028062433004379,-0.05739375203847885
1789549006969702400,9.991702392578125,0.2633558213710785,-0.14762432873249054,0.03995490446686745
1789549006979670500,10.00167041015625,0.32409077882766724,-0.1763009876012802,0.04121830686926842
1789549006989638400,10.011638427734376,0.26265862584114075,-0.0921354815363884,0.017046457156538963
1789549006999607300,10.021607177734374,0.2957494556903839,-0.14311131834983826,0.0030105323530733585
1789549007009575400,10.031575439453125,0.3403053879737854,-0.17179809510707855,0.03487958386540413
1789549007019543300,10.041543212890625,0.32754406332969666,-0.11310281604528427,0.01570136286318302
1789549007029512400,10.051512451171876,0.358147531747818,-0.08524118363857269,-0.02759099192917347
1789549007039480300,10.061480224609374,0.34610313177108765,-0.10890123248100281,0.04209247976541519
1789549007049449500,10.071449462890625,0.35178375244140625,-0.07381201535463333,0.04370936006307602
1789549007059417600,10.08141748046875,0.38550683856010437,-0.049594562500715256,-0.02059878595173359
1789549007069385500,10.091385498046876,0.38760340213775635,-0.02108767256140709,-0.026994436979293823
1789549007079354600,10.101354736328124,0.3522997498512268,-0.016413826495409012,-0.006396215874701738
1789549007089322200,10.111322265625,0.3187786340713501,-0.02657363936305046,0.014804073609411716
1789549007099290400,10.121290283203125,0.2722572088241577,-0.01523043867200613,0.016690123826265335
1789549007109259300,10.13125927734375,0.21587426960468292,0.010731813497841358,-0.008699849247932434
1789549007119227400,10.141227294921874,0.16376952826976776,0.018192924559116364,-0.0385751910507679
1789549007129195500,10.151195556640625,0.06883139163255692,-0.006110936403274536,0.019243303686380386
1789549007139164400,10.161164306640625,0.04926541447639465,-0.06583604961633682,0.03369787707924843
1789549007149132500,10.171132568359376,0.004946374800056219,-0.025263527408242226,-0.03968299925327301
1789549007159100400,10.181100341796874,-0.051686275750398636,-0.0183654073625803,-0.06940068304538727
1789549007169069600,10.191069580078125,-0.09553105384111404,-0.04448115825653076,-0.017747342586517334
1789549007179037400,10.201037353515625,-0.16945214569568634,-0.005019235424697399,0.008053894154727459
1789549007189005300,10.21100537109375,-0.21699419617652893,-0.018103737384080887,0.017464643344283104
1789549007198974500,10.220974365234374,-0.22150824964046478,-0.06978930532932281,0.04458840563893318
1789549007208942300,10.2309423828125,-0.2547279894351959,-0.04276325926184654,0.059732336550951004
1789549007218910500,10.240910400390625,-0.24138711392879486,-0.045364901423454285,0.07964719086885452
1789549007228879400,10.25087939453125,-0.1853436827659607,0.008290961384773254,0.01842644438147545
1789549007238847500,10.260847412109374,-0.1890055388212204,0.022539937868714333,0.04267292469739914
1789549007248815600,10.270815673828125,-0.16807125508785248,-0.014446510002017021,0.03980856388807297
1789549007258784500,10.280784423828125,-0.15259909629821777,-0.005671394988894463,-0.00700554670765996
1789549007268752400,10.29075244140625,-0.14213113486766815,-0.021230831742286682,0.05335533618927002
1789549007278720300,10.30072021484375,-0.10078129172325134,0.01819140836596489,0.01839122362434864
1789549007288689400,10.310689453125,-0.031551189720630646,0.04998621344566345,-0.01863623596727848
1789549007298657500,10.320657470703125,-0.031051315367221832,-0.006692781578749418,0.045186951756477356
1789549007308626400,10.33062646484375,0.003385531483218074,-0.03708723559975624,0.018745357170701027
1789549007318594600,10.340594482421874,-0.045577749609947205,-0.028150733560323715,0.0027837019879370928
1789549007328562400,10.3505625,-0.04580579325556755,0.001523942919448018,0.02991138957440853
1789549007338531600,10.360531494140625,-0.03322049230337143,-0.007896190509200096,0.036742132157087326
1789549007348499500,10.37049951171875,0.01984659768640995,-0.033370569348335266,0.012316420674324036
1789549007358467300,10.38046728515625,0.026750843971967697,-0.0008259385358542204,-0.004848184995353222
1789549007368436200,10.390436279296875,0.06500017642974854,-0.08426511287689209,0.06051131337881088
1789549007378404400,10.400404296875,0.09056039154529572,-0.024955453351140022,0.04666074737906456
1789549007388372500,10.41037255859375,0.05758039280772209,0.025490352883934975,0.005904860328882933
1789549007398341400,10.42034130859375,0.10203015059232712,0.0038625565357506275,0.019036641344428062
1789549007408309500,10.4303095703125,0.14683941006660461,-0.04217420518398285,-0.0013608438894152641
1789549007418277400,10.44027734375,0.1073194295167923,0.010561974719166756,0.021223295480012894
1789549007428246500,10.45024658203125,0.1328188180923462,-0.025417383760213852,0.04602770507335663
1789549007438214700,10.460214599609374,0.1301117092370987,-0.000059031182900071144,0.0071791112422943115
1789549007448182300,10.470182373046875,0.01431101281195879,0.1002979725599289,-0.009610717184841633
1789549007458151400,10.4801513671875,0.05803052708506584,0.0027216123417019844,0.06310662627220154
1789549007468119300,10.490119384765626,0.1204448789358139,0.009478822350502014,-0.026469923555850983
1789549007478087400,10.50008740234375,0.004372336436063051,0.03868144750595093,-0.004864497110247612
1789549007488056300,10.510056396484375,-0.038194600492715836,0.008543062023818493,0.04183410108089447
1789549007498024400,10.5200244140625,0.03032214380800724,-0.04314090311527252,0.023331787437200546
1789549007507992600,10.52999267578125,-0.05560217797756195,0.04489666223526001,0.006018641870468855
1789549007517961500,10.53996142578125,-0.04157184809446335,0.0502924919128418,-0.05322950333356857
1789549007527929900,10.549929931640625,-0.041654523462057114,0.014798339456319809,0.006775632966309786
1789549007537897500,10.5598974609375,-0.07887645810842514,0.009193716570734978,-0.01276983879506588
1789549007547866600,10.56986669921875,-0.17493407428264618,0.01009355392307043,-0.0332566574215889
1789549007557834800,10.579834716796874,-0.19494719803333282,-0.01935568079352379,-0.022455409169197083
1789549007567803600,10.5898037109375,-0.2500866949558258,-0.03374336287379265,-0.017903532832860947
1789549007577771800,10.599771728515625,-0.3629003167152405,-0.07228675484657288,0.0680135041475296
1789549007587739600,10.60973974609375,-0.37227824330329895,-0.051685355603694916,0.01773381233215332
1789549007597708800,10.619708740234374,-0.3516949415206909,-0.08634453266859055,-0.025681838393211365
1789549007607676700,10.6296767578125,-0.3712042272090912,-0.10393393039703369,-0.0186229906976223
1789549007617644800,10.639644775390625,-0.36187463998794556,-0.16323374211788177,0.10917385667562485
1789549007627613700,10.64961376953125,-0.2785380482673645,-0.12049522995948792,0.04032468423247337
1789549007637581600,10.65958154296875,-0.26217424869537354,-0.10234898328781128,0.023008011281490326
1789549007647549700,10.6695498046875,-0.2323065549135208,-0.07410148531198502,0.03021259605884552
1789549007657518600,10.6795185546875,-0.17570053040981293,-0.09125836938619614,0.029951073229312897
1789549007667486700,10.68948681640625,-0.09120887517929077,-0.10047072172164917,-0.0016020582988858223
1789549007677454600,10.69945458984375,-0.08025476336479187,-0.07986132055521011,-0.0002760705538094044
1789549007687423700,10.709423828125,-0.008389188908040524,-0.06099430471658707,-0.062249623239040375
1789549007697391900,10.719391845703125,0.09175951033830643,-0.15355272591114044,0.015983127057552338
1789549007707359700,10.72935986328125,0.12567463517189026,-0.14406706392765045,0.04756880924105644
1789549007717329000,10.739328857421874,0.1571286916732788,-0.11865144968032837,0.022199271246790886
1789549007727296500,10.749296630859375,0.20893485844135284,-0.07973168790340424,-0.015108753927052021
1789549007737264600,10.7592646484375,0.2173786759376526,-0.05645699426531792,0.04246159642934799
1789549007747233500,10.769233642578126,0.24306486546993256,-0.01080428995192051,0.014622243121266365
1789549007757201700,10.77920166015625,0.28326472640037537,0.010739085264503956,-0.0316709540784359
1789549007767169800,10.789169677734375,0.5185237526893616,-0.1019226461648941,0.0063224369660019875
1789549007777138700,10.799138671875,0.7721890807151794,-0.1665186882019043,-0.013514917343854904
1789549007787106800,10.80910693359375,0.8415629267692566,-0.09925587475299835,0.02173968032002449
1789549007797074700,10.81907470703125,0.786099374294281,0.027988895773887634,0.05635145306587219
1789549007807043800,10.8290439453125,0.7580113410949707,0.0065032728016376495,0.08259976655244827
1789549007817011700,10.83901171875,0.707028329372406,0.008439657278358936,-0.007331990171223879
1789549007826979600,10.8489794921875,0.5049405694007874,0.03901449963450432,-0.03604472801089287
1789549007836948700,10.85894873046875,0.37067437171936035,-0.004095152951776981,0.0008360589854419231
1789549007846916600,10.86891650390625,0.34283027052879333,0.032513659447431564,-0.09181384742259979
1789549007856884700,10.878884765625,0.23997420072555542,-0.019056590273976326,0.008081058971583843
1789549007866853600,10.888853515625,0.25631198287010193,-0.01994246616959572,-0.037048470228910446
1789549007876821800,10.89882177734375,0.241006538271904,-0.014750367030501366,-0.015108548104763031
1789549007886790000,10.908789794921875,0.20355871319770813,0.04401473328471184,-0.014095017686486244
1789549007896758800,10.9187587890625,0.176148921251297,0.07071612030267715,-0.018904685974121094
1789549007906726700,10.9287265625,0.16544032096862793,-0.007850265130400658,-0.03047306090593338
1789549007916694500,10.938694580078124,0.13835251331329346,0.046253982931375504,-0.019968753680586815
1789549007926663700,10.94866357421875,0.16621671617031097,0.10300184041261673,-0.07781700789928436
1789549007936631600,10.958631591796875,0.16877681016921997,0.0677647590637207,0.006502934731543064
1789549007946599700,10.968599609375,0.1355450302362442,0.06350915879011154,0.0497262217104435
1789549007956568800,10.97856884765625,0.13603292405605316,0.04720662161707878,0.013961834833025932
1789549007966536700,10.98853662109375,0.19761690497398376,0.07539989799261093,-0.03443998098373413
1789549007976504600,10.998504638671875,0.11108735203742981,0.10182031989097595,0.029801590368151665
1789549007986473700,11.0084736328125,0.07207275927066803,0.07697466760873795,0.07927121222019196
1789549007996441600,11.018441650390624,0.007213339675217867,0.15523724257946014,-0.008698590099811554
1789549008006409700,11.02840966796875,-0.09199395775794983,0.12585218250751495,-0.028696395456790924
1789549008016378600,11.038378662109375,-0.10347723960876465,0.12809455394744873,-0.07331286370754242
1789549008026346800,11.0483466796875,-0.08524594455957413,0.08740116655826569,-0.03694601356983185
1789549008036314600,11.058314697265626,-0.15136505663394928,0.0974428802728653,-0.013984506949782372
1789549008046283800,11.06828369140625,-0.15295164287090302,0.12314566224813461,-0.06753414124250412
1789549008056251600,11.078251708984375,-0.1576041728258133,0.12144497036933899,-0.053659334778785706
1789549008066220800,11.088220703125,-0.15269871056079865,0.08539335429668427,0.03684579208493233
1789549008076188700,11.098188720703124,-0.12247023731470108,0.10156938433647156,0.006255389656871557
1789549008086156500,11.108156494140625,-0.06392712146043777,0.12329522520303726,-0.07846494764089584
1789549008096125700,11.118125732421875,-0.05883914977312088,0.12232077121734619,-0.03264393284916878
1789549008106093600,11.128093505859376,-0.025525759905576706,0.09885923564434052,0.053806599229574203
1789549008116061700,11.138061767578124,0.10427644848823547,0.1390330195426941,-0.0033544222824275494
1789549008126030600,11.148030517578125,0.09348206967115402,0.1692304015159607,-0.005429358687251806
1789549008135998700,11.157998779296875,0.08283501863479614,0.14518950879573822,-0.012062227353453636
1789549008145966800,11.167966796875,0.01701699011027813,0.10217633843421936,0.012971291318535805
1789549008155935700,11.177935791015624,-0.060816291719675064,0.09363265335559845,0.07811647653579712
1789549008165903600,11.187903564453125,-0.06213403865695,0.12057264149188995,0.02879779227077961
1789549008175871500,11.19787158203125,-0.09772957861423492,0.12914642691612244,0.0511222705245018
1789549008185840600,11.207840576171876,-0.09735443443059921,0.13362199068069458,0.01784420944750309
1789549008195808800,11.217808837890624,-0.09676720947027206,0.11200138926506042,-0.02481483668088913
1789549008205776600,11.227776611328125,-0.15916569530963898,0.13186229765415192,0.03870481625199318
1789549008215745800,11.237745849609375,-0.202200785279274,0.12017261981964111,0.018451208248734474
1789549008225713700,11.247713623046875,-0.21324512362480164,0.10727701336145401,-0.027345575392246246
1789549008235681800,11.257681884765624,-0.31206434965133667,0.1105729416012764,0.015965677797794342
1789549008245650700,11.267650634765625,-0.34853988885879517,0.06414689123630524,0.04349378123879433
1789549008255618600,11.27761865234375,-0.4246160089969635,0.024336092174053192,0.07313130050897598
1789549008265586700,11.287586669921875,-0.46514636278152466,0.06378114223480225,0.0220791008323431
1789549008275555600,11.2975556640625,-0.4883427619934082,0.08394207060337067,-0.011477794498205185
1789549008285523700,11.307523681640625,-0.4894850552082062,0.06510400772094727,0.010901084169745445
1789549008295491600,11.31749169921875,-0.4618651568889618,0.05628575384616852,-0.003894373308867216
1789549008305460700,11.327460693359376,-0.5381496548652649,0.014319559559226036,0.04713132604956627
1789549008315428600,11.3374287109375,-0.5998673439025879,0.08144426345825195,0.0011537140235304832
1789549008325396700,11.347396728515625,-0.5852750539779663,0.08074644953012466,-0.01992880180478096
1789549008335366000,11.357365966796875,-0.5798091888427734,0.037496987730264664,0.009040798991918564
1789549008345333500,11.36733349609375,-0.5985183119773865,0.023092443123459816,0.03950383514165878
1789549008355301600,11.377301513671876,-0.5590808987617493,0.012452050112187862,0.005233743693679571
1789549008365270500,11.3872705078125,-0.5640348196029663,0.007087258156388998,-0.015214338898658752
1789549008375238700,11.39723876953125,-0.5165562629699707,-0.02045062556862831,0.03426293283700943
1789549008385206800,11.407206787109375,-0.5193745493888855,-0.032268304377794266,0.03091553784906864
1789549008395175700,11.41717578125,-0.48120906949043274,-0.025350742042064667,0.005821902770549059
1789549008405143800,11.427143798828125,-0.46137431263923645,-0.0809304341673851,0.06355344504117966
1789549008415112700,11.43711279296875,-0.45581498742103577,-0.09320281445980072,0.048015493899583817
1789549008425080800,11.447080810546876,-0.4294966161251068,-0.09055690467357635,0.04624921828508377
1789549008435048700,11.457048583984376,-0.37814339995384216,-0.10411345958709717,-0.016850385814905167
1789549008445017600,11.467017578125,-0.3404446542263031,-0.13886648416519165,-0.060910988599061966
1789549008454985700,11.47698583984375,-0.36199361085891724,-0.18571148812770844,-0.010198010131716728
1789549008464953600,11.48695361328125,-0.32534506916999817,-0.2092316448688507,0.05379428341984749
1789549008474922800,11.4969228515625,-0.30407199263572693,-0.20488615334033966,-0.019859163090586662
1789549008484890600,11.506890625,-0.286210298538208,-0.14471140503883362,-0.049579039216041565
1789549008494858800,11.516858642578125,-0.22828257083892822,-0.18658828735351562,0.00044311443343758583
1789549008504827600,11.52682763671875,-0.1601262092590332,-0.194522887468338,0.007874799892306328
1789549008514795800,11.536795654296874,-0.07565980404615402,-0.16544702649116516,-0.03621649369597435
1789549008524763600,11.546763671875,-0.0031228121370077133,-0.17831216752529144,-0.022905483841896057
1789549008534732800,11.55673291015625,0.11841080337762833,-0.21715889871120453,-0.03809375688433647
1789549008544701000,11.566700927734376,0.11234001815319061,-0.20251832902431488,0.06281068176031113
1789549008554668800,11.576668701171876,0.1479073315858841,-0.15216940641403198,-0.0026090675964951515
1789549008564638000,11.586637939453125,0.21239054203033447,-0.23391437530517578,-0.006711799185723066
1789549008574605800,11.596605712890625,0.2132563292980194,-0.23237213492393494,0.031436920166015625
1789549008584574000,11.606573974609375,0.3117063343524933,-0.23820853233337402,-0.007544639986008406
1789549008594543000,11.616543212890624,0.33499565720558167,-0.18052978813648224,-0.003347498830407858
1789549008604511000,11.626510986328125,0.3753078877925873,-0.17569907009601593,-0.0030778488144278526
1789549008614478800,11.636478759765625,0.40555232763290405,-0.22862033545970917,-0.01692468859255314
1789549008624447700,11.64644775390625,0.4663160741329193,-0.24053768813610077,0.006244144402444363
1789549008634415900,11.656415771484374,0.48411691188812256,-0.15841485559940338,-0.03465135768055916
1789549008644384000,11.666384033203125,0.47526705265045166,-0.2014348953962326,-0.018383968621492386
1789549008654353000,11.676352783203125,0.5045186877250671,-0.23955084383487701,-0.03051307052373886
1789549008664321000,11.686321044921876,0.5116918683052063,-0.18830303847789764,-0.04345430061221123
1789549008674290000,11.6962900390625,0.4784737229347229,-0.13397029042243958,0.009109574370086193
1789549008684258000,11.706258056640625,0.5167319178581238,-0.13815392553806305,0.03337676450610161
1789549008694226000,11.716225830078125,0.5753371715545654,-0.14704090356826782,-0.012093514204025269
1789549008704195000,11.726195068359376,0.5311550498008728,-0.10807134956121445,-0.02576351910829544
1789549008714163000,11.736162841796874,0.4695534408092499,-0.0739986002445221,0.010385427623987198
1789549008724130800,11.746130859375,0.5204071402549744,-0.14336411654949188,0.022299479693174362
1789549008734100000,11.756099853515625,0.5004425048828125,-0.15396296977996826,0.03733302280306816
1789549008744067800,11.76606787109375,0.4822452962398529,-0.07794919610023499,-0.004511961713433266
1789549008754036000,11.776035888671874,0.46929487586021423,-0.013909224420785904,-0.02054738625884056
1789549008764004900,11.7860048828125,0.46024173498153687,-0.04540589824318886,0.002911865711212158
1789549008773973000,11.795972900390625,0.44588977098464966,-0.0813252255320549,0.015793969854712486
1789549008783941000,11.805941162109375,0.3660799562931061,-0.05309026315808296,0.02014458179473877
1789549008793910000,11.815909912109374,0.3492588996887207,-0.021358700469136238,0.014359664171934128
1789549008803878000,11.8258779296875,0.3451489806175232,-0.04796990379691124,0.06559708714485168
1789549008813845800,11.835845703125,0.27461621165275574,-0.02131059765815735,0.005422694142907858
1789549008823815000,11.84581494140625,0.1899174600839615,0.027124963700771332,0.003817404620349407
1789549008833782800,11.85578271484375,0.20985335111618042,-0.006474006921052933,0.05806466564536095
1789549008843751000,11.8657509765625,0.14774486422538757,0.047489725053310394,-0.009559452533721924
1789549008853720000,11.875719970703125,0.07510901242494583,0.004325478337705135,-0.05190051719546318
1789549008863688000,11.88568798828125,0.006389910820871592,-0.0065392181277275085,0.020867299288511276
1789549008873656000,11.895656005859376,0.06931987404823303,-0.020943190902471542,0.012858640402555466
1789549008883625000,11.905625,0.05175388976931572,0.020887410268187523,-0.05906202644109726
1789549008893592800,11.9155927734375,-0.009391224943101406,0.046719539910554886,-0.08671948313713074
1789549008903561000,11.92556103515625,0.01556157972663641,-0.02133120410144329,-0.0024636592715978622
1789549008913529900,11.93552978515625,0.04247228801250458,-0.015926318243145943,0.009218829683959484
1789549008923498000,11.945498046875,-0.00015405041631311178,0.06017729267477989,0.00869651697576046
1789549008933467000,11.955466796875,0.048050496727228165,0.00007161102257668972,-0.008159162476658821
1789549008943435000,11.96543505859375,0.025974592193961143,-0.029065877199172974,0.024403974413871765
1789549008953403000,11.97540283203125,-0.0025888755917549133,0.009524391032755375,-0.013397732749581337
1789549008963372000,11.9853720703125,-0.011365313082933426,0.04523872211575508,-0.035637594759464264
1789549008973340200,11.995340087890625,0.05023013800382614,-0.04182533919811249,0.020437661558389664
1789549008983307800,12.005307861328125,0.0708707794547081,-0.023262344300746918,-0.006191891152411699
1789549008993277000,12.01527685546875,0.12437421828508377,0.01381897646933794,-0.06318061053752899
1789549009003244800,12.025244873046875,0.10658939182758331,0.04902225360274315,-0.07060910761356354
1789549009013213000,12.035212890625,0.11625000834465027,-0.010101520456373692,0.04498114064335823
1789549009023181800,12.045181884765626,0.13653549551963806,-0.02157837338745594,0.04238090291619301
1789549009033150000,12.05514990234375,0.16967347264289856,0.018822312355041504,0.034604739397764206
1789549009043118000,12.0651181640625,0.16144509613513947,0.08532410860061646,0.012098098173737526
1789549009053087000,12.0750869140625,0.2048642486333847,0.03578444570302963,0.0654992163181305
1789549009063055000,12.08505517578125,0.18000955879688263,0.04204868525266647,0.009023684076964855
1789549009073022700,12.095022705078126,0.2206624448299408,0.007236377336084843,0.062067460268735886
1789549009082991900,12.104991943359375,0.2202170193195343,0.06388543546199799,0.024144910275936127
1789549009092960000,12.1149599609375,0.2668337821960449,0.05320004001259804,-0.0389067605137825
