time,seconds_elapsed,z,y,x
1788957283286070500,0.041070556640625,-0.9595947265625,-0.4752655029296875,0.061553955078125
1788957283296120300,0.051120361328125,-0.9744415283203125,-0.4429473876953125,0.10345458984375
1788957283306171400,0.06117138671875,-0.9884490966796875,-0.3731536865234375,0.0615692138671875
1788957283316221400,0.071221435546875,-1.0287017822265625,-0.4224853515625,0.0939483642578125
1788957283326271500,0.081271484375,-1.031951904296875,-0.46630859375,0.1274261474609375
1788957283336322600,0.091322509765625,-0.9259033203125,-0.4893951416015625,0.0955963134765625
1788957283346372400,0.101372314453125,-0.84320068359375,-0.4329833984375,0.0275115966796875
1788957283356422400,0.11142236328125,-0.819091796875,-0.423858642578125,-0.036712646484375
1788957283366473500,0.121473388671875,-0.739990234375,-0.5390625,-0.128173828125
1788957283376523500,0.1315234375,-0.6693115234375,-0.674102783203125,-0.2388458251953125
1788957283386573600,0.141573486328125,-0.731353759765625,-0.7864227294921875,-0.2608489990234375
1788957283396624600,0.151624755859375,-0.8538970947265625,-0.68212890625,-0.2148284912109375
1788957283406674400,0.16167431640625,-0.829986572265625,-0.50909423828125,-0.1937255859375
1788957283416725500,0.1717255859375,-0.819488525390625,-0.4374847412109375,-0.1240234375
1788957283426775600,0.181775634765625,-0.8971099853515625,-0.341339111328125,-0.0408935546875
1788957283436825600,0.19182568359375,-0.931396484375,-0.2542266845703125,0.0109710693359375
1788957283446876400,0.20187646484375,-0.96783447265625,-0.1927032470703125,0.039398193359375
1788957283456926500,0.211926513671875,-1.0438385009765625,-0.0975494384765625,0.019683837890625
1788957283466977500,0.2219775390625,-1.2321624755859375,-0.0852508544921875,-0.083221435546875
1788957283477027300,0.23202734375,-1.1711273193359375,-0.154083251953125,-0.0947265625
1788957283487077400,0.242077392578125,-0.661041259765625,-0.0827484130859375,-0.0461273193359375
1788957283497128400,0.25212841796875,-0.696441650390625,-0.3038482666015625,-0.2627410888671875
1788957283507178500,0.262178466796875,-0.7470855712890625,-0.48956298828125,-0.4528350830078125
1788957283517228300,0.272228271484375,-0.622344970703125,-0.5035247802734375,-0.564697265625
1788957283527279400,0.282279296875,-0.553253173828125,-0.4911651611328125,-0.6342926025390625
1788957283537329400,0.292329345703125,-0.6664886474609375,-0.6484527587890625,-0.4323577880859375
1788957283547379500,0.30237939453125,-0.8077545166015625,-0.8347320556640625,-0.18023681640625
1788957283557430500,0.312430419921875,-0.755767822265625,-0.8655853271484375,0.005706787109375
1788957283567480600,0.32248046875,-0.8156890869140625,-0.8505096435546875,-0.008270263671875
1788957283577531600,0.33253173828125,-0.823822021484375,-0.7847442626953125,-0.0782012939453125
1788957283587581400,0.34258154296875,-0.845977783203125,-0.747894287109375,-0.1576995849609375
1788957283597631500,0.352631591796875,-0.8962554931640625,-0.7665252685546875,-0.205474853515625
1788957283607682600,0.3626826171875,-0.8887481689453125,-0.790771484375,-0.2396240234375
1788957283617732600,0.372732666015625,-0.89996337890625,-0.7270965576171875,-0.1282806396484375
1788957283627783400,0.382783447265625,-0.953155517578125,-0.58758544921875,0.0602874755859375
1788957283637833500,0.39283349609375,-0.9382781982421875,-0.5378265380859375,0.3524017333984375
1788957283647883500,0.402883544921875,-0.8938751220703125,-0.48553466796875,0.6032562255859375
1788957283657934300,0.412934326171875,-1.04083251953125,-0.3882293701171875,0.4486846923828125
1788957283667984400,0.422984375,-1.2239532470703125,-0.5520782470703125,-0.140716552734375
1788957283678034400,0.433034423828125,-0.6609649658203125,-1.1811370849609375,-0.80133056640625
1788957283688085500,0.44308544921875,-0.0583343505859375,-1.119354248046875,-0.9835357666015625
1788957283698135300,0.45313525390625,-1.3161773681640625,-0.15057373046875,-0.4263916015625
1788957283708185300,0.463185302734375,-1.143157958984375,-0.0979156494140625,-0.132080078125
1788957283718236400,0.473236328125,-0.9051055908203125,-0.5751190185546875,0.0099334716796875
1788957283728286500,0.483286376953125,-1.0597381591796875,-0.643157958984375,0.3468017578125
1788957283738337500,0.493337646484375,-0.8766937255859375,-0.5147705078125,0.4518280029296875
1788957283748387600,0.5033876953125,-0.9173126220703125,-0.450408935546875,0.41717529296875
1788957283758437400,0.513437255859375,-0.900238037109375,-0.4095458984375,0.34100341796875
1788957283768488400,0.523488525390625,-0.83782958984375,-0.351470947265625,0.3424072265625
1788957283778538500,0.53353857421875,-0.8021240234375,-0.4158477783203125,0.3752899169921875
1788957283788589600,0.543589599609375,-0.705535888671875,-0.4021453857421875,0.3679351806640625
1788957283798639600,0.5536396484375,-0.6288604736328125,-0.2411651611328125,0.493316650390625
1788957283808689700,0.563689697265625,-0.6043548583984375,-0.1171417236328125,0.5880126953125
1788957283818740500,0.573740478515625,-0.6685943603515625,-0.0421142578125,0.56353759765625
1788957283828790500,0.58379052734375,-0.7257843017578125,-0.02825927734375,0.4289703369140625
1788957283838840600,0.593840576171875,-0.7471923828125,0.0240631103515625,0.3831787109375
1788957283848891400,0.603891357421875,-0.7637176513671875,0.1083984375,0.3841094970703125
1788957283858941400,0.61394140625,-0.712310791015625,0.1421661376953125,0.3550567626953125
1788957283868992500,0.623992431640625,-0.7530670166015625,0.1294097900390625,0.2964324951171875
1788957283879042300,0.634042236328125,-0.8610992431640625,0.0730133056640625,0.26593017578125
1788957283889092400,0.64409228515625,-0.908355712890625,-0.018890380859375,0.4020843505859375
1788957283899143400,0.654143310546875,-0.7997283935546875,-0.128875732421875,0.5815277099609375
1788957283909193500,0.664193359375,-0.680206298828125,-0.2059478759765625,0.734405517578125
1788957283919243500,0.674243408203125,-0.8004913330078125,-0.3421478271484375,0.8126983642578125
1788957283929294600,0.684294677734375,-1.04913330078125,-0.6795654296875,0.9138641357421875
1788957283939344400,0.694344482421875,-0.897003173828125,-0.864105224609375,0.9517822265625
1788957283949395500,0.7043955078125,-1.1658172607421875,-1.036346435546875,0.9543304443359375
1788957283959445500,0.714445556640625,-1.1998138427734375,-1.1696014404296875,0.9369354248046875
1788957283969495600,0.72449560546875,-1.0204620361328125,-1.2901458740234375,0.928466796875
1788957283979546600,0.734546630859375,-0.8625946044921875,-1.42974853515625,0.885711669921875
1788957283989596400,0.744596435546875,-0.7551116943359375,-1.57171630859375,0.727264404296875
1788957283999646500,0.754646484375,-0.7293701171875,-1.6395416259765625,0.6930389404296875
1788957284009697500,0.764697509765625,-0.5450897216796875,-1.6654815673828125,0.8272857666015625
1788957284019747600,0.77474755859375,-0.248443603515625,-1.736541748046875,0.998748779296875
1788957284029798400,0.78479833984375,0.095794677734375,-1.779266357421875,1.1245269775390625
1788957284039848400,0.794848388671875,0.3525543212890625,-1.73590087890625,1.118133544921875
1788957284049898500,0.8048984375,0.437042236328125,-1.677215576171875,1.063934326171875
1788957284059949300,0.81494921875,0.525787353515625,-1.5791015625,0.9520721435546875
1788957284069999400,0.824999267578125,0.6563720703125,-1.48321533203125,0.9107666015625
1788957284080049400,0.83504931640625,0.746734619140625,-1.4788970947265625,0.907135009765625
1788957284090100500,0.8451005859375,0.8656463623046875,-1.5055999755859375,0.845458984375
1788957284100150500,0.855150634765625,0.913116455078125,-1.4898681640625,0.8620758056640625
1788957284110201900,0.865201904296875,1.0338134765625,-1.383270263671875,1.0611724853515625
1788957284120252000,0.875251953125,1.077117919921875,-1.24517822265625,1.138427734375
1788957284130302000,0.885302001953125,0.9389495849609375,-1.0748748779296875,1.1379547119140625
1788957284140353000,0.89535302734375,0.556427001953125,-1.4450531005859375,0.92755126953125
1788957284150402800,0.90540283203125,0.3203887939453125,-1.0658416748046875,1.0544281005859375
1788957284160452900,0.915452880859375,0.0012054443359375,-0.5805816650390625,0.90447998046875
1788957284170504000,0.92550390625,-0.1659698486328125,-0.235504150390625,0.7428436279296875
1788957284180554000,0.935553955078125,-0.7015533447265625,-0.3777923583984375,0.586273193359375
1788957284190604800,0.945604736328125,-1.0587158203125,-0.6078338623046875,0.486602783203125
1788957284200654800,0.95565478515625,-0.866058349609375,-0.6679840087890625,0.576019287109375
1788957284210705000,0.965704833984375,-0.955841064453125,-0.51080322265625,0.7447509765625
1788957284220755700,0.975755615234375,-0.3996429443359375,-0.1386566162109375,0.8016510009765625
1788957284230805800,0.9858056640625,-0.1794281005859375,-0.1226654052734375,0.80963134765625
1788957284240855800,0.995855712890625,0.071258544921875,-0.2908477783203125,1.275054931640625
1788957284250907000,1.005906982421875,0.326171875,-0.006683349609375,1.2895660400390625
1788957284260956700,1.015956787109375,0.2829742431640625,-0.1634674072265625,1.1872711181640625
1788957284271007700,1.0260078125,0.12237548828125,-0.3050994873046875,1.0627288818359375
1788957284281057800,1.036057861328125,0.193115234375,-0.2325439453125,1.0187835693359375
1788957284291107800,1.04610791015625,0.10150146484375,-0.2210693359375,1.11785888671875
1788957284301159000,1.056158935546875,-0.1651611328125,-0.3399200439453125,1.172760009765625
1788957284311209000,1.066208984375,-0.3098602294921875,0.0354156494140625,1.0534210205078125
1788957284321258800,1.0762587890625,-0.7440948486328125,0.35772705078125,0.886749267578125
1788957284331309800,1.086309814453125,-1.1407318115234375,0.1502532958984375,0.9709014892578125
1788957284341359900,1.09635986328125,-1.4424591064453125,0.246734619140625,1.43017578125
1788957284351411000,1.106410888671875,-0.8333740234375,0.4884033203125,1.453460693359375
1788957284361461000,1.1164609375,-0.2909393310546875,0.537200927734375,1.1234588623046875
1788957284371510800,1.1265107421875,-0.2266845703125,0.3109130859375,1.2362213134765625
1788957284381561900,1.136561767578125,-0.095672607421875,0.023345947265625,1.023406982421875
1788957284391612000,1.14661181640625,0.04425048828125,-0.2168731689453125,0.734283447265625
1788957284401662700,1.156662841796875,-0.1811065673828125,-0.3566131591796875,0.673248291015625
1788957284411712800,1.166712646484375,-0.6526336669921875,-0.4427642822265625,1.0909881591796875
1788957284421762800,1.1767626953125,-1.17742919921875,-0.4698028564453125,1.307159423828125
1788957284431814000,1.18681396484375,-1.4051971435546875,-0.163299560546875,0.962921142578125
1788957284441863700,1.19686376953125,-0.7777862548828125,-0.0094451904296875,0.8117523193359375
1788957284451913700,1.206913818359375,-0.1772613525390625,-0.132904052734375,1.165283203125
1788957284461964800,1.21696484375,-0.00225830078125,-0.2252349853515625,1.263519287109375
1788957284472014800,1.227014892578125,-0.169586181640625,-0.1079559326171875,1.1721649169921875
1788957284482066000,1.23706591796875,-0.1575469970703125,-0.0674285888671875,0.514678955078125
1788957284492116000,1.247115966796875,0.4380645751953125,-0.4107513427734375,-1.224365234375
1788957284502165800,1.257165771484375,-0.5623321533203125,-0.6690826416015625,-1.9735565185546875
1788957284512216800,1.267216796875,-0.75714111328125,0.041900634765625,-1.0290985107421875
1788957284522267000,1.277266845703125,0.2015380859375,0.6214447021484375,-0.521026611328125
1788957284532317000,1.28731689453125,0.03094482421875,0.2835540771484375,-0.6719512939453125
1788957284542368000,1.297367919921875,-0.3389434814453125,0.1502838134765625,-0.4542236328125
1788957284552417800,1.307417724609375,-0.0940093994140625,0.47802734375,0.0781707763671875
1788957284562468900,1.31746875,-0.096466064453125,0.28533935546875,0.4232635498046875
1788957284572519000,1.327518798828125,-0.23114013671875,0.201812744140625,0.5820159912109375
1788957284582569000,1.33756884765625,0.049163818359375,-0.1377716064453125,0.6976165771484375
1788957284592619800,1.347619873046875,0.549346923828125,-0.431396484375,0.8419036865234375
1788957284602670000,1.357670166015625,0.3581390380859375,-0.5201568603515625,0.63714599609375
1788957284612721000,1.367720947265625,-0.2084197998046875,-0.80242919921875,0.3861846923828125
1788957284622770700,1.377770751953125,-0.1313323974609375,-1.041961669921875,0.2044525146484375
1788957284632820700,1.38782080078125,0.767608642578125,-1.1042022705078125,0.3941650390625
1788957284642871800,1.397871826171875,1.264007568359375,-2.083831787109375,0.7878265380859375
1788957284652921900,1.407921875,0.85430908203125,-2.5771026611328125,1.0565948486328125
1788957284662972000,1.417971923828125,0.7315673828125,-2.44622802734375,0.92767333984375
1788957284673022700,1.428022705078125,0.4074554443359375,-2.2354278564453125,0.7069549560546875
1788957284683072800,1.43807275390625,0.55157470703125,-1.7909393310546875,0.8338623046875
1788957284693123800,1.448123779296875,0.4911041259765625,-1.612579345703125,0.8563385009765625
1788957284703174000,1.458173828125,0.125946044921875,-1.729583740234375,0.7387237548828125
1788957284713224000,1.468223876953125,0.3673858642578125,-1.2006072998046875,0.8549041748046875
1788957284723275000,1.47827490234375,0.4736328125,-0.6740875244140625,0.933624267578125
1788957284733324800,1.48832470703125,0.4637603759765625,-0.3846893310546875,0.7254638671875
1788957284743374800,1.498374755859375,0.3737640380859375,-0.363189697265625,0.3733367919921875
1788957284753426000,1.508426025390625,0.030364990234375,-0.2042694091796875,0.3226318359375
1788957284763476000,1.51847607421875,-0.0361785888671875,-0.1744842529296875,0.175048828125
1788957284773526800,1.52852685546875,-0.1374969482421875,-0.34918212890625,-0.1099700927734375
1788957284783577000,1.5385771484375,-0.6534271240234375,-1.3394775390625,-0.5579833984375
1788957284793627000,1.548626953125,-0.57391357421875,-3.306549072265625,-2.027984619140625
1788957284803677700,1.558677734375,-1.358062744140625,-4.658905029296875,-1.7090606689453125
1788957284813727700,1.568727783203125,-1.1516571044921875,-3.2953948974609375,-0.968505859375
1788957284823777800,1.57877783203125,-0.0401763916015625,-1.7617034912109375,-0.4086761474609375
1788957284833828900,1.588828857421875,0.1400146484375,-0.5778350830078125,-0.1355133056640625
1788957284843878700,1.598878662109375,-0.0079803466796875,-0.1439056396484375,0.1500396728515625
1788957284853929700,1.6089296875,0.6112518310546875,-0.051971435546875,0.1102752685546875
1788957284863979800,1.618979736328125,0.9905548095703125,-0.749755859375,-0.139068603515625
1788957284874029800,1.62902978515625,0.92987060546875,-1.4405975341796875,-0.2127685546875
1788957284884081000,1.639080810546875,0.6640625,-1.305267333984375,-0.164764404296875
1788957284894131000,1.649130859375,0.281158447265625,-1.124603271484375,-0.0968475341796875
1788957284904180700,1.6591806640625,-0.7060699462890625,-1.1801910400390625,-0.104949951171875
1788957284914231800,1.669231689453125,-0.821319580078125,-1.0314483642578125,-0.1317596435546875
1788957284924281900,1.67928173828125,-0.01947021484375,-0.831268310546875,-0.0528106689453125
1788957284934333000,1.6893330078125,0.0979766845703125,-1.048187255859375,0.0229949951171875
1788957284944383000,1.699383056640625,0.0184478759765625,-1.0330963134765625,0.0970001220703125
1788957284954433000,1.70943310546875,-0.08258056640625,-0.916107177734375,0.2055206298828125
1788957284964484000,1.719484130859375,-0.015899658203125,-0.760772705078125,0.3131256103515625
1788957284974534000,1.729533935546875,0.058441162109375,-0.6474456787109375,0.44384765625
1788957284984584700,1.739584716796875,0.1956939697265625,-0.6689300537109375,0.5764923095703125
1788957284994634800,1.749634765625,0.3336334228515625,-0.791290283203125,0.6991119384765625
1788957285004684800,1.759684814453125,0.342681884765625,-0.7422637939453125,0.743377685546875
1788957285014736000,1.76973583984375,0.3726348876953125,-0.5944976806640625,0.673004150390625
1788957285024785700,1.77978564453125,0.4808502197265625,-0.752716064453125,0.62908935546875
1788957285034835700,1.789835693359375,0.4873504638671875,-0.8232574462890625,0.45159912109375
1788957285044886800,1.79988671875,0.3455963134765625,-0.9459228515625,0.3174285888671875
1788957285054936800,1.809936767578125,0.14447021484375,-1.095672607421875,0.3546142578125
1788957285064988000,1.81998779296875,-1.1564178466796875,-1.1437835693359375,0.297088623046875
1788957285075038000,1.830037841796875,-1.3716888427734375,-1.12042236328125,0.32904052734375
1788957285085087700,1.840087646484375,0.128631591796875,-0.9969024658203125,0.434600830078125
1788957285095138800,1.850138916015625,0.03704833984375,-0.9082489013671875,0.3819580078125
1788957285105188900,1.86018896484375,-0.185791015625,-0.9772186279296875,0.4158935546875
1788957285115238700,1.87023876953125,-0.213409423828125,-1.039886474609375,0.4813079833984375
1788957285125289700,1.880289794921875,-0.2806549072265625,-1.059600830078125,0.4686126708984375
1788957285135339800,1.89033984375,-0.407440185546875,-1.1116180419921875,0.44549560546875
1788957285145390800,1.900390869140625,-0.5112762451171875,-1.241912841796875,0.4995574951171875
1788957285155440600,1.910440673828125,-0.271392822265625,-1.3405914306640625,0.5111236572265625
1788957285165490700,1.92049072265625,0.161590576171875,-1.3889617919921875,0.440216064453125
1788957285175541800,1.930541748046875,1.1174468994140625,-1.4185943603515625,0.289947509765625
1788957285185591800,1.940591796875,1.6834716796875,-1.197021484375,0.1094970703125
1788957285195642600,1.950642578125,0.995513916015625,-0.6936187744140625,0.002288818359375
1788957285205692700,1.960692626953125,-0.009765625,-0.825836181640625,0.0694580078125
1788957285215742500,1.970742431640625,-0.1712493896484375,-1.056976318359375,0.2022857666015625
1788957285225793500,1.98079345703125,-0.105072021484375,-0.931793212890625,0.2556610107421875
1788957285235843600,1.990843505859375,-0.0886383056640625,-0.854339599609375,0.2792816162109375
1788957285245893600,2.0008935546875,-0.0388641357421875,-0.7744598388671875,0.2490234375
1788957285255944700,2.01094482421875,0.0684814453125,-0.7015228271484375,0.152069091796875
1788957285265994500,2.020994384765625,0.1544189453125,-0.7223663330078125,0.0299072265625
1788957285276045600,2.031045654296875,0.1089630126953125,-0.87738037109375,0.00714111328125
1788957285286095600,2.041095703125,0.0211181640625,-0.9509124755859375,0.0706634521484375
1788957285296145700,2.051145751953125,-0.0513763427734375,-0.9848175048828125,0.1327362060546875
1788957285306196700,2.06119677734375,-0.09490966796875,-1.0588531494140625,0.1996307373046875
1788957285316246800,2.071246826171875,-0.1019744873046875,-1.160736083984375,0.2058563232421875
1788957285326296600,2.081296630859375,-0.058380126953125,-1.2449798583984375,0.1658172607421875
1788957285336347600,2.09134765625,-0.004669189453125,-1.2936859130859375,0.117889404296875
1788957285346397700,2.101397705078125,0.036956787109375,-1.26055908203125,0.0859527587890625
1788957285356448800,2.11144873046875,0.064239501953125,-1.1837005615234375,0.10894775390625
1788957285366498800,2.121498779296875,0.038482666015625,-1.0430145263671875,0.183349609375
1788957285376548900,2.131548828125,0.037689208984375,-0.910400390625,0.2376556396484375
1788957285386599400,2.141599365234375,0.0765533447265625,-0.831573486328125,0.2358245849609375
1788957285396649500,2.1516494140625,0.1180267333984375,-0.7661590576171875,0.2153167724609375
1788957285406700500,2.161700439453125,0.111358642578125,-0.773284912109375,0.1970367431640625
1788957285416750600,2.17175048828125,0.0737152099609375,-0.811248779296875,0.186279296875
1788957285426800600,2.181800537109375,0.0577850341796875,-0.869964599609375,0.18377685546875
1788957285436851700,2.191851806640625,0.0794525146484375,-0.9524993896484375,0.199188232421875
1788957285446901500,2.201901611328125,0.128143310546875,-0.9870452880859375,0.1840362548828125
1788957285456951600,2.21195166015625,0.1329803466796875,-0.985595703125,0.1691741943359375
1788957285467002600,2.222002685546875,0.113739013671875,-0.9601287841796875,0.1690826416015625
1788957285477052700,2.232052734375,0.1138153076171875,-0.931182861328125,0.1579132080078125
1788957285487103700,2.242103759765625,0.1504364013671875,-0.9200897216796875,0.143951416015625
1788957285497153800,2.25215380859375,0.2141265869140625,-0.949127197265625,0.141632080078125
1788957285507203600,2.26220361328125,0.2364044189453125,-1.017730712890625,0.1552581787109375
1788957285517254700,2.272254638671875,0.1985015869140625,-1.0849456787109375,0.178131103515625
1788957285527304700,2.2823046875,0.16424560546875,-1.1485595703125,0.2130584716796875
1788957285537355800,2.292355712890625,0.134552001953125,-1.2351226806640625,0.2510833740234375
1788957285547405800,2.30240576171875,0.076690673828125,-1.328857421875,0.2608642578125
1788957285557455600,2.31245556640625,-0.0062713623046875,-1.3717041015625,0.24835205078125
1788957285567506400,2.32250634765625,-0.00982666015625,-1.3179473876953125,0.23248291015625
1788957285577556700,2.332556640625,0.0178375244140625,-1.2256927490234375,0.227447509765625
1788957285587606800,2.342606689453125,-0.000732421875,-1.09796142578125,0.2264251708984375
1788957285597657600,2.35265771484375,0.0069732666015625,-0.9445343017578125,0.211212158203125
1788957285607707600,2.362707763671875,0.0643157958984375,-0.806793212890625,0.1750640869140625
1788957285617758700,2.3727587890625,0.1190643310546875,-0.72137451171875,0.1542510986328125
1788957285627808500,2.38280859375,0.1722412109375,-0.679656982421875,0.1392822265625
1788957285637858600,2.392858642578125,0.2246246337890625,-0.641510009765625,0.1270294189453125
1788957285647909600,2.40290966796875,0.2546844482421875,-0.6260528564453125,0.1314849853515625
1788957285657959700,2.412959716796875,0.2662811279296875,-0.6536865234375,0.134002685546875
1788957285668010800,2.4230107421875,0.2514190673828125,-0.6851348876953125,0.121063232421875
1788957285678060500,2.433060546875,0.2587738037109375,-0.7826690673828125,0.117462158203125
1788957285688110600,2.443110595703125,0.2488250732421875,-0.8995819091796875,0.1415863037109375
1788957285698161700,2.45316162109375,0.19635009765625,-0.9222869873046875,0.16339111328125
1788957285708211700,2.463211669921875,0.1529541015625,-0.919403076171875,0.1709747314453125
1788957285718261800,2.47326171875,0.151275634765625,-0.9578857421875,0.1750946044921875
1788957285728312800,2.483312744140625,0.157501220703125,-1.003082275390625,0.190826416015625
1788957285738362600,2.493362548828125,0.1786041259765625,-1.01666259765625,0.2344512939453125
1788957285748413400,2.503413330078125,0.1556396484375,-1.0142974853515625,0.262237548828125
1788957285758463700,2.513463623046875,0.1049041748046875,-1.0418701171875,0.243988037109375
1788957285768513800,2.523513671875,0.0736541748046875,-1.0925140380859375,0.2027130126953125
1788957285778564600,2.533564697265625,0.0911712646484375,-1.119232177734375,0.1692657470703125
1788957285788614700,2.54361474609375,0.1433563232421875,-1.117218017578125,0.1570587158203125
1788957285798664400,2.55366455078125,0.1403350830078125,-1.099822998046875,0.17510986328125
1788957285808715500,2.563715576171875,0.0948638916015625,-1.0645904541015625,0.1544342041015625
1788957285818765600,2.573765625,0.0965118408203125,-1.049835205078125,0.1217803955078125
1788957285828816600,2.583816650390625,0.096099853515625,-1.04351806640625,0.1188201904296875
1788957285838866700,2.59386669921875,0.0971832275390625,-1.00811767578125,0.14105224609375
1788957285848916700,2.603916748046875,0.1330413818359375,-0.96368408203125,0.150421142578125
1788957285858967600,2.613967529296875,0.1409912109375,-0.9404144287109375,0.1296539306640625
1788957285869017600,2.624017578125,0.124969482421875,-0.9462127685546875,0.121124267578125
1788957285879068700,2.634068603515625,0.1019134521484375,-0.9393463134765625,0.1361083984375
1788957285889118700,2.64411865234375,0.0818328857421875,-0.8790740966796875,0.1618194580078125
1788957285899168800,2.654168701171875,0.0879669189453125,-0.826629638671875,0.17578125
1788957285909219800,2.6642197265625,0.127777099609375,-0.7884979248046875,0.136322021484375
1788957285919269600,2.67426953125,0.1795501708984375,-0.8028411865234375,0.0934906005859375
1788957285929319700,2.684319580078125,0.196990966796875,-0.8308563232421875,0.0891876220703125
1788957285939370800,2.694370849609375,0.1884613037109375,-0.880645751953125,0.0930633544921875
1788957285949420800,2.7044208984375,0.2100067138671875,-0.95794677734375,0.0932769775390625
1788957285959471600,2.7144716796875,0.253753662109375,-1.00665283203125,0.092254638671875
1788957285969521700,2.724521728515625,0.27001953125,-1.0190887451171875,0.0848388671875
1788957285979571500,2.734571533203125,0.252960205078125,-1.0113525390625,0.0718994140625
1788957285989622500,2.74462255859375,0.212554931640625,-1.01507568359375,0.07745361328125
1788957285999672600,2.754672607421875,0.1891021728515625,-1.04132080078125,0.1031646728515625
1788957286009723600,2.7647236328125,0.192840576171875,-1.089385986328125,0.1468048095703125
1788957286019773700,2.774773681640625,0.17132568359375,-1.1416015625,0.218475341796875
1788957286029823500,2.784823486328125,0.1551361083984375,-1.167816162109375,0.29156494140625
1788957286039874600,2.79487451171875,0.1468658447265625,-1.1636810302734375,0.3214111328125
1788957286049924600,2.804924560546875,0.1259002685546875,-1.1582489013671875,0.294830322265625
1788957286059974700,2.814974609375,0.0608978271484375,-1.1475067138671875,0.274658203125
1788957286070025700,2.825025634765625,-0.0294342041015625,-1.1201324462890625,0.26092529296875
1788957286080075800,2.83507568359375,-0.0687103271484375,-1.101806640625,0.25244140625
1788957286090126800,2.845126953125,-0.086273193359375,-1.0977783203125,0.2614593505859375
1788957286100176600,2.8551767578125,-0.1200408935546875,-1.071563720703125,0.2708892822265625
1788957286110226200,2.86522607421875,-0.1195068359375,-1.0238189697265625,0.2724151611328125
1788957286120277200,2.87527734375,-0.04254150390625,-0.97210693359375,0.2510986328125
1788957286130327300,2.885327392578125,0.04840087890625,-0.9047393798828125,0.2089996337890625
1788957286140377000,2.895377197265625,0.1156158447265625,-0.8248138427734375,0.1669158935546875
1788957286150428200,2.90542822265625,0.1322784423828125,-0.76422119140625,0.1388397216796875
1788957286160478200,2.915478271484375,0.108154296875,-0.77801513671875,0.1363372802734375
1788957286170529000,2.925529052734375,0.0913543701171875,-0.8100433349609375,0.147735595703125
1788957286180579000,2.9355791015625,0.1091461181640625,-0.8610992431640625,0.16839599609375
1788957286190629000,2.945629150390625,0.1407012939453125,-0.8930511474609375,0.1838836669921875
1788957286200680200,2.95568017578125,0.1618194580078125,-0.912109375,0.1652069091796875
1788957286210730000,2.96572998046875,0.14447021484375,-0.9526519775390625,0.1500701904296875
1788957286220781000,2.975781005859375,0.1243133544921875,-0.9739227294921875,0.161712646484375
1788957286230831000,2.9858310546875,0.13348388671875,-1.0172271728515625,0.169036865234375
1788957286240881200,2.995881103515625,0.1420135498046875,-1.056610107421875,0.1787261962890625
1788957286250932200,3.00593212890625,0.1268768310546875,-1.061492919921875,0.1922607421875
1788957286260982000,3.01598193359375,0.105682373046875,-1.07794189453125,0.209228515625
1788957286271032000,3.026031982421875,0.1150970458984375,-1.108123779296875,0.2156524658203125
1788957286281083100,3.036083251953125,0.1183013916015625,-1.14703369140625,0.24273681640625
1788957286291133200,3.04613330078125,0.0924072265625,-1.1849822998046875,0.270263671875
1788957286301184300,3.056184326171875,0.04296875,-1.1952667236328125,0.2911529541015625
1788957286311234300,3.066234375,-0.0317840576171875,-1.173675537109375,0.30908203125
1788957286321284000,3.0762841796875,-0.0936737060546875,-1.133636474609375,0.2871856689453125
1788957286331335200,3.086335205078125,-0.07147216796875,-1.0807647705078125,0.2620849609375
1788957286341385200,3.09638525390625,-0.053558349609375,-1.01544189453125,0.2551422119140625
1788957286351435300,3.106435302734375,-0.05316162109375,-0.929595947265625,0.234771728515625
1788957286361486000,3.116486083984375,-0.0400390625,-0.864471435546875,0.2103118896484375
1788957286371536100,3.1265361328125,-0.0089263916015625,-0.8112335205078125,0.1769866943359375
1788957286381587200,3.136587158203125,0.02301025390625,-0.783233642578125,0.14080810546875
1788957286391637000,3.146636962890625,0.0549468994140625,-0.7722625732421875,0.1255950927734375
1788957286401687000,3.15668701171875,0.1002197265625,-0.7735443115234375,0.102020263671875
1788957286411738000,3.166738037109375,0.08984375,-0.8097381591796875,0.11212158203125
1788957286421788200,3.1767880859375,0.012359619140625,-0.8344268798828125,0.1259307861328125
1788957286431839200,3.186839111328125,-0.0453948974609375,-0.8009796142578125,0.1227264404296875
1788957286441889000,3.196888916015625,0.03271484375,-0.838287353515625,0.103363037109375
1788957286451939000,3.20693896484375,0.1307830810546875,-0.8390350341796875,0.0478973388671875
1788957286461990100,3.216990234375,0.165252685546875,-0.82928466796875,-0.007415771484375
1788957286472040200,3.227040283203125,0.2691650390625,-0.91473388671875,-0.02490234375
1788957286482090200,3.23709033203125,0.3087921142578125,-1.094573974609375,0.0060882568359375
1788957286492141300,3.247141357421875,0.2225799560546875,-1.2462921142578125,0.0676116943359375
1788957286502191000,3.257191162109375,0.1668853759765625,-1.2920379638671875,0.116973876953125
1788957286512242200,3.2672421875,0.1044921875,-1.3316650390625,0.144683837890625
1788957286522292200,3.277292236328125,0.0587921142578125,-1.2816314697265625,0.1449737548828125
1788957286532342300,3.28734228515625,-0.001220703125,-1.141815185546875,0.1638031005859375
1788957286542393000,3.29739306640625,-0.0048370361328125,-1.0381011962890625,0.19427490234375
1788957286552443400,3.307443359375,0.0386810302734375,-1.0117034912109375,0.21832275390625
1788957286562494000,3.317493896484375,0.0736846923828125,-0.981781005859375,0.2119903564453125
1788957286572544000,3.3275439453125,0.1195831298828125,-0.9217071533203125,0.187530517578125
1788957286582594000,3.337593994140625,0.1352996826171875,-0.8490142822265625,0.1415252685546875
1788957286592645000,3.34764501953125,0.102691650390625,-0.8126983642578125,0.1107177734375
1788957286602695200,3.357695068359375,0.108734130859375,-0.8040618896484375,0.1062469482421875
1788957286612745000,3.367744873046875,0.159149169921875,-0.8360595703125,0.1049346923828125
1788957286622796000,3.377796142578125,0.1510467529296875,-0.8739013671875,0.0886993408203125
1788957286632846000,3.38784619140625,0.1468353271484375,-0.84765625,0.05303955078125
1788957286642897200,3.397897216796875,0.203460693359375,-0.874481201171875,0.00579833984375
1788957286652947200,3.407947265625,0.2004547119140625,-0.9656982421875,-0.0241851806640625
1788957286662997200,3.417997314453125,0.1179656982421875,-1.0240325927734375,-0.0287322998046875
1788957286673048300,3.42804833984375,0.031036376953125,-1.0391998291015625,-0.0092010498046875
1788957286683098000,3.43809814453125,-0.0330352783203125,-1.0152740478515625,0.0220489501953125
1788957286693148200,3.448148193359375,0.002838134765625,-1.0176239013671875,0.015472412109375
1788957286703199200,3.45819921875,0.0970306396484375,-1.0468292236328125,0.037384033203125
1788957286713249300,3.468249267578125,0.1460418701171875,-1.0419769287109375,0.072235107421875
1788957286723300000,3.478300048828125,0.1510772705078125,-1.0301666259765625,0.0937042236328125
1788957286733350100,3.48835009765625,0.1529083251953125,-1.0447235107421875,0.0884552001953125
1788957286743400200,3.498400146484375,0.2077789306640625,-1.0691375732421875,0.0697784423828125
1788957286753451000,3.508450927734375,0.2639007568359375,-1.076934814453125,0.0526123046875
1788957286763501000,3.5185009765625,0.2432403564453125,-1.0598297119140625,0.0618133544921875
1788957286773552000,3.52855224609375,0.1638336181640625,-1.0370025634765625,0.0677490234375
1788957286783602200,3.538602294921875,0.059844970703125,-1.039031982421875,0.0670013427734375
1788957286793652000,3.54865185546875,-0.0137176513671875,-1.0428924560546875,0.065765380859375
1788957286803703000,3.558703125,0.011993408203125,-1.04376220703125,0.04937744140625
1788957286813753000,3.568753173828125,0.0729217529296875,-1.0599365234375,0.047515869140625
1788957286823803100,3.57880322265625,0.078704833984375,-1.0474700927734375,0.052001953125
1788957286833854200,3.588854248046875,0.0751495361328125,-1.0301361083984375,0.0600433349609375
1788957286843904300,3.598904296875,0.0677947998046875,-1.052520751953125,0.066741943359375
1788957286853955300,3.608955322265625,0.028167724609375,-1.0837860107421875,0.0728912353515625
1788957286864005000,3.619005126953125,0.0074615478515625,-1.0875244140625,0.0777130126953125
1788957286874055200,3.62905517578125,0.0412445068359375,-1.04559326171875,0.0947723388671875
1788957286884106200,3.639106201171875,0.0786285400390625,-0.987274169921875,0.0892333984375
1788957286894156300,3.64915625,0.1305999755859375,-0.9519805908203125,0.06671142578125
1788957286904207000,3.65920703125,0.175537109375,-0.937530517578125,0.047943115234375
1788957286914257200,3.669257080078125,0.160919189453125,-0.922332763671875,0.050933837890625
1788957286924307200,3.67930712890625,0.1131744384765625,-0.9246063232421875,0.056976318359375
1788957286934358000,3.68935791015625,0.0824737548828125,-0.9636077880859375,0.0621337890625
1788957286944408000,3.699407958984375,0.03131103515625,-1.02703857421875,0.0579681396484375
1788957286954458000,3.7094580078125,0.02337646484375,-1.034515380859375,0.0551605224609375
1788957286964509200,3.71950927734375,0.0716400146484375,-1.0080718994140625,0.059539794921875
1788957286974559000,3.72955908203125,0.107574462890625,-0.994415283203125,0.0745391845703125
1788957286984610000,3.739610107421875,0.0933837890625,-0.9710845947265625,0.088287353515625
1788957286994660000,3.74966015625,0.07159423828125,-0.9798736572265625,0.0948028564453125
1788957287004710100,3.759710205078125,0.0670928955078125,-1.0057220458984375,0.1028289794921875
1788957287014761200,3.76976123046875,0.09356689453125,-1.0255889892578125,0.1041259765625
1788957287024811300,3.779811279296875,0.1280364990234375,-1.032196044921875,0.1007843017578125
1788957287034861000,3.789861083984375,0.13604736328125,-1.04168701171875,0.0807952880859375
1788957287044912000,3.799912109375,0.09942626953125,-1.0642852783203125,0.07940673828125
1788957287054962200,3.809962158203125,0.0704803466796875,-1.09515380859375,0.086395263671875
1788957287065013200,3.82001318359375,0.0858612060546875,-1.1147918701171875,0.088958740234375
1788957287075063300,3.830063232421875,0.067535400390625,-1.121002197265625,0.07208251953125
1788957287085113000,3.840113037109375,0.01446533203125,-1.1387176513671875,0.0320281982421875
1788957287095164200,3.8501640625,0.008758544921875,-1.1345062255859375,0.0233154296875
1788957287105214200,3.860214111328125,0.028472900390625,-1.0971221923828125,0.04705810546875
1788957287115265300,3.870265380859375,0.0555267333984375,-1.03179931640625,0.09173583984375
1788957287125315300,3.8803154296875,0.0563201904296875,-0.9572906494140625,0.1365966796875
1788957287135365400,3.890365478515625,0.0515594482421875,-0.9065093994140625,0.167877197265625
1788957287145416400,3.90041650390625,0.03167724609375,-0.8528900146484375,0.174041748046875
1788957287155466500,3.910466552734375,0.033599853515625,-0.84173583984375,0.1544647216796875
1788957287165516300,3.920516357421875,0.060028076171875,-0.8647918701171875,0.134918212890625
1788957287175567400,3.9305673828125,0.09259033203125,-0.8981475830078125,0.145111083984375
1788957287185617400,3.940617431640625,0.07733154296875,-0.9424591064453125,0.1217193603515625
1788957287195668500,3.95066845703125,0.088775634765625,-0.9924774169921875,0.087432861328125
1788957287205718500,3.960718505859375,0.1062469482421875,-1.0467681884765625,0.0765380859375
1788957287215768600,3.9707685546875,0.13409423828125,-1.097991943359375,0.08587646484375
1788957287225819600,3.980819580078125,0.109649658203125,-1.1105804443359375,0.0809478759765625
1788957287235869400,3.990869384765625,0.052978515625,-1.101898193359375,0.04010009765625
1788957287245919500,4.00091943359375,0.051788330078125,-1.0808868408203125,-0.0012664794921875
1788957287255970600,4.010970458984375,0.0490264892578125,-1.033050537109375,-0.008758544921875
1788957287266020600,4.0210205078125,0.018463134765625,-0.971710205078125,0.01483154296875
1788957287276071400,4.031071533203125,0.0506134033203125,-0.8845367431640625,0.0457763671875
1788957287286121500,4.04112158203125,0.0929107666015625,-0.8524627685546875,0.0701904296875
1788957287296171500,4.051171630859375,0.1579437255859375,-0.87158203125,0.1108551025390625
1788957287306222300,4.061222412109375,0.1779327392578125,-0.871307373046875,0.1358795166015625
1788957287316272400,4.0712724609375,0.1894378662109375,-0.84429931640625,0.1375732421875
1788957287326323500,4.081323486328125,0.1725006103515625,-0.8615264892578125,0.1214752197265625
1788957287336373500,4.09137353515625,0.164703369140625,-0.9096527099609375,0.1028594970703125
1788957287346423300,4.10142333984375,0.1803741455078125,-0.92864990234375,0.0791778564453125
1788957287356474400,4.111474365234375,0.1927032470703125,-0.91754150390625,0.0596160888671875
1788957287366524400,4.1215244140625,0.18701171875,-0.931732177734375,0.056243896484375
1788957287376574500,4.131574462890625,0.1707305908203125,-0.96563720703125,0.0789031982421875
1788957287386625500,4.14162548828125,0.1627960205078125,-0.983978271484375,0.12359619140625
1788957287396675600,4.151675537109375,0.18121337890625,-0.9726715087890625,0.1479949951171875
1788957287406726700,4.1617265625,0.2068939208984375,-0.931915283203125,0.146484375
1788957287416776400,4.1717763671875,0.23138427734375,-0.86029052734375,0.0883636474609375
1788957287426826500,4.181826416015625,0.2569580078125,-0.8832855224609375,0.0532073974609375
1788957287436877600,4.191877685546875,0.2528076171875,-0.948455810546875,0.046875
1788957287446927600,4.201927734375,0.2673492431640625,-0.98760986328125,0.045562744140625
1788957287456978400,4.211978515625,0.289276123046875,-1.053558349609375,0.0505523681640625
1788957287467028500,4.222028564453125,0.25274658203125,-1.0998382568359375,0.08319091796875
1788957287477078500,4.23207861328125,0.2292022705078125,-1.15240478515625,0.131256103515625
1788957287487129300,4.24212939453125,0.2337799072265625,-1.184295654296875,0.162139892578125
1788957287497179400,4.252179443359375,0.2198486328125,-1.1780853271484375,0.1553802490234375
1788957287507229400,4.2622294921875,0.18731689453125,-1.151458740234375,0.1329803466796875
1788957287517280500,4.272280517578125,0.1645050048828125,-1.10888671875,0.126312255859375
1788957287527330300,4.282330322265625,0.156524658203125,-1.0899658203125,0.0937652587890625
1788957287537381400,4.29238134765625,0.147064208984375,-1.0764007568359375,0.0828094482421875
1788957287547431400,4.302431396484375,0.1192779541015625,-1.0498504638671875,0.10125732421875
1788957287557481500,4.3124814453125,0.0804595947265625,-1.00244140625,0.12744140625
1788957287567532500,4.322532470703125,0.0644378662109375,-0.960723876953125,0.1431732177734375
1788957287577582600,4.33258251953125,0.073638916015625,-0.9128265380859375,0.149017333984375
1788957287587632400,4.34263232421875,0.1295013427734375,-0.875701904296875,0.152099609375
1788957287597683500,4.352683349609375,0.18060302734375,-0.8677978515625,0.153564453125
1788957287607733500,4.3627333984375,0.170196533203125,-0.88250732421875,0.152679443359375
1788957287617784600,4.37278466796875,0.1192474365234375,-0.9133758544921875,0.1438140869140625
1788957287627834600,4.382834716796875,0.1381072998046875,-0.996429443359375,0.1429901123046875
1788957287637884400,4.392884521484375,0.155029296875,-1.037200927734375,0.1388702392578125
1788957287647935500,4.402935546875,0.1498260498046875,-1.0231170654296875,0.1275634765625
1788957287657985500,4.412985595703125,0.1541748046875,-1.0131988525390625,0.1116485595703125
1788957287668036400,4.423036376953125,0.1761932373046875,-1.0391845703125,0.095703125
1788957287678086400,4.43308642578125,0.1687774658203125,-1.07940673828125,0.0896453857421875
1788957287688136700,4.44313671875,0.150482177734375,-1.0884246826171875,0.088134765625
1788957287698187500,4.4531875,0.107757568359375,-1.064483642578125,0.0861968994140625
1788957287708237300,4.4632373046875,0.0872650146484375,-1.0537567138671875,0.08319091796875
1788957287718287400,4.473287353515625,0.1031494140625,-1.031768798828125,0.089935302734375
1788957287728338400,4.48333837890625,0.079132080078125,-0.9486083984375,0.1091766357421875
1788957287738388500,4.493388427734375,0.0529022216796875,-0.8579864501953125,0.1511077880859375
1788957287748439600,4.503439453125,0.0670623779296875,-0.820068359375,0.1845703125
1788957287758489300,4.5134892578125,0.080718994140625,-0.8099822998046875,0.17657470703125
1788957287768539400,4.523539306640625,0.1409759521484375,-0.8114013671875,0.1523284912109375
1788957287778590500,4.533590576171875,0.197509765625,-0.853240966796875,0.1009521484375
1788957287788640500,4.543640625,0.190093994140625,-0.92303466796875,0.024139404296875
1788957287798690600,4.553690673828125,0.12884521484375,-1.0119781494140625,-0.01708984375
1788957287808741600,4.56374169921875,0.003021240234375,-1.068328857421875,-0.0126495361328125
1788957287818791400,4.57379150390625,-0.06634521484375,-1.0783233642578125,0.00567626953125
1788957287828842500,4.583842529296875,0.0536651611328125,-1.1105804443359375,-0.0010528564453125
1788957287838892500,4.593892578125,0.1903228759765625,-1.1279296875,-0.02203369140625
1788957287848942600,4.603942626953125,0.212005615234375,-1.1056060791015625,-0.064117431640625
1788957287858993400,4.613993408203125,0.189117431640625,-1.0726470947265625,-0.0832977294921875
1788957287869043700,4.624043701171875,0.1114044189453125,-1.089813232421875,-0.0853729248046875
1788957287879094500,4.634094482421875,0.0750732421875,-1.0992889404296875,-0.08856201171875
1788957287889144300,4.644144287109375,0.115203857421875,-1.0919952392578125,-0.0421905517578125
1788957287899194400,4.6541943359375,0.1317291259765625,-1.0674591064453125,0.0446319580078125
1788957287909245400,4.664245361328125,0.12689208984375,-0.987396240234375,0.0958404541015625
1788957287919295500,4.67429541015625,0.1356048583984375,-0.915252685546875,0.108551025390625
1788957287929345300,4.68434521484375,0.1350250244140625,-0.8988037109375,0.0897064208984375
1788957287939396400,4.694396240234375,0.142303466796875,-0.9137115478515625,0.0646209716796875
1788957287949446400,4.7044462890625,0.14776611328125,-0.9125213623046875,0.06060791015625
1788957287959497500,4.71449755859375,0.115386962890625,-0.8709716796875,0.079376220703125
1788957287969547500,4.724547607421875,0.080780029296875,-0.8164520263671875,0.0890655517578125
1788957287979597600,4.73459765625,0.0726318359375,-0.8007354736328125,0.09515380859375
1788957287989648600,4.744648681640625,0.0835723876953125,-0.8389739990234375,0.0755157470703125
1788957287999698400,4.754698486328125,0.1116790771484375,-0.9362945556640625,0.04931640625
1788957288009748500,4.76474853515625,0.1417694091796875,-0.98394775390625,0.0252227783203125
1788957288019799600,4.774799560546875,0.1669158935546875,-1.015777587890625,-0.0149688720703125
1788957288029849600,4.784849609375,0.144561767578125,-1.0291595458984375,-0.0803680419921875
1788957288039900400,4.794900390625,0.0659332275390625,-1.002777099609375,-0.1140289306640625
1788957288049950700,4.80495068359375,0.0056304931640625,-0.939300537109375,-0.0981597900390625
1788957288060000500,4.81500048828125,-0.0325164794921875,-0.9124908447265625,-0.0612640380859375
1788957288070051300,4.82505126953125,-0.0585174560546875,-0.9261474609375,-0.0241851806640625
1788957288080101400,4.835101318359375,-0.02069091796875,-0.93585205078125,-0.0156707763671875
1788957288090152400,4.84515234375,0.11212158203125,-0.938934326171875,-0.025115966796875
1788957288100202500,4.855202392578125,0.156646728515625,-0.945648193359375,-0.028411865234375
1788957288110251800,4.865251708984375,0.2158355712890625,-0.967681884765625,-0.033416748046875
1788957288120302800,4.875302734375,0.247955322265625,-1.007171630859375,-0.0329132080078125
1788957288130353000,4.885352783203125,0.2160186767578125,-1.021820068359375,-0.035430908203125
1788957288140402700,4.895402587890625,0.194488525390625,-1.0074920654296875,-0.0335540771484375
1788957288150453800,4.905453857421875,0.222015380859375,-1.0267791748046875,-0.0491485595703125
1788957288160503800,4.91550390625,0.2735137939453125,-1.0830841064453125,-0.0723419189453125
1788957288170555000,4.925554931640625,0.2786102294921875,-1.1302490234375,-0.066375732421875
1788957288180605000,4.93560498046875,0.258514404296875,-1.1351165771484375,-0.061187744140625
1788957288190654700,4.94565478515625,0.2080078125,-1.137115478515625,-0.07958984375
1788957288200705800,4.955705810546875,0.1004180908203125,-1.160614013671875,-0.069976806640625
1788957288210755800,4.965755859375,0.0070037841796875,-1.1483917236328125,-0.0542449951171875
1788957288220807000,4.975806884765625,-0.015380859375,-1.1096343994140625,-0.036834716796875
1788957288230857000,4.98585693359375,-0.00311279296875,-1.0762176513671875,-0.01776123046875
1788957288240907000,4.995906982421875,0.0340728759765625,-1.0379638671875,-0.013519287109375
1788957288250958000,5.0059580078125,0.089813232421875,-0.9775238037109375,-0.020965576171875
1788957288261008000,5.0160078125,0.07830810546875,-0.928497314453125,-0.0076141357421875
1788957288271058000,5.026057861328125,0.023773193359375,-0.870147705078125,0.0133514404296875
1788957288281108700,5.036108642578125,0.01031494140625,-0.84332275390625,0.0371246337890625
1788957288291159000,5.046158935546875,0.0554046630859375,-0.8496551513671875,0.03778076171875
1788957288301209900,5.0562099609375,0.194091796875,-0.8695220947265625,0.0257415771484375
1788957288311259600,5.066259765625,0.3200531005859375,-0.8921356201171875,0.0190887451171875
1788957288321309700,5.076309814453125,0.27960205078125,-0.931427001953125,0.0255889892578125
1788957288331360800,5.08636083984375,0.129364013671875,-0.9707794189453125,0.029052734375
1788957288341410800,5.096410888671875,0.078033447265625,-1.0114288330078125,0.0242156982421875
1788957288351460900,5.1064609375,0.136962890625,-1.0741119384765625,0.008026123046875
1788957288361512000,5.116511962890625,0.2497100830078125,-1.151092529296875,-0.01361083984375
1788957288371561700,5.126561767578125,0.2804412841796875,-1.21734619140625,-0.0417327880859375
1788957288381612800,5.13661279296875,0.17236328125,-1.251007080078125,-0.0318756103515625
1788957288391662800,5.146662841796875,0.0228271484375,-1.2738189697265625,0.0082855224609375
1788957288401713000,5.156712890625,0.005218505859375,-1.3073883056640625,0.0398712158203125
1788957288411764000,5.166763916015625,-0.006683349609375,-1.2564697265625,0.0745697021484375
1788957288421814000,5.17681396484375,0.0283660888671875,-1.2142181396484375,0.0639801025390625
1788957288431865000,5.186864990234375,0.145050048828125,-1.1609344482421875,0.023590087890625
1788957288441915000,5.196914794921875,0.2468719482421875,-1.0892333984375,-0.0033721923828125
1788957288451965000,5.20696484375,0.1984100341796875,-1.0004730224609375,-0.0227508544921875
1788957288462015700,5.217015625,0.1221923828125,-0.9340972900390625,-0.0248870849609375
1788957288472066000,5.227066162109375,0.10772705078125,-0.8743896484375,0.004058837890625
1788957288482115800,5.23711572265625,0.0999755859375,-0.818206787109375,0.0450592041015625
1788957288492166700,5.247166748046875,0.112335205078125,-0.7729339599609375,0.068328857421875
1788957288502216700,5.257216796875,0.121795654296875,-0.7615966796875,0.07208251953125
1788957288512267800,5.267267822265625,0.0862274169921875,-0.7452239990234375,0.042999267578125
1788957288522317800,5.27731787109375,0.06658935546875,-0.72625732421875,0.026885986328125
1788957288532368000,5.287367919921875,0.0853118896484375,-0.73486328125,0.027099609375
1788957288542419000,5.2974189453125,0.0834808349609375,-0.7627716064453125,0.024566650390625
1788957288552468700,5.30746875,0.1056671142578125,-0.8071136474609375,0.0194854736328125
1788957288562519800,5.317519775390625,0.13446044921875,-0.85089111328125,0.0010223388671875
1788957288572569900,5.32756982421875,0.1425323486328125,-0.897979736328125,-0.002105712890625
1788957288582620000,5.337619873046875,0.1649169921875,-0.9555816650390625,-0.0008392333984375
1788957288592671000,5.3476708984375,0.149627685546875,-1.0290069580078125,-0.011474609375
1788957288602721000,5.357720947265625,0.11004638671875,-1.1021728515625,-0.000030517578125
1788957288612770800,5.367770751953125,0.1059112548828125,-1.1264190673828125,0.028228759765625
1788957288622822000,5.37782177734375,0.1302032470703125,-1.125457763671875,0.0536651611328125
1788957288632872000,5.387871826171875,0.1240234375,-1.1140289306640625,0.06524658203125
1788957288642922800,5.3979228515625,0.0321044921875,-1.0731048583984375,0.0555572509765625
1788957288652973000,5.40797314453125,0.0079345703125,-1.0222930908203125,0.030517578125
1788957288663022800,5.41802294921875,0.12109375,-0.9600982666015625,0.0055389404296875
1788957288673073700,5.42807373046875,0.2471923828125,-0.937774658203125,-0.00164794921875
1788957288683123700,5.438123779296875,0.341033935546875,-0.9505615234375,0.0071563720703125
1788957288693173800,5.448173828125,0.4301910400390625,-0.98834228515625,0.03045654296875
1788957288703224800,5.458224853515625,0.4047698974609375,-1.0407257080078125,0.060760498046875
1788957288713275000,5.46827490234375,0.282012939453125,-1.144317626953125,0.0996246337890625
1788957288723326000,5.478325927734375,0.2153778076171875,-1.2598114013671875,0.144561767578125
1788957288733375700,5.488375732421875,0.2398223876953125,-1.2946319580078125,0.170379638671875
1788957288743425800,5.49842578125,0.273651123046875,-1.19091796875,0.149658203125
1788957288753476900,5.508476806640625,0.2627410888671875,-1.0628204345703125,0.1141204833984375
1788957288763527000,5.51852685546875,0.2587890625,-1.0053863525390625,0.0760345458984375
1788957288773578000,5.528577880859375,0.235809326171875,-0.9809112548828125,0.018402099609375
1788957288783627800,5.538627685546875,0.2153472900390625,-0.9538421630859375,-0.0323486328125
1788957288793677800,5.548677734375,0.2197723388671875,-0.885650634765625,-0.048095703125
1788957288803729000,5.55872900390625,0.23175048828125,-0.7813568115234375,-0.0241851806640625
1788957288813779000,5.568779052734375,0.2696990966796875,-0.702880859375,0.017547607421875
1788957288823829000,5.5788291015625,0.2857818603515625,-0.6819610595703125,0.0598907470703125
1788957288833880000,5.588880126953125,0.2582244873046875,-0.72137451171875,0.0786285400390625
1788957288843929900,5.598929931640625,0.2812347412109375,-0.80816650390625,0.0749969482421875
1788957288853980700,5.608980712890625,0.3032684326171875,-0.8903350830078125,0.0595550537109375
1788957288864030700,5.61903076171875,0.28009033203125,-0.9495849609375,0.0493621826171875
1788957288874081000,5.6290810546875,0.2491455078125,-1.00531005859375,0.048370361328125
1788957288884131800,5.6391318359375,0.2520904541015625,-1.0548248291015625,0.04339599609375
1788957288894182000,5.649181884765625,0.284210205078125,-1.076416015625,0.0233001708984375
1788957288904232700,5.659232666015625,0.3282623291015625,-1.09808349609375,-0.008819580078125
1788957288914282800,5.66928271484375,0.319366455078125,-1.1496734619140625,-0.050872802734375
1788957288924332800,5.679332763671875,0.2063140869140625,-1.1798858642578125,-0.0687103271484375
1788957288934383900,5.6893837890625,0.051055908203125,-1.1845855712890625,-0.0576171875
1788957288944434000,5.699433837890625,0.0147247314453125,-1.120330810546875,-0.055206298828125
1788957288954483700,5.709483642578125,0.069091796875,-1.0498809814453125,-0.0359649658203125
1788957288964534800,5.71953466796875,0.170166015625,-0.982666015625,-0.0051116943359375
1788957288974584800,5.729584716796875,0.2841339111328125,-0.920806884765625,0.018890380859375
1788957288984636000,5.739635986328125,0.3058929443359375,-0.8800201416015625,0.028839111328125
1788957288994686000,5.74968603515625,0.3076934814453125,-0.8770294189453125,0.0312652587890625
1788957289004736000,5.759736083984375,0.3177337646484375,-0.877197265625,0.0300750732421875
1788957289014787000,5.769787109375,0.290130615234375,-0.92791748046875,0.0709381103515625
1788957289024836900,5.7798369140625,0.312347412109375,-1.0005645751953125,0.085693359375
1788957289034887700,5.7898876953125,0.327178955078125,-1.073974609375,0.076019287109375
1788957289044937700,5.799937744140625,0.1875457763671875,-1.1463623046875,0.0496978759765625
1788957289054988000,5.809988037109375,0.1864776611328125,-1.133544921875,-0.021575927734375
1788957289065038800,5.820038818359375,0.302154541015625,-1.06524658203125,-0.0677947998046875
1788957289075089000,5.8300888671875,0.28106689453125,-1.0229339599609375,-0.0630340576171875
1788957289085138700,5.840138671875,0.347137451171875,-0.96490478515625,-0.047637939453125
1788957289095189800,5.850189697265625,0.4563140869140625,-0.933990478515625,-0.077423095703125
1788957289105239800,5.86023974609375,0.3726654052734375,-0.95440673828125,-0.1159515380859375
1788957289115291400,5.87029150390625,0.215362548828125,-0.9625244140625,-0.0990142822265625
1788957289125341400,5.880341552734375,0.1938629150390625,-0.8935546875,-0.077972412109375
1788957289135391500,5.8903916015625,0.186187744140625,-0.866058349609375,-0.0352020263671875
1788957289145442600,5.900442626953125,0.141571044921875,-0.879364013671875,0.05291748046875
1788957289155492400,5.910492431640625,0.19488525390625,-0.8765411376953125,0.126556396484375
1788957289165543400,5.92054345703125,0.298614501953125,-0.8935394287109375,0.1210174560546875
1788957289175593500,5.930593505859375,0.281829833984375,-0.92474365234375,0.0627593994140625
1788957289185643500,5.9406435546875,0.1090850830078125,-0.903717041015625,0.0408782958984375
1788957289195694300,5.9506943359375,-0.011688232421875,-0.794891357421875,0.0534515380859375
1788957289205744400,5.960744384765625,0.0199737548828125,-0.7286834716796875,0.065277099609375
1788957289215794400,5.97079443359375,0.096771240234375,-0.7716064453125,0.060699462890625
1788957289225845200,5.98084521484375,0.2093353271484375,-0.836639404296875,0.0254058837890625
1788957289235895300,5.990895263671875,0.3643798828125,-0.9236602783203125,-0.036590576171875
1788957289245946400,6.0009462890625,0.4469451904296875,-1.0179443359375,-0.10638427734375
1788957289255996400,6.010996337890625,0.4121551513671875,-1.1046295166015625,-0.1165008544921875
1788957289266046200,6.021046142578125,0.3131866455078125,-1.12774658203125,-0.103424072265625
1788957289276097300,6.03109716796875,0.20404052734375,-1.1849212646484375,-0.0833587646484375
1788957289286147300,6.041147216796875,0.08819580078125,-1.2131195068359375,-0.0130157470703125
1788957289296198400,6.051198486328125,0.1519775390625,-1.087188720703125,0.0658416748046875
1788957289306248400,6.06124853515625,0.2965087890625,-0.9532928466796875,0.0476531982421875
1788957289316298500,6.071298583984375,0.3547821044921875,-1.0532684326171875,-0.0242767333984375
1788957289326349600,6.081349609375,0.3308563232421875,-1.1128082275390625,-0.0372161865234375
1788957289336399400,6.0913994140625,0.2918548583984375,-1.0607757568359375,-0.00811767578125
1788957289346449400,6.101449462890625,0.246551513671875,-1.0156402587890625,0.0190887451171875
1788957289356500500,6.11150048828125,0.2124786376953125,-0.9957427978515625,0.011962890625
1788957289366550500,6.121550537109375,0.2199554443359375,-0.959136962890625,0.0086669921875
1788957289376601300,6.131601318359375,0.268341064453125,-0.8922271728515625,0.025909423828125
1788957289386651400,6.1416513671875,0.238555908203125,-0.83990478515625,0.02398681640625
1788957289396701400,6.151701416015625,0.1734619140625,-0.8181915283203125,-0.0010223388671875
1788957289406752300,6.161752197265625,0.16229248046875,-0.8083038330078125,-0.03118896484375
1788957289416802300,6.17180224609375,0.1926422119140625,-0.8084564208984375,-0.0721282958984375
1788957289426853400,6.181853271484375,0.22357177734375,-0.832427978515625,-0.0844879150390625
1788957289436903400,6.1919033203125,0.2192230224609375,-0.845947265625,-0.0751800537109375
1788957289446953200,6.201953125,0.1846771240234375,-0.840972900390625,-0.0639801025390625
1788957289457004300,6.21200439453125,0.1324310302734375,-0.8348236083984375,-0.056793212890625
1788957289467054300,6.222054443359375,0.10992431640625,-0.8190460205078125,-0.03546142578125
1788957289477104400,6.2321044921875,0.1912078857421875,-0.79241943359375,-0.0172271728515625
1788957289487155500,6.242155517578125,0.3030548095703125,-0.8094635009765625,-0.0451202392578125
1788957289497205500,6.25220556640625,0.373931884765625,-0.8810882568359375,-0.0790557861328125
1788957289507256600,6.262256591796875,0.4411163330078125,-1.014739990234375,-0.09295654296875
1788957289517306400,6.272306396484375,0.49041748046875,-1.108551025390625,-0.10980224609375
1788957289527356400,6.2823564453125,0.3698272705078125,-1.196929931640625,-0.1057891845703125
1788957289537407500,6.292407470703125,0.160919189453125,-1.261566162109375,-0.1065521240234375
1788957289547457500,6.30245751953125,0.091827392578125,-1.2857208251953125,-0.1157073974609375
1788957289557508400,6.31250830078125,0.2106475830078125,-1.307159423828125,-0.0977630615234375
1788957289567558400,6.322558349609375,0.31005859375,-1.3055572509765625,-0.1003875732421875
1788957289577608400,6.3326083984375,0.3751678466796875,-1.32489013671875,-0.11358642578125
1788957289587659300,6.3426591796875,0.394622802734375,-1.322174072265625,-0.1279296875
1788957289597709300,6.352709228515625,0.305999755859375,-1.2230072021484375,-0.121368408203125
1788957289607759400,6.36275927734375,0.2510223388671875,-1.1014862060546875,-0.08648681640625
1788957289617810400,6.372810546875,0.248016357421875,-0.9942626953125,-0.046142578125
1788957289627860200,6.382860107421875,0.2252349853515625,-0.9263458251953125,-0.010223388671875
1788957289637911300,6.392911376953125,0.2133941650390625,-0.8661651611328125,0.0335845947265625
1788957289647961300,6.40296142578125,0.2599029541015625,-0.7745513916015625,0.0818634033203125
1788957289658011400,6.413011474609375,0.2790679931640625,-0.7174072265625,0.079559326171875
1788957289668062500,6.4230625,0.2475433349609375,-0.70135498046875,0.0688934326171875
1788957289678112500,6.433112548828125,0.2897186279296875,-0.688568115234375,0.0733489990234375
1788957289688163600,6.44316357421875,0.31292724609375,-0.71826171875,0.0673370361328125
1788957289698213400,6.45321337890625,0.234283447265625,-0.7793121337890625,0.058685302734375
1788957289708263400,6.463263427734375,0.2006378173828125,-0.8390045166015625,0.044830322265625
1788957289718314500,6.473314453125,0.199005126953125,-0.8990020751953125,0.0125885009765625
1788957289728364500,6.483364501953125,0.193084716796875,-0.9588775634765625,-0.0241241455078125
1788957289738414300,6.493414306640625,0.2173004150390625,-1.0177001953125,-0.03936767578125
1788957289748465400,6.50346533203125,0.2561187744140625,-1.064727783203125,-0.041717529296875
1788957289758515500,6.513515380859375,0.226043701171875,-1.1016387939453125,-0.05328369140625
1788957289768566300,6.523566162109375,0.2001190185546875,-1.13861083984375,-0.0692291259765625
1788957289778616300,6.5336162109375,0.27374267578125,-1.1619110107421875,-0.0776824951171875
1788957289788666400,6.543666259765625,0.3124542236328125,-1.2122802734375,-0.064544677734375
1788957289798717400,6.553717529296875,0.2764434814453125,-1.2219696044921875,-0.0472259521484375
1788957289808767200,6.563767333984375,0.2411651611328125,-1.201324462890625,-0.024566650390625
1788957289818818300,6.573818359375,0.1906890869140625,-1.1361083984375,-0.001739501953125
1788957289828868400,6.583868408203125,0.2229461669921875,-1.0174713134765625,-0.0150146484375
1788957289838918400,6.59391845703125,0.3215789794921875,-0.945953369140625,-0.043182373046875
1788957289848969500,6.603969482421875,0.313934326171875,-0.9111175537109375,-0.062255859375
1788957289859019500,6.61401953125,0.2825775146484375,-0.8921661376953125,-0.0612640380859375
1788957289869070300,6.6240703125,0.2730255126953125,-0.8859100341796875,-0.014923095703125
1788957289879120400,6.634120361328125,0.2030029296875,-0.8758544921875,0.0457611083984375
1788957289889170400,6.64417041015625,0.14385986328125,-0.8599395751953125,0.1012420654296875
1788957289899221500,6.654221435546875,0.143157958984375,-0.84246826171875,0.1080474853515625
1788957289909271600,6.664271484375,0.16357421875,-0.81097412109375,0.081695556640625
1788957289919321300,6.6743212890625,0.19677734375,-0.77362060546875,0.0348968505859375
1788957289929372400,6.684372314453125,0.2366790771484375,-0.743133544921875,-0.009124755859375
1788957289939422500,6.69442236328125,0.2804412841796875,-0.7948455810546875,-0.0272064208984375
1788957289949473300,6.704473388671875,0.228912353515625,-0.8796844482421875,-0.02679443359375
1788957289959523300,6.7145234375,0.1319732666015625,-0.9152374267578125,-0.014190673828125
1788957289969573400,6.724573486328125,0.144439697265625,-0.9053497314453125,-0.0101318359375
1788957289979624400,6.73462451171875,0.1898040771484375,-0.88507080078125,-0.018890380859375
1788957289989674200,6.74467431640625,0.2547607421875,-0.86773681640625,-0.0307159423828125
1788957289999725300,6.754725341796875,0.3933258056640625,-0.8961334228515625,-0.03607177734375
1788957290009775400,6.764775390625,0.4670257568359375,-0.97100830078125,-0.039794921875
1788957290019825400,6.774825439453125,0.4095916748046875,-1.03741455078125,-0.0587158203125
1788957290029876500,6.78487646484375,0.32537841796875,-1.1037139892578125,-0.0654754638671875
1788957290039926300,6.79492626953125,0.2866668701171875,-1.1574554443359375,-0.0386199951171875
1788957290049976300,6.804976318359375,0.33306884765625,-1.175018310546875,-0.0149688720703125
1788957290060027400,6.81502734375,0.369537353515625,-1.167449951171875,0.0011749267578125
1788957290070077400,6.825077392578125,0.308502197265625,-1.13641357421875,0.021270751953125
1788957290080128500,6.83512841796875,0.2394866943359375,-1.134521484375,0.0165863037109375
1788957290090178600,6.845178466796875,0.2834320068359375,-1.1272735595703125,0.003570556640625
1788957290100228400,6.855228271484375,0.3104400634765625,-1.08355712890625,-0.007049560546875
1788957290110279400,6.865279541015625,0.2656097412109375,-1.0281524658203125,0.00762939453125
1788957290120329500,6.87532958984375,0.257537841796875,-0.976318359375,0.0341339111328125
1788957290130380300,6.88538037109375,0.285064697265625,-0.969512939453125,0.04461669921875
1788957290140430300,6.895430419921875,0.267791748046875,-0.98431396484375,0.0475921630859375
1788957290150480400,6.90548046875,0.1782684326171875,-0.98736572265625,0.0760040283203125
1788957290160531200,6.91553125,0.079925537109375,-0.9423828125,0.1186370849609375
1788957290170581200,6.925581298828125,0.0837860107421875,-0.9054412841796875,0.1546478271484375
1788957290180632300,6.93563232421875,0.1425628662109375,-0.8564910888671875,0.156768798828125
1788957290190682400,6.945682373046875,0.2433013916015625,-0.8144378662109375,0.1266021728515625
1788957290200732400,6.955732421875,0.3201141357421875,-0.8278350830078125,0.104034423828125
1788957290210783200,6.965783203125,0.2897796630859375,-0.84552001953125,0.072540283203125
1788957290220833300,6.975833251953125,0.2429351806640625,-0.8530731201171875,0.0578460693359375
1788957290230883300,6.98588330078125,0.215667724609375,-0.86639404296875,0.0454254150390625
1788957290240934400,6.995934326171875,0.193206787109375,-0.892791748046875,0.0373077392578125
1788957290250984400,7.005984375,0.208099365234375,-0.9032440185546875,0.031890869140625
1788957290261035500,7.016035400390625,0.273590087890625,-0.9217987060546875,0.0300750732421875
1788957290271085300,7.026085205078125,0.346405029296875,-0.9632720947265625,0.0201873779296875
1788957290281135400,7.03613525390625,0.38287353515625,-1.02593994140625,-0.0003662109375
1788957290291186400,7.0461865234375,0.3394775390625,-1.0721435546875,-0.01800537109375
1788957290301236500,7.056236572265625,0.234344482421875,-1.1148834228515625,-0.0290679931640625
1788957290311287300,7.066287353515625,0.18389892578125,-1.141143798828125,-0.06121826171875
1788957290321337300,7.07633740234375,0.198333740234375,-1.142333984375,-0.088043212890625
1788957290331387400,7.086387451171875,0.2608642578125,-1.118377685546875,-0.1094512939453125
1788957290341438200,7.096438232421875,0.280426025390625,-1.09710693359375,-0.11883544921875
1788957290351488300,7.10648828125,0.2566986083984375,-1.0699005126953125,-0.10406494140625
1788957290361539300,7.116539306640625,0.1807708740234375,-1.0457000732421875,-0.0928192138671875
1788957290371589400,7.12658935546875,0.1338348388671875,-0.996337890625,-0.0858001708984375
1788957290381639200,7.13663916015625,0.1076507568359375,-0.9586181640625,-0.062774658203125
1788957290391690200,7.146690185546875,0.104888916015625,-0.9420166015625,-0.008880615234375
1788957290401740300,7.156740234375,0.1647796630859375,-0.9651336669921875,0.0369110107421875
1788957290411790300,7.166790283203125,0.2429656982421875,-1.004608154296875,0.0193634033203125
1788957290421841400,7.17684130859375,0.2349853515625,-1.0279998779296875,-0.0302276611328125
1788957290431891500,7.186891357421875,0.22747802734375,-1.023834228515625,-0.082763671875
1788957290441942500,7.196942626953125,0.18121337890625,-1.065826416015625,-0.0870819091796875
1788957290451992300,7.206992431640625,0.083160400390625,-1.084442138671875,-0.0137481689453125
1788957290462042400,7.21704248046875,0.1031341552734375,-1.004302978515625,0.04632568359375
1788957290472093400,7.227093505859375,0.127716064453125,-0.9152984619140625,0.0579833984375
1788957290482143500,7.2371435546875,0.1216888427734375,-0.86456298828125,0.0706939697265625
1788957290492194300,7.2471943359375,0.182220458984375,-0.854736328125,0.08001708984375
1788957290502244400,7.257244384765625,0.2677459716796875,-0.8860626220703125,0.067901611328125
1788957290512294400,7.26729443359375,0.3049468994140625,-0.9200286865234375,0.0325164794921875
1788957290522345200,7.27734521484375,0.3363037109375,-0.9240264892578125,-0.0134124755859375
1788957290532395300,7.287395263671875,0.3421630859375,-0.97955322265625,-0.0594940185546875
1788957290542446300,7.2974462890625,0.271575927734375,-1.0142059326171875,-0.0785369873046875
1788957290552496400,7.307496337890625,0.210845947265625,-0.9510345458984375,-0.0430145263671875
1788957290562546200,7.317546142578125,0.17620849609375,-0.8890533447265625,-0.010101318359375
1788957290572597200,7.32759716796875,0.1064453125,-0.819854736328125,-0.0015411376953125
1788957290582647300,7.337647216796875,0.14013671875,-0.764678955078125,0.01409912109375
1788957290592697300,7.347697265625,0.198516845703125,-0.7691802978515625,0.0235137939453125
1788957290602748400,7.35774853515625,0.1910858154296875,-0.81005859375,0.0435638427734375
1788957290612798500,7.367798583984375,0.1681976318359375,-0.8173065185546875,0.0824127197265625
1788957290622849500,7.377849609375,0.1593017578125,-0.78741455078125,0.0912628173828125
1788957290632899300,7.3878994140625,0.252044677734375,-0.8219757080078125,0.051910400390625
1788957290642949400,7.397949462890625,0.3336944580078125,-0.9660491943359375,-0.0339508056640625
1788957290653000400,7.40800048828125,0.331451416015625,-1.0622100830078125,-0.0962677001953125
1788957290663050500,7.418050537109375,0.3445587158203125,-1.0222930908203125,-0.06060791015625
1788957290673101300,7.428101318359375,0.3360595703125,-0.9987945556640625,-0.059844970703125
1788957290683151400,7.4381513671875,0.2655792236328125,-1.0648193359375,-0.0994873046875
1788957290693201400,7.448201416015625,0.1847076416015625,-1.1250152587890625,-0.1176300048828125
1788957290703252200,7.458252197265625,0.1452484130859375,-1.141357421875,-0.0929718017578125
1788957290713302300,7.46830224609375,0.1652679443359375,-1.1447906494140625,-0.057403564453125
1788957290723353300,7.478353271484375,0.13946533203125,-1.1201324462890625,-0.021514892578125
1788957290733403400,7.4884033203125,0.1332244873046875,-1.061309814453125,0.0198516845703125
1788957290743453200,7.498453125,0.19390869140625,-1.037628173828125,0.0324554443359375
1788957290753504300,7.508504150390625,0.23590087890625,-1.1000823974609375,0.001708984375
1788957290763554300,7.51855419921875,0.250640869140625,-1.1660919189453125,-0.035247802734375
1788957290773604400,7.528604248046875,0.3247528076171875,-1.1717987060546875,-0.066650390625
1788957290783655400,7.538655517578125,0.315155029296875,-1.133331298828125,-0.103729248046875
1788957290793705500,7.54870556640625,0.1732635498046875,-1.0374755859375,-0.101318359375
1788957290803756500,7.558756591796875,0.0632781982421875,-0.961578369140625,-0.0757293701171875
1788957290813806300,7.568806396484375,0.1012725830078125,-0.935882568359375,-0.05914306640625
1788957290823856400,7.5788564453125,0.1479339599609375,-0.907989501953125,-0.0503082275390625
1788957290833907500,7.588907470703125,0.197052001953125,-0.8834381103515625,-0.0561370849609375
1788957290843957500,7.59895751953125,0.276763916015625,-0.8939361572265625,-0.0567626953125
1788957290854008300,7.60900830078125,0.35003662109375,-0.92169189453125,-0.044677734375
1788957290864058400,7.619058349609375,0.30877685546875,-0.94671630859375,-0.0200347900390625
1788957290874108400,7.6291083984375,0.2641754150390625,-0.941650390625,0.010650634765625
1788957290884159200,7.6391591796875,0.26629638671875,-0.9199981689453125,0.024932861328125
1788957290894209300,7.649209228515625,0.2129669189453125,-0.909393310546875,0.0060882568359375
1788957290904260400,7.65926025390625,0.131866455078125,-0.8955841064453125,-0.016265869140625
1788957290914310400,7.669310302734375,0.1268768310546875,-0.9139862060546875,-0.0385894775390625
1788957290924360200,7.679360107421875,0.1898345947265625,-0.981536865234375,-0.07684326171875
1788957290934411300,7.689411376953125,0.2186737060546875,-1.0482177734375,-0.108734130859375
1788957290944461300,7.69946142578125,0.170440673828125,-1.0775146484375,-0.130828857421875
1788957290954512400,7.709512451171875,0.19647216796875,-1.0593109130859375,-0.1260223388671875
1788957290964562400,7.7195625,0.231353759765625,-1.023345947265625,-0.117523193359375
1788957290974612500,7.729612548828125,0.1710968017578125,-1.0089111328125,-0.111602783203125
1788957290984663300,7.739663330078125,0.1642608642578125,-1.0061492919921875,-0.0955963134765625
1788957290994713300,7.74971337890625,0.231353759765625,-0.9912567138671875,-0.07928466796875
1788957291004763400,7.759763427734375,0.2479095458984375,-0.96600341796875,-0.0778961181640625
1788957291014814500,7.769814453125,0.2127685546875,-0.9403533935546875,-0.0596771240234375
1788957291024864500,7.779864501953125,0.2163238525390625,-0.933990478515625,-0.037933349609375
1788957291034915300,7.789915283203125,0.2739410400390625,-0.9221954345703125,-0.0367889404296875
1788957291044965400,7.79996533203125,0.3033447265625,-0.9016265869140625,-0.042694091796875
1788957291055015400,7.810015380859375,0.28594970703125,-0.901519775390625,-0.0484619140625
1788957291065066200,7.820066162109375,0.203857421875,-0.912567138671875,-0.04931640625
1788957291075116300,7.8301162109375,0.1584930419921875,-0.93414306640625,-0.04571533203125
1788957291085167400,7.84016748046875,0.24713134765625,-1.0206298828125,-0.0125274658203125
1788957291095217400,7.850217529296875,0.296417236328125,-1.08172607421875,-0.042388916015625
1788957291105267200,7.86026708984375,0.2233734130859375,-1.1302032470703125,-0.0476531982421875
1788957291115318300,7.870318359375,0.1648712158203125,-1.156524658203125,-0.038726806640625
1788957291125368600,7.88036865234375,0.1867218017578125,-1.1002197265625,-0.0483551025390625
1788957291135418400,7.89041845703125,0.2296905517578125,-0.9889068603515625,-0.096405029296875
1788957291145469400,7.900469482421875,0.2521209716796875,-0.921783447265625,-0.1656951904296875
1788957291155519500,7.91051953125,0.2879791259765625,-0.9301300048828125,-0.205230712890625
1788957291165570600,7.920570556640625,0.2235870361328125,-0.990142822265625,-0.2055511474609375
1788957291175620600,7.93062060546875,0.1493377685546875,-1.059661865234375,-0.1844329833984375
1788957291185670400,7.94067041015625,0.167266845703125,-1.099334716796875,-0.1734466552734375
1788957291195721500,7.950721435546875,0.1786346435546875,-1.0478515625,-0.1670684814453125
1788957291205771500,7.960771484375,0.2104339599609375,-0.9783782958984375,-0.158935546875
1788957291215822300,7.970822265625,0.2774505615234375,-0.9416656494140625,-0.1473541259765625
1788957291225872600,7.98087255859375,0.300750732421875,-0.947235107421875,-0.134674072265625
1788957291235922700,7.990922607421875,0.2647247314453125,-0.973052978515625,-0.1058197021484375
1788957291245973500,8.000973388671875,0.2856903076171875,-0.9587249755859375,-0.0937652587890625
1788957291256023300,8.011023193359375,0.3544769287109375,-0.926055908203125,-0.0845947265625
1788957291266074400,8.021074462890626,0.3849639892578125,-0.9072265625,-0.078460693359375
1788957291276124400,8.03112451171875,0.372100830078125,-0.8798828125,-0.0765380859375
1788957291286174500,8.041174560546875,0.36981201171875,-0.8931884765625,-0.0601348876953125
1788957291296225500,8.0512255859375,0.385009765625,-0.946197509765625,-0.0465545654296875
1788957291306275300,8.061275390625,0.3682861328125,-0.9867095947265625,-0.0489501953125
1788957291316325400,8.071325439453124,0.3158111572265625,-1.002197265625,-0.0354156494140625
1788957291326376400,8.08137646484375,0.273956298828125,-1.0113983154296875,-0.0219268798828125
1788957291336426500,8.091426513671875,0.331146240234375,-0.990692138671875,-0.0244598388671875
1788957291346477600,8.1014775390625,0.3816375732421875,-0.95965576171875,-0.0236663818359375
1788957291356527600,8.111527587890626,0.3352813720703125,-0.893707275390625,-0.02447509765625
1788957291366577400,8.121577392578125,0.2557220458984375,-0.8226776123046875,-0.0245819091796875
1788957291376628500,8.13162841796875,0.2415924072265625,-0.789459228515625,-0.0203399658203125
1788957291386678500,8.141678466796876,0.2669830322265625,-0.7877197265625,-0.0264892578125
1788957291396729300,8.151729248046875,0.285064697265625,-0.8318634033203125,-0.0397491455078125
1788957291406779600,8.161779541015624,0.2824249267578125,-0.89068603515625,-0.05181884765625
1788957291416829700,8.17182958984375,0.1936798095703125,-0.91375732421875,-0.0260467529296875
1788957291426880500,8.181880615234375,0.1061553955078125,-0.90081787109375,0.01824951171875
1788957291436930300,8.191930419921874,0.1092681884765625,-0.883392333984375,0.0380096435546875
1788957291446981400,8.2019814453125,0.137847900390625,-0.8750457763671875,0.055999755859375
1788957291457031400,8.212031494140625,0.277130126953125,-0.8352203369140625,0.0391693115234375
1788957291467081500,8.22208154296875,0.5233612060546875,-0.88970947265625,-0.0152130126953125
1788957291477132500,8.232132568359376,0.643402099609375,-1.0015106201171875,-0.054046630859375
1788957291487182300,8.242182373046875,0.616790771484375,-1.09130859375,-0.0538787841796875
1788957291497233400,8.2522333984375,0.524017333984375,-1.2101898193359375,-0.0674896240234375
1788957291507283500,8.262283447265625,0.3986663818359375,-1.3817291259765625,-0.11871337890625
1788957291517333500,8.27233349609375,0.253173828125,-1.5068511962890625,-0.1414031982421875
1788957291527384600,8.282384521484374,0.146026611328125,-1.56365966796875,-0.11468505859375
1788957291537434600,8.2924345703125,0.16412353515625,-1.4782867431640625,-0.1202392578125
1788957291547484400,8.302484375,0.21343994140625,-1.2707366943359375,-0.1113739013671875
1788957291557535500,8.312535400390624,0.267364501953125,-1.16162109375,-0.1059417724609375
1788957291567585500,8.32258544921875,0.305023193359375,-1.0520172119140625,-0.065185546875
1788957291577636600,8.33263671875,0.304656982421875,-0.922882080078125,-0.017913818359375
1788957291587686700,8.342686767578124,0.2922515869140625,-0.8197784423828125,0.01007080078125
1788957291597736700,8.35273681640625,0.21868896484375,-0.7422332763671875,0.0146026611328125
1788957291607787300,8.362787353515625,0.1552276611328125,-0.6904754638671875,0.009307861328125
1788957291617837300,8.37283740234375,0.1127777099609375,-0.652069091796875,0.0190887451171875
1788957291627888400,8.382888427734375,0.1222686767578125,-0.6079559326171875,0.0433807373046875
1788957291637938400,8.3929384765625,0.1385345458984375,-0.5886383056640625,0.0516357421875
1788957291647988500,8.402988525390626,0.095703125,-0.600494384765625,0.061737060546875
1788957291658039600,8.41303955078125,0.1157073974609375,-0.5788116455078125,0.0700531005859375
1788957291668089300,8.42308935546875,0.219940185546875,-0.5821380615234375,0.072418212890625
1788957291678140400,8.433140380859374,0.2852020263671875,-0.649566650390625,0.0363616943359375
1788957291688190500,8.4431904296875,0.263519287109375,-0.7621612548828125,-0.0101165771484375
1788957291698240500,8.453240478515625,0.312835693359375,-0.8394927978515625,-0.07269287109375
1788957291708291600,8.46329150390625,0.3891143798828125,-0.932159423828125,-0.1241302490234375
1788957291718341600,8.473341552734375,0.2817535400390625,-1.06268310546875,-0.1452789306640625
1788957291728391400,8.483391357421874,0.187255859375,-1.1715087890625,-0.113677978515625
1788957291738442500,8.4934423828125,0.2246551513671875,-1.2508087158203125,-0.0752105712890625
1788957291748492500,8.503492431640625,0.2923736572265625,-1.2967376708984375,-0.0561676025390625
1788957291758543600,8.513543701171875,0.2873992919921875,-1.2984771728515625,-0.027618408203125
1788957291768593700,8.52359375,0.136322021484375,-1.216888427734375,0.026153564453125
1788957291778643500,8.5336435546875,0.0335235595703125,-1.023284912109375,0.0750579833984375
1788957291788694300,8.5436943359375,0.1294708251953125,-0.988861083984375,0.037841796875
1788957291798744300,8.553744384765626,0.2486572265625,-1.0485992431640625,-0.055206298828125
1788957291808795400,8.56379541015625,0.282196044921875,-1.033660888671875,-0.0916748046875
1788957291818845400,8.573845458984374,0.3557891845703125,-1.02484130859375,-0.0930328369140625
1788957291828895500,8.5838955078125,0.3533782958984375,-1.0346527099609375,-0.1038970947265625
1788957291838946600,8.593946533203125,0.3095855712890625,-1.0034027099609375,-0.11126708984375
1788957291848996400,8.603996337890624,0.2939605712890625,-0.9668121337890625,-0.088470458984375
1788957291859047400,8.61404736328125,0.294586181640625,-0.9473419189453125,-0.0549468994140625
1788957291869097500,8.624097412109375,0.2824554443359375,-0.9341583251953125,-0.0215911865234375
1788957291879147500,8.6341474609375,0.2723388671875,-0.921783447265625,-0.005584716796875
1788957291889198600,8.644198486328126,0.262481689453125,-0.87030029296875,-0.0082550048828125
1788957291899248600,8.65424853515625,0.291015625,-0.8355255126953125,-0.016387939453125
1788957291909299500,8.664299560546874,0.331390380859375,-0.88421630859375,-0.051055908203125
1788957291919349500,8.674349609375,0.2883148193359375,-0.953399658203125,-0.07354736328125
1788957291929399600,8.684399658203125,0.2386627197265625,-0.9577789306640625,-0.0654144287109375
1788957291939450600,8.69445068359375,0.2018890380859375,-0.9421844482421875,-0.068572998046875
1788957291949500700,8.704500732421875,0.1302032470703125,-0.934295654296875,-0.0838165283203125
1788957291959551500,8.714551513671875,0.081298828125,-0.9010772705078125,-0.101104736328125
1788957291969601300,8.724601318359374,0.0721893310546875,-0.8772735595703125,-0.11474609375
1788957291979651300,8.7346513671875,0.0856475830078125,-0.893585205078125,-0.123291015625
1788957291989702400,8.744702392578125,0.1304473876953125,-0.929840087890625,-0.129913330078125
1788957291999752400,8.75475244140625,0.2126922607421875,-0.9671630859375,-0.13519287109375
1788957292009802500,8.764802490234375,0.2688751220703125,-1.0057373046875,-0.1428680419921875
1788957292019853600,8.774853515625,0.23077392578125,-1.0269775390625,-0.1056976318359375
1788957292029903400,8.7849033203125,0.1716766357421875,-1.00946044921875,-0.060150146484375
1788957292039954400,8.794954345703125,0.1904144287109375,-1.0093994140625,-0.0288543701171875
1788957292050004500,8.80500439453125,0.2560882568359375,-1.0235443115234375,-0.0376739501953125
1788957292060054500,8.815054443359376,0.3086700439453125,-1.03729248046875,-0.037445068359375
1788957292070105600,8.825105712890625,0.3088226318359375,-1.03631591796875,-0.035430908203125
1788957292080155400,8.8351552734375,0.2780609130859375,-1.0597991943359375,-0.0402069091796875
1788957292090206500,8.84520654296875,0.300933837890625,-1.0760955810546875,-0.061126708984375
1788957292100256500,8.855256591796875,0.3311309814453125,-1.1112060546875,-0.0848846435546875
1788957292110306600,8.865306640625,0.2940673828125,-1.127716064453125,-0.0896453857421875
1788957292120357400,8.875357421875,0.268829345703125,-1.1215057373046875,-0.072113037109375
1788957292130407400,8.885407470703125,0.2482452392578125,-1.077789306640625,-0.0439300537109375
1788957292140458200,8.895458251953125,0.2168426513671875,-1.019866943359375,-0.0146484375
1788957292150508300,8.90550830078125,0.237884521484375,-0.9857330322265625,0.01007080078125
1788957292160558300,8.915558349609375,0.267822265625,-0.9767913818359375,0.01904296875
1788957292170609200,8.925609130859375,0.2732391357421875,-0.9827728271484375,0.02679443359375
1788957292180659200,8.9356591796875,0.2713165283203125,-0.989105224609375,0.0201416015625
1788957292190710300,8.945710205078125,0.262664794921875,-0.992828369140625,-0.0045928955078125
1788957292200760000,8.955760009765624,0.1603240966796875,-0.988006591796875,-0.0296630859375
1788957292210810000,8.96581005859375,0.1273651123046875,-0.97479248046875,-0.0435791015625
1788957292220861200,8.975861083984375,0.2366180419921875,-0.967926025390625,-0.075286865234375
1788957292230911200,8.9859111328125,0.22845458984375,-0.9985809326171875,-0.096435546875
1788957292240962300,8.99596240234375,0.1101226806640625,-1.0113677978515625,-0.07745361328125
1788957292251012400,9.006012451171875,0.1021575927734375,-1.018829345703125,-0.0577239990234375
1788957292261062100,9.016062255859374,0.1970977783203125,-0.9973297119140625,-0.065582275390625
1788957292271113200,9.02611328125,0.28521728515625,-0.9482574462890625,-0.080535888671875
1788957292281163300,9.036163330078125,0.2671356201171875,-0.90093994140625,-0.0809173583984375
1788957292291214300,9.04621435546875,0.2014923095703125,-0.869964599609375,-0.0966339111328125
1788957292301264400,9.056264404296876,0.192535400390625,-0.8757781982421875,-0.11962890625
1788957292311314400,9.066314453125,0.234619140625,-0.8984832763671875,-0.1320953369140625
1788957292321365000,9.076364990234374,0.2890167236328125,-0.9287567138671875,-0.1468505859375
1788957292331415300,9.086415283203126,0.3369598388671875,-0.963775634765625,-0.1723480224609375
1788957292341466000,9.096466064453125,0.34576416015625,-0.97906494140625,-0.1917724609375
1788957292351516200,9.10651611328125,0.315826416015625,-1.00830078125,-0.18310546875
1788957292361566200,9.116566162109375,0.220947265625,-1.051300048828125,-0.1439361572265625
1788957292371617300,9.1266171875,0.1264190673828125,-1.04730224609375,-0.08697509765625
1788957292381667000,9.1366669921875,0.0903472900390625,-0.9766845703125,-0.0355987548828125
1788957292391717000,9.146717041015625,0.12921142578125,-0.9185638427734375,-0.0210113525390625
1788957292401768200,9.156768310546875,0.2492523193359375,-0.8578948974609375,-0.054290771484375
1788957292411818200,9.166818359375,0.3676605224609375,-0.8612060546875,-0.063568115234375
1788957292421869300,9.176869384765626,0.3734283447265625,-0.929229736328125,-0.061614990234375
1788957292431919400,9.18691943359375,0.331573486328125,-0.9552459716796875,-0.074859619140625
1788957292441969200,9.19696923828125,0.2884521484375,-0.9856719970703125,-0.0827789306640625
1788957292452020200,9.207020263671875,0.218994140625,-1.043212890625,-0.08929443359375
1788957292462070300,9.2170703125,0.1815032958984375,-1.0838623046875,-0.0692596435546875
1788957292472121300,9.227121337890624,0.189422607421875,-1.0677337646484375,-0.0567626953125
1788957292482171400,9.23717138671875,0.2687835693359375,-0.997650146484375,-0.079742431640625
1788957292492221200,9.24722119140625,0.357696533203125,-0.9485321044921875,-0.101593017578125
1788957292502272300,9.257272216796874,0.379302978515625,-0.9090118408203125,-0.1283111572265625
1788957292512322300,9.267322265625,0.3666229248046875,-0.875030517578125,-0.158447265625
1788957292522373000,9.277373046875,0.3632965087890625,-0.83807373046875,-0.1672515869140625
1788957292532423200,9.287423095703126,0.3690032958984375,-0.787261962890625,-0.1565704345703125
1788957292542473200,9.29747314453125,0.3404693603515625,-0.7755584716796875,-0.106475830078125
1788957292552524300,9.307524169921875,0.2942352294921875,-0.7768096923828125,-0.055938720703125
1788957292562574000,9.317573974609376,0.3011016845703125,-0.7980194091796875,-0.02972412109375
1788957292572625200,9.327625244140625,0.3251190185546875,-0.8343963623046875,-0.017608642578125
1788957292582675200,9.33767529296875,0.4369964599609375,-0.8851776123046875,-0.0243682861328125
1788957292592725200,9.347725341796876,0.44342041015625,-0.958892822265625,-0.0188140869140625
1788957292602776300,9.3577763671875,0.2855224609375,-1.0128326416015625,0.01214599609375
1788957292612826400,9.367826416015625,0.29156494140625,-1.0604400634765625,0.0147857666015625
1788957292622877200,9.377877197265626,0.4078369140625,-1.111541748046875,-0.0232391357421875
1788957292632927200,9.38792724609375,0.3829193115234375,-1.14984130859375,-0.0478973388671875
1788957292642977300,9.397977294921875,0.2793426513671875,-1.2011871337890625,-0.0594940185546875
1788957292653028400,9.4080283203125,0.2331085205078125,-1.250762939453125,-0.0825042724609375
1788957292663078400,9.418078369140625,0.1562347412109375,-1.2359161376953125,-0.0952301025390625
1788957292673129200,9.428129150390625,0.059173583984375,-1.1159515380859375,-0.080108642578125
1788957292683179300,9.43817919921875,0.126861572265625,-1.0131378173828125,-0.081817626953125
1788957292693229300,9.448229248046875,0.238037109375,-1.0052490234375,-0.088623046875
1788957292703280000,9.458280029296875,0.275054931640625,-0.98968505859375,-0.0932769775390625
1788957292713330200,9.468330078125,0.3255462646484375,-0.937591552734375,-0.0912017822265625
1788957292723381200,9.47838134765625,0.345184326171875,-0.8916168212890625,-0.0841064453125
1788957292733431300,9.488431396484375,0.2453155517578125,-0.87799072265625,-0.0681610107421875
1788957292743481000,9.498481201171876,0.173492431640625,-0.8492431640625,-0.03680419921875
1788957292753532200,9.5085322265625,0.222198486328125,-0.821533203125,-0.02001953125
1788957292763582200,9.518582275390624,0.28741455078125,-0.834320068359375,-0.008697509765625
1788957292773633300,9.52863330078125,0.3677520751953125,-0.859466552734375,0.0030517578125
1788957292783683300,9.538683349609375,0.4736785888671875,-0.9017181396484375,-0.0094451904296875
1788957292793733000,9.548733154296874,0.4826507568359375,-0.990020751953125,-0.026336669921875
1788957292803784200,9.5587841796875,0.359619140625,-1.077056884765625,-0.0478515625
1788957292813834200,9.568834228515625,0.211700439453125,-1.099945068359375,-0.05047607421875
1788957292823885300,9.57888525390625,0.121002197265625,-1.0948486328125,-0.05621337890625
1788957292833935400,9.588935302734376,0.0991668701171875,-1.0763092041015625,-0.0755767822265625
1788957292843985400,9.5989853515625,0.1494293212890625,-1.0279083251953125,-0.090240478515625
1788957292854036200,9.6090361328125,0.1901702880859375,-0.9872283935546875,-0.06915283203125
1788957292864086300,9.619086181640625,0.2253570556640625,-0.9679107666015625,-0.0488433837890625
1788957292874136300,9.62913623046875,0.24444580078125,-0.923065185546875,-0.021392822265625
1788957292884187100,9.639187255859374,0.2385711669921875,-0.8847808837890625,-0.005401611328125
1788957292894237200,9.6492373046875,0.1793670654296875,-0.885650634765625,0.005706787109375
1788957292904288300,9.659288330078125,0.1298980712890625,-0.8672332763671875,0.028594970703125
1788957292914338300,9.66933837890625,0.2007598876953125,-0.8142547607421875,0.05340576171875
1788957292924388000,9.67938818359375,0.2818145751953125,-0.8074493408203125,0.03240966796875
1788957292934439200,9.689439208984375,0.3364105224609375,-0.81768798828125,-0.0113067626953125
1788957292944489200,9.6994892578125,0.4852447509765625,-0.8662872314453125,-0.06103515625
1788957292954540300,9.709540283203125,0.494232177734375,-1.0289459228515625,-0.09906005859375
1788957292964590300,9.71959033203125,0.32818603515625,-1.0992584228515625,-0.064300537109375
1788957292974640000,9.72964013671875,0.2829742431640625,-1.0491485595703125,-0.0187225341796875
1788957292984691200,9.739691162109375,0.3007965087890625,-1.0731964111328125,-0.03173828125
1788957292994741200,9.7497412109375,0.255279541015625,-1.0206298828125,-0.03875732421875
1788957293004792300,9.759792236328124,0.260955810546875,-0.885833740234375,-0.033660888671875
1788957293014842400,9.76984228515625,0.2250518798828125,-0.8118438720703125,-0.0508575439453125
1788957293024892400,9.779892333984375,0.23699951171875,-0.8015899658203125,-0.0705413818359375
1788957293034943200,9.789943115234376,0.3174896240234375,-0.8514251708984375,-0.07867431640625
1788957293044993300,9.7999931640625,0.316619873046875,-0.9286956787109375,-0.089508056640625
1788957293055044000,9.810044189453125,0.333343505859375,-0.9857025146484375,-0.094512939453125
1788957293065094100,9.82009423828125,0.404541015625,-0.9758758544921875,-0.1001434326171875
1788957293075144200,9.830144287109375,0.3199310302734375,-0.934112548828125,-0.1087188720703125
1788957293085195300,9.8401953125,0.2339935302734375,-0.857208251953125,-0.0802764892578125
1788957293095245000,9.8502451171875,0.1928253173828125,-0.804840087890625,-0.046173095703125
1788957293105296100,9.860296142578125,0.1399688720703125,-0.7928314208984375,-0.021881103515625
1788957293115346200,9.87034619140625,0.22503662109375,-0.8025360107421875,-0.0135650634765625
1788957293125396200,9.880396240234376,0.365753173828125,-0.89813232421875,-0.0562286376953125
1788957293135447300,9.890447265625,0.4184417724609375,-1.0466156005859375,-0.1038665771484375
1788957293145497300,9.900497314453125,0.4699554443359375,-1.0835113525390625,-0.113372802734375
1788957293155548400,9.91054833984375,0.4163055419921875,-1.049407958984375,-0.0932464599609375
1788957293165598200,9.92059814453125,0.2368621826171875,-1.0636444091796875,-0.0681304931640625
1788957293175648300,9.930648193359374,0.14813232421875,-1.0530548095703125,-0.0570068359375
1788957293185699300,9.94069921875,0.1798858642578125,-0.9965972900390625,-0.067474365234375
1788957293195749400,9.950749267578125,0.2545013427734375,-0.96795654296875,-0.1175384521484375
1788957293205800200,9.96080029296875,0.31201171875,-1.0357818603515625,-0.187225341796875
1788957293215850200,9.970850341796876,0.3916015625,-1.0919342041015625,-0.2083587646484375
1788957293225900300,9.980900390625,0.4315032958984375,-1.1205291748046875,-0.2008819580078125
1788957293235951000,9.990951171875,0.37957763671875,-1.1096954345703125,-0.1917877197265625
1788957293246001200,10.001001220703126,0.3077239990234375,-1.063446044921875,-0.1529083251953125
1788957293256052200,10.01105224609375,0.2686767578125,-1.0181884765625,-0.0947723388671875
1788957293266102300,10.021102294921874,0.2415008544921875,-0.98162841796875,-0.052337646484375
1788957293276152000,10.031152099609375,0.2312774658203125,-0.939208984375,-0.033966064453125
1788957293286203100,10.041203125,0.2421112060546875,-0.897705078125,-0.02972412109375
1788957293296253200,10.051253173828124,0.3501434326171875,-0.8868408203125,-0.048187255859375
1788957293306304300,10.06130419921875,0.492340087890625,-0.873626708984375,-0.091827392578125
1788957293316354300,10.071354248046875,0.4476776123046875,-0.9008026123046875,-0.10382080078125
1788957293326404400,10.081404296875,0.29827880859375,-0.91412353515625,-0.0724334716796875
1788957293336455400,10.091455322265626,0.286651611328125,-0.930389404296875,-0.0533447265625
1788957293346505200,10.101505126953125,0.23663330078125,-0.94586181640625,-0.0446319580078125
1788957293356556300,10.111556396484374,0.2116546630859375,-0.925445556640625,-0.034942626953125
1788957293366606300,10.1216064453125,0.309967041015625,-0.9006805419921875,-0.0702667236328125
1788957293376656400,10.131656494140625,0.3090057373046875,-0.898773193359375,-0.1025238037109375
1788957293386707200,10.141707275390624,0.2715301513671875,-0.86376953125,-0.0988922119140625
1788957293396757200,10.15175732421875,0.3424835205078125,-0.8593292236328125,-0.124420166015625
1788957293406808000,10.16180810546875,0.3733978271484375,-0.887481689453125,-0.15875244140625
1788957293416858000,10.171858154296874,0.3374786376953125,-0.911865234375,-0.161834716796875
1788957293426908200,10.181908203125,0.35235595703125,-0.9433441162109375,-0.14154052734375
1788957293436959200,10.191959228515625,0.328826904296875,-1.0062103271484375,-0.116790771484375
1788957293447009300,10.20200927734375,0.2431182861328125,-1.0750732421875,-0.0765838623046875
1788957293457060400,10.212060302734375,0.2681121826171875,-1.119964599609375,-0.03045654296875
1788957293467110100,10.222110107421875,0.313232421875,-1.13470458984375,-0.0211029052734375
1788957293477160200,10.23216015625,0.2819671630859375,-1.14361572265625,-0.0289459228515625
1788957293487211300,10.242211181640625,0.253875732421875,-1.1234130859375,-0.0301666259765625
1788957293497261300,10.25226123046875,0.2624664306640625,-1.075408935546875,-0.055694580078125
1788957293507311400,10.262311279296876,0.30877685546875,-1.022857666015625,-0.122772216796875
1788957293517362200,10.272362060546875,0.34979248046875,-0.95263671875,-0.1976470947265625
1788957293527412200,10.282412109375,0.31646728515625,-0.9019317626953125,-0.2323150634765625
1788957293537463300,10.29246337890625,0.3038177490234375,-0.876373291015625,-0.22503662109375
1788957293547513300,10.302513427734375,0.308197021484375,-0.857574462890625,-0.2020721435546875
1788957293557563400,10.3125634765625,0.2718658447265625,-0.838104248046875,-0.1688385009765625
1788957293567614200,10.3226142578125,0.2290802001953125,-0.8177642822265625,-0.113922119140625
1788957293577664300,10.332664306640625,0.27691650390625,-0.7867431640625,-0.061859130859375
1788957293587715000,10.342715087890625,0.3262176513671875,-0.7666168212890625,-0.0385284423828125
1788957293597765000,10.35276513671875,0.29559326171875,-0.7884368896484375,-0.0426025390625
1788957293607815200,10.362815185546875,0.290924072265625,-0.8471832275390625,-0.0486602783203125
1788957293617866200,10.3728662109375,0.2732086181640625,-0.898345947265625,-0.028076171875
1788957293627916300,10.382916259765626,0.2628326416015625,-0.8978424072265625,-0.0134735107421875
1788957293637967400,10.39296728515625,0.338836669921875,-0.8938446044921875,-0.0303955078125
1788957293648017200,10.40301708984375,0.3548431396484375,-0.9259185791015625,-0.068695068359375
1788957293658067200,10.413067138671876,0.306732177734375,-0.9574432373046875,-0.122467041015625
1788957293668118300,10.4231181640625,0.3377838134765625,-1.00579833984375,-0.15545654296875
1788957293678168300,10.433168212890624,0.3701019287109375,-1.03582763671875,-0.1783447265625
1788957293688219400,10.443219482421876,0.38275146484375,-1.029632568359375,-0.1873016357421875
1788957293698269200,10.453269287109375,0.4372406005859375,-1.0146484375,-0.1898345947265625
1788957293708319200,10.4633193359375,0.4332427978515625,-1.0290985107421875,-0.1898651123046875
1788957293718370300,10.473370361328126,0.33538818359375,-1.0174560546875,-0.16265869140625
1788957293728420400,10.48342041015625,0.3745269775390625,-0.970306396484375,-0.143768310546875
1788957293738471200,10.49347119140625,0.4918975830078125,-0.970123291015625,-0.136749267578125
1788957293748521200,10.503521240234376,0.475250244140625,-0.9890594482421875,-0.102813720703125
1788957293758571300,10.5135712890625,0.4182891845703125,-0.9780120849609375,-0.06512451171875
1788957293768622000,10.5236220703125,0.3270111083984375,-0.9698944091796875,-0.0359039306640625
1788957293778672000,10.533672119140626,0.2771759033203125,-0.9527435302734375,-0.028961181640625
1788957293788723200,10.54372314453125,0.2863616943359375,-0.9497833251953125,-0.0318603515625
1788957293798773200,10.553773193359374,0.25482177734375,-0.926300048828125,-0.029144287109375
1788957293808823300,10.5638232421875,0.324798583984375,-0.89288330078125,-0.0220184326171875
1788957293818874000,10.5738740234375,0.462554931640625,-0.881988525390625,-0.0514373779296875
1788957293828924200,10.583924072265624,0.47021484375,-0.908111572265625,-0.076202392578125
1788957293838975200,10.593975341796876,0.3891143798828125,-0.9096527099609375,-0.0965728759765625
1788957293849025300,10.604025390625,0.2699432373046875,-0.9262847900390625,-0.08392333984375
1788957293859075300,10.614075439453124,0.2146759033203125,-0.9175262451171875,-0.058929443359375
1788957293869126400,10.62412646484375,0.293182373046875,-0.9017791748046875,-0.0509185791015625
1788957293879176200,10.63417626953125,0.3338623046875,-0.890411376953125,-0.069427490234375
1788957293889227300,10.644227294921874,0.2884063720703125,-0.89569091796875,-0.05206298828125
1788957293899277300,10.65427734375,0.287261962890625,-0.876251220703125,-0.0384521484375
1788957293909327400,10.664327392578125,0.4052581787109375,-0.848785400390625,-0.0771636962890625
1788957293919378200,10.674378173828124,0.418243408203125,-0.8979644775390625,-0.1153106689453125
1788957293929428200,10.68442822265625,0.417877197265625,-0.9372100830078125,-0.14501953125
1788957293939479300,10.694479248046875,0.498443603515625,-0.9622344970703125,-0.1768951416015625
1788957293949529000,10.704529052734374,0.431854248046875,-1.0279998779296875,-0.184661865234375
1788957293959579100,10.7145791015625,0.30682373046875,-1.0786285400390625,-0.1697235107421875
1788957293969630200,10.724630126953125,0.293701171875,-1.09051513671875,-0.178497314453125
1788957293979680300,10.73468017578125,0.289306640625,-1.107269287109375,-0.1953582763671875
1788957293989731300,10.7447314453125,0.2654571533203125,-1.099456787109375,-0.1905975341796875
1788957293999781000,10.754781005859375,0.24237060546875,-1.0293121337890625,-0.165618896484375
1788957294009831200,10.7648310546875,0.2832794189453125,-0.933837890625,-0.1410369873046875
1788957294019882200,10.77488232421875,0.2582244873046875,-0.8985137939453125,-0.118255615234375
1788957294029932300,10.784932373046875,0.251861572265625,-0.858642578125,-0.118194580078125
1788957294039983400,10.7949833984375,0.483062744140625,-0.8184814453125,-0.1684417724609375
1788957294050033400,10.805033447265625,0.5164642333984375,-0.8789215087890625,-0.2225341796875
1788957294060083200,10.815083251953125,0.36529541015625,-0.9495697021484375,-0.1769866943359375
1788957294070134300,10.82513427734375,0.36663818359375,-0.9781646728515625,-0.121917724609375
1788957294080184300,10.835184326171875,0.2557830810546875,-0.97357177734375,-0.1061859130859375
1788957294090234400,10.845234375,0.1051483154296875,-0.9361572265625,-0.0283050537109375
1788957294100285200,10.85528515625,0.2587432861328125,-0.908538818359375,0.0068206787109375
1788957294110335200,10.865335205078125,0.3036041259765625,-0.9646148681640625,-0.003265380859375
1788957294120385800,10.8753857421875,0.268280029296875,-0.9850311279296875,0.0131683349609375
1788957294130435800,10.885435791015626,0.3385162353515625,-0.9570465087890625,0.0150146484375
1788957294140486000,10.89548583984375,0.3833160400390625,-0.962127685546875,-0.0309295654296875
1788957294150536700,10.90553662109375,0.3108978271484375,-0.9546661376953125,-0.0782623291015625
1788957294160586800,10.915586669921876,0.2796783447265625,-0.8936004638671875,-0.084136962890625
1788957294170637800,10.925637939453125,0.236419677734375,-0.8455810546875,-0.067169189453125
1788957294180688000,10.93568798828125,0.1803436279296875,-0.824005126953125,-0.056640625
1788957294190738000,10.945738037109376,0.1956787109375,-0.784454345703125,-0.0427703857421875
1788957294200789000,10.9557890625,0.2722930908203125,-0.7608642578125,-0.031005859375
1788957294210838800,10.9658388671875,0.3522186279296875,-0.7716827392578125,-0.040740966796875
1788957294220889900,10.975889892578126,0.3897857666015625,-0.7945404052734375,-0.064453125
1788957294230940000,10.98593994140625,0.3839874267578125,-0.836761474609375,-0.0836181640625
1788957294240990000,10.995989990234374,0.27362060546875,-0.8723297119140625,-0.0852203369140625
1788957294251041000,11.006041015625,0.2999725341796875,-0.8746490478515625,-0.0934295654296875
1788957294261090800,11.0160908203125,0.412628173828125,-0.927947998046875,-0.160736083984375
1788957294271142000,11.026141845703124,0.3735504150390625,-1.0065155029296875,-0.2066650390625
1788957294281192000,11.03619189453125,0.4053497314453125,-1.0535736083984375,-0.180450439453125
1788957294291242000,11.046241943359375,0.38623046875,-1.0812225341796875,-0.1369781494140625
1788957294301292800,11.056292724609374,0.265838623046875,-1.0606536865234375,-0.094940185546875
1788957294311342800,11.0663427734375,0.2158355712890625,-1.0255889892578125,-0.08331298828125
1788957294321394000,11.076393798828125,0.2138671875,-1.0123138427734375,-0.10406494140625
1788957294331443700,11.086443603515624,0.263336181640625,-1.010986328125,-0.1176605224609375
1788957294341493800,11.09649365234375,0.3433685302734375,-0.985321044921875,-0.1303253173828125
1788957294351544800,11.106544921875,0.360595703125,-0.9574432373046875,-0.1387481689453125
1788957294361595000,11.116594970703124,0.3358001708984375,-0.9426422119140625,-0.1351470947265625
1788957294371646000,11.12664599609375,0.3092803955078125,-0.9424896240234375,-0.130706787109375
1788957294381695700,11.13669580078125,0.251129150390625,-0.96173095703125,-0.1082763671875
1788957294391745800,11.146745849609376,0.303253173828125,-0.999969482421875,-0.0832366943359375
1788957294401796900,11.156796875,0.4010162353515625,-1.02435302734375,-0.0867767333984375
1788957294411847000,11.166846923828125,0.3408203125,-1.0327301025390625,-0.0826416015625
1788957294421897000,11.17689697265625,0.348114013671875,-1.0094146728515625,-0.0756683349609375
1788957294431948000,11.186947998046875,0.4357452392578125,-0.982025146484375,-0.10528564453125
1788957294441997800,11.196997802734375,0.3588714599609375,-1.0111236572265625,-0.113250732421875
1788957294452049000,11.207048828125,0.37176513671875,-1.021697998046875,-0.0950927734375
1788957294462099000,11.217098876953125,0.444549560546875,-1.052642822265625,-0.0977630615234375
1788957294472149000,11.22714892578125,0.408416748046875,-1.0872650146484375,-0.0989837646484375
1788957294482199800,11.23719970703125,0.3089447021484375,-1.0961761474609375,-0.0818939208984375
1788957294492249900,11.247249755859375,0.24365234375,-1.0528411865234375,-0.075958251953125
1788957294502301000,11.257301025390625,0.2159881591796875,-1.002593994140625,-0.0851593017578125
1788957294512350700,11.267350830078126,0.1661376953125,-0.9655914306640625,-0.090667724609375
1788957294522400800,11.27740087890625,0.19049072265625,-0.9146728515625,-0.09222412109375
1788957294532451800,11.287451904296875,0.2975921630859375,-0.8385162353515625,-0.0903778076171875
1788957294542502000,11.297501953125,0.4145050048828125,-0.7490692138671875,-0.082244873046875
1788957294552553000,11.307552978515625,0.409942626953125,-0.7237701416015625,-0.06683349609375
1788957294562602800,11.317602783203125,0.3760833740234375,-0.7607421875,-0.0541229248046875
1788957294572652800,11.32765283203125,0.372833251953125,-0.8298187255859375,-0.0740966796875
1788957294582703900,11.337703857421875,0.2386474609375,-0.9106903076171875,-0.0996246337890625
1788957294592754000,11.34775390625,0.127838134765625,-0.961029052734375,-0.0987091064453125
1788957294602805000,11.357804931640626,0.1862640380859375,-0.9690704345703125,-0.1058349609375
1788957294612855000,11.36785498046875,0.2808685302734375,-0.964263916015625,-0.1196136474609375
1788957294622904800,11.37790478515625,0.4061126708984375,-0.9445953369140625,-0.1375732421875
1788957294632956000,11.387955810546876,0.4950714111328125,-0.9377288818359375,-0.157196044921875
1788957294643006000,11.398005859375,0.4319000244140625,-0.92803955078125,-0.1549530029296875
1788957294653056000,11.408055908203124,0.306427001953125,-0.9308624267578125,-0.1318817138671875
1788957294663106800,11.41810693359375,0.247222900390625,-0.963104248046875,-0.1120758056640625
1788957294673156900,11.428156982421875,0.314361572265625,-0.97357177734375,-0.1079864501953125
1788957294683207700,11.438207763671874,0.42486572265625,-0.958953857421875,-0.1387176513671875
1788957294693257700,11.4482578125,0.405242919921875,-0.9683990478515625,-0.157379150390625
1788957294703307800,11.458307861328125,0.364349365234375,-0.9886627197265625,-0.15838623046875
1788957294713358800,11.46835888671875,0.3509368896484375,-1.0023040771484375,-0.1641387939453125
1788957294723409000,11.478408935546875,0.3152008056640625,-1.007598876953125,-0.1576690673828125
1788957294733460000,11.4884599609375,0.301025390625,-0.98919677734375,-0.1481781005859375
1788957294743509800,11.498509765625,0.28070068359375,-0.9735107421875,-0.1338958740234375
1788957294753559800,11.508559814453125,0.2745513916015625,-0.9654388427734375,-0.119842529296875
1788957294763611000,11.51861083984375,0.2513885498046875,-0.9490966796875,-0.12481689453125
1788957294773661000,11.528660888671874,0.2253570556640625,-0.92218017578125,-0.1335601806640625
1788957294783712000,11.5387119140625,0.218475341796875,-0.8911285400390625,-0.1453704833984375
1788957294793762000,11.548761962890625,0.2163543701171875,-0.8818817138671875,-0.1493988037109375
1788957294803811800,11.558811767578124,0.2364501953125,-0.8819427490234375,-0.1531982421875
1788957294813863000,11.56886279296875,0.2523345947265625,-0.8836517333984375,-0.1542510986328125
1788957294823913000,11.578912841796875,0.3221588134765625,-0.8946075439453125,-0.1644287109375
1788957294833963800,11.5889638671875,0.398712158203125,-0.9166107177734375,-0.1704864501953125
1788957294844013800,11.599013916015625,0.39215087890625,-0.928558349609375,-0.1722564697265625
1788957294854063900,11.60906396484375,0.4012451171875,-0.929473876953125,-0.1838836669921875
1788957294864114700,11.61911474609375,0.4188079833984375,-0.9318084716796875,-0.1912384033203125
1788957294874164700,11.629164794921875,0.3986968994140625,-0.94012451171875,-0.177154541015625
1788957294884214800,11.63921484375,0.4689483642578125,-0.9387664794921875,-0.1647796630859375
1788957294894265900,11.649265869140624,0.5238037109375,-0.940948486328125,-0.16363525390625
1788957294904316000,11.65931591796875,0.4697418212890625,-0.943603515625,-0.16339111328125
1788957294914367000,11.669366943359375,0.39508056640625,-0.9450225830078125,-0.1627960205078125
1788957294924416800,11.679416748046876,0.338470458984375,-0.93634033203125,-0.1427154541015625
1788957294934466800,11.689466796875,0.2700653076171875,-0.8820648193359375,-0.1101226806640625
1788957294944518000,11.699517822265625,0.204071044921875,-0.800445556640625,-0.068603515625
1788957294954568000,11.70956787109375,0.282745361328125,-0.725830078125,-0.0464935302734375
1788957294964619000,11.719618896484375,0.3772735595703125,-0.71337890625,-0.061370849609375
1788957294974668800,11.729668701171875,0.471923828125,-0.761566162109375,-0.09014892578125
1788957294984718800,11.73971875,0.5771636962890625,-0.85235595703125,-0.12591552734375
1788957294994770000,11.74977001953125,0.4692230224609375,-0.9476776123046875,-0.1276397705078125
1788957295004820000,11.759820068359375,0.297027587890625,-1.02130126953125,-0.096527099609375
1788957295014870800,11.769870849609376,0.2177581787109375,-1.09271240234375,-0.056182861328125
1788957295024920800,11.7799208984375,0.196685791015625,-1.046875,-0.0204925537109375
1788957295034971000,11.789970947265624,0.3492889404296875,-1.01287841796875,-0.0102386474609375
1788957295045021700,11.800021728515626,0.5350189208984375,-1.022735595703125,-0.052947998046875
1788957295055071700,11.81007177734375,0.5256500244140625,-0.991363525390625,-0.0786590576171875
1788957295065121800,11.820121826171874,0.4584808349609375,-1.0673370361328125,-0.0976409912109375
1788957295075172900,11.8301728515625,0.347991943359375,-1.157012939453125,-0.17181396484375
1788957295085223000,11.840222900390625,0.2360076904296875,-1.1713409423828125,-0.2300567626953125
1788957295095274000,11.85027392578125,0.2565155029296875,-1.07855224609375,-0.2292633056640625
1788957295105323800,11.86032373046875,0.40716552734375,-1.00897216796875,-0.2091827392578125
1788957295115373800,11.870373779296875,0.5214691162109375,-1.0186004638671875,-0.1947479248046875
1788957295125425000,11.8804248046875,0.47320556640625,-1.0574493408203125,-0.153778076171875
1788957295135475000,11.890474853515625,0.403961181640625,-1.081024169921875,-0.107269287109375
1788957295145526000,11.900526123046875,0.3322601318359375,-1.082061767578125,-0.071563720703125
1788957295155575800,11.910575927734374,0.235137939453125,-1.0637054443359375,-0.0186004638671875
1788957295165625900,11.9206259765625,0.2024078369140625,-0.99822998046875,0.02239990234375
1788957295175677000,11.930677001953125,0.19903564453125,-0.8786468505859375,0.0569610595703125
1788957295185727000,11.94072705078125,0.24737548828125,-0.784698486328125,0.05694580078125
1788957295195777800,11.95077783203125,0.2946929931640625,-0.73931884765625,0.0208740234375
1788957295205827800,11.960827880859375,0.36407470703125,-0.713836669921875,-0.02880859375
1788957295215878000,11.9708779296875,0.4474945068359375,-0.709014892578125,-0.0966644287109375
1788957295225928700,11.9809287109375,0.427978515625,-0.72918701171875,-0.1543121337890625
1788957295235978800,11.990978759765625,0.31683349609375,-0.74139404296875,-0.18109130859375
1788957295246028800,12.00102880859375,0.25347900390625,-0.766265869140625,-0.21343994140625
1788957295256080000,12.011079833984375,0.2669830322265625,-0.839324951171875,-0.2547149658203125
1788957295266130000,12.0211298828125,0.2313690185546875,-0.87322998046875,-0.223388671875
1788957295276180700,12.0311806640625,0.3164825439453125,-0.972991943359375,-0.1829986572265625
1788957295286230800,12.041230712890625,0.3527679443359375,-1.0171356201171875,-0.168975830078125
1788957295296280800,12.05128076171875,0.343780517578125,-0.93682861328125,-0.1377410888671875
1788957295306332000,12.061331787109374,0.3379669189453125,-0.910797119140625,-0.1248931884765625
1788957295316382000,12.0713818359375,0.1973419189453125,-0.865966796875,-0.085662841796875
1788957295326433000,12.08143310546875,0.1456298828125,-0.766937255859375,-0.0213470458984375
1788957295336482800,12.09148291015625,0.29144287109375,-0.805908203125,-0.04754638671875
1788957295346532900,12.101532958984375,0.3566741943359375,-0.9132537841796875,-0.0969390869140625
1788957295356584000,12.111583984375,0.4174957275390625,-0.9639892578125,-0.083648681640625
1788957295366634000,12.121634033203126,0.4973602294921875,-1.02032470703125,-0.1002197265625
1788957295376684000,12.13168408203125,0.4676971435546875,-1.088104248046875,-0.1422882080078125
1788957295386734800,12.14173486328125,0.37591552734375,-1.1051788330078125,-0.14898681640625
1788957295396785000,12.151784912109376,0.2926177978515625,-1.043426513671875,-0.123565673828125
1788957295406835700,12.161835693359375,0.27508544921875,-0.989349365234375,-0.0995025634765625
1788957295416885800,12.1718857421875,0.2886810302734375,-0.9361419677734375,-0.084625244140625
1788957295426935800,12.181935791015626,0.444000244140625,-0.901153564453125,-0.090728759765625
1788957295436987000,12.19198681640625,0.5638885498046875,-0.945159912109375,-0.1405792236328125
1788957295447036700,12.20203662109375,0.497100830078125,-0.989501953125,-0.1720123291015625
1788957295457087700,12.212087646484376,0.4337005615234375,-0.989959716796875,-0.1565704345703125
1788957295467137800,12.2221376953125,0.383453369140625,-0.944244384765625,-0.1468505859375
1788957295477187800,12.232187744140624,0.196441650390625,-0.9006195068359375,-0.1230926513671875
1788957295487239000,12.242239013671876,0.0930328369140625,-0.839141845703125,-0.0892333984375
1788957295497289000,12.2522890625,0.17486572265625,-0.7432403564453125,-0.0525970458984375
1788957295507338800,12.2623388671875,0.271453857421875,-0.7099609375,-0.072723388671875
1788957295517389800,12.272389892578126,0.382293701171875,-0.7276611328125,-0.12255859375
1788957295527440000,12.28243994140625,0.5191497802734375,-0.84246826171875,-0.167999267578125
1788957295537491000,12.292490966796874,0.559478759765625,-1.0138092041015625,-0.213348388671875
1788957295547541000,12.302541015625,0.3859100341796875,-1.107177734375,-0.189117431640625
1788957295557591000,12.312591064453125,0.206298828125,-1.105987548828125,-0.1189117431640625
1788957295567641900,12.322641845703124,0.1573638916015625,-1.0391387939453125,-0.0959625244140625
1788957295577692000,12.33269189453125,0.2699432373046875,-0.96124267578125,-0.127410888671875
1788957295587742700,12.34274267578125,0.3895263671875,-0.9401702880859375,-0.163116455078125
1788957295597792800,12.352792724609374,0.463592529296875,-0.9428863525390625,-0.1759796142578125
1788957295607842800,12.3628427734375,0.5001678466796875,-0.982666015625,-0.185089111328125
1788957295617894000,12.372893798828125,0.446533203125,-1.0656280517578125,-0.2187957763671875
1788957295627943700,12.382943603515624,0.3493499755859375,-1.0548553466796875,-0.19781494140625
1788957295637993700,12.39299365234375,0.2787322998046875,-0.9981231689453125,-0.1458892822265625
1788957295648044800,12.403044921875,0.37066650390625,-0.93084716796875,-0.1201324462890625
1788957295658094800,12.4130947265625,0.4557037353515625,-0.8956298828125,-0.1171112060546875
1788957295668146000,12.42314599609375,0.469390869140625,-0.885345458984375,-0.095489501953125
1788957295678196000,12.433196044921875,0.5543670654296875,-0.904998779296875,-0.08551025390625
1788957295688245800,12.443245849609376,0.5032958984375,-0.9522857666015625,-0.105712890625
1788957295698296800,12.453296875,0.288421630859375,-1.0119171142578125,-0.097686767578125
1788957295708347000,12.463346923828125,0.253692626953125,-1.0238800048828125,-0.0743560791015625
1788957295718398000,12.47339794921875,0.3197174072265625,-1.014068603515625,-0.0701446533203125
1788957295728448000,12.483447998046875,0.2997589111328125,-1.0171966552734375,-0.058502197265625
1788957295738498000,12.493498046875,0.2281951904296875,-0.995635986328125,-0.0369720458984375
1788957295748548900,12.503548828125,0.3013763427734375,-0.9659271240234375,-0.048614501953125
1788957295758599000,12.513598876953125,0.401031494140625,-0.9558868408203125,-0.1002960205078125
1788957295768649000,12.52364892578125,0.3696136474609375,-0.9367828369140625,-0.14373779296875
1788957295778699800,12.53369970703125,0.331146240234375,-0.918182373046875,-0.1706085205078125
1788957295788749800,12.543749755859375,0.308258056640625,-0.91314697265625,-0.1673736572265625
1788957295798801000,12.55380078125,0.258209228515625,-0.92828369140625,-0.12774658203125
1788957295808850700,12.5638505859375,0.27447509765625,-0.9575042724609375,-0.0824737548828125
1788957295818900700,12.573900634765625,0.2545623779296875,-0.989227294921875,-0.0770111083984375
1788957295828951800,12.583951904296875,0.16082763671875,-1.0064544677734375,-0.071136474609375
1788957295839001900,12.594001953125,0.1886749267578125,-0.9922943115234375,-0.0679168701171875
1788957295849053000,12.604052978515625,0.29083251953125,-0.97613525390625,-0.0953521728515625
1788957295859103000,12.61410302734375,0.3336029052734375,-0.9535675048828125,-0.1100616455078125
1788957295869152800,12.62415283203125,0.3366546630859375,-0.9295196533203125,-0.1062469482421875
1788957295879203800,12.634203857421875,0.311248779296875,-0.9329071044921875,-0.0927581787109375
1788957295889254000,12.64425390625,0.2813262939453125,-0.9626312255859375,-0.08380126953125
1788957295899304000,12.654303955078126,0.25030517578125,-0.9733734130859375,-0.07293701171875
1788957295909355000,12.66435498046875,0.2302703857421875,-0.9305267333984375,-0.043609619140625
1788957295919404800,12.67440478515625,0.298248291015625,-0.856353759765625,-0.0418701171875
1788957295929455900,12.684455810546876,0.3177337646484375,-0.78143310546875,-0.0619964599609375
1788957295939506000,12.694505859375,0.3382720947265625,-0.7711639404296875,-0.0892486572265625
1788957295949556000,12.704555908203124,0.3896942138671875,-0.7741241455078125,-0.1246795654296875
1788957295959606800,12.714606689453126,0.3742828369140625,-0.7858428955078125,-0.1354827880859375
1788957295969656800,12.72465673828125,0.3522186279296875,-0.8010406494140625,-0.13555908203125
1788957295979708000,12.7347080078125,0.341583251953125,-0.8006591796875,-0.1379852294921875
1788957295989757700,12.7447578125,0.35247802734375,-0.7942047119140625,-0.140380859375
1788957295999807700,12.754807861328125,0.4006195068359375,-0.806121826171875,-0.1443328857421875
1788957296009858800,12.76485888671875,0.423553466796875,-0.864532470703125,-0.1566619873046875
1788957296019908900,12.774908935546875,0.3919219970703125,-0.9693756103515625,-0.1918792724609375
1788957296029959000,12.784958984375,0.377166748046875,-1.07440185546875,-0.212615966796875
1788957296040010000,12.795010009765624,0.2790679931640625,-1.169281005859375,-0.2040863037109375
1788957296050059800,12.805059814453125,0.1463623046875,-1.2208709716796875,-0.1804962158203125
1788957296060110800,12.81511083984375,0.014068603515625,-1.182769775390625,-0.1345062255859375
1788957296070161000,12.825160888671874,0.0674896240234375,-1.0625457763671875,-0.109619140625
1788957296080211000,12.8352109375,0.2773895263671875,-0.993316650390625,-0.1458282470703125
1788957296090262000,12.845261962890625,0.4074249267578125,-0.9808197021484375,-0.17108154296875
1788957296100311800,12.855311767578126,0.4460296630859375,-1.009796142578125,-0.158538818359375
1788957296110361900,12.86536181640625,0.497589111328125,-1.0491485595703125,-0.144866943359375
1788957296120413400,12.875413330078125,0.4947662353515625,-1.0932464599609375,-0.1450653076171875
1788957296130463500,12.88546337890625,0.244720458984375,-1.1501312255859375,-0.0962677001953125
1788957296140514600,12.8955146484375,0.09197998046875,-1.12847900390625,-0.0170440673828125
1788957296150564400,12.905564453125,0.26025390625,-1.060699462890625,-0.016082763671875
1788957296160614400,12.915614501953126,0.288299560546875,-1.0497283935546875,-0.0400543212890625
1788957296170665500,12.92566552734375,0.2705230712890625,-1.0076446533203125,-0.055755615234375
1788957296180715500,12.935715576171875,0.3485870361328125,-0.963714599609375,-0.0858306884765625
1788957296190766600,12.9457666015625,0.3388214111328125,-0.9202728271484375,-0.107635498046875
1788957296200816600,12.955816650390625,0.3873443603515625,-0.8610992431640625,-0.1334381103515625
1788957296210866400,12.965866455078125,0.4049224853515625,-0.82183837890625,-0.1759185791015625
1788957296220917500,12.97591748046875,0.2782440185546875,-0.769805908203125,-0.1522674560546875
1788957296230967600,12.985967529296875,0.2793426513671875,-0.7083740234375,-0.1014556884765625
1788957296241017600,12.996017578125,0.3050994873046875,-0.6876983642578125,-0.0808868408203125
