time,seconds_elapsed,z,y,x
1788957283287326500,0.042326416015625,-1.0077397032171487,0.36936522731184956,1.1168060810051859
1788957283297376500,0.05237646484375,-1.1742454396694897,0.7195254034161567,1.5426440139062703
1788957283307427300,0.06242724609375,-1.343469787430763,1.4509084178864955,1.1820189962804317
1788957283317477400,0.072477294921875,-1.7878788575500248,1.038303183785081,1.576139017881453
1788957283327527400,0.08252734375,-1.8825287335813043,0.6962135014116764,1.9917665224134922
1788957283337578500,0.09257861328125,-0.9108493547827005,0.5624941822737455,1.7657777926400302
1788957283347628500,0.102628662109375,-0.1621557245492935,1.1968564999282358,1.1775045145306735
1788957283357678300,0.11267822265625,0.03409516182541847,1.333193892610073,0.62052010865435
1788957283367729400,0.1227294921875,0.7972942872732878,0.20843699873089788,-0.20417700319886206
1788957283377779500,0.132779541015625,1.5014730684757231,-1.1485229693919419,-1.207361088938266
1788957283387829500,0.14282958984375,0.9259393718868494,-2.31760591173172,-1.3372750244438647
1788957283397880600,0.152880615234375,-0.22220599636435506,-1.3898007459729909,-0.828070972200483
1788957283407930400,0.162930419921875,0.08086977248191833,0.19150456863045692,-0.5868792664676904
1788957283417981400,0.1729814453125,0.25707272708415985,0.7674269722759723,0.1283241820961237
1788957283428031500,0.183031494140625,-0.43787586895823477,1.5864415084481238,0.9925075011633336
1788957283438081500,0.19308154296875,-0.7280845574468374,2.335384437267482,1.590365111632645
1788957283448132600,0.203132568359375,-1.0708674827814102,2.867874526421726,2.008998373851925
1788957283458182700,0.2131826171875,-1.8384546140551565,3.7750007690280674,1.9968816734701393
1788957283468233500,0.2232333984375,-3.73392816940546,3.912047186762094,1.1619414000220596
1788957283478283500,0.233283447265625,-3.201377874496579,3.2973028850302097,1.1768873324804008
1788957283488333600,0.24333349609375,1.7152058355271815,4.1002474531501525,1.7479286860860883
1788957283498384400,0.25338427734375,1.283853230857849,2.063373961031437,-0.3614934710234403
1788957283508434400,0.263434326171875,0.7262649408042431,0.38494682732522484,-2.3357776743687686
1788957283518484500,0.273484375,1.9144880524218082,0.3618775019049644,-3.588222644397616
1788957283528535300,0.283535400390625,2.5871055741906166,0.5239215827733278,-4.36407783780098
1788957283538585300,0.29358544921875,1.5052660310178994,-1.0558715737015008,-2.400597352542728
1788957283548635400,0.303635498046875,0.18008301090598106,-2.986681815370917,0.10458645589500665
1788957283558686500,0.3136865234375,0.772291363441944,-3.447209661120176,2.0003411662742496
1788957283568736500,0.323736572265625,0.282139948323369,-3.5031960444971917,1.9656505227737127
1788957283578787600,0.33378759765625,0.30134733761847016,-3.100696024824679,1.4301716270670295
1788957283588837400,0.34383740234375,0.17467150725126265,-3.009440175145864,0.843023772791028
1788957283598887400,0.353887451171875,-0.23895430206954477,-3.479375608448684,0.5849450835347175
1788957283608938500,0.3639384765625,-0.10121347233057021,-4.01555286168307,0.47496115251034493
1788957283618988500,0.373988525390625,-0.16221651482582092,-3.698845750108361,1.798184855248034
1788957283629039600,0.38403955078125,-0.6455746165424585,-2.645354057280719,3.867802386844158
1788957283639089700,0.394089599609375,-0.4672597843527794,-2.4728572637200354,6.92543872988224
1788957283649139500,0.404139404296875,-0.00048281508088111874,-2.274005547197163,9.542218142324685
1788957283659190500,0.4141904296875,-1.3936451464414596,-1.630236811032891,8.108792774158715
1788957283669240600,0.424240478515625,-3.1141268765449523,-3.525013616290688,2.3067785205081104
1788957283679290600,0.43429052734375,2.4478818124175072,-9.90946856943965,-4.166547725270688
1788957283689341400,0.444341552734375,8.332289394855499,-9.437865787446498,-5.835521678715944
1788957283699391500,0.4543916015625,-3.991761943989992,-0.045062399911135434,-0.35598405995219945
1788957283709441500,0.464441650390625,-2.241742569234967,0.36300358332544563,2.4437130023002624
1788957283719492400,0.474492431640625,0.1497644450098276,-4.390884596183896,3.722979489889741
1788957283729542400,0.48454248046875,-1.3176549626946448,-5.066614697015285,6.905076325333118
1788957283739593500,0.494593505859375,0.5080477218151093,-3.738171213802695,7.8286501371324055
1788957283749643500,0.5046435546875,0.12309446474909781,-2.954209870833158,7.389128254532814
1788957283759693300,0.514693359375,0.28734803836047645,-2.3099793623760343,6.532133824056387
1788957283769744400,0.524744384765625,0.8814221847683191,-1.4068855901561677,6.397727691698074
1788957283779794400,0.53479443359375,1.1912865908414125,-1.6195242783606052,6.524414627981185
1788957283789845500,0.544845458984375,2.054558201891184,-0.9861337283477186,6.234895675322413
1788957283799895600,0.5548955078125,2.662635739210248,1.1634618875876068,7.237254854544997
1788957283809945600,0.564945556640625,2.687421220898628,3.0087039698258042,7.930410721951723
1788957283819996700,0.57499658203125,1.7652923472106457,4.414660316307843,7.426157131722569
1788957283830046500,0.58504638671875,0.8320821075379848,5.2423313294053075,5.7910272879511115
1788957283840096500,0.595096435546875,0.16693302195370197,6.446069405540824,4.957413733062148
1788957283850147600,0.605147705078125,-0.5330529837340117,7.934810418215394,4.512907924570143
1788957283860197600,0.61519775390625,-0.6435685374170541,8.870313152739405,3.7250630181655286
1788957283870248400,0.62524853515625,-1.7213234416246412,9.269110810762644,2.6038936273843047
1788957283880298500,0.635298583984375,-3.5035061333596706,9.139481975808739,1.7122323726743458
1788957283890348500,0.6453486328125,-4.717669741919637,8.546680333554745,2.4050800509147345
1788957283900399400,0.6553994140625,-4.420937204620242,7.654276151522994,3.4826042151063676
1788957283910449400,0.665449462890625,-4.006804907082021,6.9564967159688464,4.2859784068152305
1788957283920499500,0.67549951171875,-5.908578731620311,5.551103264066577,4.353733846180141
1788957283930550500,0.685550537109375,-9.002593963506817,2.0462685124516486,4.6441266590639945
1788957283940600300,0.695600341796875,-8.034677152112126,-0.06045359191894531,4.3535850853592155
1788957283950651400,0.7056513671875,-11.04965684120655,-2.1011855130314827,3.7883833976924417
1788957283960701400,0.715701416015625,-11.61453178113699,-3.761528123992681,3.127765525797009
1788957283970751500,0.72575146484375,-9.9268651099205,-5.27326715041697,2.646195476540923
1788957283980802600,0.735802490234375,-8.278784014639259,-6.960529332485795,1.882410075637698
1788957283990852600,0.7458525390625,-6.9680287483304735,-8.692682795682549,0.003701777127385139
1788957284000902400,0.75590234375,-6.366278660467267,-9.73877999434471,-0.6441098046869039
1788957284010953500,0.765953369140625,-4.190118278211355,-10.404004483252763,0.38730069697499275
1788957284021003500,0.77600341796875,-0.9302357539065181,-11.503718121290206,1.834112200936675
1788957284031054600,0.7860546875,2.7819711436867713,-12.284379838192462,2.8972949744343754
1788957284041104600,0.796104736328125,5.639259686425328,-12.16683248617649,2.72962311681211
1788957284051154400,0.806154541015625,6.799910315984487,-11.845799035835265,2.146821475046873
1788957284061205500,0.81620556640625,7.985584327641129,-11.088621070373058,1.0402069715797901
1788957284071255600,0.826255615234375,9.559832124948501,-10.310532418829203,0.6561082855165005
1788957284081305600,0.8363056640625,10.703675996613502,-10.398327606660127,0.6562567540764809
1788957284091356400,0.8463564453125,12.083656190317868,-10.774051263087987,0.08608078512847422
1788957284101406500,0.856406494140625,12.718331227183342,-10.743455049294234,0.26567630477845666
1788957284111457800,0.866457763671875,14.048712400460243,-9.857084886729716,2.213368123143911
1788957284121507800,0.8765078125,14.61361072126627,-8.69465672610402,2.9545693517953158
1788957284131558000,0.886557861328125,13.392099088031053,-7.211057167971134,2.9391046561598775
1788957284141609000,0.89660888671875,9.744995215597749,-11.007779354941844,0.8636743466317653
1788957284151658800,0.90665869140625,7.52431121648252,-7.4094883209943765,2.112023717910051
1788957284161708800,0.916708740234375,4.476894069641828,-2.7082003895550963,0.6649725599735975
1788957284171759900,0.926759765625,2.912850270962715,0.6886947963446378,-0.8739560866713524
1788957284181810000,0.936809814453125,-2.319517298310995,-0.6297115692391991,-2.369538343542814
1788957284191861000,0.946861083984375,-5.8731403384923935,-2.7847216114386915,-3.3366268874198197
1788957284201911000,0.9569111328125,-4.095065958859026,-3.269502147173881,-2.4789877292990683
1788957284211960800,0.9669609375,-5.17419711985588,-1.661518961264193,-0.9018512248128652
1788957284222012000,0.977011962890625,0.04020721496492624,2.013924870468676,-0.4518570480376482
1788957284232062000,0.98706201171875,1.9467828868269919,2.163569196230173,-0.49230070210695265
1788957284242112000,0.997112060546875,4.200373130244016,0.4712506075546145,3.96798710064888
1788957284252162800,1.007162841796875,6.575199058800935,3.1859576025247573,4.032549881452322
1788957284262212900,1.017212890625,6.095273854142427,1.5782625859066843,2.9814257945388554
1788957284272263700,1.027263671875,4.5460830489411945,0.152456752833724,1.756528025996685
1788957284282313700,1.037313720703125,5.400052870899438,0.8498276075869798,1.3840034578710794
1788957284292363800,1.04736376953125,4.770419335332512,0.9314809316620231,2.4587422291278838
1788957284302414800,1.057414794921875,2.4354975471407174,-0.33311493327915664,3.0911043128758666
1788957284312465000,1.06746484375,1.2704054280027746,3.1500413627520203,1.9790777212321757
1788957284322514700,1.0775146484375,-2.7964637794196605,6.0205228568017475,0.35322190176248547
1788957284332565800,1.087565673828125,-6.6014516904324285,3.6402982840716835,1.1278262183219194
1788957284342615800,1.09761572265625,-9.571432546371222,4.2583118167325855,5.547861505666375
1788957284352667000,1.1076669921875,-3.6104616564735768,6.377198113888502,5.719135187172889
1788957284362717000,1.117717041015625,1.7301964839100836,6.727433108794688,2.4713819304704665
1788957284372767000,1.12776708984375,2.410567104023695,4.538960357454419,3.6096494633078575
1788957284382817800,1.13781787109375,3.7352965351492164,1.9081814996235071,1.5799106453746556
1788957284392867800,1.147867919921875,5.125689986318349,-0.15437603045850992,-1.1817109532445669
1788957284402919000,1.1579189453125,2.9149919591665268,-1.2233996389389037,-1.7039789235919713
1788957284412969000,1.167968994140625,-1.7851231291010974,-1.8709061003267764,2.4064462247014045
1788957284423019000,1.17801904296875,-7.1458344619542356,-2.069860400441289,4.430453220984339
1788957284433069800,1.18806982421875,-9.783326407557725,0.9102475894972681,0.8473165015488863
1788957284443119900,1.198119873046875,-4.111937890943884,2.3882900980249047,-0.8517179513782263
1788957284453170000,1.208169921875,1.3633224888920783,1.2442837292745708,2.47991711910367
1788957284463220700,1.218220703125,2.80077229026854,0.565667551612854,3.418497945898771
1788957284473270800,1.228270751953125,0.9746940504446625,2.0890441165998577,2.5897107882529498
1788957284483321900,1.23832177734375,0.9249322406709194,2.94700797663033,-3.7305519709706303
1788957284493372000,1.248371826171875,6.67524757900536,0.03406476668715477,-20.609722774910924
1788957284503421700,1.258421630859375,-3.2237609712183475,-2.1547242109954357,-27.809933554697036
1788957284513472800,1.26847265625,-5.262406149184703,5.083431391781568,-18.438324492490292
1788957284523522800,1.278522705078125,4.0145471917718645,11.06082822356224,-13.316224639618396
1788957284533572900,1.28857275390625,2.2280163878299293,8.069253959974645,-14.620647195774316
1788957284543624000,1.2986240234375,-1.546796165149659,7.1171671703964465,-12.275184139823914
1788957284553673700,1.308673828125,0.7177747603565454,10.753806931960582,-6.762412652239203
1788957284563724800,1.318724853515625,0.5586648332439362,9.328820306316018,-3.0086469789415595
1788957284573774800,1.32877490234375,-0.9190215553224086,9.028052229890227,-0.9756728323489428
1788957284583825000,1.338824951171875,1.6443074219614267,6.244336288362741,0.747889912635088
1788957284593876000,1.3488759765625,6.355715765398741,3.895951207485795,2.853257095265388
1788957284603926000,1.358926025390625,4.266483140489459,3.507845039346814,1.612621951626241
1788957284613976800,1.368976806640625,-1.5525702185064554,1.127013732895255,-0.08556786717027426
1788957284624027000,1.37902685546875,-1.0800082360923289,-0.9578788169831037,-1.2159478616282342
1788957284634077000,1.389076904296875,7.562521996933222,-1.3976070358097552,1.1771382385015488
1788957284644127700,1.399127685546875,12.37476095086336,-10.90401736717224,5.418876229313016
1788957284654177800,1.409177734375,8.336529516643285,-15.684733055591582,8.302841766574979
1788957284664227800,1.419227783203125,7.0983251072824,-14.369513211089371,7.193610943129658
1788957284674279000,1.42927880859375,3.85826883482337,-12.284446473687886,5.1251241691291325
1788957284684328700,1.43932861328125,5.2024821340978145,-7.915037796252966,6.433179528829455
1788957284694379800,1.4493798828125,4.543700245457887,-6.162292211404442,6.6829661905586715
1788957284704429800,1.459429931640625,0.8696902459204197,-7.319573656791448,5.491805856445431
1788957284714479900,1.46947998046875,3.1220190910995003,-2.1527941197156903,6.5472144888103
1788957284724531000,1.479531005859375,4.042186309325695,2.985247983175516,7.22488403327167
1788957284734580700,1.489580810546875,3.838259481495619,5.794225207209586,5.0786225301951164
1788957284744630800,1.499630859375,2.877625812846422,5.965795241314172,1.475507875483483
1788957284754681900,1.509681884765625,-0.5597323163449764,7.478685191339254,0.8125662368156016
1788957284764732000,1.51973193359375,-1.282325144507736,7.7201950231105085,-0.8053872850969434
1788957284774783000,1.529782958984375,-2.3136871308527884,5.9581479414314025,-3.763232882083952
1788957284784833000,1.5398330078125,-7.331442958283424,-3.7889977301985023,-8.292416818672418
1788957284794882800,1.5498828125,-6.4378445980310435,-23.0674736549139,-22.703690611648558
1788957284804934000,1.559933837890625,-13.980540781509875,-36.308283280324936,-19.543629666924474
1788957284814984000,1.56998388671875,-11.960034486824274,-22.930723589777944,-12.259771466636657
1788957284825034000,1.580033935546875,-1.214788462460041,-7.903477122318744,-6.772672764968871
1788957284835084800,1.590084716796875,0.3841641525149345,3.690537355968356,-4.09225177822113
1788957284845134800,1.600134765625,-1.2082149292886257,7.927070763874053,-1.3016425700485705
1788957284855185700,1.610185546875,4.791003273677826,8.806034449574351,-1.736389493331313
1788957284865235700,1.620235595703125,8.553244514375924,1.9339654908299444,-4.29344041325897
1788957284875285800,1.63028564453125,8.096683818691968,-4.882252985876798,-5.193316830867529
1788957284885336800,1.6403369140625,5.664792187088728,-3.6020752286612985,-4.908948100578785
1788957284895387000,1.650386962890625,2.054922943550348,-1.8786679664999246,-4.407506937421858
1788957284905436700,1.660436767578125,-7.6121104959666726,-2.473844521191716,-4.619389692692458
1788957284915487700,1.67048779296875,-8.86060716676116,-1.0570634138345718,-4.962710085904598
1788957284925537800,1.680537841796875,-1.129473985528946,0.8830553389281034,-4.213580402341485
1788957284935588900,1.6905888671875,-0.06545220392383634,-1.2525333789646624,-3.4672350887998937
1788957284945639000,1.700638916015625,-0.8785689142290503,-1.0998439864188432,-2.7205697495236993
1788957284955689000,1.71068896484375,-1.85905185027346,0.06204173789322376,-1.6231714026913047
1788957284965740000,1.720739990234375,-1.1556792708873749,1.6101573150783777,-0.519782875533402
1788957284975789800,1.730789794921875,-0.354097515553236,2.7544097675442694,0.8265224275842309
1788957284985841000,1.7408408203125,1.0719464371245353,2.5786031187832354,2.198125838087499
1788957284995891000,1.750890869140625,2.5072762506723403,1.4060352569371461,3.4542759462445973
1788957285005941000,1.76094091796875,2.6665748322248457,1.8997002331346273,3.9080335672065614
1788957285015991800,1.77099169921875,3.010069120699167,3.340512788942456,3.185754481168091
1788957285026041900,1.781041748046875,4.116454491585493,1.7671967195272444,2.6892320697128773
1788957285036092000,1.791091796875,4.232085780847072,1.0577964042842387,0.8942354891121387
1788957285046142700,1.801142822265625,2.9131717580020426,-0.15022095660567283,-0.4448828251108527
1788957285056192800,1.81119287109375,1.0564368063688279,-1.6161971797645092,-0.08721446533352135
1788957285066243800,1.821243896484375,-11.68542025783062,-2.0842717876315118,-0.6433122245684265
1788957285076294000,1.8312939453125,-13.919674517136812,-1.8492776213645934,-0.30062340725809333
1788957285086343700,1.84134375,0.7225158174037933,-0.6227601426661015,0.7844599401414394
1788957285096394800,1.851394775390625,-0.15430669154934584,0.27460546116530893,0.33944296725690365
1788957285106444800,1.86144482421875,-2.2566940546512604,-0.3635615094691515,0.7650774865403771
1788957285116494600,1.87149462890625,-2.41288882496953,-0.9383838429182767,1.5058128512457012
1788957285126545700,1.881545654296875,-2.9670015478670595,-1.0938508834838867,1.4834776853188871
1788957285136595700,1.891595703125,-4.15631537733078,-1.5661410632193087,1.3687643876850604
1788957285146646800,1.901646728515625,-5.193516737353802,-2.806503527396917,2.0189935520350932
1788957285156696600,1.911696533203125,-2.9241420648276804,-3.739951082956791,2.253016827443242
1788957285166746600,1.92174658203125,1.2200304547667502,-4.186852554413676,1.6650427514761685
1788957285176797700,1.931797607421875,10.606969188052416,-4.459243846660852,0.2552227153033018
1788957285186847700,1.94184765625,16.270529202997682,-2.2762708617806435,-1.4902823968976735
1788957285196898800,1.95189892578125,9.569703530621528,2.6683003408432007,-2.516276134207845
1788957285206948900,1.961948974609375,-0.3155027042210102,1.375080146703124,-1.8427064262807369
1788957285216998700,1.97199853515625,-1.9275509476125239,-0.8948480680525303,-0.5495344551965594
1788957285227049500,1.982049560546875,-1.2885434345006943,0.3264461230397224,-0.048670507405698296
1788957285237099500,1.992099609375,-1.1228256335556506,1.0793465573132037,0.15797931564748285
1788957285247149800,2.00214990234375,-0.6260416485548019,1.8577713089436292,-0.15757365745604038
1788957285257200600,2.01220068359375,0.42882158835437145,2.573096922582388,-1.10836368522197
1788957285267250400,2.02225048828125,1.2641302932560443,2.374661677905917,-2.283847142253816
1788957285277301500,2.032301513671875,0.8101520152807236,0.8627385270863771,-2.4758310188338157
1788957285287351600,2.0423515625,-0.05419570056796073,0.1502402458280325,-1.8203718448758124
1788957285297401600,2.052401611328125,-0.7655272030692547,-0.1726297722905874,-1.1750310370892285
1788957285307452700,2.06245263671875,-1.1929308509171008,-0.8877262533485889,-0.476669417732954
1788957285317502700,2.072502685546875,-1.2681821989953517,-1.874970865547657,-0.36810865137949583
1788957285327552500,2.082552490234375,-0.8606336637616157,-2.6897867809861897,-0.7127785595044493
1788957285337603600,2.092603515625,-0.3741735043764114,-3.1591192799597976,-1.1433080112226306
1788957285347653600,2.102653564453125,-0.022454992914199827,-2.829747040340304,-1.4288848021268843
1788957285357704700,2.11270458984375,0.1843207946062088,-2.07489371843338,-1.1874795997738838
1788957285367754800,2.122754638671875,-0.1302373953063041,-0.6962918273448944,-0.4492040493108332
1788957285377804800,2.1328046875,-0.20225158809423446,0.6019622693091631,0.089262922295928
1788957285387856000,2.14285595703125,0.11452420480251312,1.3719085309296846,0.07555486106947064
1788957285397905700,2.15290576171875,0.4576386271137744,2.0099737947553393,-0.12117065707966684
1788957285407956500,2.16295654296875,0.3252618086259812,1.9363006557792424,-0.29460107822865245
1788957285418006800,2.1730068359375,-0.11959091360755264,1.5595377194315194,-0.3918113062672317
1788957285428056800,2.183056884765625,-0.3586240530669689,0.9782119954377412,-0.40701004444286226
1788957285438107600,2.193107666015625,-0.2276210071504116,0.16269231564402578,-0.2466017480827868
1788957285448157400,2.203157470703125,0.1795872632782906,-0.18159926068782806,-0.3856897546470165
1788957285458207500,2.21320751953125,0.16902619484066964,-0.17234920178353785,-0.5236633702285588
1788957285468258600,2.223258544921875,-0.0750152012348175,0.07226970191895961,-0.5173552099950611
1788957285478308600,2.23330859375,-0.1360965696632862,0.3505798628211021,-0.6163581666693091
1788957285488359700,2.243359619140625,0.15097951988801359,0.45329146475493903,-0.7369384566403925
1788957285498409700,2.25340966796875,0.6941080535650253,0.16189385874271392,-0.7370746502406895
1788957285508459500,2.26345947265625,0.8270831302069127,-0.5177466935306787,-0.575606907955557
1788957285518510600,2.273510498046875,0.37387408303841946,-1.1836685170531271,-0.32209581887573
1788957285528560600,2.283560546875,-0.0328815482519567,-1.8139041101664304,0.04641103804111481
1788957285538611700,2.29361181640625,-0.3787713535606861,-2.6673534153819083,0.44311596156880256
1788957285548661800,2.303661865234375,-0.9824844120599329,-3.5887756021052595,0.5597039670333266
1788957285558711800,2.3137119140625,-1.8169278419017791,-4.009823670381308,0.45117724907994267
1788957285568762600,2.3237626953125,-1.8674751029647885,-3.4836703830331563,0.3046588002540171
1788957285578812700,2.333812744140625,-1.610562534878403,-2.5803759736746548,0.26147534595727917
1788957285588862700,2.34386279296875,-1.801725158203393,-1.3286141636043787,0.2555893566586077
1788957285598913800,2.353913818359375,-1.7298714897394178,0.17546879510879515,0.1072811018064618
1788957285608963800,2.3639638671875,-1.1716869873583315,1.5247498991668222,-0.25059724745973944
1788957285619014700,2.3740146484375,-0.6439420469045639,2.3595973797649146,-0.45982963435202834
1788957285629064400,2.384064453125,-0.13970175454840064,2.7646090899974105,-0.6102998895436526
1788957285639114500,2.394114501953125,0.34799306119829415,3.1336914087146517,-0.7301192781448363
1788957285649165600,2.40416552734375,0.6109703361511231,3.2798826714128255,-0.6820185334511101
1788957285659215600,2.414215576171875,0.6938017640948295,3.004159019872546,-0.6501013001866638
1788957285669266700,2.4242666015625,0.5194494057953357,2.6923382190346716,-0.7652016974419354
1788957285679316700,2.434316650390625,0.5682911781147122,1.734198120766878,-0.7850919544346631
1788957285689366500,2.444366455078125,0.46190351801663637,0.588332972407341,-0.5362903582200408
1788957285699417600,2.45441748046875,-0.042058395789563656,0.3686024262458086,-0.3190305860862136
1788957285709467600,2.464467529296875,-0.43968087255358695,0.40222821699380873,-0.24689123254865405
1788957285719517700,2.474517578125,-0.4141303978420794,0.033543373161554334,-0.20576763339117168
1788957285729568800,2.48456884765625,-0.30451398495584725,-0.3981558529883623,-0.04223112200796604
1788957285739618600,2.49461865234375,-0.049874768628925086,-0.519298014625907,0.39954613830298186
1788957285749669600,2.504669677734375,-0.22819252342805266,-0.4852396776795387,0.682263155861944
1788957285759719700,2.5147197265625,-0.6772619865737856,-0.746367817634344,0.5053352479860186
1788957285769769700,2.524769775390625,-0.9329356605149804,-1.2351993823260068,0.094589378015697
1788957285779820800,2.53482080078125,-0.7084231407739222,-1.4900620321452618,-0.2429340193554759
1788957285789870800,2.544870849609375,-0.1409155142523348,-1.4632377381056547,-0.3734774849362671
1788957285799920600,2.554920654296875,-0.10989245334863662,-1.2860159618496894,-0.21153160374537108
1788957285809971500,2.564971435546875,-0.49304669816866514,-0.9350906465917825,-0.43485666726753114
1788957285820021500,2.575021484375,-0.41359965196624393,-0.7860428254187106,-0.7789120967559516
1788957285830072600,2.585072509765625,-0.35536242092251774,-0.7206237200468778,-0.8330036062970757
1788957285840122600,2.59512255859375,-0.28770182023420926,-0.3708206868171692,-0.6384831969767809
1788957285850172700,2.605172607421875,0.11028042975291609,0.06672200466394423,-0.5659542595997452
1788957285860223500,2.615223388671875,0.22094686314873396,0.2961918545514345,-0.7825161125972867
1788957285870273500,2.6252734375,0.08758695190772414,0.24056407535374164,-0.8737281231343745
1788957285880324600,2.63532470703125,-0.11426606532298028,0.3096715138494968,-0.7318437638498843
1788957285890374700,2.645374755859375,-0.2789350878674537,0.9031891954183578,-0.48553895288705823
1788957285900424700,2.6554248046875,-0.18072350076660512,1.4198486782342195,-0.3572860824614763
1788957285910475800,2.665475830078125,0.24471929533705114,1.7960159867763519,-0.7513358153052627
1788957285920525600,2.675525634765625,0.7804943975113332,1.6571838546693325,-1.176382451698184
1788957285930575600,2.68557568359375,0.9748539171814918,1.3838707714021206,-1.22289373524338
1788957285940626700,2.695626708984375,0.9122691584527493,0.8968249210834502,-1.1888348137751221
1788957285950676700,2.7056767578125,1.1422598904091865,0.13980126940011978,-1.190262654621154
1788957285960727800,2.715727783203125,1.5917828694760798,-0.3361404185801744,-1.201419131668657
1788957285970777900,2.72577783203125,1.78096440198645,-0.4548141442775726,-1.271708619555831
1788957285980827600,2.73582763671875,1.6546154654860497,-0.37474750487208364,-1.3960244427934287
1788957285990878500,2.74587841796875,1.3023591938853263,-0.4084253180682659,-1.345513129826635
1788957286000928800,2.7559287109375,1.1066473097581415,-0.6654173811316489,-1.1040563434168695
1788957286010979600,2.7659794921875,1.1634288621008395,-1.1379062983095645,-0.6881758870370686
1788957286021029600,2.776029541015625,0.9639221888005733,-1.6518325567692518,0.0024365794971585274
1788957286031079700,2.78607958984375,0.815942362185195,-1.9112270047992466,0.7053352577611803
1788957286041130500,2.796130615234375,0.753503733928874,-1.8731091633290051,0.9812802969671786
1788957286051180500,2.8061806640625,0.5846609328310937,-1.821907383880019,0.7002934642016887
1788957286061230600,2.816230712890625,0.006095321200415491,-1.7181342901945114,0.47907808630987997
1788957286071281700,2.82628173828125,-0.8096224384486674,-1.450890882229805,0.3217145644731819
1788957286081331700,2.836331787109375,-1.132103164988756,-1.2723375651091335,0.21992124642804264
1788957286091382800,2.8463828125,-1.2560568769156932,-1.234292788875103,0.2929508268035948
1788957286101432600,2.8564326171875,-1.5487480298697947,-0.9787965173274278,0.37221447926312684
1788957286111482000,2.866482177734375,-1.5139023419380186,-0.511886277064681,0.37712943157255646
1788957286121533200,2.876533203125,-0.7405553319633007,-0.005286415970325469,0.1632289067387581
1788957286131583200,2.886583251953125,0.15751820094175636,0.6565893470317125,-0.24540333207845685
1788957286141633000,2.896633056640625,0.8109376127004623,1.443703016552329,-0.643504386139661
1788957286151684000,2.90668408203125,0.9548094925403594,2.040961638215184,-0.9031950406372546
1788957286161734100,2.916734130859375,0.6823661778450012,1.9066069437831639,-0.918145210879296
1788957286171785200,2.92678515625,0.46309327579047527,1.590536668807268,-0.8049377877637743
1788957286181835300,2.936835205078125,0.5699871683776379,1.0854589027136563,-0.6068992873199284
1788957286191885300,2.94688525390625,0.811371401007846,0.767006116515398,-0.46046880903840065
1788957286201936100,2.95693603515625,0.9599486089944839,0.5745926163464784,-0.6513634290769695
1788957286211986200,2.966986083984375,0.7447533681750297,0.17085925548672676,-0.8126334568329155
1788957286222037000,2.977037109375,0.5116119901679456,-0.04377309075295925,-0.7128411033466457
1788957286232087000,2.987087158203125,0.5704593889992684,-0.4728115732610225,-0.6492790240183473
1788957286242137000,2.99713720703125,0.6283120046395808,-0.8598211783349513,-0.5491244130909443
1788957286252188200,3.007188232421875,0.4639805434864014,-0.9046253657013177,-0.39827991775944827
1788957286262238200,3.01723828125,0.24947284653969107,-1.0602905591875313,-0.20594912743791938
1788957286272288000,3.0272880859375,0.33804413330964744,-1.3495920697033406,-0.113290717484802
1788957286282339000,3.037339111328125,0.3639046238183975,-1.7244284219026564,0.18330869495421648
1788957286292389000,3.04738916015625,0.09887545783706009,-2.0899404809176922,0.4863337565265596
1788957286302440200,3.057440185546875,-0.4018985466480255,-2.184194051107764,0.7265700612306595
1788957286312490200,3.067490234375,-1.1526677410464734,-1.9660978281497954,0.9381137938052415
1788957286322540000,3.0775400390625,-1.7814625607669352,-1.5674118138074873,0.7601441217914223
1788957286332591000,3.087591064453125,-1.5982734005391597,-1.0433546219557523,0.555021946696937
1788957286342641200,3.09764111328125,-1.4674914500273764,-0.39690906779766083,0.5357542055167257
1788957286352691200,3.107691162109375,-1.5101650551058352,0.45153497647643087,0.3916613764025271
1788957286362742300,3.1177421875,-1.4233926344513892,1.0975053143382072,0.21153423409387467
1788957286372792300,3.127792236328125,-1.1554431971091776,1.6268968529552221,-0.055430941451340913
1788957286382843100,3.137843017578125,-0.8764965649344026,1.9083827212840319,-0.3515836330361664
1788957286392893200,3.14789306640625,-0.5961248683925717,2.0226246020138263,-0.4417401431709528
1788957286402943200,3.157943115234375,-0.18178835351914166,2.017102623721957,-0.6109903560258447
1788957286412994000,3.167994140625,-0.2999872282464057,1.6703899577230215,-0.449710683658719
1788957286423044000,3.178044189453125,-1.0539163479804992,1.4376146365493536,-0.259881062503159
1788957286433095200,3.18809521484375,-1.5973896034419535,1.7754525066971778,-0.245116770222038
1788957286443145000,3.19814501953125,-0.8045068490006029,1.4184616077899932,-0.39661315359100696
1788957286453195000,3.208195068359375,0.1743991200506687,1.4185931252151727,-0.9026168023578822
1788957286463246000,3.21824609375,0.5107119725883007,1.520313962545991,-1.4000102975592017
1788957286473296100,3.228296142578125,1.5163925513185559,0.6875801131010055,-1.5212157336913048
1788957286483346200,3.23834619140625,1.8987201360560952,-1.0707266130059956,-1.1706444925680757
1788957286493397200,3.248397216796875,1.071158574682474,-2.55222364590168,-0.5332410536520182
1788957286503447000,3.258447021484375,0.5701940160613507,-2.9935312428742646,-0.031111031448096037
1788957286513498000,3.268498046875,0.01872588938847184,-3.3744916309118267,0.25039397997260093
1788957286523548200,3.278548095703125,-0.373224094697088,-2.8765479544818398,0.26665311392135915
1788957286533598200,3.28859814453125,-0.924990692859888,-1.4991969402372836,0.47410577779002483
1788957286543649300,3.298649169921875,-0.9483599510747939,-0.4775964694499969,0.8022970639966428
1788957286553699300,3.30869921875,-0.5289526357430965,-0.21628069796860216,1.066006744877249
1788957286563750100,3.318750244140625,-0.20392098261117933,0.07783493483066559,1.0257972648900002
1788957286573800200,3.32880029296875,0.22519772552624343,0.6668243253201246,0.8035184224851429
1788957286583850200,3.338850341796875,0.363300374314934,1.3798884237676858,0.3690692400399595
1788957286593901000,3.348901123046875,0.035841713231801985,1.736997396096587,0.08364289045706391
1788957286603951000,3.358951171875,0.0912592106796801,1.8229174377053976,0.055514820342510936
1788957286614001200,3.369001220703125,0.584976793847233,1.5106033003926276,0.05796374786458909
1788957286624052000,3.379052001953125,0.5128068990409373,1.1416489919692276,-0.08696582433469593
1788957286634102000,3.38910205078125,0.48658422415629027,1.4019447727531194,-0.4220630174722522
1788957286644153000,3.399153076171875,1.0618892265558242,1.1422703387379645,-0.8703065511878579
1788957286654203100,3.409203125,1.0578186161160468,0.25136545535326005,-1.1514446289923042
1788957286664253200,3.419253173828125,0.28348727127909656,-0.3163905929714441,-1.1838476730123162
1788957286674304300,3.42930419921875,-0.5248738419968635,-0.45985447653234,-0.976921955627203
1788957286684354000,3.43935400390625,-1.1091163302201776,-0.22016075427234172,-0.6548920415945351
1788957286694404000,3.449404052734375,-0.7281787385363131,-0.23977380175888538,-0.7067133411813527
1788957286704455200,3.459455078125,0.20289105504155158,-0.5243979681134223,-0.4779493745408952
1788957286714505200,3.469505126953125,0.6737667648691683,-0.47620530735254285,-0.12030739131383597
1788957286724556300,3.479556396484375,0.7074246312558651,-0.3604612053662538,0.10399820767827331
1788957286734606300,3.4896064453125,0.7091851381223648,-0.5040092600792646,0.05860496837757528
1788957286744656100,3.49965625,1.2341057418704031,-0.7447370015621185,-0.12730864837802947
1788957286754707200,3.509707275390625,1.778219633322954,-0.8223416347682475,-0.3030816871304065
1788957286764757200,3.51975732421875,1.581222897017002,-0.6547615470826625,-0.22029994354732332
1788957286774808000,3.52980810546875,0.8204385045606643,-0.4298667500257492,-0.16710523671545088
1788957286784858000,3.539858154296875,-0.1716236639879644,-0.44779812803566454,-0.17708572878614068
1788957286794908200,3.549908203125,-0.8631891934633255,-0.48329146622121333,-0.18818799142837522
1788957286804959000,3.559958984375,-0.5871569143652916,-0.4894517424166202,-0.34170930475369093
1788957286815009000,3.570009033203125,0.030022140232846137,-0.6455354535758495,-0.34652357316762206
1788957286825059000,3.58005908203125,0.10683533080033958,-0.5205769485205411,-0.2866233773477375
1788957286835110100,3.590110107421875,0.08840776677131652,-0.3482587263971567,-0.19264504390247164
1788957286845160200,3.60016015625,0.023210268260911104,-0.5662228474080562,-0.11315043223127721
1788957286855211300,3.610211181640625,-0.3671159140150994,-0.8719956002533436,-0.040701135961711404
1788957286865261000,3.620260986328125,-0.577562572067976,-0.9084270960718392,0.01592851375490427
1788957286875311000,3.63031103515625,-0.2535164959073067,-0.4972083478927612,0.18980185636579988
1788957286885362200,3.640362060546875,0.10969020877480506,0.07473404620587826,0.13889460288397967
1788957286895412200,3.650412109375,0.617490020243451,0.42080140003859995,-0.08087927096262573
1788957286905463300,3.66046337890625,1.0541711264591664,0.562351558932662,-0.26338826690651473
1788957286915513000,3.67051318359375,0.9058732468705624,0.7114151621967554,-0.22921076055988668
1788957286925563100,3.680563232421875,0.4314589876532554,0.6893968071341514,-0.1604280239738524
1788957286935614200,3.6906142578125,0.11935242867656051,0.3071750208586454,-0.09579451602175831
1788957286945664300,3.700664306640625,-0.39525479778461153,-0.31461189286112784,-0.12020933776684105
1788957286955714300,3.71071435546875,-0.482803390443325,-0.3874292917907238,-0.13035970651172102
1788957286965765000,3.72076513671875,-0.016319924225285647,-0.12737608759105204,-0.06927103155963123
1788957286975815200,3.730815185546875,0.32931839054040607,0.007152794364094734,0.09452098895460366
1788957286985866000,3.740865966796875,0.1767862343829125,0.23587679432034492,0.2437901977933943
1788957286995916000,3.750916015625,-0.06505261014699935,0.14832885924875736,0.3206205221587792
1788957287005966000,3.760966064453125,-0.15052030487842857,-0.10771101765632629,0.4120066836863756
1788957287016017200,3.77101708984375,0.06636537324599921,-0.3053384530812502,0.4385693676477298
1788957287026067200,3.781067138671875,0.36774478650316594,-0.37262218328118324,0.418967024218291
1788957287036117000,3.791116943359375,0.4117151533938944,-0.46836803785562514,0.2322704769240692
1788957287046168000,3.80116796875,0.014392097967863083,-0.6933803238123655,0.22373477683421222
1788957287056218000,3.811218017578125,-0.31020576685667034,-1.0000789593309163,0.2944001853616908
1788957287066269200,3.821269287109375,-0.20023506064005195,-1.1969120295077562,0.32021113764028997
1788957287076319200,3.8313193359375,-0.41842188449092205,-1.262096157079935,0.15320234703663735
1788957287086369000,3.841369140625,-0.9774798087056725,-1.4406360301971435,-0.24734993610158562
1788957287096420000,3.851420166015625,-1.077845651230961,-1.4053835150301455,-0.34706275807823983
1788957287106470100,3.86147021484375,-0.9369267029125243,-1.0462690480977297,-0.13215933981221167
1788957287116521500,3.871521484375,-0.7249955053903162,-0.4136930293381214,0.2868386275336146
1788957287126571500,3.881571533203125,-0.7615292925395071,0.3096247520983219,0.704034769621864
1788957287136621600,3.89162158203125,-0.8411481881774961,0.801087249815464,0.980809829911217
1788957287146672400,3.90167236328125,-1.0569406642377377,1.3215484630018473,1.0065031471595167
1788957287156722400,3.911722412109375,-1.0431963626541196,1.427837338900566,0.7824401978168636
1788957287166772500,3.9217724609375,-0.775762254422903,1.2007552609324454,0.5628950181595981
1788957287176823300,3.9318232421875,-0.44801980796232815,0.8727449573159217,0.6367433675721287
1788957287186873300,3.941873291015625,-0.5959598140239715,0.43622927079498763,0.38065431776307523
1788957287196924400,3.95192431640625,-0.4862215283237397,-0.05692249518334865,0.01759476646669209
1788957287206974500,3.961974365234375,-0.31770985887646674,-0.5919558390796185,-0.11451456019133328
1788957287217024500,3.9720244140625,-0.0468261947132647,-1.096824930858612,-0.0474682189438492
1788957287227075600,3.98207568359375,-0.28557971351370215,-1.2222832021296024,-0.11879903257749974
1788957287237125400,3.99212548828125,-0.8402152912415564,-1.1388158143699167,-0.5386083528388291
1788957287247175400,4.002175537109375,-0.8526688223622739,-0.9344564403414726,-0.9605414603210986
1788957287257226500,4.0122265625,-0.8771908308088779,-0.46652387129366396,-1.0495950507152825
1788957287267276500,4.022276611328125,-1.1695290786720811,0.13396072667837142,-0.8390271774355321
1788957287277327600,4.03232763671875,-0.8494530751861631,0.9869225406378507,-0.5606257580533623
1788957287287377700,4.042377685546875,-0.4370227592602372,1.2987655533075333,-0.34359219589084383
1788957287297427500,4.052427490234375,0.19528876334428785,1.1084341201096772,0.03596278232820332
1788957287307478500,4.062478515625,0.39245384195446964,1.109016303911805,0.2607080879118293
1788957287317528600,4.072528564453125,0.5146611486054956,1.3727753768920898,0.25583682861365376
1788957287327579400,4.082579345703125,0.35975451840162276,1.2032540920108556,0.07931048727594316
1788957287337629400,4.09262939453125,0.2922375639677048,0.7307774497926235,-0.11833726028464733
1788957287347679500,4.102679443359375,0.45290524191632864,0.5438011722415685,-0.36447255989946425
1788957287357730300,4.112730224609375,0.5784124668955802,0.6516413692355155,-0.5707807299081236
1788957287367780400,4.1227802734375,0.523427807907015,0.5108376447945833,-0.6183991709776222
1788957287377830400,4.132830322265625,0.36096579388752575,0.17619652486145496,-0.41066242947056886
1788957287387881500,4.142881591796875,0.27993469336405397,-0.005907762739062309,0.013058072885125874
1788957287397931500,4.152931640625,0.4626642732560634,0.10343991620838641,0.23775508234761655
1788957287407982600,4.162982666015625,0.7251146017253398,0.5027116214841604,0.20832389374524354
1788957287418032400,4.173032470703125,0.9796526957653462,1.2055553546905518,-0.37326837223023174
1788957287428082400,4.18308251953125,1.2393383818268775,0.9804694189757108,-0.7239891048267483
1788957287438133500,4.193133544921875,1.200836947866529,0.34169513009786606,-0.7858088705323636
1788957287448183600,4.20318359375,1.344434248548746,-0.04142039014697075,-0.7930719934031367
1788957287458234600,4.213234619140625,1.5664613812148571,-0.6864753667294978,-0.738252461848408
1788957287468284400,4.223284423828125,1.2226188638247548,-1.1383575492084026,-0.4175143411919474
1788957287478334500,4.23333447265625,1.0089280362188815,-1.6524018810898065,0.047857145196199415
1788957287488385500,4.243385498046875,1.069981201466173,-1.9645850854992866,0.33908728568702934
1788957287498435600,4.253435546875,0.950069969863072,-1.9037638293117283,0.25606355004161596
1788957287508485600,4.263485595703125,0.6465151122629642,-1.643478569921851,0.015609510933607816
1788957287518536400,4.273536376953125,0.4316682464897632,-1.2277420520573854,-0.07088979186788201
1788957287528586500,4.28358642578125,0.3528291030526161,-1.0448130040705204,-0.4087264929719269
1788957287538637300,4.29363720703125,0.2540191847324371,-0.9147142135173082,-0.5319485296234489
1788957287548687400,4.303687255859375,-0.021214783594757317,-0.6564923163980245,-0.3639470016553998
1788957287558737400,4.3137373046875,-0.39453824701309204,-0.19217267715036868,-0.1178562718346715
1788957287568788500,4.32378857421875,-0.5366505698345602,0.2176560779750347,0.02860986228212714
1788957287578838500,4.333838623046875,-0.43458150358796116,0.6881342398524284,0.08128989759013057
1788957287588888300,4.343888427734375,0.1142973372440785,1.0523439840972424,0.11161971553266048
1788957287598939400,4.353939453125,0.6068761256400496,1.1295365293711424,0.13095263090357184
1788957287608989400,4.363989501953125,0.49080417993888253,0.9847393513798713,0.1304081487633288
1788957287619040500,4.37404052734375,-0.02927643643207848,0.6809305920839309,0.0535797606267035
1788957287629090600,4.384090576171875,0.1278700085878372,-0.13573241252601145,0.05486059421747923
1788957287639140400,4.394140380859375,0.2664581028059125,-0.5378606762766838,0.02325155011937022
1788957287649191400,4.40419140625,0.19609554968252776,-0.40093876170516013,-0.07793722616136074
1788957287659241500,4.414241455078125,0.223220726364851,-0.30386195078790185,-0.2203409331448376
1788957287669292500,4.42429248046875,0.41808395777344703,-0.5587947432339191,-0.35647885773181914
1788957287679342600,4.434342529296875,0.31665216651707884,-0.9538140517622232,-0.39054976189881563
1788957287689392600,4.444392578125,0.10700856847539543,-1.042806924945116,-0.37705505116209387
1788957287699443500,4.454443359375,-0.33946225647926326,-0.8082675167083739,-0.366982350763306
1788957287709493500,4.464493408203125,-0.5660803701974452,-0.703207890343666,-0.36737427269034084
1788957287719543600,4.47454345703125,-0.4341851977467537,-0.4876707042187452,-0.2726914442375302
1788957287729594400,4.484594482421875,-0.6914042014338075,0.32803660710155963,-0.05474800068847835
1788957287739644400,4.49464453125,-0.9738311500050127,1.2167021871268748,0.3898167714491486
1788957287749695500,4.504695556640625,-0.8659493058264255,1.5881752003729341,0.7581802013073116
1788957287759745500,4.51474560546875,-0.763484956651926,1.6869348498106003,0.7254162150204181
1788957287769795300,4.52479541015625,-0.200597245015949,1.6734978606104849,0.5371709404468537
1788957287779846400,4.534846435546875,0.32956878510490056,1.2644324910730123,0.08780461324639618
1788957287789896400,4.544896484375,0.23436069066897033,0.5814297688901424,-0.6079259269539267
1788957287799946500,4.554946533203125,-0.3811361829958856,-0.2883545850545168,-0.953430313141644
1788957287809997600,4.56499755859375,-1.6104080749690532,-0.8356453529775142,-0.8522074884608387
1788957287820047400,4.57504736328125,-2.2659330076396462,-0.9254933816850185,-0.617544453844428
1788957287830098400,4.585098388671875,-1.0571616135120392,-1.2332120079010724,-0.6338865899015218
1788957287840148500,4.5951484375,0.30747838771939273,-1.3964794930845499,-0.7931510499887168
1788957287850198500,4.605198486328125,0.5293228572949766,-1.1732821475952864,-1.1569196263372898
1788957287860249600,4.61524951171875,0.3017128099299967,-0.8478437402933835,-1.2924701064251363
1788957287870299600,4.625299560546875,-0.46447614498361944,-1.014406759890914,-1.2603836540736257
1788957287880350500,4.6353505859375,-0.8169628643393516,-1.104859184232354,-1.2467460277348756
1788957287890400500,4.645400390625,-0.41174306431412694,-1.030201125872135,-0.7581037020049989
1788957287900450600,4.655450439453125,-0.23543606481552123,-0.7864315324753522,0.11944496579822152
1788957287910501400,4.66550146484375,-0.26879356001615523,0.0016758242577314376,0.6452937537744641
1788957287920551400,4.675551513671875,-0.16872443541511892,0.7121364622086286,0.7939611973278224
1788957287930601500,4.6856015625,-0.15803952140212058,0.8766600849330425,0.6353619231510907
1788957287940652300,4.69565234375,-0.06758256701603531,0.7340536949843168,0.4184808481365442
1788957287950702300,4.705702392578125,0.007509937238693237,0.7496078224688768,0.41116910035107285
1788957287960753400,4.71575341796875,-0.2829376745723188,1.1616630214720964,0.6307531872466207
1788957287970803500,4.725803466796875,-0.587835982670635,1.7018015795528887,0.7651395919911563
1788957287980853500,4.735853515625,-0.6302874694310129,1.861563102442026,0.867770383773744
1788957287990904600,4.745904541015625,-0.48676644885540005,1.4917039541333912,0.7185152034603058
1788957288000954400,4.755954345703125,-0.17588862795606255,0.5419955841243267,0.5016496548084541
1788957288011004400,4.76600439453125,0.15459551842808722,0.07911386872529982,0.2999881050292402
1788957288021055500,4.776055419921875,0.43773806792274117,-0.2286445049792528,-0.06686970603894442
1788957288031105500,4.78610546875,0.25561390657797456,-0.355574602368474,-0.6871071618270128
1788957288041156600,4.796156494140625,-0.476572387099266,-0.0925000045210123,-0.9984323611676692
1788957288051206700,4.80620654296875,-1.027488798173517,0.5343015224903822,-0.8226119761422276
1788957288061256400,4.81625634765625,-1.3621172047555445,0.8012053232371806,-0.440431910116598
1788957288071307500,4.8263076171875,-1.5826900469601153,0.6705950760304927,-0.0592201411338523
1788957288081357600,4.836357666015625,-1.18992991553545,0.5773749405413866,0.03911151041639969
1788957288091408400,4.846408447265625,0.11564297969937323,0.5472404990404844,-0.04251682534785941
1788957288101458400,4.85645849609375,0.5393547142267227,0.4799591069281101,-0.06884135317178443
1788957288111508000,4.866508056640625,1.0969196234047411,0.2615016494423151,-0.1171758518224582
1788957288121558800,4.876558837890625,1.3879904816806317,-0.1281938337147236,-0.1167988534699194
1788957288131609000,4.886609130859375,1.0596051342066377,-0.2733124987453222,-0.14981142595671115
1788957288141659000,4.896658935546875,0.8432922144688665,-0.13321312318146228,-0.1391021812200546
1788957288151709700,4.906709716796875,1.1105192558206618,-0.32262393440306186,-0.2934934823129326
1788957288161759700,4.916759765625,1.6138777969062328,-0.8750684318274259,-0.5158854297034442
1788957288171810800,4.926810791015625,1.667442213833332,-1.3373551039427518,-0.45001397745423016
1788957288181860900,4.93686083984375,1.4783818234845996,-1.3843687840521335,-0.3919200638713315
1788957288191910700,4.94691064453125,0.9935386708419769,-1.4030232156395912,-0.564109362385422
1788957288201961700,4.956961669921875,-0.04755560496635735,-1.6321195560395716,-0.4633214219905436
1788957288212011800,4.96701171875,-0.9473956360872834,-1.5106056384801865,-0.3067756828101352
1788957288222062800,4.977062744140625,-1.1526982092499731,-1.1290203965425492,-0.13754991027675567
1788957288232113000,4.98711279296875,-1.0223322921931743,-0.8001654587954282,0.044177981759421524
1788957288242163000,4.997162841796875,-0.6529201569996774,-0.42431554563939566,0.07533992141084746
1788957288252214000,5.007214111328125,-0.10612813237905502,0.1687304267644882,-0.013006744556687771
1788957288262263800,5.017263916015625,-0.22124971855282782,0.6496651007264852,0.09754998138695954
1788957288272313900,5.02731396484375,-0.7648235117793083,1.2213619956314563,0.2803334103580564
1788957288282365000,5.037364990234375,-0.9165630562543868,1.4826818587660788,0.4925181077172979
1788957288292415000,5.0474150390625,-0.5099987097524106,1.4169839364528656,0.48410658199638124
1788957288302465800,5.0574658203125,0.7977906924881041,1.2164344761013983,0.3601396087290719
1788957288312516000,5.06751611328125,1.9748691636264324,0.9878735577523707,0.2966876569780521
1788957288322566000,5.07756591796875,1.5288834918402134,0.5964987432062625,0.36388489620462056
1788957288332616700,5.08761669921875,0.01937660838216543,0.20598726749122143,0.39937852665111423
1788957288342666800,5.097666748046875,-0.5171138024546206,-0.19696984829902647,0.352983307233639
1788957288352716800,5.107716796875,0.01797054097652435,-0.8174538627266883,0.1966479228682816
1788957288362768000,5.117767822265625,1.0692213230095804,-1.5800117676615715,-0.010860097049968317
1788957288372817700,5.127817626953125,1.3193103286862373,-2.237221876940131,-0.28206211558049543
1788957288382868700,5.13786865234375,0.23154300289973614,-2.5714918254733083,-0.18423549094293265
1788957288392918800,5.147918701171875,-1.244620267752558,-2.796647319293022,0.20812205103021114
1788957288402968800,5.15796875,-1.441479056892544,-3.129619629231095,0.5236053564310074
1788957288413020000,5.16802001953125,-1.606154216916859,-2.6380513330519197,0.8819792341291904
1788957288423070000,5.178070068359375,-1.3190415947474539,-2.2332576494842766,0.8006802764497697
1788957288433121000,5.18812109375,-0.23223989912271498,-1.7206331212729216,0.4177722614757716
1788957288443170800,5.1981708984375,0.7154371111892164,-1.026281322079897,0.1507496383885853
1788957288453220900,5.208220947265625,0.20261267649158834,-0.16223112787306307,-0.05700750658567995
1788957288463272000,5.21827197265625,-0.5747348012961447,0.48370706128478047,-0.10761769508337601
1788957288473322000,5.228322021484375,-0.7486429229594767,1.0637357312053441,0.14005463223983533
1788957288483372000,5.2383720703125,-0.8611465817198157,1.6080875230669975,0.5084910816684365
1788957288493422800,5.2484228515625,-0.7783985942758619,2.044762784063816,0.7133730913314968
1788957288503473000,5.258472900390625,-0.7174132335677742,2.1497300559699535,0.736813880412653
1788957288513523700,5.268523681640625,-1.0814508361160755,2.3072727337658403,0.443889649355039
1788957288523573800,5.27857373046875,-1.2733224844932556,2.493427173539996,0.27974320764625443
1788957288533623800,5.288623779296875,-1.0821940556988119,2.4105437231481073,0.27576420274637636
1788957288543675000,5.2986748046875,-1.0973591838657855,2.137415933319926,0.24788433523923156
1788957288553724700,5.308724609375,-0.8890580864742398,1.7007126152724026,0.2020955755486153
1788957288563775700,5.318775634765625,-0.624211802779138,1.2678542822152374,0.03416264442092506
1788957288573825800,5.32882568359375,-0.5588673700787127,0.80320205001235,0.02287041444783099
1788957288583875800,5.338875732421875,-0.3436334046840668,0.23732991573810577,0.05605632964095566
1788957288593927000,5.348927001953125,-0.48878421841859815,-0.481865232810378,-0.03286224076328799
1788957288603977000,5.35897705078125,-0.8681880246639251,-1.1976613865703343,0.08654325154107063
1788957288614026800,5.36902685546875,-0.9030128159381449,-1.4342904605627058,0.3650988385716453
1788957288624077800,5.379077880859375,-0.6643418608546257,-1.424754570454359,0.6125695149760693
1788957288634128000,5.3891279296875,-0.7248056819066405,-1.3126029400020838,0.7209063363805412
1788957288644179000,5.399178955078125,-1.6235519264414906,-0.9106424340337514,0.6139657916400582
1788957288654229000,5.40922900390625,-1.8627230861321091,-0.4126473196774721,0.3460129202317446
1788957288664278800,5.41927880859375,-0.7704442742705345,0.1938362264484167,0.07272956994909327
1788957288674329900,5.429329833984375,0.431275155518949,0.4055962321221828,-0.023512577959022018
1788957288684380000,5.4393798828125,1.3034335451185703,0.2700660641700029,0.04816246655201539
1788957288694430000,5.449429931640625,2.1271647345490754,-0.1113444057226181,0.27602939302120355
1788957288704480800,5.459480712890625,1.8419627683065831,-0.6329407604187727,0.5836829546444118
1788957288714531000,5.469531005859375,0.6271110313519835,-1.6512778454959391,0.9798776636276394
1788957288724582000,5.479581787109375,-0.020641952142864465,-2.7826228855937716,1.4336197216942905
1788957288734631700,5.489631591796875,0.2302301667355001,-3.121633891174197,1.6946365102291105
1788957288744681700,5.499681640625,0.5753814286366105,-2.1015900021791456,1.4926158082813024
1788957288754732800,5.50973291015625,0.4785296586468816,-0.8431465223878621,1.1402883711405098
1788957288764782800,5.519782958984375,0.43625791236758227,-0.28067046029269693,0.7613723484121263
1788957288774834000,5.529833984375,0.19097879119068384,-0.04503741160035133,0.19020378823019563
1788957288784884000,5.539884033203125,-0.04330225837081671,0.21291326736211774,-0.3170690767548978
1788957288794933800,5.549933837890625,-0.043853316382318736,0.8716285205066203,-0.48543794019799674
1788957288804984800,5.55998486328125,0.027117139506340024,1.8835510623663663,-0.2657884051171131
1788957288815035000,5.570034912109375,0.35810616667270656,2.6433202133655547,0.1322540323583409
1788957288825085000,5.5800849609375,0.4865925535932183,2.841390716382861,0.5417160365305841
1788957288835136000,5.590135986328125,0.19984832634478805,2.4508517681390045,0.7255068889785558
1788957288845185800,5.600185791015625,0.41549803293347354,1.5972832204580305,0.6955243501037359
1788957288855236900,5.61023681640625,0.6217872059807181,0.789113903427124,0.555885577788949
1788957288865287000,5.620286865234375,0.3848471663430333,0.20572131003141403,0.47521611365210265
1788957288875337000,5.6303369140625,0.07503039880394935,-0.34234219582974906,0.49043151070158925
1788957288885387800,5.6403876953125,0.10253215371370315,-0.8283394138783216,0.4677065782722085
1788957288895438000,5.65043798828125,0.42218934726566076,-1.0390309135377407,0.2915886716049164
1788957288905489000,5.660489013671875,0.865735663075745,-1.2487532759040594,-0.009979816217254847
1788957288915538700,5.67053857421875,0.7945753837034106,-1.7507745770365,-0.41564083893764764
1788957288925588700,5.680588623046875,-0.2964472906172275,-2.0427643037229775,-0.5883433476708829
1788957288935639800,5.690639892578125,-1.8024492346942425,-2.084818900120258,-0.4814308234484866
1788957288945689900,5.70068994140625,-2.150855552868545,-1.4527701201051473,-0.46062586276363576
1788957288955740000,5.710739990234375,-1.6245777623578905,-0.7635632825851439,-0.2707488588023931
1788957288965790700,5.720790771484375,-0.6548528786279261,-0.1096837790340185,0.038790571366343646
1788957288975840800,5.7308408203125,0.4364774003371596,0.49039223813712596,0.2841774089677259
1788957288985891800,5.740891845703125,0.628829525707662,0.8850403752654791,0.39248010890688745
1788957288995942000,5.75094189453125,0.6247204829536378,0.9087187724947929,0.4324273942939937
1788957289005992000,5.760991943359375,0.6917527226105332,0.898675517386198,0.4501268632441759
1788957289016043000,5.77104296875,0.379262059687078,0.3896814546316862,0.8955402150351554
1788957289026092800,5.7810927734375,0.5493602676734328,-0.33671325003206726,1.0991976513393222
1788957289036143900,5.791143798828125,0.6549477173045277,-1.069215039399266,1.0672914509255438
1788957289046194000,5.80119384765625,-0.7349857151374221,-1.786754237434268,0.865261908084154
1788957289056244000,5.811243896484375,-0.764859459875524,-1.6685335162013768,0.21719591311737893
1788957289066294800,5.821294677734375,0.33518823242187495,-1.0103998623371124,-0.19117939179670065
1788957289076345000,5.831344970703125,0.09517156181782484,-0.6067477500200271,-0.10663462059646844
1788957289086395000,5.841394775390625,0.7204197219073772,-0.04562602514326572,0.07153813624139875
1788957289096445700,5.85144580078125,1.7754206502541898,0.2520119365632534,-0.20248382594753056
1788957289106495700,5.861495849609375,0.9539981761574745,0.0504851556122303,-0.5637684765258804
1788957289116547300,5.87154736328125,-0.5657929315581918,-0.02371931376159191,-0.37961204216852784
1788957289126597400,5.881597412109375,-0.7419613993689418,0.6616571518152952,-0.16099358543474226
1788957289136647400,5.8916474609375,-0.7858721450269222,0.9397270742207765,0.2633308010982349
1788957289146698500,5.901698486328125,-1.1960329085856676,0.8166384546905755,1.1297034103706478
1788957289156748300,5.911748291015625,-0.6448933562800288,0.852063403815031,1.8512579815268515
1788957289166799400,5.92179931640625,0.4031248735725879,0.6940607072919607,1.790408229897171
1788957289176849400,5.931849365234375,0.27474311607033014,0.39843174732029435,1.2066812899805606
1788957289186899500,5.9418994140625,-1.370451317858696,0.6182762752503156,0.9769419755019247
1788957289196950500,5.951950439453125,-2.498167646065354,1.7005390122711657,1.089539303895086
1788957289207000600,5.96200048828125,-2.1404957791566845,2.3617834916323424,1.2012998161379247
1788957289217050400,5.97205029296875,-1.3567045320570468,1.948362264972925,1.1559497583918272
1788957289227101400,5.982101318359375,-0.24111995567083358,1.3133143031418322,0.811905142558366
1788957289237151500,5.9921513671875,1.2751776108406483,0.4587140743255615,0.2074893060846254
1788957289247202300,6.002202392578125,2.077894653815031,-0.4676467378437519,-0.47588378378059715
1788957289257252400,6.01225244140625,1.7394129328057168,-1.3168401391804216,-0.5792405152175575
1788957289267302400,6.022302490234375,0.7708895338200032,-1.5425246253103018,-0.4599588502222672
1788957289277353200,6.032353271484375,-0.31020927398800846,-2.1053964087247845,-0.27049148650784044
1788957289287403300,6.0424033203125,-1.461451000819355,-2.3854665650367735,0.41647951825149354
1788957289297454300,6.052454345703125,-0.8522716397382318,-1.1544997057139872,1.1896150774326175
1788957289307504400,6.06250439453125,0.537949815864861,0.1514332550048828,1.0183001140676438
1788957289317554400,6.072554443359375,1.0711012915372848,-0.8393424539297819,0.32502387168426067
1788957289327605500,6.08260546875,0.7980743317350745,-1.4334832358330487,0.20529888336826116
1788957289337655300,6.0926552734375,0.38489948105216026,-0.9312970995277166,0.4923380749752745
1788957289347705300,6.102705322265625,-0.08270137182325124,-0.49491234591007227,0.7609805726155638
1788957289357756400,6.11275634765625,-0.4355518099248409,-0.30503800882995125,0.6958833926744759
1788957289367806500,6.122806396484375,-0.372874404476583,0.05067980140149593,0.6704008686326444
1788957289377857500,6.132857421875,0.09714519997835158,0.70528937279284,0.8451495327733457
1788957289387907600,6.142907470703125,-0.1942480221197009,1.218300269973278,0.8308115761455148
1788957289397957400,6.152957275390625,-0.8284908050477504,1.4319874443173408,0.5910555292390287
1788957289408008400,6.163008544921875,-0.9364508290290832,1.5288812998831272,0.3029141485437751
1788957289418058500,6.17305859375,-0.6380351609483361,1.5268687910169363,-0.08738251537680626
1788957289428109300,6.183109375,-0.3245429197669029,1.2937743208914994,-0.1975743169981986
1788957289438159400,6.193159423828125,-0.34058307720273734,1.1678308964520692,-0.10024842669069767
1788957289448209400,6.20320947265625,-0.6409501716122031,1.2263713482260703,0.013538038421794771
1788957289458260200,6.21326025390625,-1.1128323550686239,1.2965361868202685,0.09171813342832029
1788957289468310300,6.223310302734375,-1.2964511388853193,1.459836989751458,0.31223931851089
1788957289478360300,6.2333603515625,-0.4776446925058961,1.725352551010251,0.5053006150640547
1788957289488411400,6.243411376953125,0.6195170690916478,1.5569225684970616,0.2507035573784262
1788957289498461400,6.25346142578125,1.299990272796899,0.8493418698966503,-0.061129153092950576
1788957289508512500,6.263512451171875,1.9398457810401915,-0.46698622810840607,-0.18567776217311618
1788957289518562300,6.273562255859375,2.4074305595636365,-1.3909493314862251,-0.3511623388841748
1788957289528612400,6.2836123046875,1.2253683086633682,-2.2570739938795565,-0.3176278796814382
1788957289538663400,6.293663330078125,-0.7984604084432124,-2.8842648124694823,-0.33056495653539897
1788957289548713500,6.30371337890625,-1.441644038195908,-3.1125059973448512,-0.42154688464365897
1788957289558764500,6.3137646484375,-0.2586171800471842,-3.31877792699635,-0.2402216185916215
1788957289568814600,6.323814697265625,0.7073975971184671,-3.3063509916216134,-0.2514399818941951
1788957289578864400,6.333864501953125,1.3204824412055314,-3.5031408071786165,-0.3690878716751933
1788957289588915500,6.34391552734375,1.4841504700139163,-3.483038514870405,-0.5129169352866709
1788957289598965500,6.353965576171875,0.5928539569631218,-2.51490426133275,-0.4647662139713764
1788957289609015600,6.364015625,0.03280015357881784,-1.3267629827797411,-0.14610811445936558
1788957289619066400,6.37406640625,-0.022958850783109663,-0.2801175025850534,0.22317513365745542
1788957289629116400,6.384116455078125,-0.2750014747455716,0.3803519007503986,0.5482411274503917
1788957289639167200,6.394167236328125,-0.4162491435617208,0.9657160864800214,0.9506794069983064
1788957289649217300,6.40421728515625,0.013704992486536501,1.8587141427516936,1.4001529209002852
1788957289659267300,6.414267333984375,0.17632219706773758,2.4135645322740076,1.3568677597947418
1788957289669318400,6.424318359375,-0.15139263073354958,2.5670909601658582,1.2329970499761402
1788957289679368400,6.434368408203125,0.25043226615637537,2.69027076511085,1.2593788609452545
1788957289689419500,6.44441943359375,0.47196430878192186,2.398194529184699,1.1865109008722006
1788957289699469300,6.45446923828125,-0.2986404167473316,1.8001853814154862,1.0922956899311393
1788957289709519400,6.464519287109375,-0.6241340613678097,1.2162871765851975,0.9516405071154236
1788957289719570400,6.4745703125,-0.6368415672495961,0.6288029299616813,0.6357295143544673
1788957289729620500,6.484620361328125,-0.6938061480090022,0.04177870206534862,0.2784053283723071
1788957289739670500,6.49467041015625,-0.45964989387094973,-0.5361906972378492,0.13268840518761427
1788957289749721300,6.504721435546875,-0.09348317033946514,-1.0016361256450415,0.11453410514201968
1788957289759771400,6.514771484375,-0.4144713202342391,-1.3712573735445737,0.00861095728315413
1788957289769822500,6.524822509765625,-0.699002255347371,-1.7427555212318897,-0.1403279601553455
1788957289779872500,6.53487255859375,-0.0013183891221880911,-1.9779782355576752,-0.22631032641064375
1788957289789922600,6.544922607421875,0.36944676811546084,-2.473311437228322,-0.11815697181429713
1788957289799973400,6.554973388671875,0.017789631451666354,-2.566119484785199,0.017905220655351876
1788957289810023400,6.5650234375,-0.3276403012603521,-2.361726208487153,0.2038660375535488
1788957289820074200,6.57507421875,-0.8290612984120845,-1.7224539069592952,0.39339568938184527
1788957289830124300,6.585124267578125,-0.5322817071005702,-0.5632715963870286,0.23033947232887148
1788957289840174300,6.59517431640625,0.40299043353796005,0.1299842242628336,-0.07705748418476432
1788957289850225400,6.605225341796875,0.2962728108331561,0.46334173412621016,-0.2946666908107698
1788957289860275500,6.615275390625,-0.028931495451927185,0.6449626221239566,-0.3171941644392907
1788957289870326500,6.625326416015625,-0.12121464235186576,0.7077531325578689,0.100990550294891
1788957289880376300,6.635376220703125,-0.7904758394300937,0.8125152372807264,0.6556099806055427
1788957289890426400,6.64542626953125,-1.3475889131873846,0.9761731830865145,1.1567005767591296
1788957289900477400,6.6554775390625,-1.335644208371639,1.1536351978391408,1.1822015132404864
1788957289910527500,6.665527587890625,-1.1235641769632696,1.466312323245406,0.8897592204809188
1788957289920577300,6.675577392578125,-0.7891407914340496,1.8353683384776114,0.4067173085739836
1788957289930628400,6.68562841796875,-0.3906058760002255,2.136521030306816,-0.040443772800313305
1788957289940678400,6.695678466796875,0.048179801279306406,1.632217755717039,-0.2296287667762488
1788957289950729500,6.7057294921875,-0.4363821232691407,0.806206492525339,-0.24036955742863936
1788957289960779500,6.715779541015625,-1.354895144547522,0.4666518815875053,-0.13582951622493564
1788957289970829600,6.72582958984375,-1.2009539983749389,0.5724386531829834,-0.11457103961892426
1788957289980880400,6.73588037109375,-0.7349906835734844,0.7770978869408368,-0.21160927209146319
1788957289990930400,6.745930419921875,-0.0909878463923931,0.9490075282633305,-0.32652317033130673
1788957290000981200,6.755981201171875,1.2640727178499103,0.6695142950564622,-0.36768732069488613
1788957290011031300,6.76603125,1.9849135877788067,-0.06527122133374214,-0.3894905351694673
1788957290021081300,6.776081298828125,1.4328589664548634,-0.71343936150074,-0.564319424939528
1788957290031132400,6.78613232421875,0.6307303908929228,-1.357170396003127,-0.628461788373813
1788957290041182500,6.796182373046875,0.2744669294774532,-1.8778981511712074,-0.37144912091381843
1788957290051232300,6.806232177734375,0.7399544434607028,-2.0473399410754443,-0.14929853539797477
1788957290061283300,6.816283447265625,1.1023872411608695,-1.97185186163187,-0.0030081756899016905
1788957290071333400,6.82633349609375,0.5220946596071124,-1.6626964806109665,0.17567261058520525
1788957290081384400,6.836384521484375,-0.12348960154652595,-1.63609488941133,0.10092362253852188
1788957290091434500,6.8464345703125,0.3286398336917162,-1.559844593423605,-0.06420457848291844
1788957290101484300,6.856484375,0.5942720070675015,-1.131418689855933,-0.2071749977047555
1788957290111535400,6.866535400390625,0.14954349573552608,-0.5899398230820894,-0.09630803676815702
1788957290121585400,6.87658544921875,0.07326718852370977,-0.08139233505129814,0.13699099775236098
1788957290131636500,6.886636474609375,0.35285569879859685,-0.012715689188241957,0.21507629061490297
1788957290141686500,6.8966865234375,0.19431056596189736,-0.15568506723046302,0.21977412957493214
1788957290151736300,6.906736328125,-0.6693197953976691,-0.18261983590722083,0.47435292095150794
1788957290161787400,6.916787353515625,-1.6114755580700932,0.2636199567705393,0.8745080945309252
1788957290171837400,6.92683740234375,-1.5470459021270275,0.6322498555451631,1.2179611011467872
1788957290181888300,6.93688818359375,-0.9486720126986503,1.117645600569248,1.2360313031055032
1788957290191938300,6.946938232421875,0.048329292752593754,1.5323668039113283,0.942804801165685
1788957290201988400,6.95698828125,0.7991746941924095,1.4006114783227444,0.7287003512576222
1788957290212039400,6.967039306640625,0.5002709503337741,1.2272352715790271,0.43336197173036634
1788957290222089200,6.977089111328125,0.05199906730651855,1.1563736828923226,0.30627423609402027
1788957290232139300,6.98713916015625,-0.19393851777911186,1.0314929192483424,0.2044340284335427
1788957290242190300,6.9971904296875,-0.3940647842824459,0.7781330752074718,0.15229947991278023
1788957290252240400,7.007240478515625,-0.2382522912800312,0.6787684456139802,0.13837536478284745
1788957290262291500,7.01729150390625,0.4013977575190365,0.4969827224433422,0.17138545305160804
1788957290272341200,7.02734130859375,1.1015794319093226,0.08752280063033104,0.13437910735406913
1788957290282391300,7.037391357421875,1.439379162003845,-0.5316249967575073,-0.001845594045472535
1788957290292442400,7.0474423828125,0.9962474183440208,-0.9892372473210096,-0.11093885712902993
1788957290302492400,7.057492431640625,-0.04565320541113615,-1.4116127648085355,-0.1623460594896227
1788957290312543500,7.06754345703125,-0.5520964146390557,-1.6728806054949759,-0.42393648319393396
1788957290322593500,7.077593505859375,-0.43099867666512726,-1.6908096454173325,-0.6323388490028679
1788957290332643300,7.087643310546875,0.15310031143426894,-1.4647779532849787,-0.7845390697922557
1788957290342694400,7.0976943359375,0.319835472728312,-1.2645178312689065,-0.818437320806086
1788957290352744400,7.107744384765625,0.07915800012797117,-1.0018617510944605,-0.6202670106761157
1788957290362795300,7.117795166015625,-0.6554260023407638,-0.763982969301939,-0.4647830189757049
1788957290372845300,7.12784521484375,-1.1012896551825107,-0.2780927187591791,-0.357832172036916
1788957290382895400,7.137895263671875,-1.3540849972084164,0.09093231681287288,-0.0962399947669357
1788957290392946200,7.1479462890625,-1.3902305156923829,0.2495323947072029,0.4659144341584295
1788957290402996200,7.157996337890625,-0.818713507398963,0.01722469104528427,0.941137817801535
1788957290413046300,7.16804638671875,-0.06400134752839803,-0.373965414583683,0.7848849606204777
1788957290423097300,7.178097412109375,-0.13767404811307787,-0.6027163025468587,0.30709961753487586
1788957290433147400,7.1881474609375,-0.18785569073408842,-0.5563526107788086,-0.20035317059438673
1788957290443198500,7.198198486328125,-0.5993010872758925,-0.9578741408079862,-0.23660335502922533
1788957290453248300,7.208248291015625,-1.5018272887408732,-1.125655888545513,0.4795815057873726
1788957290463298300,7.21829833984375,-1.2411575600780547,-0.32359131813049313,1.0591628703318536
1788957290473349400,7.228349365234375,-0.9386451242029666,0.564093434163928,1.165119591666758
1788957290483399400,7.2383994140625,-0.9458242220520973,1.07353465616405,1.2878655352391302
1788957290493450500,7.248450439453125,-0.31471243062615395,1.1780723044812678,1.3817023413218557
1788957290503500500,7.25850048828125,0.551555878021568,0.8768032927960157,1.2641431527376175
1788957290513550300,7.26855029296875,0.9431012268289923,0.5495879389494657,0.9151792006805538
1788957290523601400,7.278601318359375,1.2743031660936772,0.5157201561391354,0.45993890341278165
1788957290533651500,7.2886513671875,1.3498210561536252,-0.024687282010912893,0.0027336992802098393
1788957290543702300,7.298702392578125,0.6751788966894149,-0.3605494681715965,-0.18897198141291738
1788957290553752300,7.30875244140625,0.09832359610795974,0.2630728442817926,0.1550429334020242
1788957290563802400,7.31880224609375,-0.22285715374946594,0.8747802625358104,0.476157193894498
1788957290573853200,7.328853271484375,-0.8890481496021151,1.5568483342170714,0.5629496709562838
1788957290583903200,7.3389033203125,-0.5494385936066508,2.0993483607321974,0.7235930912464856
1788957290593953300,7.348953369140625,0.016828677465021608,2.0533260297477245,0.8260835247103124
1788957290604004400,7.35900439453125,-0.07420622293949126,1.6482050139218567,1.0318446552954614
1788957290614054400,7.369054443359375,-0.31632936430349945,1.573242419657111,1.4172444870851932
1788957290624105500,7.37910546875,-0.41145226467400786,1.8648311643272637,1.5029463558986782
1788957290634155300,7.3891552734375,0.4940051679372787,1.525412746989727,1.1115932417277246
1788957290644205300,7.399205322265625,1.2870318608939646,0.11151742420196532,0.2604342028738931
1788957290654256400,7.40925634765625,1.2564531827569008,-0.8323743684828281,-0.3655133376566693
1788957290664306400,7.419306396484375,1.3859890787303446,-0.4396726892471313,-0.0333304975958541
1788957290674357500,7.429357421875,1.3186606326058505,-0.20507599786520003,-0.04037804148718715
1788957290684407600,7.439407470703125,0.6547697303891181,-0.8465133684724568,-0.4372700485521927
1788957290694457300,7.449457275390625,-0.10750877308249474,-1.4306611641496418,-0.61457990495041
1788957290704508400,7.45950830078125,-0.4650153664268553,-1.5855968743175268,-0.3636831265548244
1788957290714558500,7.469558349609375,-0.24090382870212196,-1.6147510726094245,0.0008255641039460897
1788957290724609300,7.479609375,-0.4647966091096401,-1.368481479090452,0.37196496148146685
1788957290734659300,7.489659423828125,-0.5036776900373399,-0.7885568540662526,0.7963786337330937
1788957290744709400,7.49970947265625,0.09069806966558099,-0.5577122086942196,0.9397226903066038
1788957290754760200,7.50976025390625,0.4732373974576592,-1.1770026294231415,0.6575132569435983
1788957290764810200,7.519810302734375,0.5756126070439815,-1.833313744035363,0.3070898998584598
1788957290774860300,7.5298603515625,1.2651214962504804,-1.8965631041526794,-0.0023180676840245723
1788957290784911400,7.539911376953125,1.1495756933152674,-1.522704657074809,-0.3798212279397994
1788957290794961400,7.54996142578125,-0.2425100948549807,-0.5815694696217775,-0.37503567416369915
1788957290805012500,7.560012451171875,-1.3072624557569623,0.16660276708602903,-0.14115783510822802
1788957290815062300,7.570062255859375,-0.9207947024747729,0.4219692747741937,0.011826010339520871
1788957290825112300,7.5801123046875,-0.4581900504514575,0.6964186685949564,0.09986260571088641
1788957290835163400,7.590163330078125,0.013316577690839767,0.9345008640050888,0.053225723024643956
1788957290845213400,7.60021337890625,0.7658359036922454,0.8246008118718862,0.06381123178377747
1788957290855264500,7.610264404296875,1.442947522009909,0.5427677375406027,0.19951997117325662
1788957290865314300,7.620314208984375,0.9980407315015792,0.288164030918479,0.4522540845312178
1788957290875364400,7.6303642578125,0.5272004583135247,0.33039106127321716,0.7575478947531431
1788957290885415400,7.64041552734375,0.5194052743926644,0.5363777442425489,0.8995950433839112
1788957290895465500,7.650465576171875,-0.03013224954381585,0.6341875456094741,0.7196957184817642
1788957290905516300,7.660516357421875,-0.8487389355674385,0.7636363478213548,0.5116528336349875
1788957290915566300,7.67056640625,-0.920174378619343,0.5769307039052247,0.3091016780722886
1788957290925616400,7.680616455078125,-0.32889000906050203,-0.09265607186555862,-0.04990479844100773
1788957290935667200,7.690667236328125,-0.07288520346879959,-0.7536287485480309,-0.35114217287898064
1788957290945717200,7.70071728515625,-0.561657731449604,-1.0447802708446978,-0.5656538153484464
1788957290955768300,7.710768310546875,-0.3111570762321353,-0.8667822495192289,-0.5265707090426236
1788957290965818400,7.720818359375,0.026379472881555555,-0.5142290407985448,-0.45573125912249085
1788957290975868400,7.730868408203125,-0.5723097661063075,-0.3736994571238756,-0.408774350701645
1788957290985919500,7.74091943359375,-0.6523137155391275,-0.3490121751129627,-0.2612655025988817
1788957290995969300,7.75096923828125,-0.01997559718862176,-0.20837913106381892,-0.11143544500693678
1788957291006019300,7.761019287109375,0.10199790070652962,0.030087095227837563,-0.10675861230231821
1788957291016070400,7.7710703125,-0.29473318017572164,0.2691466112375259,0.0654640404921025
1788957291026120400,7.781120361328125,-0.32163565401807426,0.3162561529368162,0.2725194486714899
1788957291036171500,7.791171630859375,0.17682400911003351,0.4151829756349325,0.2738233708769083
1788957291046221300,7.80122119140625,0.3994420934066176,0.6002864450514316,0.19967121621221304
1788957291056271400,7.811271240234375,0.1676125286504626,0.5856576157182455,0.12389354270491748
1788957291066322400,7.821322509765625,-0.6854644361212849,0.4647638758838176,0.09944364964645355
1788957291076372500,7.83137255859375,-1.1607289554923772,0.24509353547692297,0.1243904959090054
1788957291086423300,7.84142333984375,-0.30972207499295473,-0.6076970135688782,0.43925840935781596
1788957291096473300,7.851473388671875,0.16650778227895496,-1.2082301268577575,0.13488558643832801
1788957291106523400,7.8615234375,-0.5432102206110954,-1.6811001523077487,0.07277962420247494
1788957291116574200,7.87157421875,-1.1079156491935251,-1.9362118084520101,0.15330840122699738
1788957291126624500,7.88162451171875,-0.8970479161843657,-1.3848697193115949,0.055903673529624935
1788957291136674300,7.89167431640625,-0.4908665776506066,-0.29760172134935853,-0.4167936257019639
1788957291146725400,7.901725341796875,-0.2897033693149686,0.3552683128982782,-1.098473282587528
1788957291156775400,7.911775390625,0.0473000958353281,0.2692424728274345,-1.4887658548548817
1788957291166826500,7.921826416015625,-0.5872074755087494,-0.3198936326563358,-1.4970742489948867
1788957291176876500,7.93187646484375,-1.310545130689442,-0.9997165557593106,-1.2992401850819586
1788957291186926300,7.94192626953125,-1.133479714038968,-1.3876158031493424,-1.2063163291256873
1788957291196977400,7.951977294921875,-1.0310872610569,-0.8844722199887036,-1.1622227011814712
1788957291207027500,7.96202734375,-0.7429448574483394,-0.20939736819565294,-1.099146651804447
1788957291217078500,7.97207861328125,-0.1252937283590436,0.13924889621436595,-0.996691435784474
1788957291227128600,7.982128662109375,0.05797288101911544,0.07117547694146632,-0.8807077528886497
1788957291237178600,7.9921787109375,-0.3322349355742335,-0.19289339264035224,-0.6106967799067496
1788957291247229700,8.002229736328125,-0.15621201371401547,-0.06064940675199031,-0.5160958210511133
1788957291257279500,8.012279541015625,0.4853165423080325,0.25057518175840376,-0.4593656335694715
1788957291267330300,8.022330322265624,0.7477402750313281,0.4248579819530248,-0.4369789931837469
1788957291277380400,8.03238037109375,0.5915317684486509,0.6844809780418872,-0.4564526321996003
1788957291287430400,8.042430419921875,0.5474292996108532,0.5479308193922042,-0.331731881422922
1788957291297481500,8.0524814453125,0.6795370918989181,0.023287352085113525,-0.2299194385522045
1788957291307531500,8.062531494140625,0.5033393979936838,-0.3774234460830688,-0.2815745512592606
1788957291317581300,8.072581298828124,-0.013132745556533336,-0.5293517911285162,-0.17816621749922631
1788957291327632400,8.08263232421875,-0.4126683624655008,-0.6153752931118011,-0.08028451993986964
1788957291337682400,8.092682373046875,0.16141367401033638,-0.4073988976299763,-0.14760310225747525
1788957291347733500,8.1027333984375,0.6630000908568501,-0.10054653285443782,-0.18909182666661217
1788957291357783600,8.112783447265626,0.21133038208484647,0.5472516049563885,-0.2465801938381046
1788957291367833300,8.122833251953125,-0.5647910610392689,1.245020519116521,-0.29343539545014496
1788957291377884400,8.132884521484375,-0.7021718252941965,1.5708599084347485,-0.2919571943900548
1788957291387934500,8.1429345703125,-0.46289720522910355,1.5843348915576934,-0.38416049925312395
1788957291397985500,8.152985595703125,-0.308335881331563,1.1435533642858267,-0.5359559386339038
1788957291408035600,8.16303564453125,-0.35576603328734635,0.5592261203885078,-0.6698616471894085
1788957291418085600,8.173085693359376,-1.2223185657039284,0.3338993616551161,-0.43517928681802004
1788957291428136700,8.18313671875,-2.0471768594682214,0.4714917228341102,-0.023765929382294416
1788957291438186500,8.1931865234375,-1.9761527736961841,0.6552186432003975,0.14816568630998952
1788957291448237300,8.2032373046875,-1.6714906124413011,0.7446072377026081,0.3083401191152632
1788957291458287400,8.213287353515625,-0.31581513117104765,1.1317571280300616,0.13996944730756802
1788957291468337400,8.22333740234375,2.048522721119225,0.5811772554337978,-0.38099056398011744
1788957291478388500,8.233388427734376,3.1570272761166094,-0.5376929184943438,-0.7377334794756024
1788957291488438300,8.243438232421875,2.848345942348242,-1.4340882159888744,-0.7093051843054592
1788957291498489300,8.2534892578125,1.9273373048618434,-2.6034020444750783,-0.8214515540607273
1788957291508539400,8.263539306640626,0.7134718024656176,-4.280093732690811,-1.3112437804780899
1788957291518589400,8.27358935546875,-0.6731842157408595,-5.493351916843652,-1.531963629937917
1788957291528640500,8.283640625,-1.6605059848293662,-6.029194823557138,-1.2740448074184358
1788957291538690600,8.293690673828126,-1.423727273233235,-5.172464012452959,-1.328045569936186
1788957291548740400,8.303740234375,-0.9159931474119424,-3.1291748080730435,-1.2339613649636507
1788957291558791400,8.31379150390625,-0.4008507911607623,-2.0633271992802618,-1.1661045110508799
1788957291568841500,8.323841552734375,-0.06102817693650722,-0.997877065372467,-0.7501037162270396
1788957291578892500,8.333892578125,-0.08870558067411184,0.26071020680367946,-0.2751791328674182
1788957291588942600,8.343942626953124,-0.22028788778334854,1.2685802584022283,0.00453149681664072
1788957291598992600,8.35399267578125,-0.9418705159902572,2.0290005667865274,0.051082820111280305
1788957291609043700,8.364043701171875,-1.5594634851515292,2.538174077761173,0.002121385201299563
1788957291619093500,8.374093505859374,-1.964535693399608,2.9185785854816433,0.10451650506448931
1788957291629144300,8.384144287109375,-1.8555787673354147,3.356496540015936,0.3542069307444617
1788957291639194400,8.3941943359375,-1.675202618701756,3.552866084334254,0.45235780063401904
1788957291649244700,8.40424462890625,-2.0669664325654504,3.4458506477266546,0.5740860185312107
1788957291659295500,8.41429541015625,-1.8410586590737104,3.6680589821785685,0.6853392023064195
1788957291669345300,8.42434521484375,-0.7958826669096947,3.642666182246804,0.7454735722083597
1788957291679396400,8.434396240234374,-0.13892419430464506,2.986510550457239,0.4327787650149315
1788957291689446400,8.4444462890625,-0.3262257582873106,1.8898288274616002,0.017497891096631062
1788957291699496400,8.454496337890625,0.19472528424263,1.142431666779518,-0.5580016931600869
1788957291709547500,8.464547607421874,0.9865478621065616,0.24636136345565318,-1.0281688893921672
1788957291719597600,8.47459765625,-0.018248481135070323,-1.0199749154120683,-1.2041283906273543
1788957291729647400,8.4846474609375,-0.8925418369367718,-2.072579011750221,-0.8647796044599264
1788957291739698400,8.494698486328126,-0.4688678040713072,-2.834630136206746,-0.4626554688951
1788957291749748500,8.50474853515625,0.25046499938219785,-3.2701755163908004,-0.2556497998752631
1788957291759799600,8.514799560546875,0.24704437728375195,-3.2754350443542,0.04444576585013419
1788957291769849600,8.524849609375,-1.196800678087771,-2.4660715491026637,0.5983322057111189
1788957291779899600,8.534899658203125,-2.1775652806177734,-0.5616524707525968,1.1161888258896768
1788957291789950500,8.544950439453125,-1.226952070723474,-0.22349311356544493,0.7977922999233007
1788957291800000500,8.55500048828125,-0.06657002897262573,-0.8137479939460754,-0.06845989783983678
1788957291810051300,8.56505126953125,0.23998569094389677,-0.6753694508254527,-0.3843996783038601
1788957291820101400,8.575101318359375,0.9349857249125838,-0.5978869826942682,-0.3650469987865537
1788957291830151700,8.585151611328126,0.8959908083468675,-0.6994663657277822,-0.45125206788182254
1788957291840202500,8.595202392578125,0.4694619705721736,-0.39282150622308254,-0.5134567412517964
1788957291850252300,8.605252197265624,0.3338219125047326,-0.029665654945373533,-0.28281386552955956
1788957291860303400,8.615303466796876,0.36417847232371564,0.1670446656346321,0.057573762166313824
1788957291870353400,8.625353515625,0.27139468242526055,0.30189678819477556,0.4062655827511102
1788957291880403500,8.635403564453124,0.2048173469290137,0.42981238949000833,0.5931006252005696
1788957291890454500,8.64545458984375,0.15020912003740666,0.9432347900807857,0.5998402356538921
1788957291900504600,8.655504638671875,0.4715010751843452,1.2923328899115323,0.5532151895359159
1788957291910555600,8.6655556640625,0.8977291764467954,0.8198749523937702,0.24598222794495522
1788957291920605400,8.67560546875,0.4947875504866242,0.1437473766773939,0.056288946520164605
1788957291930655500,8.685655517578125,0.021901889076083897,0.10202186610400676,0.16266352794095873
1788957291940706600,8.69570654296875,-0.32351693772003054,0.25675766978561876,0.15376812769323586
1788957291950756600,8.705756591796876,-1.005534594388306,0.33754210207164287,0.02294884084574878
1788957291960807700,8.7158076171875,-1.4596809224069118,0.6677227354645728,-0.12815174813866614
1788957291970857500,8.725857421875,-1.524531434110552,0.9050941522568464,-0.24184607798829674
1788957291980907500,8.735907470703125,-1.3711543515615165,0.7482447174221277,-0.30557270022854205
1788957291990958300,8.745958251953125,-0.9129920658998191,0.39560441493988036,-0.3552862138811499
1788957292001008400,8.75600830078125,-0.09270867883563041,0.032118308794498444,-0.4005851259618997
1788957292011058700,8.76605859375,0.46730508479923005,-0.3439887939929962,-0.47698915120661256
1788957292021109500,8.776109619140625,0.10437135183960199,-0.5488982031196356,-0.12232128841951488
1788957292031159300,8.7861591796875,-0.4597583226814866,-0.3720230483442545,0.3074179627690464
1788957292041210400,8.79621044921875,-0.26037673706561326,-0.36617256875038146,0.5955352319363504
1788957292051260400,8.806260498046875,0.3899259309120476,-0.5019739548593759,0.49242893159650264
1788957292061310500,8.816310546875,0.894020385056734,-0.6381979502946138,0.48153563552983103
1788957292071361500,8.826361572265625,0.8665808817282319,-0.6345902811914682,0.49508558358512816
1788957292081411600,8.83641162109375,0.5269920762598514,-0.8736118032783269,0.44877245296053586
1788957292091462400,8.84646240234375,0.7076584400117397,-1.0441425574630498,0.24954839599393305
1788957292101512400,8.856512451171875,0.9603881694555282,-1.3994453571528196,0.02370331247486174
1788957292111562500,8.8665625,0.565204902537167,-1.5692881290733813,-0.02030044522881508
1788957292121613300,8.87661328125,0.3004632482603192,-1.5120862324267625,0.1457841432020068
1788957292131663400,8.886663330078125,0.08916618392318487,-1.084544125956297,0.4091814701978117
1788957292141714400,8.89671435546875,-0.2319254263460636,-0.5185229386001825,0.682041037543863
1788957292151764200,8.90676416015625,-0.05188450101613998,-0.18939795174002647,0.9132827924747019
1788957292161814300,8.916814208984375,0.2038268745869398,-0.11092471900582312,0.9966305724427104
1788957292171865300,8.926865234375,0.21762539057582617,-0.1796457885324955,1.0716535185925662
1788957292181915400,8.936915283203126,0.16216390785574913,-0.25134207447767254,1.0063180729161947
1788957292191966200,8.94696630859375,0.043322716636955735,-0.2969125700414181,0.7637940226010977
1788957292202016000,8.95701611328125,-0.9871043269455432,-0.25685937659442426,0.517928041446954
1788957292212066000,8.967066162109376,-1.3308137194752692,-0.13301964643597602,0.3833487444788217
1788957292222117000,8.9771171875,-0.28390257408171893,-0.07292436643540859,0.07823847413025796
1788957292232167200,8.987167236328125,-0.39380262621492146,-0.3826455646455288,-0.12003814591839909
1788957292242218200,8.99721826171875,-1.580831559611857,-0.5165466700911522,0.07766549654789269
1788957292252268300,9.007268310546875,-1.678529717297852,-0.5961813478201627,0.2811420963924378
1788957292262318000,9.017318115234374,-0.7616811221003532,-0.3898264160603285,0.20875629381313918
1788957292272369200,9.027369140625,0.09412263728678226,0.08916822974979877,0.06033464171439409
1788957292282419200,9.037419189453125,-0.08745002765506506,0.5523568191409111,0.05229892703592777
1788957292292470300,9.04747021484375,-0.7357865101262927,0.8545417766273021,-0.09902977161593735
1788957292302520300,9.057520263671876,-0.8325745672300457,0.7935913411021233,-0.3097553927406668
1788957292312570400,9.0675703125,-0.4361068134590983,0.5640221224933862,-0.4085921260025352
1788957292322621400,9.077621337890625,0.07399433375447988,0.2578419578909874,-0.5277901678349822
1788957292332671200,9.087671142578126,0.5194517438828945,-0.09500643438398837,-0.7564004782836884
1788957292342722300,9.097722412109375,0.5875137649789453,-0.25175708501935,-0.9334306774903088
1788957292352772400,9.1077724609375,0.2883265280038118,-0.5403256050854921,-0.8466404289182275
1788957292362822400,9.117822509765626,-0.6364581208899617,-0.9591197569549084,-0.4742703937672078
1788957292372873200,9.127873291015625,-1.5582935645893214,-0.9164093269973993,0.06458294680863619
1788957292382923000,9.137923095703124,-1.9170272155106067,-0.22320903592705726,0.5460070117227733
1788957292392973300,9.147973388671875,-1.552708750194311,0.34370822348594665,0.667916869797185
1788957292403024100,9.158024169921875,-0.40460926691144705,0.9314198491245508,0.32453444419950245
1788957292413074200,9.16807421875,0.7192009937673807,0.8887047429919243,0.22001301636472342
1788957292423125200,9.178125244140626,0.7398413384750485,0.21138708070814607,0.22858130354993045
1788957292433175300,9.18817529296875,0.304346519434452,-0.051174891442060465,0.09359693291224538
1788957292443225000,9.19822509765625,-0.12777648508548736,-0.35237843667566776,0.014768530064821242
1788957292453276200,9.208276123046875,-0.8043181945607065,-0.9150982443988323,-0.05027217044867575
1788957292463326200,9.218326171875,-1.1568129510924219,-1.3085744151383638,0.1420420340642333
1788957292473377300,9.228377197265624,-1.060056458170712,-1.1435773296833038,0.2550579531956464
1788957292483427300,9.23842724609375,-0.269413153219223,-0.4511439313322305,0.014795125810801982
1788957292493477400,9.248477294921875,0.6050505907133221,0.032760698351263995,-0.2164881301742047
1788957292503528200,9.258528076171874,0.8123366658434271,0.4204956950902939,-0.49795405169352885
1788957292513578200,9.268578125,0.67723027626127,0.7522831791579723,-0.8172039796188473
1788957292523629300,9.27862939453125,0.6264908536270261,1.1109043096154927,-0.9277897489938884
1788957292533679400,9.288679443359374,0.6582847527727484,1.6029232721716165,-0.8411619244419037
1788957292543729400,9.2987294921875,0.35590427271425723,1.7114187182039022,-0.3623096827771514
1788957292553780200,9.3087802734375,-0.10863806937336921,1.696243360903859,0.12409158602766691
1788957292563830000,9.318830078125,-0.03783405609279871,1.4901000260680912,0.37084830547645686
1788957292573881000,9.328881103515625,0.2070692175090313,1.1373843202620744,0.47521563872806727
1788957292583931100,9.33893115234375,1.3019631803050637,0.6396265217930078,0.39502259646393356
1788957292593981200,9.348981201171876,1.354207162283361,-0.0860427912056446,0.4394241213135421
1788957292604032300,9.3590322265625,-0.19325082777589558,-0.6140554426848888,0.7334503222636878
1788957292614082300,9.369082275390625,-0.12169979552030563,-1.0762450841665268,0.7480128083623945
1788957292624133400,9.37913330078125,1.0255790190294385,-1.5744097098708152,0.3638184068396687
1788957292634183200,9.38918310546875,0.7871393884837627,-1.9473837753295897,0.11035740397926419
1788957292644233200,9.399233154296875,-0.2044669260561466,-2.442176878774166,-0.021234693871624768
1788957292654284300,9.4092841796875,-0.6163280637919902,-2.9138264225184916,-0.27289536931179464
1788957292664334300,9.419334228515625,-1.3267457393839954,-2.752997562658787,-0.4311631099792197
1788957292674385400,9.429385498046875,-2.2486142085701224,-1.5655051034033298,-0.32056101052388547
1788957292684435200,9.439435302734376,-1.583718220964074,-0.5553232677310704,-0.37058687806129453
1788957292694485200,9.4494853515625,-0.520996927498281,-0.48514673869907854,-0.4632980776475742
1788957292704536300,9.459536376953125,-0.19435323605984448,-0.3426262734681368,-0.5339041572032496
1788957292714586400,9.46958642578125,0.2705436185538769,0.15981588342487812,-0.5383449891949073
1788957292724637200,9.47963720703125,0.44141807160973545,0.6046592533081769,-0.4902827864132821
1788957292734687200,9.489687255859375,-0.5504898562252521,0.7349439218223095,-0.35150234796088187
1788957292744737000,9.499737060546876,-1.262713412195444,1.0147861145973205,-0.05663909339839592
1788957292754788000,9.5097880859375,-0.7999941938817501,1.2818705326080322,0.10518650414738803
1788957292764838100,9.519838134765624,-0.18697364720255136,1.147704054224491,0.22430136120840904
1788957292774889200,9.52988916015625,0.567070111887157,0.8896247804462909,0.35480960934534667
1788957292784939300,9.539939208984375,1.5716604111626744,0.46340836962163445,0.250283103476651
1788957292794989300,9.5499892578125,1.6341875944852828,-0.41152211503982544,0.09874912804365157
1788957292805040000,9.5600400390625,0.42252369378656146,-1.2669921124279497,-0.10647632476221769
1788957292815090200,9.570090087890625,-1.0108546203672886,-1.4856711037099362,-0.13345756292920558
1788957292825141200,9.580141357421875,-1.8684122376844285,-1.4250140981733799,-0.19375030173063276
1788957292835191300,9.59019140625,-2.047166630335152,-1.231664778459072,-0.3838268103193491
1788957292845241300,9.600241455078125,-1.5251581877067684,-0.7478893281131982,-0.5211513508750125
1788957292855292400,9.61029248046875,-1.1048168063953518,-0.3428758643150329,-0.30016773591246454
1788957292865342200,9.62034228515625,-0.743900550737977,-0.1492243467837572,-0.08134005687478929
1788957292875392300,9.630392333984375,-0.5415224136546254,0.2944230913132429,0.20901037817206233
1788957292885443300,9.640443359375,-0.587665156148374,0.6725508862733841,0.3856816444057971
1788957292895493400,9.650493408203126,-1.15732031609267,0.6667354779928922,0.5093843041811138
1788957292905544200,9.660544189453125,-1.6272990040153263,0.8517226275533437,0.7407164408091456
1788957292915594200,9.67059423828125,-0.9200067669674754,1.3751555500268935,0.9827531459987163
1788957292925644000,9.68064404296875,-0.12073884153366088,1.4434282912641763,0.7731627394489944
1788957292935695000,9.690695068359375,0.41017011590898034,1.3413883049815893,0.3495034657612443
1788957292945745200,9.7007451171875,1.8532336655139923,0.8586538881212472,-0.11768307069223373
1788957292955796200,9.710796142578126,1.9213652447149157,-0.7444324656575918,-0.4583825408162549
1788957292965846300,9.72084619140625,0.28248043232411146,-1.439230839574337,-0.08287913954295217
1788957292975896000,9.73089599609375,0.011126081909239291,-1.1861515660405157,0.2636662070650607
1788957292985947100,9.740947021484375,0.012317045259475707,-1.1868740350961684,0.2812137368565425
1788957292995997200,9.7509970703125,-0.42851299732923503,-0.6703788029313087,0.22403142169322818
1788957293006048300,9.76104833984375,-0.36686902658194304,0.652466714143753,0.2882015864498913
1788957293016098300,9.771098388671875,-0.7104767123028636,1.3789724779665469,0.14534611711092293
1788957293026148400,9.7811484375,-0.5834481229752302,1.4800591090470552,-0.01177935818620026
1788957293036199400,9.791199462890624,0.20920096884071826,0.9894646263360977,-0.05270984592437744
1788957293046249200,9.801249267578125,0.19559300698786972,0.22742753040492533,-0.12479476586095987
1788957293056300300,9.81130029296875,0.3487956097528338,-0.33651392806768415,-0.15524053833335638
1788957293066350300,9.821350341796874,1.0338497115075587,-0.24451953498125076,-0.20750695133917033
1788957293076400400,9.831400390625,0.1977282654508948,0.16334464207291602,-0.29541444043815135
1788957293086451200,9.841451171875,-0.6430754932031035,0.9182230984210967,-0.017567220872640607
1788957293096501200,9.851501220703126,-1.0394020849376917,1.4334241991221903,0.3250901053208858
1788957293106552000,9.861552001953125,-1.5488497366786003,1.552313613396883,0.583046410306543
1788957293116602000,9.87160205078125,-0.7151406124606728,1.4544073659181593,0.6941456821616738
1788957293126652200,9.881652099609376,0.6514882245004177,0.5095902750819922,0.31051592878438533
1788957293136703200,9.891703125,1.1544248869121074,-0.9532458964854478,-0.13145575812011956
1788957293146753300,9.901753173828125,1.652824198155105,-1.3179746961683034,-0.21678704005554317
1788957293156804400,9.911804443359374,1.1256421522811055,-0.9841957460224627,-0.016040668892487883
1788957293166854100,9.921854248046875,-0.6259490018352866,-1.1223626922190189,0.24199125861264764
1788957293176904200,9.931904296875,-1.4779755807712673,-1.0148486584395169,0.3718644237164408
1788957293186955300,9.941955322265626,-1.146077914327383,-0.45739656198620793,0.295212268929556
1788957293197005300,9.95200537109375,-0.4072156500175595,-0.1774538314461708,-0.16552805052660405
1788957293207056400,9.962056396484375,0.1488356397271156,-0.8484422907084226,-0.8176021851561963
1788957293217106400,9.9721064453125,0.9133967011779546,-1.4068898279398678,-0.9997733274478465
1788957293227156200,9.98215625,1.2879083514675498,-1.6941484344512223,-0.9128470314059406
1788957293237207300,9.992207275390625,0.7673290648594498,-1.5920833137273787,-0.8186523517962545
1788957293247257300,10.00225732421875,0.055581017446517944,-1.1410486879885195,-0.43515104710422453
1788957293257308200,10.01230810546875,-0.33359599479436874,-0.6994669502496719,0.13711319935992358
1788957293267358200,10.022358154296874,-0.6093105862453579,-0.3440975150644779,0.5551055333271623
1788957293277408000,10.032407958984376,-0.7283551910817623,0.06569032352864741,0.7366326786268502
1788957293287459000,10.042458984375,-0.6526990615949034,0.46261458889544005,0.7795587240964174
1788957293297509000,10.052509033203124,0.3632897067904472,0.5547463446259498,0.5994144114572555
1788957293307560200,10.062560302734376,1.7034917245969174,0.6657026278138161,0.1752395894628018
1788957293317610200,10.0726103515625,1.2199407306566834,0.3833768015295267,0.05999116203896701
1788957293327660300,10.082660400390624,-0.267520179079473,0.2453495560646057,0.36499819120876487
1788957293337711400,10.09271142578125,-0.3884542509242892,0.08367723111808299,0.5501433808751404
1788957293347761200,10.10276123046875,-0.878270442739129,-0.06823416279256343,0.6391887148976325
1788957293357812200,10.112812255859374,-1.1210285210058093,0.1318143622994423,0.7421276227813214
1788957293367862300,10.1228623046875,-0.16323212160915135,0.37135201721489425,0.40524551898837086
1788957293377912300,10.132912353515625,-0.18815175107121465,0.38349955112636086,0.09854863703548908
1788957293387963400,10.14296337890625,-0.5816252914622426,0.7165127775967121,0.14351736731380224
1788957293398013200,10.15301318359375,0.07327303374260663,0.7440998727023601,-0.09531338144131005
1788957293408064000,10.16306396484375,0.3312278043583035,0.44998248633742327,-0.41813137711174786
1788957293418114300,10.1731142578125,-0.058196460641920564,0.19581775565445422,-0.43693113545402884
1788957293428164400,10.183164306640625,0.06278145034462213,-0.12293489027321337,-0.2313588785044849
1788957293438215200,10.193215087890625,-0.17745733857750892,-0.7433581144243478,0.014348843348026274
1788957293448265200,10.20326513671875,-1.0078536849856377,-1.4149094682663679,0.4086718401752412
1788957293458316300,10.21331640625,-0.7395391406580806,-1.8462036207467316,0.858278478937596
1788957293468366000,10.223365966796875,-0.2731023631259799,-1.9817799659281967,0.9486129029225557
1788957293478416100,10.233416015625,-0.5622384539470077,-2.0630670870393515,0.8738364788796752
1788957293488467200,10.24346728515625,-0.8315338260054588,-1.8632897801041601,0.8665246214963496
1788957293498517200,10.253517333984375,-0.7544011942252516,-1.3959487472087144,0.6227256558746099
1788957293508567300,10.2635673828125,-0.3147413644596934,-0.8865887737512588,-0.029549408154562112
1788957293518618400,10.273618408203125,0.07305266899019479,-0.20321312660276888,-0.7640741547167301
1788957293528668200,10.283668212890625,-0.2628983644977212,0.29144495228528977,-1.1101019802566616
1788957293538719200,10.29371923828125,-0.3944780412584543,0.5405068068712949,-1.0481244667060672
1788957293548769300,10.303769287109375,-0.3637804129168391,0.7218126375705003,-0.834686664013192
1788957293558819300,10.3138193359375,-0.7353744221940636,0.9087783937275409,-0.5225343661986291
1788957293568870400,10.323870361328124,-1.1665046162843704,1.1059288592904806,-0.00016300854198634623
1788957293578920200,10.333920166015625,-0.7082640046894549,1.408221368804574,0.4926783763129264
1788957293588971300,10.34397119140625,-0.23957681788206098,1.602113124832511,0.7040399572536349
1788957293599021300,10.354021240234376,-0.5587737004458904,1.3824404463380575,0.6518193561509251
1788957293609071400,10.3640712890625,-0.6209618610724806,0.8007038034558296,0.587239916473627
1788957293619122200,10.3741220703125,-0.796859110726416,0.29849136366546153,0.7861054423261433
1788957293629172200,10.384172119140626,-0.8850178711727261,0.30902678620517254,0.9256904386270791
1788957293639223300,10.394223388671875,-0.1204486264154315,0.35587387757599354,0.7566223774060606
1788957293649273000,10.404273193359375,0.05277560463696718,0.047586511561274525,0.3798977272421121
1788957293659323100,10.4143232421875,-0.4081774807870388,-0.25775720221698284,-0.14517273330539465
1788957293669374200,10.424374267578125,-0.09797785141021012,-0.7302028647750616,-0.4655019809000194
1788957293679424300,10.43442431640625,0.2215411027148366,-1.023569140511751,-0.6912970877975225
1788957293689475300,10.444475341796876,0.3437073467031121,-0.9625777884542942,-0.7872928254798054
1788957293699525000,10.454525146484375,0.8661904211059213,-0.8187836500257253,-0.8234213197637349
1788957293709575200,10.4645751953125,0.8094298384860158,-0.9655541739165783,-0.8372885170746595
1788957293719626200,10.474626220703126,-0.1643146561488509,-0.855054986846447,-0.5853647702515125
1788957293729676300,10.48467626953125,0.20623510477244852,-0.3960977514147758,-0.4147685496151447
1788957293739727400,10.494727294921875,1.3397273860320449,-0.39920390073657036,-0.3623499417223036
1788957293749777400,10.50477734375,1.1605310948327183,-0.5891296757429838,-0.047260640607774254
1788957293759827200,10.5148271484375,0.5994456103131175,-0.4800046996355056,0.30567038844935596
1788957293769878300,10.524878173828125,-0.2775871073246002,-0.39191315920650954,0.5771731343589723
1788957293779928300,10.53492822265625,-0.7388365453466773,-0.21206337253451346,0.6332884048126638
1788957293789979100,10.544979248046875,-0.6304515739515424,-0.17526421244740484,0.5962356352906674
1788957293800029200,10.555029296875,-0.9374640977248548,0.0559749852001667,0.6220081552550196
1788957293810079200,10.565079345703126,-0.2642006792679429,0.37796880500614644,0.7001465300116687
1788957293820130300,10.57513037109375,1.0666001807257532,0.47602176747918123,0.42315227401368316
1788957293830180000,10.58518017578125,1.1284063562974334,0.214074712356925,0.187094131777063
1788957293840231200,10.595231201171876,0.33592385322004553,0.19996903011500836,-0.0119213970053941
1788957293850281200,10.60528125,-0.8143234557464718,0.04438742325901985,0.10708031853735446
1788957293860331300,10.615331298828124,-1.3332114282667635,0.1395394035935402,0.34693127718567845
1788957293870382300,10.62538232421875,-0.5527238988876343,0.298074599558115,0.42424079990275204
1788957293880432000,10.63543212890625,-0.1606602252945304,0.4063426665753126,0.24896723510511218
1788957293890483200,10.645483154296874,-0.6172668059468269,0.34941666426062584,0.429726683967933
1788957293900533200,10.655533203125,-0.6346636386886239,0.5365133533209562,0.5748793243333697
1788957293910583300,10.665583251953125,0.5135784679353237,0.8009574859559535,0.20981537441201506
1788957293920634400,10.67563427734375,0.6250488381251692,0.3107967184871435,-0.14703947702534495
1788957293930684400,10.685684326171875,0.6020026013195514,-0.0837771843612194,-0.4176490734875202
1788957293940735200,10.6957353515625,1.3749077127456664,-0.338328868535161,-0.7075568062681704
1788957293950785300,10.705785400390624,0.7169397708371281,-0.9874988792210817,-0.7633982282165438
1788957293960835300,10.71583544921875,-0.4978416773602366,-1.4813906499117613,-0.6015840105812996
1788957293970886100,10.72588623046875,-0.6065253394410014,-1.5917425374656915,-0.6750994747776538
1788957293980936200,10.735936279296874,-0.6297729440376162,-1.7500754888564347,-0.8269024398777634
1788957293990987300,10.7459873046875,-0.8464359193220734,-1.6685867076933383,-0.7663971177715808
1788957294001037000,10.756037109375,-1.0577899745434522,-0.9766168352007866,-0.5083223009727895
1788957294011087000,10.766087158203124,-0.6492679181024432,-0.03941255745589733,-0.25230996966175734
1788957294021138200,10.77613818359375,-0.8955003944814205,0.30461598402559753,-0.011422872898727655
1788957294031188200,10.786188232421875,-0.9613564299657941,0.6921154184430838,0.00652837885543704
1788957294041239300,10.7962392578125,1.2953849709585308,1.0804156478494404,-0.47410175920203323
1788957294051289300,10.806289306640625,1.6156436375349759,0.4842074120223522,-0.9989213867936283
1788957294061339100,10.816339111328125,0.14367197335362433,-0.20470424194335937,-0.5518224930685013
1788957294071390200,10.82639013671875,0.18367109852582214,-0.47407530958652494,-0.019232304540649055
1788957294081440300,10.836440185546875,-0.8610957283154129,-0.41200493012070655,0.12494557250849903
1788957294091490300,10.846490234375,-2.2870611358642576,-0.025236732587218282,0.8799122916620224
1788957294101541400,10.856541259765624,-0.739142834816873,0.2614431972533464,1.2176916365556418
1788957294111591400,10.86659130859375,-0.2713654563307762,-0.2782090386152267,1.1158630280014128
1788957294121642000,10.87664208984375,-0.596518324689567,-0.4710217672348022,1.2777481919810174
1788957294131692000,10.886692138671876,0.11528203743249177,-0.1886293054550886,1.2966165585801004
1788957294141741800,10.896741943359375,0.5853305757209658,-0.22736498656272885,0.8424499914910644
1788957294151792600,10.906792724609375,-0.08666238440871238,-0.14015548966526983,0.37050014962591227
1788957294161843000,10.916843017578126,-0.354793096601963,0.4723381105303764,0.30636173171438275
1788957294171893800,10.926893798828125,-0.7464063960790633,0.9541150805354118,0.47280580110736187
1788957294181943800,10.93694384765625,-1.271381871819496,1.1730705506712198,0.5830871807083488
1788957294191993900,10.946993896484376,-1.1071578165635465,1.5641256317436694,0.7299495476011186
1788957294202045000,10.957044921875,-0.3555485911443829,1.7941700666487217,0.8564359928760678
1788957294212094700,10.9670947265625,0.41574703925848006,1.6826760233223437,0.7713106818415224
1788957294222145800,10.977145751953126,0.7630611782819032,1.4502502462387084,0.5490941640831529
1788957294232195800,10.98719580078125,0.6873369519948959,1.0287678781986236,0.37026414891295134
1788957294242246000,10.997245849609374,-0.3948649947494268,0.6793640734195708,0.3595136953830719
1788957294252297000,11.007296875,-0.12105945179015397,0.6615402474373578,0.2804901352897286
1788957294262346800,11.0173466796875,1.0006398080840706,0.14406535658538341,-0.37659715132676064
1788957294272397800,11.027397705078124,0.6291656257942319,-0.6238245570272207,-0.8172685692876577
1788957294282448000,11.03744775390625,0.9432298216447234,-1.0863894615620373,-0.5464298402447253
1788957294292498000,11.047497802734375,0.7562389310464263,-1.3589584484636783,-0.10813903381004929
1788957294302549000,11.057549072265624,-0.4167936257019639,-1.1558575500637291,0.3123310884475708
1788957294312599000,11.06759912109375,-0.8959086830213665,-0.8093202406316995,0.43377603242397306
1788957294322649900,11.07764990234375,-0.9066387513503432,-0.677586542353034,0.23940248422846197
1788957294332699600,11.08769970703125,-0.4207485008075833,-0.6655173343747853,0.11483984662294387
1788957294342750000,11.09775,0.35614304990619416,-0.41703298741579053,-0.00486292986124754
1788957294352800800,11.10780078125,0.5125473713219165,-0.1474988381654024,-0.08919394871294498
1788957294362850800,11.117850830078124,0.2548898300871253,-0.006271335354447364,-0.05995484861657023
1788957294372902000,11.12790185546875,-0.020823592320084572,-0.008885901767015456,-0.02408434768170118
1788957294382952000,11.137951904296875,-0.6059145140662789,-0.20142507414221764,0.18800985838249323
1788957294393001700,11.148001708984374,-0.11076192965954541,-0.5806196215510367,0.42515930298715826
1788957294403052800,11.158052734375,0.8327282964870333,-0.8236398578852414,0.38142508293986316
1788957294413102800,11.168102783203125,0.23956454292237758,-0.905307502746582,0.4111554736845195
1788957294423153000,11.17815283203125,0.31887861039489507,-0.6724947721719742,0.46777701315991577
1788957294433204000,11.188203857421875,1.1838994031995533,-0.40127778440117834,0.1717979976415634
1788957294443253800,11.198253662109375,0.4267079937338829,-0.6884767696797848,0.0992650416765362
1788957294453304800,11.208304931640624,0.535208115941286,-0.800531369498372,0.2948997689142823
1788957294463355000,11.21835498046875,1.2201561269730328,-1.116983921790123,0.2925770250551402
1788957294473405000,11.228405029296875,0.8402350188553332,-1.4682067586898804,0.3019685382567346
1788957294483456000,11.2384560546875,-0.14646452668160198,-1.561166781938076,0.481809410969913
1788957294493506000,11.248506103515625,-0.7901534756079316,-1.1379787790238856,0.5443801411733031
1788957294503556900,11.258556884765625,-1.0719491405382753,-0.6491559821605682,0.45622591077163815
1788957294513607000,11.26860693359375,-1.5862369257867335,-0.29547639975845813,0.40448797861933705
1788957294523657000,11.278656982421875,-1.3893220225453375,0.18879414062798022,0.39115839531645175
1788957294533707800,11.288707763671875,-0.39387335336357354,0.9156839353322982,0.4110667724877596
1788957294543757800,11.2987578125,0.6932686801314354,1.7704963455945253,0.4951911628514528
1788957294553809000,11.308808837890625,0.6019719139203429,2.000235660073161,0.6533301991052926
1788957294563858700,11.318858642578125,0.24877251625061034,1.6289420950472353,0.7831545566312968
1788957294573908700,11.32890869140625,0.21875030295252798,0.9521756369054317,0.5876712936282158
1788957294583959800,11.338959716796875,-1.0795222061410545,0.16578735904991626,0.3370584102079272
1788957294594009900,11.349009765625,-2.1449910447493195,-0.32095161727666854,0.35312384821549053
1788957294604061000,11.35906103515625,-1.5613883157342672,-0.39813948637545105,0.29896599543988706
1788957294614111000,11.369111083984375,-0.6396726990222931,-0.3560913197189569,0.18303601549267767
1788957294624160800,11.379160888671874,0.56585196826905,-0.17439736648499965,0.024822452697902918
1788957294634211800,11.3892119140625,1.408044258671999,-0.12039046648740767,-0.15497560378685593
1788957294644262000,11.399261962890625,0.7657634229779243,-0.03547697157263756,-0.12371712669208645
1788957294654312000,11.40931201171875,-0.4725312950149178,-0.06782090581655502,0.11328297256976365
1788957294664363000,11.419363037109376,-1.0498425226703285,-0.3844394623249769,0.3183824974410236
1788957294674413000,11.4294130859375,-0.3877332431733608,-0.48718964270353315,0.36815482860878107
1788957294684463900,11.4394638671875,0.6948670552387833,-0.34563831476569173,0.07557575772702693
1788957294694514000,11.449513916015626,0.5018415606513619,-0.4399766406297683,-0.09808204243704675
1788957294704564000,11.45956396484375,0.10482231047749518,-0.6387707817465067,-0.0978926573447883
1788957294714614800,11.46961474609375,-0.019838672935962677,-0.77151570289433,-0.14440394088998437
1788957294724664800,11.479664794921876,-0.3636319443568587,-0.8223585859030484,-0.07195815175175667
1788957294734716000,11.4897158203125,-0.4966176885232329,-0.6409954720586538,0.02967164629474282
1788957294744765700,11.499765625,-0.6868751797020435,-0.4848778586298227,0.17676643370389938
1788957294754815700,11.509815673828125,-0.7335027831032872,-0.40084582272469993,0.3164421770282089
1788957294764866800,11.51986669921875,-0.9455065344050526,-0.23353929128348827,0.2595123753212392
1788957294774916900,11.529916748046874,-1.191628828407824,0.036490532529354094,0.1575758494131267
1788957294784968000,11.539968017578126,-1.2588766105115412,0.34406127470731734,0.02326572477519512
1788957294795018000,11.55001806640625,-1.2848708834677933,0.43570086300671096,-0.03457008586078882
1788957294805067800,11.56006787109375,-1.0943626323983073,0.4355705146253109,-0.09057166680693626
1788957294815118800,11.570118896484376,-0.9439040676444769,0.41988253162801265,-0.12079188689514994
1788957294825169000,11.5801689453125,-0.26458412562757727,0.31341771464049817,-0.24043168114572763
1788957294835220000,11.590219970703124,0.48020109899044033,0.0984913538902998,-0.3204802003726363
1788957294845270000,11.60027001953125,0.4116416497662663,-0.017146365112066266,-0.35899376316219567
1788957294855320000,11.610320068359375,0.4954685184881091,-0.02562719320952892,-0.49036608078256244
1788957294865370600,11.62037060546875,0.6576949701860547,-0.050515550750494,-0.5750047042787074
1788957294875421000,11.6304208984375,0.44669513522982596,-0.13583762646615505,-0.4472084915794432
1788957294885471000,11.640470947265625,1.1155670407295226,-0.12878303177952766,-0.3358097253210842
1788957294895521800,11.650521728515624,1.6292185739010572,-0.15778466985821724,-0.3370968425221741
1788957294905571800,11.66057177734375,1.0815735857129096,-0.18792495657801628,-0.3539801727838814
1788957294915623000,11.670622802734375,0.3453808328732848,-0.19960604202151297,-0.3760411248791963
1788957294925672700,11.680672607421876,-0.20556611946970224,-0.10792787527740001,-0.21608020696043967
1788957294935722800,11.69072265625,-0.8738985112652182,0.4305839583843946,0.06230572259165346
1788957294945773800,11.70077392578125,-1.5262731632113455,1.2335890245199204,0.43221389767378565
1788957294955823900,11.710823974609376,-0.7734221210375428,1.9613515104055403,0.6214935567963868
1788957294965875000,11.720875,0.12476005987375974,2.0744062271773815,0.4563960066415369
1788957294975925000,11.730925048828125,1.0207815556198359,1.5908178238362074,0.15937997622564434
1788957294985974800,11.740974853515626,2.02666481731534,0.6914794586271047,-0.20418372520059347
1788957294996025900,11.75102587890625,0.9647945877209305,-0.24350305141508577,-0.2311765807401389
1788957295006076000,11.761075927734375,-0.6963464801415801,-0.9536118071883917,0.06605974136292934
1788957295016127000,11.771126953125,-1.4310270748525857,-1.6360878751486538,0.45321854564920067
1788957295026177000,11.781177001953125,-1.6097718228921294,-1.1754402024120092,0.8011837689924984
1788957295036226800,11.791226806640625,-0.1166749530956149,-0.8446382222503424,0.913052344719693
1788957295046278000,11.80127783203125,1.6815195467635988,-0.95227208301723,0.5110520912628621
1788957295056328000,11.811327880859375,1.576646090620756,-0.6513549535095692,0.27310060956031085
1788957295066378000,11.8213779296875,0.9266299844995141,-1.393875448065996,0.09471336972154676
1788957295076428800,11.8314287109375,-0.14103840997964143,-2.267694172093272,-0.62732745058164
1788957295086478800,11.841478759765625,-1.2284712431147693,-2.4044325467914343,-1.194786780982092
1788957295096530000,11.851530029296875,-1.0257800945594906,-1.4939572860181332,-1.186260506307706
1788957295106579700,11.861579833984376,0.43913025293350216,-0.8164777111709117,-0.9893450185444206
1788957295116629800,11.871629638671875,1.5337702409684657,-0.9216741156578063,-0.8440646601460874
1788957295126680800,11.881680908203125,1.0353218298867344,-1.313365156546235,-0.43596477463990446
1788957295136731000,11.89173095703125,0.3473758060827851,-1.5485148056358098,0.02363397356569767
1788957295146782000,11.901781982421875,-0.34597178450375793,-1.554715413841605,0.3732050977356732
1788957295156831700,11.911831787109374,-1.279146368341148,-1.367062259942293,0.8926444935936481
1788957295166881800,11.9218818359375,-1.5821496564731001,-0.7185866612613201,1.300666126231849
1788957295176932900,11.931932861328125,-1.6040376631543038,0.4568032722681761,1.6538438965916633
1788957295186983000,11.94198291015625,-1.1258625170335173,1.3773252952814101,1.6734966915667056
1788957295197034000,11.952033935546876,-0.6638996700450778,1.8191425953418014,1.3390841196924448
1788957295207084000,11.962083984375,0.0061585226297378535,2.063186914026737,0.8660782659683376
1788957295217133800,11.9721337890625,0.8101797800704836,2.1041133831769225,0.20710560399666428
1788957295227185000,11.982184814453126,0.6146431794449687,1.9047148464262484,-0.3587192570697516
1788957295237235000,11.99223486328125,-0.45780777313560245,1.7924749531686306,-0.625765827288106
1788957295247285000,12.002284912109374,-1.0414616478160024,1.5636585987538099,-0.9459761246781796
1788957295257335800,12.012335693359375,-0.8647244402065872,0.8644014918625355,-1.3516656611070037
1788957295267385900,12.0223857421875,-1.178717324386537,0.5449824909806251,-1.0416933376800268
1788957295277437000,12.03243701171875,-0.32024171544164415,-0.4249339697986841,-0.6411812038891017
1788957295287486700,12.04248681640625,0.060499184626340866,-0.8491957394242287,-0.4983444392506033
1788957295297536800,12.052536865234375,0.000625146161019802,-0.05152268196642398,-0.18931473043598235
1788957295307587800,12.062587890625,-0.0333946123406291,0.21231237885951995,-0.06412585069090128
1788957295317638000,12.072637939453125,-1.3963161192163824,0.6575123070955277,0.3231749924145639
1788957295327689000,12.08268896484375,-1.8987948087275026,1.629136740836501,0.963401525927335
1788957295337738800,12.09273876953125,-0.4861383800849318,1.2390151412218808,0.7192363573417067
1788957295347788800,12.102788818359375,0.11601590466499329,0.17086919235885142,0.24729060712978243
1788957295357840000,12.11283984375,0.6663137454494834,-0.3448573935210705,0.384791271437332
1788957295367890000,12.122889892578126,1.409055189280212,-0.9123574212580918,0.22007950572967527
1788957295377940000,12.13293994140625,1.0940922910243271,-1.5850328106939793,-0.2018028214134276
1788957295387991000,12.142990966796875,0.1903434158965945,-1.7526123138576746,-0.2772805255934596
1788957295398040800,12.153040771484376,-0.6164177879020571,-1.1430495064169168,-0.028711569090932604
1788957295408092000,12.163091796875,-0.7729393059566616,-0.6083008246809244,0.21845563085488973
1788957295418142000,12.173141845703125,-0.6259262054815888,-0.08409984044432639,0.3854752351135015
1788957295428192000,12.18319189453125,0.8943483018368482,0.253918646967411,0.3552108836226165
1788957295438242800,12.193242919921875,2.0478689333856104,-0.19096447040438652,-0.09872998495176434
1788957295448292900,12.20329296875,1.3684186429873109,-0.6394225236535072,-0.37769919428452847
1788957295458343700,12.21334375,0.7329930800154805,-0.651213499212265,-0.21252149156555533
1788957295468393700,12.223393798828125,0.2410264321684837,-0.20307517943680284,-0.11389642829298972
1788957295478443800,12.23344384765625,-1.5716016667127608,0.2328402031034231,0.12016951721310615
1788957295488494800,12.243494873046876,-2.548491473636031,0.8498901514291762,0.4529601869739592
1788957295498545000,12.253544921875,-1.7108982014611362,1.802740911117196,0.8185131625212728
1788957295508594700,12.2635947265625,-0.7460720495581626,2.1330127299249173,0.6394774687111378
1788957295518645800,12.273645751953126,0.33611177700757977,1.952750855320692,0.18322262410596013
1788957295528695800,12.28369580078125,1.658055376806855,0.8136457026153803,-0.22592764723598957
1788957295538747000,12.293746826171875,2.0339891688540574,-0.8777437885165214,-0.6473372423008084
1788957295548797000,12.303796875,0.32988515757769343,-1.7949521569371223,-0.4045570983327925
1788957295558847000,12.313846923828125,-1.4114227951943874,-1.7751994087189436,0.28108503244295713
1788957295568898000,12.32389794921875,-1.8593129854276775,-1.107457384032011,0.5053323253765702
1788957295578947800,12.33394775390625,-0.7280176296904682,-0.3341097895354032,0.20145430023670197
1788957295588999000,12.3439990234375,0.45819589567035435,-0.12352291929423809,-0.14204042662903665
1788957295599049000,12.354049072265624,1.1811834222391246,-0.15299217488467692,-0.2582762576550245
1788957295609099000,12.36409912109375,1.522969445490837,-0.5517576842039823,-0.33288200130611656
1788957295619149800,12.37414990234375,0.9836384044006466,-1.3718863190978765,-0.6538716125056148
1788957295629199600,12.38419970703125,0.031254093180596826,-1.2654787852555514,-0.4512720877565443
1788957295639250000,12.39425,-0.6526575605407356,-0.7034364384025334,0.04276332918852568
1788957295649300700,12.40430078125,0.2456114218711853,-0.041971594288945195,0.27710122350379823
1788957295659350800,12.414350830078124,1.0566010570198296,0.29693887352645393,0.29333237346708774
1788957295669401900,12.42440185546875,1.157609069906175,0.386712667953968,0.4960917649529874
1788957295679452000,12.434451904296875,1.9561177014052866,0.18213000656366346,0.584708206038922
1788957295689501700,12.444501708984374,1.4281386599346995,-0.2907809354186058,0.37835137458294626
1788957295699552800,12.454552734375,-0.6859682939901948,-0.8773159184932708,0.451098338624835
1788957295709602800,12.464602783203125,-1.0150283989205955,-0.9889812267333269,0.672253510762006
1788957295719654000,12.47465380859375,-0.35285657558143135,-0.8855956710606813,0.7038450192034245
1788957295729704000,12.484703857421875,-0.5377507861614227,-0.9106196376800536,0.8082898746706545
1788957295739754000,12.49475390625,-1.2309610141038894,-0.6941916401952505,1.008231870648265
1788957295749805000,12.50480517578125,-0.51021892837435,-0.3996814551204443,0.880836786095798
1788957295759854800,12.514854736328125,0.45983986348509787,-0.30179098973274227,0.3592899696297943
1788957295769905000,12.52490478515625,0.13476970497369767,-0.11903671379089355,-0.07976181124001741
1788957295779956000,12.5349560546875,-0.2620961082041263,0.05701718772947788,-0.35164383879080413
1788957295790006000,12.545006103515625,-0.4960442725494504,0.10347615656554698,-0.32514746153131124
1788957295800056800,12.555056884765625,-0.974935750246048,-0.039460488250851626,0.057374476734548804
1788957295810107000,12.56510693359375,-0.783641901756823,-0.3125087831020355,0.4924846803717315
1788957295820157000,12.575156982421875,-0.9349062299355864,-0.6056786594837904,0.5376490793526172
1788957295830207700,12.585207763671875,-1.808772300235927,-0.7572048534691334,0.5922171203643083
