time,seconds_elapsed,z,y,x
1788957283291095600,0.046095458984375,0.10265633463859558,-0.058713648468256,0.40573686361312866
1788957283301145600,0.0561455078125,0.5060216188430786,-0.24821700155735016,0.551794707775116
1788957283311196700,0.06619677734375,0.9616813063621521,-0.3028174042701721,0.8999561667442322
1788957283321246500,0.07624658203125,1.2526055574417114,-0.2614814043045044,1.1582279205322266
1788957283331296500,0.086296630859375,1.339738368988037,-0.1897808462381363,1.2680410146713257
1788957283341347300,0.096347412109375,1.3081610202789307,-0.11217234283685684,1.1929811239242554
1788957283351397600,0.106397705078125,1.2375190258026123,-0.06341759115457535,0.8015978932380676
1788957283361448400,0.116448486328125,1.0367355346679688,-0.16700336337089539,0.2522522211074829
1788957283371498500,0.12649853515625,0.7477504014968872,-0.4601500332355499,-0.23379305005073547
1788957283381548300,0.13654833984375,0.48589134216308594,-0.7835877537727356,-0.7137854695320129
1788957283391599400,0.146599365234375,0.2720853090286255,-0.5765544176101685,-1.0803229808807373
1788957283401649400,0.1566494140625,0.22204744815826416,-0.27328214049339294,-1.3453840017318726
1788957283411699500,0.166699462890625,0.2800223231315613,-0.1858348399400711,-1.4717965126037598
1788957283421750500,0.17675048828125,0.3796016573905945,-0.2921362519264221,-1.4365862607955933
1788957283431800300,0.18680029296875,0.5038248300552368,-0.6839919090270996,-1.2071094512939453
1788957283441851400,0.196851318359375,0.6351000070571899,-1.216927170753479,-0.7835903763771057
1788957283451901400,0.2069013671875,0.8837808966636658,-1.6277517080307007,-0.18758241832256317
1788957283461951500,0.216951416015625,1.3764244318008423,-1.4104111194610596,0.4515400230884552
1788957283472002600,0.22700244140625,1.790061593055725,-0.5087822675704956,1.0921647548675537
1788957283482052600,0.237052490234375,2.0605270862579346,-0.04170483723282814,1.7428288459777832
1788957283492102400,0.247102294921875,1.9810091257095337,0.8264409303665161,2.137441635131836
1788957283502153500,0.257153564453125,1.671342372894287,2.1913535594940186,2.213759183883667
1788957283512203500,0.26720361328125,1.4822568893432617,3.164114236831665,1.9753997325897217
1788957283522254600,0.277254638671875,1.8331984281539917,2.5628411769866943,1.0863087177276611
1788957283532304600,0.2873046875,2.159700393676758,1.6873886585235596,0.14252199232578278
1788957283542354700,0.297354736328125,2.1426000595092773,1.0695446729660034,-0.7029525637626648
1788957283552405500,0.307405517578125,1.9072047472000122,0.36041224002838135,-1.4109911918640137
1788957283562455300,0.317455322265625,1.5912041664123535,-0.2054239958524704,-2.014852523803711
1788957283572505600,0.327505615234375,1.4159364700317383,-0.9058271050453186,-2.4918925762176514
1788957283582556400,0.337556396484375,1.3794498443603516,-1.5110198259353638,-2.7884085178375244
1788957283592606500,0.3476064453125,1.4120501279830933,-1.7385107278823853,-2.926868438720703
1788957283602657500,0.357657470703125,1.4922817945480347,-1.9118356704711914,-2.973558187484741
1788957283612707300,0.367707275390625,1.5460795164108276,-2.028590440750122,-3.004810333251953
1788957283622757400,0.37775732421875,1.5494962930679321,-1.9740526676177979,-3.038090229034424
1788957283632808400,0.387808349609375,1.4922248125076294,-1.7430458068847656,-3.0228633880615234
1788957283642858500,0.3978583984375,1.4559863805770874,-1.4005897045135498,-2.9758591651916504
1788957283652908500,0.407908447265625,1.4279332160949707,-0.7565736770629883,-2.9305055141448975
1788957283662959600,0.417959716796875,1.2871153354644775,0.599528968334198,-2.819005012512207
1788957283673009400,0.428009521484375,1.1315432786941528,0.4430996775627136,-2.0595433712005615
1788957283683060500,0.438060546875,1.211906909942627,-1.2859041690826416,-1.0269279479980469
1788957283693110500,0.448110595703125,1.8667683601379395,-0.054914381355047226,-0.3637760877609253
1788957283703160600,0.45816064453125,2.492617130279541,1.3541455268859863,-0.18220442533493042
1788957283713211600,0.468211669921875,2.649533748626709,1.6100441217422485,0.18226754665374756
1788957283723261700,0.47826171875,2.4012715816497803,1.6961523294448853,0.7557206749916077
1788957283733311500,0.4883115234375,2.0322742462158203,1.4578883647918701,1.4313346147537231
1788957283743362300,0.4983623046875,1.69645094871521,1.3291112184524536,2.1777117252349854
1788957283753412600,0.50841259765625,1.3458784818649292,1.3869342803955078,3.0159168243408203
1788957283763463400,0.51846337890625,0.8229026794433594,1.6911797523498535,3.8213999271392822
1788957283773513500,0.528513427734375,0.2653096914291382,2.193680763244629,4.5675787925720215
1788957283783563300,0.538563232421875,-0.17140424251556396,2.330409049987793,5.349052429199219
1788957283793614300,0.5486142578125,-0.48809298872947693,2.359248161315918,6.145087242126465
1788957283803664400,0.558664306640625,-0.7586789131164551,2.3145430088043213,6.891264915466309
1788957283813714400,0.56871435546875,-1.0464316606521606,2.4589147567749023,7.534265518188477
1788957283823765500,0.578765625,-1.4045082330703735,2.8467824459075928,8.08919620513916
1788957283833815600,0.588815673828125,-1.8518162965774536,3.4118547439575195,8.522485733032227
1788957283843866600,0.59886669921875,-2.292613983154297,4.069209575653076,8.788731575012207
1788957283853916400,0.60891650390625,-2.7407069206237793,4.464824199676514,8.851789474487305
1788957283863966500,0.618966552734375,-3.3075990676879883,4.650430202484131,8.732902526855469
1788957283874017500,0.629017578125,-4.014499187469482,4.740562915802002,8.474414825439453
1788957283884067600,0.639067626953125,-4.861645221710205,4.668506622314453,8.085125923156738
1788957283894118700,0.64911865234375,-5.761031150817871,4.327143669128418,7.804849624633789
1788957283904168400,0.65916845703125,-6.567588806152344,3.482485771179199,7.531292915344238
1788957283914218500,0.669218505859375,-7.340700626373291,1.34609055519104,7.5742669105529785
1788957283924269300,0.679269287109375,-7.8498992919921875,0.5682684779167175,7.331753730773926
1788957283934319600,0.689319580078125,-7.894710063934326,-1.0933821201324463,6.853100776672363
1788957283944369700,0.69936962890625,-7.408989906311035,-2.1904187202453613,6.151613235473633
1788957283954420500,0.70942041015625,-6.410568714141846,-2.8015575408935547,5.201793670654297
1788957283964470300,0.71947021484375,-5.374984264373779,-3.418032169342041,4.030014514923096
1788957283974520300,0.729520263671875,-4.799943923950195,-4.102005481719971,2.659712791442871
1788957283984571400,0.7395712890625,-4.8515167236328125,-4.754093170166016,1.2670785188674927
1788957283994621400,0.749621337890625,-5.174204349517822,-4.865176200866699,0.12643730640411377
1788957284004672500,0.759672607421875,-5.363956928253174,-4.532561302185059,-0.44143280386924744
1788957284014722600,0.76972265625,-5.10598087310791,-4.105072975158691,-0.510472297668457
1788957284024772400,0.7797724609375,-4.486942291259766,-3.9218180179595947,-0.3302386403083801
1788957284034823400,0.789823486328125,-3.7734832763671875,-4.015816688537598,-0.2024063616991043
1788957284044873500,0.79987353515625,-3.0552375316619873,-3.841198205947876,-0.2957850396633148
1788957284054924500,0.809924560546875,-2.316366672515869,-3.4507791996002197,-0.6452003121376038
1788957284064974600,0.819974609375,-1.5912061929702759,-2.974310874938965,-1.1419868469238281
1788957284075024400,0.8300244140625,-0.9495639204978943,-2.3284659385681152,-1.6477714776992798
1788957284085075500,0.840075439453125,-0.4891590476036072,-1.6317459344863892,-2.0907106399536133
1788957284095125500,0.85012548828125,-0.19620439410209656,-0.7358468770980835,-2.7757019996643066
1788957284105175600,0.860175537109375,-0.18131598830223083,-0.11010599881410599,-3.601905584335327
1788957284115226600,0.8702265625,-0.1620142012834549,0.3301536738872528,-4.5052995681762695
1788957284125277000,0.88027685546875,0.16941966116428375,0.35715600848197937,-4.872671604156494
1788957284135327000,0.890326904296875,0.5680280327796936,0.7738504409790039,-5.151723384857178
1788957284145377800,0.900377685546875,1.0081220865249634,0.7112629413604736,-4.883152008056641
1788957284155427800,0.910427734375,1.6122022867202759,0.6096002459526062,-4.447826862335205
1788957284165479000,0.92047900390625,1.978662371635437,0.3007443845272064,-3.5417709350585938
1788957284175528700,0.93052880859375,2.0493927001953125,0.3561285436153412,-1.9848285913467407
1788957284185578800,0.940578857421875,1.2969626188278198,0.6262143850326538,-0.1443430632352829
1788957284195629800,0.9506298828125,0.3569701015949249,0.46905162930488586,1.8327418565750122
1788957284205679900,0.960679931640625,-0.632183313369751,1.2564796209335327,2.8357949256896973
1788957284215731000,0.97073095703125,-1.1138074398040771,1.6247016191482544,2.987025499343872
1788957284225781000,0.980781005859375,-1.1253492832183838,2.1430740356445312,2.3351142406463623
1788957284235830800,0.990830810546875,-1.1841756105422974,1.8672471046447754,1.7574282884597778
1788957284245881900,1.0008818359375,-1.3557689189910889,1.1087799072265625,1.3186242580413818
1788957284255932000,1.010931884765625,-1.1293723583221436,0.48560264706611633,0.6893757581710815
1788957284265982000,1.02098193359375,-0.37849217653274536,0.009909089654684067,-0.18796084821224213
1788957284276033000,1.031032958984375,0.35687848925590515,-1.2073272466659546,-1.2664852142333984
1788957284286082800,1.041082763671875,0.7359430193901062,-2.211073398590088,-2.385878086090088
1788957284296133600,1.051133544921875,0.7713212370872498,-1.9378979206085205,-3.8831701278686523
1788957284306184000,1.061183837890625,0.47860386967658997,-1.1678435802459717,-5.380953788757324
1788957284316234000,1.07123388671875,0.14985421299934387,-0.34151872992515564,-6.664637088775635
1788957284326284800,1.081284912109375,-0.28368842601776123,0.8762004971504211,-7.111728668212891
1788957284336334800,1.0913349609375,-0.5255151987075806,1.6542893648147583,-6.34848165512085
1788957284346384600,1.101384521484375,-0.2868107259273529,1.3032269477844238,-5.2715559005737305
1788957284356435700,1.111435791015625,0.4455606937408447,0.49736928939819336,-4.06365442276001
1788957284366485800,1.12148583984375,1.3159773349761963,-0.20762217044830322,-2.204989433288574
1788957284376536800,1.131536865234375,2.217608690261841,-0.4649258852005005,-0.3318501114845276
1788957284386587000,1.1415869140625,2.9701454639434814,-0.38908544182777405,0.832504153251648
1788957284396637000,1.151636962890625,3.303849697113037,-0.3610239624977112,0.8987321853637695
1788957284406688000,1.16168798828125,2.267564535140991,0.6088329553604126,0.5447953939437866
1788957284416737800,1.17173779296875,1.0110821723937988,2.2763285636901855,-0.09899076074361801
1788957284426787800,1.181787841796875,0.13850274682044983,4.801222324371338,-0.8084214329719543
1788957284436839000,1.1918388671875,0.068675197660923,5.97596549987793,-1.2527501583099365
1788957284446889000,1.201888916015625,1.0010089874267578,5.226006031036377,-1.3116472959518433
1788957284456940000,1.21193994140625,2.687168598175049,3.6178834438323975,-1.172625184059143
1788957284466989800,1.22198974609375,4.3561601638793945,2.40309476852417,-1.0941991806030273
1788957284477039900,1.232039794921875,5.458542346954346,2.439350128173828,-1.0838557481765747
1788957284487091000,1.242091064453125,5.716562747955322,1.5593894720077515,-1.2528058290481567
1788957284497141000,1.25214111328125,4.5894927978515625,1.7138019800186157,-1.4699722528457642
1788957284507191800,1.26219189453125,3.4014527797698975,2.222637891769409,-1.2949104309082031
1788957284517241900,1.272241943359375,3.5616540908813477,1.7585151195526123,-0.368952214717865
1788957284527291600,1.282291748046875,3.766063690185547,0.9139790534973145,0.6360339522361755
1788957284537342700,1.2923427734375,3.912210464477539,0.8470266461372375,1.483202576637268
1788957284547392800,1.302392822265625,5.033927917480469,0.47842729091644287,1.7476768493652344
1788957284557442800,1.31244287109375,5.824564456939697,0.5821643471717834,1.4126695394515991
1788957284567494000,1.322493896484375,7.05012321472168,0.9977452754974365,1.2280216217041016
1788957284577544000,1.3325439453125,8.125173568725586,1.2316642999649048,1.459089994430542
1788957284587594800,1.3425947265625,8.793850898742676,0.6779952645301819,1.9286469221115112
1788957284597644800,1.352644775390625,9.133625030517578,0.010637996718287468,2.496041774749756
1788957284607694800,1.36269482421875,8.844889640808105,0.08590132743120193,2.840139389038086
1788957284617746000,1.372745849609375,7.278273105621338,0.8869788646697998,2.9554007053375244
1788957284627796000,1.3827958984375,5.885475158691406,0.11022743582725525,2.0268685817718506
1788957284637845800,1.392845703125,4.206918239593506,-2.0203616619110107,1.1723240613937378
1788957284647896800,1.402896728515625,2.7139320373535156,-2.768066644668579,0.8439943790435791
1788957284657947000,1.41294677734375,1.7090686559677124,-2.964508056640625,0.9224004745483398
1788957284667998000,1.422998046875,1.0573137998580933,-2.8031771183013916,1.1706461906433105
1788957284678048000,1.433048095703125,0.739171028137207,-3.3939599990844727,1.3725343942642212
1788957284688098000,1.44309814453125,0.4934443235397339,-4.177969455718994,1.386595368385315
1788957284698148900,1.45314892578125,-0.17700673639774323,-4.051086902618408,1.6516573429107666
1788957284708199000,1.463198974609375,-0.6632213592529297,-4.282062530517578,1.9806232452392578
1788957284718249000,1.4732490234375,-0.7408698201179504,-5.149084568023682,2.2546379566192627
1788957284728299800,1.4832998046875,-0.5532631874084473,-6.3524861335754395,2.4592700004577637
1788957284738349800,1.493349853515625,-0.9436572790145874,-7.717907905578613,2.517484188079834
1788957284748401000,1.50340087890625,-1.0440232753753662,-8.050938606262207,2.6255218982696533
1788957284758450700,1.51345068359375,-1.0534764528274536,-7.792843341827393,2.757859230041504
1788957284768500700,1.523500732421875,-1.0000838041305542,-7.722144603729248,2.6183807849884033
1788957284778551800,1.5335517578125,-0.7603367567062378,-6.954652786254883,1.7797993421554565
1788957284788601900,1.543601806640625,0.4317641854286194,-6.017942905426025,0.6675130724906921
1788957284798653000,1.55365283203125,0.5059004426002502,-3.6347999572753906,-0.6725941300392151
1788957284808703000,1.563702880859375,0.38875386118888855,-1.1651151180267334,0.0992211252450943
1788957284818752800,1.573752685546875,-0.040586840361356735,-0.350606232881546,1.7569468021392822
1788957284828803800,1.583803955078125,0.08911203593015671,-0.6634219288825989,2.0356638431549072
1788957284838854000,1.59385400390625,0.009410546161234379,-0.5965172052383423,1.7423824071884155
1788957284848904000,1.603904052734375,-0.2335328608751297,-1.1441947221755981,1.3031140565872192
1788957284858955000,1.613955078125,-0.7912938594818115,-2.2318918704986572,0.38691869378089905
1788957284869005000,1.624005126953125,-1.5051169395446777,-3.2040793895721436,-0.38903510570526123
1788957284879056000,1.634055908203125,-1.677794098854065,-3.5863265991210938,-0.6719118356704712
1788957284889106000,1.64410595703125,-1.534824252128601,-3.4572091102600098,-0.4543669819831848
1788957284899156000,1.654156005859375,-1.4121710062026978,-1.3833715915679932,0.11139097064733505
1788957284909206800,1.664206787109375,-1.0877143144607544,1.4907128810882568,0.7221169471740723
1788957284919256800,1.6742568359375,-0.5313280820846558,2.359495162963867,0.5506461262702942
1788957284929306600,1.684306640625,-0.22966141998767853,2.1866517066955566,0.17354223132133484
1788957284939357700,1.694357666015625,0.010479805059731007,1.747410535812378,-0.2806098163127899
1788957284949407700,1.70440771484375,0.13215351104736328,1.815482497215271,-0.7793192267417908
1788957284959458800,1.714458740234375,0.28734734654426575,1.890641689300537,-1.2543739080429077
1788957284969508900,1.7245087890625,0.47423920035362244,1.9848898649215698,-1.5603383779525757
1788957284979559000,1.734558837890625,0.5972253084182739,1.9770269393920898,-1.6135520935058594
1788957284989610000,1.74460986328125,0.47775033116340637,1.7102199792861938,-1.5361957550048828
1788957284999659800,1.75465966796875,0.17589299380779266,1.4492826461791992,-1.3532509803771973
1788957285009709800,1.764709716796875,-0.39527061581611633,1.2087666988372803,-0.9711440801620483
1788957285019761000,1.774760986328125,-0.7894487977027893,0.8647345304489136,-0.7988628149032593
1788957285029811000,1.78481103515625,-0.6606826186180115,0.021678131073713303,-0.5415005683898926
1788957285039862000,1.794862060546875,-0.20218318700790405,-1.1594918966293335,-0.2568509578704834
1788957285049912000,1.804912109375,0.0173246618360281,-2.351198434829712,-0.3276026248931885
1788957285059961900,1.8149619140625,0.1159638836979866,-1.712607502937317,0.10279082506895065
1788957285070013000,1.825012939453125,0.2705422639846802,0.4127372205257416,1.312340497970581
1788957285080063000,1.83506298828125,0.5437900424003601,-0.4879683256149292,1.1258798837661743
1788957285090113800,1.84511376953125,0.8625299334526062,-2.2152833938598633,0.6945343017578125
1788957285100163800,1.855163818359375,1.1766362190246582,-3.3955416679382324,0.4068641662597656
1788957285110213600,1.865213623046875,1.2447564601898193,-4.115365028381348,0.2301996499300003
1788957285120264700,1.8752646484375,1.2089850902557373,-4.32407808303833,0.2855561077594757
1788957285130314500,1.885314453125,1.2571794986724854,-3.7379026412963867,0.5568294525146484
1788957285140364500,1.895364501953125,1.3161762952804565,-2.2614328861236572,0.8345843553543091
1788957285150415600,1.90541552734375,1.30471932888031,-0.7599180936813354,1.0712759494781494
1788957285160465700,1.915465576171875,1.1800251007080078,0.0623033232986927,1.1957364082336426
1788957285170516700,1.925516845703125,0.7925921678543091,-0.8231255412101746,0.32333678007125854
1788957285180566500,1.93556640625,0.32348936796188354,-2.6225204467773438,-0.5810913443565369
1788957285190616600,1.945616455078125,0.32931503653526306,-2.7342355251312256,0.12794332206249237
1788957285200667600,1.955667724609375,0.22922493517398834,-1.1126258373260498,0.6025494933128357
1788957285210717700,1.9657177734375,-0.08582142740488052,-0.044022586196660995,0.34956812858581543
1788957285220767700,1.975767822265625,-0.23780857026576996,0.2668359577655792,0.06255019456148148
1788957285230818800,1.98581884765625,-0.27781322598457336,0.22677908837795258,-0.09417176991701126
1788957285240868600,1.99586865234375,-0.2268480658531189,0.07594722509384155,-0.11393722146749496
1788957285250919700,2.005919677734375,-0.032755814492702484,-0.12337439507246017,0.0036546560004353523
1788957285260969700,2.0159697265625,0.22886087000370026,-0.3069074749946594,0.16555620729923248
1788957285271019800,2.026019775390625,0.3442907929420471,-0.45964962244033813,0.23114827275276184
1788957285281070600,2.036070556640625,0.35114923119544983,-0.5954841375350952,0.20033229887485504
1788957285291120600,2.04612060546875,0.39130890369415283,-0.5731202363967896,0.16549016535282135
1788957285301171500,2.05617138671875,0.4493192136287689,-0.5376133918762207,0.1475045084953308
1788957285311221500,2.066221435546875,0.5082501769065857,-0.5193092226982117,0.1862092912197113
1788957285321271600,2.076271484375,0.5273570418357849,-0.5774518847465515,0.3345569372177124
1788957285331322600,2.086322509765625,0.4494915306568146,-0.7218729853630066,0.5804916024208069
1788957285341372700,2.09637255859375,0.33396679162979126,-0.8128782510757446,0.7886842489242554
1788957285351422500,2.10642236328125,0.21496343612670898,-0.8841668367385864,0.8537058234214783
1788957285361473500,2.1164736328125,0.13262063264846802,-0.8464037179946899,0.8520885109901428
1788957285371523600,2.126523681640625,0.10488247126340866,-0.7493584156036377,0.8552542328834534
1788957285381574700,2.13657470703125,0.08626777678728104,-0.6846047043800354,0.8442153930664062
1788957285391624700,2.146624755859375,0.09052031487226486,-0.7008411884307861,0.8354040384292603
1788957285401674800,2.1566748046875,0.11108390986919403,-0.7234900593757629,0.8651531934738159
1788957285411725800,2.166725830078125,0.13697808980941772,-0.6325609683990479,0.9369999170303345
1788957285421775600,2.176775634765625,0.1394929140806198,-0.4467673599720001,0.9798004031181335
1788957285431826700,2.18682666015625,0.12269342690706253,-0.2799815833568573,0.9416301250457764
1788957285441876700,2.196876708984375,0.13368429243564606,-0.29730838537216187,0.8355166912078857
1788957285451926800,2.2069267578125,0.1324179619550705,-0.4277992844581604,0.7191150188446045
1788957285461977600,2.2169775390625,0.13053829967975616,-0.4972233474254608,0.694715678691864
1788957285472027600,2.227027587890625,0.16430479288101196,-0.49426138401031494,0.7560544013977051
1788957285482077700,2.23707763671875,0.22654525935649872,-0.4741846024990082,0.8586379885673523
1788957285492128500,2.24712841796875,0.29647135734558105,-0.47223997116088867,0.9632294178009033
1788957285502178600,2.257178466796875,0.363425076007843,-0.4955093562602997,1.0239489078521729
1788957285512229600,2.267229736328125,0.3860073685646057,-0.4618573784828186,0.9805082678794861
1788957285522279700,2.27727978515625,0.342276394367218,-0.3788354694843292,0.8590755462646484
1788957285532329500,2.28732958984375,0.3076654076576233,-0.31834283471107483,0.6771140098571777
1788957285542380500,2.297380615234375,0.2682458460330963,-0.22553591430187225,0.46298256516456604
1788957285552430600,2.3074306640625,0.169308602809906,-0.06688635796308517,0.24852299690246582
1788957285562480600,2.317480712890625,0.0875740572810173,0.06482081115245819,0.1584644764661789
1788957285572531700,2.32753173828125,0.053225405514240265,0.07196393609046936,0.15276052057743073
1788957285582581800,2.337581787109375,0.04337463900446892,0.017473531886935234,0.1097688376903534
1788957285592632600,2.347632568359375,0.02069915272295475,-0.024225711822509766,0.05137583985924721
1788957285602682600,2.3576826171875,-0.024404142051935196,-0.039913326501846313,0.05482596531510353
1788957285612732700,2.367732666015625,-0.048050083220005035,-0.04030188173055649,0.10225047171115875
1788957285622783700,2.37778369140625,-0.041126929223537445,-0.0152561841532588,0.18318739533424377
1788957285632833800,2.387833740234375,0.0008426241693086922,-0.023673903197050095,0.279031902551651
1788957285642884600,2.397884521484375,0.05044879391789436,-0.04050081968307495,0.3545264005661011
1788957285652934700,2.4079345703125,0.09706316888332367,-0.10854565352201462,0.3648352324962616
1788957285662984700,2.417984619140625,0.1415155827999115,-0.11204371601343155,0.3380938768386841
1788957285673035500,2.428035400390625,0.18175674974918365,-0.07197325676679611,0.289381206035614
1788957285683085600,2.43808544921875,0.16230767965316772,-0.09054827690124512,0.14747707545757294
1788957285693135600,2.448135498046875,0.06957508623600006,-0.11505068838596344,-0.05746062844991684
1788957285703186700,2.458186767578125,-0.008816927671432495,-0.08592236787080765,-0.24923299252986908
1788957285713236500,2.468236572265625,0.00890827365219593,-0.08115370571613312,-0.40754592418670654
1788957285723287600,2.47828759765625,0.10146217793226242,-0.06909678131341934,-0.493211567401886
1788957285733337600,2.488337646484375,0.15808044373989105,-0.03848933428525925,-0.4890384078025818
1788957285743387600,2.4983876953125,0.12261912971735,-0.01798911951482296,-0.47959616780281067
1788957285753438700,2.508438720703125,0.04026486352086067,-0.029879068955779076,-0.491303414106369
1788957285763488800,2.51848876953125,-0.0479547418653965,-0.0639888346195221,-0.5095721483230591
1788957285773539600,2.52853955078125,-0.09200821816921234,-0.051599279046058655,-0.5317832231521606
1788957285783589600,2.538589599609375,-0.10093460232019424,-0.052025116980075836,-0.5572254657745361
1788957285793639700,2.5486396484375,-0.14169535040855408,-0.058575961738824844,-0.612160325050354
1788957285803690800,2.558690673828125,-0.21201904118061066,0.0014215953415259719,-0.6496432423591614
1788957285813740800,2.56874072265625,-0.2516178488731384,0.021750569343566895,-0.6588010787963867
1788957285823790600,2.57879052734375,-0.26210591197013855,-0.014246580190956593,-0.6454067230224609
1788957285833841700,2.588841552734375,-0.25193795561790466,-0.0002695118892006576,-0.601098358631134
1788957285843891700,2.5988916015625,-0.2127263844013214,0.013428989797830582,-0.49795252084732056
1788957285853942500,2.608942626953125,-0.15314587950706482,0.05824519693851471,-0.36107563972473145
1788957285863992600,2.61899267578125,-0.09265643358230591,0.11435240507125854,-0.26228779554367065
1788957285874042600,2.629042724609375,-0.07160893827676773,0.12106410413980484,-0.2593170404434204
1788957285884093700,2.63909375,-0.07011117786169052,0.13279186189174652,-0.34622958302497864
1788957285894143500,2.6491435546875,-0.11522965133190155,0.18985968828201294,-0.4332699477672577
1788957285904193500,2.659193603515625,-0.10846708714962006,0.2713982164859772,-0.42882564663887024
1788957285914244600,2.66924462890625,-0.08394709974527359,0.2921428978443146,-0.35548433661460876
1788957285924294700,2.679294677734375,-0.07433868199586868,0.270212858915329,-0.2958473563194275
1788957285934345700,2.689345703125,-0.06702324002981186,0.2501714825630188,-0.2698509097099304
1788957285944395500,2.6993955078125,-0.06024469807744026,0.1957804262638092,-0.230127215385437
1788957285954445600,2.709445556640625,-0.024594292044639587,0.060876667499542236,-0.20696383714675903
1788957285964496600,2.71949658203125,0.03307672590017319,-0.12046782672405243,-0.2567566931247711
1788957285974546700,2.729546630859375,0.058215104043483734,-0.2613075077533722,-0.35206669569015503
1788957285984597800,2.73959765625,-0.00785818975418806,-0.2812226116657257,-0.4012742042541504
1788957285994647800,2.749647705078125,-0.0974637046456337,-0.1733986884355545,-0.331672728061676
1788957286004697600,2.759697509765625,-0.12194295227527618,-0.09053389728069305,-0.1938064843416214
1788957286014748700,2.769748779296875,-0.1225096732378006,-0.03994714841246605,-0.10456395894289017
1788957286024798700,2.779798828125,-0.14150147140026093,-0.0002463423879817128,-0.09437550604343414
1788957286034848800,2.789848876953125,-0.17090409994125366,-0.010842793621122837,-0.16060379147529602
1788957286044899600,2.799899658203125,-0.19904519617557526,-0.11492844671010971,-0.3154442310333252
1788957286054950000,2.809949951171875,-0.2284584790468216,-0.24571841955184937,-0.5281586647033691
1788957286065000400,2.82000048828125,-0.22938817739486694,-0.2610880434513092,-0.6733224987983704
1788957286075050500,2.830050537109375,-0.1911395937204361,-0.16581639647483826,-0.6293662190437317
1788957286085100500,2.8401005859375,-0.15942268073558807,-0.09507671743631363,-0.48434776067733765
1788957286095151600,2.850151611328125,-0.13896134495735168,-0.07582312822341919,-0.38559404015541077
1788957286105201700,2.86020166015625,-0.11069269478321075,-0.04561781883239746,-0.3035082221031189
1788957286115252200,2.870252197265625,-0.06009236350655556,-0.08595618605613708,-0.18268565833568573
1788957286125302000,2.880302001953125,0.029263347387313843,-0.17038771510124207,-0.02925269305706024
1788957286135352000,2.89035205078125,0.1581648737192154,-0.21578608453273773,0.10308297723531723
1788957286145403100,2.900403076171875,0.1761590540409088,-0.13212049007415771,0.22412550449371338
1788957286155453200,2.910453125,0.10928121954202652,0.04857286065816879,0.3473241329193115
1788957286165503200,2.920503173828125,0.012859606184065342,0.2578057050704956,0.49606433510780334
1788957286175554000,2.930553955078125,-0.07018361240625381,0.42799049615859985,0.6118381023406982
1788957286185604000,2.94060400390625,-0.08361739665269852,0.523025393486023,0.6082372069358826
1788957286195655200,2.9506552734375,-0.11053317040205002,0.5433154702186584,0.512489378452301
1788957286205705200,2.960705322265625,-0.16694983839988708,0.5126507878303528,0.37165316939353943
1788957286215755300,2.97075537109375,-0.19340701401233673,0.4931439161300659,0.26532861590385437
1788957286225806300,2.980806396484375,-0.13864842057228088,0.4322206676006317,0.23361115157604218
1788957286235856100,2.990856201171875,0.004885302856564522,0.35006558895111084,0.20806638896465302
1788957286245907000,3.000906982421875,0.1532321572303772,0.28068387508392334,0.1231328472495079
1788957286255957200,3.010957275390625,0.2447194755077362,0.2538621127605438,0.02052391692996025
1788957286266007300,3.02100732421875,0.29167819023132324,0.2106778770685196,-0.0031182952225208282
1788957286276058000,3.03105810546875,0.3112444281578064,0.11646535992622375,0.03086017817258835
1788957286286108200,3.041108154296875,0.33574631810188293,0.054728757590055466,0.10526224225759506
1788957286296158000,3.051157958984375,0.36499208211898804,0.036317527294158936,0.1655104011297226
1788957286306209000,3.061208984375,0.365477055311203,0.06625358760356903,0.17896363139152527
1788957286316259000,3.071259033203125,0.36432361602783203,0.14059600234031677,0.18732941150665283
1788957286326310100,3.08131005859375,0.39882275462150574,0.20079834759235382,0.30831441283226013
1788957286336360200,3.091360107421875,0.47489407658576965,0.23473501205444336,0.42432597279548645
1788957286346410000,3.101409912109375,0.5459698438644409,0.25474920868873596,0.4498094916343689
1788957286356461000,3.1114609375,0.5919184684753418,0.2600683271884918,0.39974474906921387
1788957286366511000,3.121510986328125,0.596318781375885,0.2700946033000946,0.3466399610042572
1788957286376561200,3.13156103515625,0.5741093754768372,0.3013705015182495,0.3096638321876526
1788957286386612200,3.1416123046875,0.5652018785476685,0.35626810789108276,0.28608715534210205
1788957286396662300,3.151662353515625,0.5923442840576172,0.3725149929523468,0.2675078809261322
1788957286406713300,3.16171337890625,0.6147337555885315,0.3187473714351654,0.1587720662355423
1788957286416763100,3.17176318359375,0.5411508679389954,0.27464380860328674,-0.07067710161209106
1788957286426813200,3.181813232421875,0.4487018883228302,0.3347497582435608,-0.2766880393028259
1788957286436864300,3.1918642578125,0.36079466342926025,0.3148311674594879,-0.32418206334114075
1788957286446914300,3.201914306640625,0.36189135909080505,0.13737836480140686,-0.21787533164024353
1788957286456965000,3.211965087890625,0.4366401731967926,0.15156182646751404,-0.014159761369228363
1788957286467015200,3.22201513671875,0.4937143623828888,0.219540074467659,0.12270594388246536
1788957286477065000,3.23206494140625,0.46446967124938965,0.24011273682117462,0.07698453217744827
1788957286487116000,3.242115966796875,0.33891066908836365,0.3098798394203186,-0.17407885193824768
1788957286497166000,3.252166015625,0.16922125220298767,0.2607538402080536,-0.4635458290576935
1788957286507216100,3.262216064453125,0.07643618434667587,0.15701065957546234,-0.6372774243354797
1788957286517267200,3.27226708984375,0.11654844880104065,0.07103316485881805,-0.6022014617919922
1788957286527317000,3.28231689453125,0.21777094900608063,0.048158738762140274,-0.40984025597572327
1788957286537368000,3.2923681640625,0.29864394664764404,0.033785659819841385,-0.14550472795963287
1788957286547418000,3.302418212890625,0.2996399700641632,-0.054791875183582306,0.07712434232234955
1788957286557468200,3.31246826171875,0.24707584083080292,-0.17667250335216522,0.21129946410655975
1788957286567519200,3.322519287109375,0.2083798348903656,-0.2930297553539276,0.261438250541687
1788957286577569300,3.3325693359375,0.20661655068397522,-0.36873117089271545,0.2275300920009613
1788957286587619000,3.342619140625,0.20832523703575134,-0.3645068407058716,0.129842147231102
1788957286597670100,3.352670166015625,0.18997979164123535,-0.30365869402885437,0.07967059314250946
1788957286607720200,3.36272021484375,0.19324509799480438,-0.3376004099845886,0.05932244658470154
1788957286617771300,3.372771240234375,0.18558743596076965,-0.405195951461792,-0.01426655426621437
1788957286627821300,3.3828212890625,0.18694059550762177,-0.4114338755607605,-0.0988975539803505
1788957286637871400,3.392871337890625,0.2012404352426529,-0.45991700887680054,-0.14615455269813538
1788957286647922000,3.402921875,0.18195834755897522,-0.520258903503418,-0.19023838639259338
1788957286657972200,3.41297216796875,0.16471119225025177,-0.5042101740837097,-0.28431323170661926
1788957286668023000,3.42302294921875,0.18970735371112823,-0.44879376888275146,-0.39590713381767273
1788957286678073000,3.433072998046875,0.19558654725551605,-0.38014867901802063,-0.42779234051704407
1788957286688123100,3.443123046875,0.15410195291042328,-0.35590511560440063,-0.2879255414009094
1788957286698174200,3.45317431640625,0.1703174114227295,-0.43650487065315247,-0.05332900211215019
1788957286708224000,3.46322412109375,0.20348121225833893,-0.5245295166969299,0.1468091458082199
1788957286718274000,3.473274169921875,0.19595618546009064,-0.5911261439323425,0.21955153346061707
1788957286728325000,3.4833251953125,0.12046383321285248,-0.5897570252418518,0.22639772295951843
1788957286738375200,3.493375244140625,0.027601800858974457,-0.6040328741073608,0.20153045654296875
1788957286748426200,3.50342626953125,-0.019448798149824142,-0.6981982588768005,0.14715881645679474
1788957286758476300,3.513476318359375,-0.015965383499860764,-0.7826026082038879,0.0336943157017231
1788957286768526000,3.523526123046875,0.007515174336731434,-0.7736616134643555,-0.09558644145727158
1788957286778577200,3.5335771484375,0.023841416463255882,-0.6981756091117859,-0.21003152430057526
1788957286788627200,3.543627197265625,0.04842425882816315,-0.5928300619125366,-0.25446823239326477
1788957286798678300,3.55367822265625,0.10147549211978912,-0.52325040102005,-0.19967156648635864
1788957286808728300,3.563728271484375,0.17434677481651306,-0.5897396802902222,-0.13778769969940186
1788957286818778000,3.573778076171875,0.2102762758731842,-0.6745930910110474,-0.14334890246391296
1788957286828829000,3.583828857421875,0.20181088149547577,-0.6824547052383423,-0.11780546605587006
1788957286838879200,3.593879150390625,0.18278659880161285,-0.630385160446167,-0.02305019088089466
1788957286848929300,3.60392919921875,0.16295483708381653,-0.5547012686729431,0.05976506322622299
1788957286858980000,3.61397998046875,0.12935931980609894,-0.4601316452026367,0.1187644675374031
1788957286869030100,3.624030029296875,0.10001767426729202,-0.4321564733982086,0.12333658337593079
1788957286879081200,3.634081298828125,0.06816254556179047,-0.42827358841896057,0.07997472584247589
1788957286889131000,3.644131103515625,0.03899666666984558,-0.43082383275032043,0.05487256869673729
1788957286899181000,3.65418115234375,0.040645696222782135,-0.43504148721694946,0.08096515387296677
1788957286909232000,3.664232177734375,0.0713796392083168,-0.4228804111480713,0.09140607714653015
1788957286919282200,3.6742822265625,0.11488983035087585,-0.37301138043403625,0.0927877277135849
1788957286929332200,3.684332275390625,0.16328001022338867,-0.35634666681289673,0.1425504833459854
1788957286939383300,3.69438330078125,0.1894245147705078,-0.32930412888526917,0.1687788963317871
1788957286949433000,3.70443310546875,0.2003117948770523,-0.3476703464984894,0.13712510466575623
1788957286959484200,3.714484130859375,0.21463772654533386,-0.3793683648109436,0.1038086861371994
1788957286969534200,3.7245341796875,0.20375818014144897,-0.42867493629455566,0.09998118877410889
1788957286979584300,3.734584228515625,0.18089868128299713,-0.4266871511936188,0.15277276933193207
1788957286989635300,3.74463525390625,0.15783223509788513,-0.3367269039154053,0.29642900824546814
1788957286999685000,3.75468505859375,0.14375050365924835,-0.22757697105407715,0.44129884243011475
1788957287009736000,3.76473583984375,0.15614059567451477,-0.18208298087120056,0.4660550653934479
1788957287019786200,3.7747861328125,0.15742318332195282,-0.21161264181137085,0.3985481858253479
1788957287029836300,3.784836181640625,0.11740226298570633,-0.1914655715227127,0.36594629287719727
1788957287039887000,3.79488720703125,0.06496009230613708,-0.09778381884098053,0.3996717631816864
1788957287049937200,3.804937255859375,0.02135748602449894,0.0002993392990902066,0.42307189106941223
1788957287059987000,3.814987060546875,0.01025769766420126,-0.021944712847471237,0.43043527007102966
1788957287070038000,3.8250380859375,0.007316235918551683,-0.11689625680446625,0.410756379365921
1788957287080088000,3.835088134765625,-0.060387175530195236,-0.10278523713350296,0.40236610174179077
1788957287090139100,3.84513916015625,-0.1378774344921112,-0.03809811547398567,0.45097091794013977
1788957287100189200,3.855189208984375,-0.18360072374343872,0.007475226651877165,0.5401500463485718
1788957287110239200,3.8652392578125,-0.19558042287826538,0.009165534749627113,0.569574236869812
1788957287120290600,3.87529052734375,-0.222116157412529,-0.016926519572734833,0.4808827340602875
1788957287130340600,3.885340576171875,-0.2942774295806885,-0.020425645634531975,0.3600223660469055
1788957287140390400,3.895390380859375,-0.3566263020038605,-0.03867282718420029,0.24725480377674103
1788957287150441500,3.90544140625,-0.3244406580924988,-0.09062550961971283,0.08823052793741226
1788957287160491500,3.915491455078125,-0.2603524923324585,-0.20509962737560272,-0.057624947279691696
1788957287170542600,3.92554248046875,-0.22915302217006683,-0.27609390020370483,-0.06629673391580582
1788957287180592600,3.935592529296875,-0.25662246346473694,-0.11642647534608841,-0.005964948330074549
1788957287190642700,3.945642578125,-0.2865167260169983,0.04568173363804817,0.030557110905647278
1788957287200693200,3.955693359375,-0.28179705142974854,0.14435717463493347,0.025292307138442993
1788957287210743600,3.96574365234375,-0.27050819993019104,0.12767353653907776,0.022577481344342232
1788957287220794400,3.97579443359375,-0.25203463435173035,0.04788603261113167,-0.002703641075640917
1788957287230844400,3.985844482421875,-0.211263507604599,0.07273972034454346,-0.013686250895261765
1788957287240894500,3.99589453125,-0.1987549066543579,0.19467493891716003,-0.00019334549142513424
1788957287250945500,4.005945556640625,-0.18760105967521667,0.2589263617992401,-0.03322240337729454
1788957287260995300,4.015995361328125,-0.25573456287384033,0.35337403416633606,-0.10560019314289093
1788957287271045400,4.02604541015625,-0.32344624400138855,0.42821845412254333,-0.09558165073394775
1788957287281096400,4.036096435546875,-0.3049447238445282,0.4751822352409363,-0.024747423827648163
1788957287291146500,4.046146484375,-0.2573745548725128,0.42926961183547974,0.029407689347863197
1788957287301197600,4.056197509765625,-0.25946885347366333,0.348781943321228,-0.027883563190698624
1788957287311247600,4.06624755859375,-0.26256611943244934,0.2569652199745178,-0.1134442687034607
1788957287321297400,4.07629736328125,-0.22925183176994324,0.2242666631937027,-0.13822364807128906
1788957287331348500,4.086348388671875,-0.19754503667354584,0.287698894739151,-0.11979617178440094
1788957287341398500,4.0963984375,-0.19345787167549133,0.3719533085823059,-0.10997629910707474
1788957287351449600,4.10644970703125,-0.21095538139343262,0.44633248448371887,-0.09609270840883255
1788957287361499600,4.116499755859375,-0.2181357890367508,0.4813874065876007,-0.06391266733407974
1788957287371549400,4.126549560546875,-0.21531683206558228,0.4864942729473114,-0.022618493065238
1788957287381600300,4.136600341796875,-0.2115982621908188,0.43598395586013794,-0.006987868342548609
1788957287391650600,4.146650634765625,-0.1978084146976471,0.34398186206817627,-0.04012371599674225
1788957287401700600,4.15670068359375,-0.18540102243423462,0.22225438058376312,-0.12549561262130737
1788957287411751400,4.16675146484375,-0.15375946462154388,0.18346357345581055,-0.16906732320785522
1788957287421801500,4.176801513671875,-0.10713177919387817,0.27982527017593384,-0.12840457260608673
1788957287431852500,4.1868525390625,-0.07081078737974167,0.4747888743877411,-0.07922212034463882
1788957287441902300,4.19690234375,-0.03404505178332329,0.6731336712837219,-0.0801270604133606
1788957287451952400,4.206952392578125,-0.0325600728392601,0.7569934129714966,-0.14829492568969727
1788957287462003500,4.21700341796875,-0.08204373717308044,0.746722400188446,-0.22885768115520477
1788957287472053500,4.227053466796875,-0.14427489042282104,0.6845242977142334,-0.2600041627883911
1788957287482103600,4.237103515625,-0.1848689168691635,0.5493850708007812,-0.22882120311260223
1788957287492154600,4.247154541015625,-0.2067348062992096,0.3157675564289093,-0.20498749613761902
1788957287502204400,4.257204345703125,-0.22788749635219574,0.11976475268602371,-0.17560671269893646
1788957287512255500,4.26725537109375,-0.22644059360027313,0.03441576287150383,-0.10078493505716324
1788957287522305500,4.277305419921875,-0.19769097864627838,0.006084257736802101,0.005134840961545706
1788957287532355600,4.28735546875,-0.16563236713409424,-0.017412811517715454,0.07576186954975128
1788957287542406700,4.29740673828125,-0.13146507740020752,-0.029504362493753433,0.057076070457696915
1788957287552456400,4.30745654296875,-0.11016272008419037,-0.035038143396377563,-0.04788070544600487
1788957287562506500,4.317506591796875,-0.07823648303747177,-0.0402052104473114,-0.1437411904335022
1788957287572557600,4.3275576171875,-0.05896531417965889,0.0341329351067543,-0.13462013006210327
1788957287582607600,4.337607666015625,-0.02105388604104519,0.10664122551679611,-0.03160959109663963
1788957287592658400,4.347658447265625,0.031080953776836395,0.13238121569156647,0.07233571261167526
1788957287602708500,4.35770849609375,0.05781536176800728,0.1678454577922821,0.12245800346136093
1788957287612758300,4.36775830078125,0.06700752675533295,0.3114990293979645,0.16322088241577148
1788957287622809300,4.377809326171875,0.045452967286109924,0.41349464654922485,0.23453980684280396
1788957287632859400,4.387859375,0.040956221520900726,0.3909829258918762,0.24935869872570038
1788957287642910500,4.397910400390625,0.053212620317935944,0.32017746567726135,0.17300745844841003
1788957287652960500,4.40796044921875,0.09007183462381363,0.3016437292098999,0.11856659501791
1788957287663010600,4.418010498046875,0.16065199673175812,0.31041964888572693,0.17132115364074707
1788957287673061400,4.428061279296875,0.21370242536067963,0.3144034743309021,0.2598043978214264
1788957287683111400,4.438111328125,0.2580278217792511,0.24548006057739258,0.2950904965400696
1788957287693161500,4.448161376953125,0.27197638154029846,0.19168421626091003,0.27155134081840515
1788957287703212500,4.458212646484375,0.2714488208293915,0.20452064275741577,0.24900609254837036
1788957287713262600,4.4682626953125,0.2665270268917084,0.19331273436546326,0.23660002648830414
1788957287723313700,4.478313720703125,0.2690405249595642,0.185296893119812,0.20585063099861145
1788957287733363500,4.488363525390625,0.2908845543861389,0.28616225719451904,0.22596974670886993
1788957287743413500,4.49841357421875,0.3472117483615875,0.38084107637405396,0.2854328155517578
1788957287753464600,4.508464599609375,0.4007285237312317,0.41975918412208557,0.2927943170070648
1788957287763514600,4.5185146484375,0.4388788342475891,0.37840536236763,0.2684468924999237
1788957287773565400,4.5285654296875,0.5074229836463928,0.30891337990760803,0.22855834662914276
1788957287783615500,4.538615478515625,0.5549766421318054,0.22006818652153015,0.22693434357643127
1788957287793665500,4.54866552734375,0.5788865089416504,0.16945800185203552,0.17352411150932312
1788957287803716400,4.55871630859375,0.5710102319717407,0.15707936882972717,-0.01973988302052021
1788957287813766400,4.568766357421875,0.5349648594856262,0.23569747805595398,-0.2526184022426605
1788957287823816400,4.57881640625,0.4830164611339569,0.20775799453258514,-0.34440237283706665
1788957287833867500,4.588867431640625,0.47056829929351807,0.02383209578692913,-0.2672007977962494
1788957287843917300,4.598917236328125,0.5093969106674194,-0.08243362605571747,-0.10087734460830688
1788957287853968400,4.608968505859375,0.5569031834602356,-0.10588409006595612,0.04344521090388298
1788957287864018400,4.619018310546875,0.5566917657852173,-0.04370087385177612,0.06451534479856491
1788957287874068500,4.629068359375,0.4783700406551361,-0.00890827365219593,-0.018998192623257637
1788957287884119600,4.63911962890625,0.3776948153972626,-0.11010972410440445,-0.10285580903291702
1788957287894169600,4.649169677734375,0.3035745322704315,-0.20961421728134155,-0.13177081942558289
1788957287904219400,4.659219482421875,0.27568402886390686,-0.21471469104290009,-0.1290823519229889
1788957287914270500,4.6692705078125,0.2704189717769623,-0.17563067376613617,-0.135873943567276
1788957287924320500,4.679320556640625,0.2824138402938843,-0.11792796850204468,-0.15227608382701874
1788957287934371600,4.68937158203125,0.30606377124786377,-0.07495466619729996,-0.1833522468805313
1788957287944421600,4.699421630859375,0.33273935317993164,-0.04921441897749901,-0.20511001348495483
1788957287954471700,4.7094716796875,0.3623552918434143,-0.02424275502562523,-0.25726374983787537
1788957287964522500,4.7195224609375,0.3922330141067505,0.03272705525159836,-0.34074321389198303
1788957287974572500,4.729572509765625,0.4243699312210083,0.09051072597503662,-0.3802160322666168
1788957287984623400,4.739623291015625,0.42456406354904175,0.16699032485485077,-0.36415424942970276
1788957287994673400,4.74967333984375,0.38969317078590393,0.18737468123435974,-0.3526981472969055
1788957288004723500,4.759723388671875,0.3489643931388855,0.11339260637760162,-0.35018330812454224
1788957288014774500,4.7697744140625,0.29133331775665283,-0.03393186628818512,-0.3658091425895691
1788957288024824300,4.77982421875,0.24039076268672943,-0.1868380606174469,-0.3707951009273529
1788957288034874400,4.789874267578125,0.21487155556678772,-0.22817164659500122,-0.38905560970306396
1788957288044925400,4.799925537109375,0.22771678864955902,-0.21175353229045868,-0.40879949927330017
1788957288054975500,4.8099755859375,0.23215679824352264,-0.20198506116867065,-0.4030579626560211
1788957288065026600,4.820026611328125,0.20144523680210114,-0.1716599017381668,-0.3563208281993866
1788957288075076600,4.83007666015625,0.16340383887290955,-0.0825800970196724,-0.24305711686611176
1788957288085126400,4.84012646484375,0.1339263767004013,-0.17803044617176056,-0.05026077479124069
1788957288095177500,4.850177490234375,0.08482328057289124,-0.18517757952213287,0.12501277029514313
1788957288105227500,4.8602275390625,0.027304591611027718,-0.12643836438655853,0.23757047951221466
1788957288115276800,4.87027685546875,-0.03207537904381752,-0.08560571819543839,0.2625828981399536
1788957288125328000,4.880327880859375,-0.07924395799636841,-0.0601794496178627,0.18003900349140167
1788957288135378000,4.8903779296875,-0.08150338381528854,-0.05824892595410347,0.06281384825706482
1788957288145429000,4.900428955078125,-0.02167094126343727,-0.029578132554888725,0.03448500484228134
1788957288155479000,4.91047900390625,0.05523209646344185,-0.0849311351776123,0.032763272523880005
1788957288165528800,4.92052880859375,0.10008212924003601,-0.21289655566215515,-0.0240749754011631
1788957288175580000,4.930579833984375,0.10052740573883057,-0.2810702919960022,-0.07891611754894257
1788957288185630000,4.9406298828125,0.11477931588888168,-0.2889188826084137,-0.09901606291532516
1788957288195680800,4.9506806640625,0.09748474508523941,-0.2513592541217804,-0.13440068066120148
1788957288205730800,4.960730712890625,0.05065039545297623,-0.2291378527879715,-0.16482943296432495
1788957288215780900,4.97078076171875,0.016387229785323143,-0.27400997281074524,-0.14934608340263367
1788957288225831700,4.980831787109375,-0.010378871113061905,-0.35677704215049744,-0.10931450873613358
1788957288235881700,4.9908818359375,-0.06000128388404846,-0.40825220942497253,-0.05651414394378662
1788957288245931800,5.000931884765625,-0.10190239548683167,-0.46652165055274963,-0.004804342519491911
1788957288255982800,5.01098291015625,-0.1516861915588379,-0.5307855606079102,0.013618607074022293
1788957288266033000,5.021032958984375,-0.18669451773166656,-0.4781191647052765,0.07590275257825851
1788957288276084000,5.031083984375,-0.18117883801460266,-0.3973881006240845,0.18545427918434143
1788957288286133800,5.0411337890625,-0.13259026408195496,-0.29588785767555237,0.3434164822101593
1788957288296183800,5.051183837890625,-0.045334722846746445,-0.26321619749069214,0.5275498628616333
1788957288306235000,5.06123486328125,0.059906475245952606,-0.3835678994655609,0.6111072897911072
1788957288316285000,5.071284912109375,0.09991008788347244,-0.513081967830658,0.5278606414794922
1788957288326336000,5.0813359375,0.0714893639087677,-0.43645161390304565,0.3786120116710663
1788957288336386000,5.091385986328125,0.04374907910823822,-0.2654883861541748,0.33126527070999146
1788957288346435800,5.101435791015625,0.04338635504245758,-0.17812952399253845,0.4215829372406006
1788957288356487000,5.11148681640625,0.07701621949672699,-0.21526357531547546,0.563288152217865
1788957288366537000,5.121536865234375,0.09063562750816345,-0.27718687057495117,0.5625326037406921
1788957288376587000,5.1315869140625,0.07040013372898102,-0.3503606617450714,0.32702338695526123
1788957288386637800,5.141637939453125,0.02491440437734127,-0.3505191206932068,0.08428212255239487
1788957288396688000,5.15168798828125,0.08811201900243759,-0.30454951524734497,0.21203449368476868
1788957288406738700,5.16173876953125,0.18887750804424286,-0.06993114948272705,0.49108555912971497
1788957288416788700,5.171788818359375,0.23421303927898407,0.05697726458311081,0.5918936729431152
1788957288426838800,5.1818388671875,0.1539490818977356,0.02161261811852455,0.6064294576644897
1788957288436889900,5.191889892578125,0.016696687787771225,-0.1323377937078476,0.5503004193305969
1788957288446940000,5.20193994140625,-0.12816914916038513,-0.22087831795215607,0.4057677388191223
1788957288456989700,5.21198974609375,-0.26443246006965637,-0.16759724915027618,0.30857062339782715
1788957288467040800,5.222040771484375,-0.3643489181995392,-0.06024815887212753,0.33279740810394287
1788957288477090800,5.2320908203125,-0.37034928798675537,0.03139866888523102,0.38040193915367126
1788957288487142000,5.242141845703125,-0.27472051978111267,0.09955614805221558,0.4133947789669037
1788957288497192000,5.25219189453125,-0.16899807751178741,0.1156831905245781,0.36102238297462463
1788957288507242000,5.262241943359375,-0.09805545955896378,0.07919042557477951,0.18937711417675018
1788957288517293000,5.27229296875,-0.07410698384046555,0.055023305118083954,0.011990882456302643
1788957288527342800,5.2823427734375,-0.07055113464593887,0.01563967950642109,-0.07405025511980057
1788957288537394000,5.292393798828125,-0.05138968676328659,0.05236600339412689,-0.039139945060014725
1788957288547444000,5.30244384765625,-0.004677576012909412,0.15779443085193634,0.08928966522216797
1788957288557494000,5.312493896484375,0.07782475650310516,0.24076120555400848,0.1960238367319107
1788957288567544800,5.322544921875,0.13789688050746918,0.28782913088798523,0.16612772643566132
1788957288577595000,5.332594970703125,0.15756087005138397,0.311685711145401,0.06812312453985214
1788957288587645000,5.34264501953125,0.10707905143499374,0.3120090365409851,-0.03224342316389084
1788957288597695700,5.35269580078125,0.004768389742821455,0.3747704029083252,-0.08357106149196625
1788957288607745800,5.362745849609375,-0.07207232713699341,0.4417329430580139,-0.055562593042850494
1788957288617796900,5.372796875,-0.10242757201194763,0.42048490047454834,0.006192914675921202
1788957288627847000,5.382846923828125,-0.10514479130506516,0.28164154291152954,0.016082562506198883
1788957288637896700,5.392896728515625,-0.15037351846694946,0.2186543196439743,-0.020306870341300964
1788957288647947800,5.40294775390625,-0.28698089718818665,0.31553053855895996,0.011549863032996655
1788957288657997800,5.412997802734375,-0.36730077862739563,0.3533807098865509,0.16597352921962738
1788957288668049000,5.423048828125,-0.33992108702659607,0.28250759840011597,0.352183073759079
1788957288678099000,5.433098876953125,-0.22364240884780884,0.24582014977931976,0.4999017119407654
1788957288688149000,5.44314892578125,-0.07226593792438507,0.23313765227794647,0.5508368015289307
1788957288698199800,5.45319970703125,0.043059587478637695,0.2666652500629425,0.41917648911476135
1788957288708249900,5.463249755859375,0.07525879889726639,0.38237160444259644,0.14889121055603027
1788957288718300000,5.4732998046875,0.024700818583369255,0.5281453132629395,-0.044322989881038666
1788957288728351000,5.48335107421875,-0.04467266425490379,0.6057921648025513,-0.10405103117227554
1788957288738401000,5.493401123046875,-0.09014400839805603,0.49631816148757935,-0.13063816726207733
1788957288748451800,5.503451904296875,-0.12594754993915558,0.4007277190685272,-0.11466479301452637
1788957288758502000,5.513501953125,-0.13857412338256836,0.3748295307159424,0.021318072453141212
1788957288768552000,5.523552001953125,-0.13959410786628723,0.36993223428726196,0.20006917417049408
1788957288778602800,5.533602783203125,-0.172337144613266,0.3610388934612274,0.3429946303367615
1788957288788652800,5.54365283203125,-0.22107885777950287,0.3433009088039398,0.46164166927337646
1788957288798702800,5.553702880859375,-0.23211951553821564,0.30942896008491516,0.4971669018268585
1788957288808754000,5.56375390625,-0.19032973051071167,0.2785075306892395,0.453492134809494
1788957288818803700,5.5738037109375,-0.129561185836792,0.25439101457595825,0.33280885219573975
1788957288828854800,5.583854736328125,-0.08960098773241043,0.3429051637649536,0.18831585347652435
1788957288838904800,5.59390478515625,-0.06261331588029861,0.46290159225463867,0.10973848402500153
1788957288848955000,5.603954833984375,-0.03184448182582855,0.582872748374939,0.10670433938503265
1788957288859006000,5.614005859375,0.013580523431301117,0.7224053144454956,0.11197447031736374
1788957288869055700,5.6240556640625,0.04549051821231842,0.8535149097442627,0.08247463405132294
1788957288879106800,5.63410693359375,0.051003795117139816,0.9079962372779846,0.03325382620096207
1788957288889156900,5.644156982421875,0.02864735759794712,0.8079695105552673,-0.02618446573615074
1788957288899207000,5.65420703125,0.007081345189362764,0.5677803754806519,-0.1004222109913826
1788957288909258000,5.664258056640625,-0.004025900736451149,0.3248688876628876,-0.15603433549404144
1788957288919308000,5.67430810546875,-0.027208983898162842,0.23149821162223816,-0.172486811876297
1788957288929358800,5.68435888671875,-0.10232610255479813,0.3476945757865906,-0.17166763544082642
1788957288939409000,5.694408935546875,-0.14922890067100525,0.4690292775630951,-0.09039328247308731
1788957288949459000,5.704458984375,-0.10637038201093674,0.45694971084594727,0.06226124241948128
1788957288959509800,5.714509765625,-0.01667778007686138,0.3481995165348053,0.2258397936820984
1788957288969559800,5.724559814453125,0.06681551784276962,0.15297622978687286,0.2977328896522522
1788957288979609900,5.73460986328125,0.1089901328086853,-0.009905894286930561,0.22999511659145355
1788957288989660700,5.74466064453125,0.14127589762210846,0.0351308211684227,0.2219795286655426
1788957288999710700,5.754710693359375,0.24304434657096863,0.16600655019283295,0.3233698010444641
1788957289009761800,5.76476171875,0.34225666522979736,0.4105566442012787,0.44446825981140137
1788957289019811800,5.774811767578125,0.42851725220680237,0.6938155293464661,0.5328822731971741
1788957289029862000,5.78486181640625,0.49124962091445923,0.6892255544662476,0.4816127121448517
1788957289039913000,5.794912841796875,0.4393733739852905,0.5897524952888489,0.2582073211669922
1788957289049962800,5.804962646484375,0.3853708505630493,0.5875852108001709,0.20326656103134155
1788957289060012800,5.8150126953125,0.32278311252593994,0.5814415812492371,0.39688530564308167
1788957289070063900,5.82506396484375,0.23363113403320312,0.6403823494911194,0.4138789176940918
1788957289080114000,5.835114013671875,0.13480176031589508,0.5956255793571472,0.2869705259799957
1788957289090165000,5.8451650390625,0.08400941640138626,0.3747706711292267,0.209768146276474
1788957289100215000,5.855215087890625,0.08401447534561157,0.2826381027698517,0.07663539052009583
1788957289110264800,5.865264892578125,0.10357459634542465,0.33816471695899963,-0.19100750982761383
1788957289120316400,5.87531640625,0.048519331961870193,0.32685989141464233,-0.34527722001075745
1788957289130366200,5.8853662109375,-0.025668878108263016,0.2887924015522003,-0.31272462010383606
1788957289140417300,5.895417236328125,-0.07691635191440582,0.3706912398338318,-0.2543763518333435
1788957289150467300,5.90546728515625,-0.10523161292076111,0.3999212980270386,-0.2603090703487396
1788957289160517400,5.915517333984375,-0.12377280741930008,0.2372698038816452,-0.2959834635257721
1788957289170568400,5.925568359375,-0.14239256083965302,0.06578247249126434,-0.35172635316848755
1788957289180618200,5.9356181640625,-0.1817423701286316,0.06240212544798851,-0.4844985008239746
1788957289190668300,5.945668212890625,-0.16541320085525513,0.16653598845005035,-0.590793788433075
1788957289200719400,5.95571923828125,-0.10470271110534668,0.2308121770620346,-0.4938342273235321
1788957289210769400,5.965769287109375,-0.06911462545394897,0.2535441219806671,-0.3244995176792145
1788957289220820500,5.975820556640625,-0.036971334367990494,0.2222900539636612,-0.12463194131851196
1788957289230870500,5.98587060546875,0.01781494915485382,0.09531453251838684,0.05127650499343872
1788957289240920300,5.99592041015625,0.04362284392118454,-0.09961260855197906,0.0949411615729332
1788957289250971400,6.005971435546875,0.03423307090997696,-0.27394792437553406,-0.031682293862104416
1788957289261021400,6.016021484375,-0.02876267209649086,-0.27780285477638245,-0.0532672144472599
1788957289271072500,6.026072509765625,-0.055985771119594574,-0.11779161542654037,0.10450856387615204
1788957289281122600,6.03612255859375,-0.05012761428952217,0.07437542825937271,0.17922168970108032
1788957289291172600,6.046172607421875,-0.008129033260047436,-0.017476195469498634,0.16309064626693726
1788957289301223400,6.056223388671875,0.1194949746131897,-0.22974398732185364,0.2599620819091797
1788957289311273200,6.066273193359375,0.21329256892204285,-0.3095517158508301,0.3925512731075287
1788957289321323500,6.076323486328125,0.16267547011375427,-0.3009851276874542,0.40567028522491455
1788957289331374300,6.086374267578125,0.09220050275325775,-0.28897562623023987,0.3253490626811981
1788957289341424400,6.09642431640625,0.07950707525014877,-0.2413332611322403,0.2420310080051422
1788957289351475500,6.106475341796875,0.09684132784605026,-0.19456948339939117,0.20623040199279785
1788957289361525200,6.116525146484375,0.12687379121780396,-0.19738337397575378,0.11633646488189697
1788957289371575300,6.1265751953125,0.14518621563911438,-0.31050968170166016,0.04232029244303703
1788957289381626400,6.13662646484375,0.16031111776828766,-0.4324052035808563,-0.017532654106616974
1788957289391676400,6.146676513671875,0.16143549978733063,-0.39361679553985596,-0.064863421022892
1788957289401727500,6.1567275390625,0.13931074738502502,-0.2386794239282608,-0.02870754525065422
1788957289411777500,6.166777587890625,0.13685984909534454,-0.08283069729804993,0.007015299052000046
1788957289421827300,6.176827392578125,0.1301550716161728,-0.02015373855829239,-0.07601407170295715
1788957289431878400,6.18687841796875,0.08260885626077652,-0.06154698505997658,-0.25530579686164856
1788957289441928400,6.196928466796875,0.055150337517261505,-0.07843861728906631,-0.400818794965744
1788957289451979500,6.2069794921875,0.07294478267431259,0.008713862858712673,-0.41548773646354675
1788957289462029600,6.217029541015625,0.09181620925664902,0.1027602031826973,-0.39672738313674927
1788957289472079600,6.22707958984375,0.13069942593574524,0.05724571272730827,-0.2456241399049759
1788957289482130200,6.237130126953125,0.20192086696624756,-0.04042625054717064,-0.020491693168878555
1788957289492180200,6.24718017578125,0.2649581730365753,-0.13120143115520477,0.14817215502262115
1788957289502230500,6.25723046875,0.18806657195091248,-0.17503918707370758,0.19641558825969696
1788957289512281300,6.26728125,0.07058361917734146,-0.26963385939598083,0.17349135875701904
1788957289522331400,6.277331298828125,0.006396380253136158,-0.26268434524536133,0.023187611252069473
1788957289532382500,6.287382568359375,-0.04014528915286064,-0.09557206183671951,-0.2415628284215927
1788957289542432300,6.297432373046875,-0.05377614498138428,0.14502909779548645,-0.36132144927978516
1788957289552482300,6.307482421875,-0.03277738764882088,0.2859763503074646,-0.19900071620941162
1788957289562533400,6.317533447265625,0.08907288312911987,0.2633080780506134,0.09691163152456284
1788957289572583400,6.32758349609375,0.12471849471330643,0.08884358406066895,0.2806929051876068
1788957289582634500,6.337634521484375,0.04483431577682495,-0.2379201501607895,0.28322264552116394
1788957289592684500,6.3476845703125,-0.057855311781167984,-0.40939629077911377,0.2136148065328598
1788957289602734300,6.357734375,-0.13870461285114288,-0.3995111882686615,0.18807296454906464
1788957289612785400,6.367785400390625,-0.1787489801645279,-0.38113218545913696,0.2493477761745453
1788957289622835500,6.37783544921875,-0.20183219015598297,-0.3104689121246338,0.29734620451927185
1788957289632885500,6.387885498046875,-0.2233758270740509,-0.2592523396015167,0.2542741000652313
1788957289642936600,6.3979365234375,-0.20258985459804535,-0.20768767595291138,0.2683182656764984
1788957289652986400,6.407986328125,-0.1623668074607849,-0.21585772931575775,0.2700921893119812
1788957289663037200,6.418037109375,-0.1638280749320984,-0.14960066974163055,0.20497524738311768
1788957289673087200,6.428087158203125,-0.16924415528774261,-0.05708245933055878,0.13407976925373077
1788957289683137500,6.438137451171875,-0.14503468573093414,-0.029109150171279907,0.07962825149297714
1788957289693188400,6.448188232421875,-0.1200004369020462,0.060150690376758575,0.011713380925357342
1788957289703238400,6.45823828125,-0.10015962272882462,0.15074583888053894,-0.031685758382081985
1788957289713289500,6.46828955078125,-0.05414179712533951,0.2022998332977295,-0.018503377214074135
1788957289723339300,6.47833935546875,-0.02262781374156475,0.18071945011615753,0.005330316722393036
1788957289733389300,6.488389404296875,0.0008524778531864285,0.14164182543754578,0.03496171161532402
1788957289743440400,6.4984404296875,0.015049789100885391,0.11995463073253632,0.14865605533123016
1788957289753490400,6.508490478515625,0.024751152843236923,0.1853107362985611,0.2867255210876465
1788957289763540500,6.51854052734375,-0.014986139722168446,0.3748827874660492,0.352257639169693
1788957289773591600,6.528591552734375,-0.10957629233598709,0.3586106300354004,0.3080744743347168
1788957289783641300,6.538641357421875,-0.2118760347366333,0.06018344685435295,0.12502822279930115
1788957289793692400,6.5486923828125,-0.3074829876422882,-0.1739233285188675,-0.01950499229133129
1788957289803742500,6.558742431640625,-0.3261144459247589,-0.21958854794502258,-0.016446352005004883
1788957289813792500,6.56879248046875,-0.3179478645324707,-0.16003040969371796,0.051780905574560165
1788957289823843600,6.578843505859375,-0.32414478063583374,-0.08278143405914307,0.18960028886795044
1788957289833893400,6.588893310546875,-0.3019055128097534,-0.09766583889722824,0.3426867723464966
1788957289843944200,6.598944091796875,-0.2828354239463806,-0.1315537691116333,0.3601219654083252
1788957289853994500,6.608994384765625,-0.30018752813339233,-0.12007953226566315,0.21868041157722473
1788957289864044500,6.61904443359375,-0.33660173416137695,-0.1345604807138443,0.014872157014906406
1788957289874095400,6.629095458984375,-0.39023271203041077,-0.11628533154726028,-0.169533371925354
1788957289884145400,6.6391455078125,-0.45019271969795227,-0.022395852953195572,-0.23981525003910065
1788957289894196500,6.649196533203125,-0.4630318284034729,0.059596750885248184,-0.201978400349617
1788957289904246300,6.659246337890625,-0.39844778180122375,0.08132308721542358,-0.11981774866580963
1788957289914296300,6.66929638671875,-0.27581480145454407,0.03382667154073715,-0.08490423858165741
1788957289924347400,6.679347412109375,-0.16330423951148987,-0.02183366008102894,-0.0668938159942627
1788957289934397400,6.6893974609375,-0.10857947170734406,-0.037407826632261276,-0.0769491121172905
1788957289944447500,6.699447509765625,-0.1329497992992401,-0.05573703348636627,-0.19091029465198517
1788957289954498300,6.709498291015625,-0.2106107622385025,0.03568476065993309,-0.32831448316574097
1788957289964548400,6.71954833984375,-0.2445349097251892,0.14569301903247833,-0.3394864499568939
1788957289974599400,6.729599365234375,-0.19196811318397522,0.2042037397623062,-0.2341240793466568
1788957289984649500,6.7396494140625,-0.07445426285266876,0.25089535117149353,-0.0824514701962471
1788957289994699500,6.749699462890625,0.0526546873152256,0.22477319836616516,0.048043690621852875
1788957290004750600,6.75975048828125,0.11866220086812973,0.15257036685943604,0.04927300661802292
1788957290014800400,6.76980029296875,0.0957997590303421,0.10189999639987946,-0.0889679566025734
1788957290024851200,6.779851318359375,0.001856223214417696,0.12488280981779099,-0.23780936002731323
1788957290034901500,6.789901611328125,-0.12843014299869537,0.24387870728969574,-0.2580818831920624
1788957290044951600,6.79995166015625,-0.19359903037548065,0.3442399203777313,-0.11581927537918091
1788957290055002400,6.81000244140625,-0.19394390285015106,0.2783823609352112,-0.022664565593004227
1788957290065052400,6.820052490234375,-0.20162898302078247,0.08574633300304413,-0.15649665892124176
1788957290075102200,6.830102294921875,-0.2855190932750702,-0.008526642806828022,-0.3306431770324707
1788957290085153300,6.8401533203125,-0.3763776421546936,-0.051784101873636246,-0.25003087520599365
1788957290095203300,6.850203369140625,-0.3898705244064331,-0.10489232838153839,-0.007436877116560936
1788957290105254400,6.86025439453125,-0.3299323618412018,-0.10584493726491928,0.07806284725666046
1788957290115304400,6.870304443359375,-0.24595996737480164,-0.13444489240646362,-0.006448844447731972
1788957290125354200,6.880354248046875,-0.20216801762580872,-0.21851688623428345,-0.08841561526060104
1788957290135405300,6.8904052734375,-0.18754220008850098,-0.264310747385025,-0.09751830250024796
1788957290145455400,6.900455322265625,-0.2014167308807373,-0.22534550726413727,-0.1211051195859909
1788957290155506400,6.91050634765625,-0.18165315687656403,-0.08192575722932816,-0.21429552137851715
1788957290165556500,6.920556396484375,-0.12479599565267563,0.05221553519368172,-0.2752438187599182
1788957290175606300,6.930606201171875,-0.06190997362136841,0.10235646367073059,-0.2419886589050293
1788957290185657300,6.9406572265625,-0.0036013927310705185,0.11394787579774857,-0.11031931638717651
1788957290195707400,6.950707275390625,0.05090738832950592,0.05741482228040695,0.032351281493902206
1788957290205758200,6.96075830078125,0.12147396802902222,0.06403438001871109,0.04117113724350929
1788957290215808500,6.97080859375,0.162995845079422,0.057285126298666,-0.09126999229192734
1788957290225858600,6.980858642578125,0.18535122275352478,0.05724145099520683,-0.21819810569286346
1788957290235909400,6.990909423828125,0.22999511659145355,0.1613156497478485,-0.2204732447862625
1788957290245959200,7.000959228515625,0.31784960627555847,0.31806638836860657,-0.11786671727895737
1788957290256009200,7.01100927734375,0.4214356541633606,0.3997258245944977,0.013591175898909569
1788957290266060300,7.021060302734375,0.5178170204162598,0.4171604812145233,0.14138828217983246
1788957290276110300,7.0311103515625,0.5884147882461548,0.396376371383667,0.21674136817455292
1788957290286161400,7.041161376953125,0.5999734401702881,0.3251040577888489,0.206873819231987
1788957290296211200,7.051211181640625,0.5245676040649414,0.31401678919792175,0.1259656548500061
1788957290306261200,7.06126123046875,0.4645804464817047,0.3871152400970459,0.12572330236434937
1788957290316312300,7.071312255859375,0.45058101415634155,0.4676212668418884,0.21614375710487366
1788957290326362400,7.0813623046875,0.48421913385391235,0.46792593598365784,0.32973477244377136
1788957290336413400,7.091413330078125,0.4990667998790741,0.4534873366355896,0.3113403022289276
1788957290346463500,7.10146337890625,0.47523069381713867,0.3653516173362732,0.13534797728061676
1788957290356513300,7.11151318359375,0.41198089718818665,0.3009374737739563,-0.07482390850782394
1788957290366564400,7.121564453125,0.33064529299736023,0.28170040249824524,-0.14515133202075958
1788957290376614400,7.131614501953125,0.28385621309280396,0.3626178801059723,-0.03411482647061348
1788957290386664400,7.14166455078125,0.23806104063987732,0.4855078458786011,0.12009711563587189
1788957290396715500,7.151715576171875,0.15477998554706573,0.5254493951797485,0.20800459384918213
1788957290406765600,7.161765625,0.06951622664928436,0.42209210991859436,0.18523989617824554
1788957290416816400,7.17181640625,0.0057066213339567184,0.31850528717041016,0.0060299295000731945
1788957290426866200,7.1818662109375,0.0029081718530505896,0.29924315214157104,-0.19380275905132294
1788957290436916200,7.191916259765625,-0.00896766223013401,0.345641553401947,-0.3854518234729767
1788957290446967300,7.20196728515625,-0.12415550649166107,0.42149052023887634,-0.5735013484954834
1788957290457017300,7.212017333984375,-0.20194058120250702,0.41889339685440063,-0.6471800804138184
1788957290467068400,7.222068359375,-0.1849016696214676,0.372239887714386,-0.6207170486450195
1788957290477118200,7.2321181640625,-0.11915834993124008,0.3985937237739563,-0.527276337146759
1788957290487168300,7.242168212890625,-0.06845176219940186,0.43426117300987244,-0.3722750246524811
1788957290497219300,7.25221923828125,-0.062363773584365845,0.3703647553920746,-0.25310710072517395
1788957290507269400,7.262269287109375,-0.06579285860061646,0.23710335791110992,-0.2568528354167938
1788957290517320400,7.272320556640625,-0.06587595492601395,0.07098443061113358,-0.24330559372901917
1788957290527370500,7.28237060546875,-0.045103561133146286,-0.048650894314050674,-0.18397489190101624
1788957290537420300,7.292420166015625,-0.027368241921067238,-0.11421418935060501,-0.17543679475784302
1788957290547471400,7.302471435546875,-0.012023107148706913,-0.17900756001472473,-0.19871069490909576
1788957290557521400,7.312521484375,0.029343774542212486,-0.25974634289741516,-0.19626832008361816
1788957290567571500,7.322571533203125,0.07859760522842407,-0.2699265480041504,-0.20490281283855438
1788957290577622500,7.33262255859375,0.12846289575099945,-0.2857081890106201,-0.12560905516147614
1788957290587672600,7.342672607421875,0.1649884134531021,-0.2988080084323883,0.03623337298631668
1788957290597723100,7.35272314453125,0.14865684509277344,-0.23156265914440155,0.1807607263326645
1788957290607773200,7.362773193359375,0.08324668556451797,-0.1475156843662262,0.20113630592823029
1788957290617823500,7.372823486328125,0.018501512706279755,-0.1030973568558693,0.09132112562656403
1788957290627874300,7.382874267578125,-0.03212331607937813,-0.10627530515193939,0.03869280219078064
1788957290637924400,7.39292431640625,-0.05920020490884781,-0.12749138474464417,0.0760529562830925
1788957290647975400,7.402975341796875,-0.14102742075920105,-0.029401831328868866,0.10880237817764282
1788957290658025200,7.413025146484375,-0.19356626272201538,0.03846723213791847,0.022783609107136726
1788957290668075300,7.4230751953125,-0.17501415312290192,0.0798327773809433,-0.1370726376771927
1788957290678126300,7.433126220703125,-0.1311231255531311,0.17056694626808167,-0.26001691818237305
1788957290688176400,7.44317626953125,-0.0686459094285965,0.30234813690185547,-0.29656028747558594
1788957290698227500,7.4532275390625,0.007288006599992514,0.39380934834480286,-0.27690351009368896
1788957290708277500,7.463277587890625,0.0959816575050354,0.31097012758255005,-0.257848858833313
1788957290718327300,7.473327392578125,0.16347308456897736,0.20775745809078217,-0.2841923236846924
1788957290728378400,7.48337841796875,0.16209782660007477,0.15216955542564392,-0.24353356659412384
1788957290738428400,7.493428466796875,0.1834886074066162,0.11032410711050034,-0.02279878966510296
1788957290748478500,7.503478515625,0.20862245559692383,0.0007560714147984982,0.2925061583518982
1788957290758529500,7.513529541015625,0.15043184161186218,-0.03488847613334656,0.44867685437202454
1788957290768579300,7.523579345703125,0.037577204406261444,-0.15920856595039368,0.40636110305786133
1788957290778630100,7.533630126953125,-0.07523350417613983,-0.31245216727256775,0.23793959617614746
1788957290788680200,7.54368017578125,-0.13549098372459412,-0.3016040623188019,0.019421368837356567
1788957290798730500,7.55373046875,-0.169199138879776,-0.08970671892166138,-0.14180400967597961
1788957290808781300,7.56378125,-0.13294926285743713,0.07785005867481232,-0.14347007870674133
1788957290818831400,7.573831298828125,-0.01890045404434204,0.11083783209323883,-0.052625659853219986
1788957290828882400,7.58388232421875,0.09309133142232895,0.03220480680465698,0.0888499766588211
1788957290838932200,7.59393212890625,0.16647712886333466,0.017303090542554855,0.2907452881336212
1788957290848982300,7.603982177734375,0.1905433088541031,-0.010367153212428093,0.4396679103374481
1788957290859033300,7.614033447265625,0.13787424564361572,-0.05548030138015747,0.4350646436214447
1788957290869083400,7.62408349609375,0.06083938106894493,-0.048121191561222076,0.3610583245754242
1788957290879134500,7.634134521484375,0.04237036034464836,-0.1216776967048645,0.29729560017585754
1788957290889184500,7.6441845703125,0.0776471272110939,-0.1495141237974167,0.27882498502731323
1788957290899234300,7.654234375,0.12036529183387756,-0.05471917241811752,0.250121146440506
1788957290909285400,7.664285400390625,0.1635758876800537,0.03585200756788254,0.24132873117923737
1788957290919335400,7.67433544921875,0.14735163748264313,0.11285357922315598,0.2829297184944153
1788957290929385500,7.684385498046875,0.09510547667741776,0.16111405193805695,0.31622666120529175
1788957290939436500,7.6944365234375,-0.0062760054133832455,0.18725377321243286,0.20710258185863495
1788957290949486300,7.704486328125,-0.11509276926517487,0.1620410978794098,0.0699644386768341
1788957290959537200,7.714537109375,-0.15331418812274933,0.08747552335262299,0.05732960253953934
1788957290969587200,7.724587158203125,-0.14384664595127106,0.10334769636392593,0.09348787367343903
1788957290979637500,7.734637451171875,-0.13049329817295074,0.1428130716085434,0.13827718794345856
1788957290989688300,7.744688232421875,-0.12276586890220642,0.06904857605695724,0.2590765655040741
1788957290999738400,7.75473828125,-0.09364046901464462,-0.02208266593515873,0.4157061278820038
1788957291009789400,7.76478955078125,-0.05522703751921654,-0.051725778728723526,0.5376706719398499
1788957291019839200,7.774839111328125,-0.04482526332139969,-0.06119091808795929,0.6450764536857605
1788957291029889300,7.78488916015625,-0.05308106169104576,-0.15672782063484192,0.6995053291320801
1788957291039940400,7.7949404296875,-0.09044041484594345,-0.27633917331695557,0.6847487688064575
1788957291049990400,7.804990478515625,-0.13356445729732513,-0.2631341516971588,0.6544340252876282
1788957291060041500,7.81504150390625,-0.15330485999584198,-0.10588967800140381,0.5334982872009277
1788957291070091300,7.82509130859375,-0.13604651391506195,0.09711004048585892,0.351992666721344
1788957291080141300,7.835141357421875,-0.14158695936203003,0.11220669746398926,0.21912728250026703
1788957291090192400,7.8451923828125,-0.13100434839725494,0.027510186657309532,0.10816401988267899
1788957291100242400,7.855242431640625,-0.11476999521255493,-0.0008263788768090308,-0.05355110764503479
1788957291110293500,7.86529345703125,-0.10846362262964249,0.10300574451684952,-0.10025256872177124
1788957291120343600,7.875343505859375,-0.09244924038648605,0.2026095688343048,0.0364173948764801
1788957291130393600,7.8853935546875,-0.052503954619169235,0.13635331392288208,0.1729496717453003
1788957291140444400,7.8954443359375,-0.028680646792054176,0.018220815807580948,0.2131223976612091
1788957291150494500,7.905494384765625,0.008293083868920803,-0.11117765307426453,0.1755281537771225
1788957291160544500,7.91554443359375,0.00942146498709917,-0.20376963913440704,0.04397065192461014
1788957291170595300,7.92559521484375,-0.038723960518836975,-0.17201703786849976,-0.05705875903367996
1788957291180645400,7.935645263671875,-0.1050848737359047,-0.15178154408931732,-0.027178091928362846
1788957291190696400,7.945696533203125,-0.15339168906211853,-0.15030480921268463,0.07930015027523041
1788957291200746500,7.95574658203125,-0.14796710014343262,-0.1264311820268631,0.22931894659996033
1788957291210796500,7.965796630859375,-0.0897543877363205,-0.11637188494205475,0.41120538115501404
1788957291220847400,7.975847412109375,-0.033371005207300186,-0.1610860973596573,0.4953210651874542
1788957291230897400,7.9858974609375,-0.05672666057944298,-0.20689831674098969,0.407619446516037
1788957291240948500,7.995948486328125,-0.15434695780277252,-0.2616981863975525,0.3051878809928894
1788957291250998500,8.00599853515625,-0.2546919286251068,-0.29177433252334595,0.3383737802505493
1788957291261048600,8.016048583984375,-0.31576886773109436,-0.2721518874168396,0.39849039912223816
1788957291271099600,8.026099609375,-0.3211338222026825,-0.2768600881099701,0.3345998227596283
1788957291281149400,8.0361494140625,-0.30428504943847656,-0.2812492549419403,0.23553049564361572
1788957291291200500,8.046200439453125,-0.2585098445415497,-0.24588513374328613,0.1867978423833847
1788957291301250600,8.05625048828125,-0.2312939465045929,-0.2023714780807495,0.14713191986083984
1788957291311300600,8.066300537109376,-0.23999954760074615,-0.19648829102516174,0.04682902246713638
1788957291321351400,8.076351318359375,-0.29407423734664917,-0.18585588037967682,-0.10643909126520157
1788957291331401500,8.0864013671875,-0.3515961170196533,-0.272193968296051,-0.1483604460954666
1788957291341451500,8.096451416015626,-0.4015921652317047,-0.3772825598716736,-0.07053408771753311
1788957291351502300,8.10650244140625,-0.3956509232521057,-0.4217275381088257,-0.018993398174643517
1788957291361552400,8.116552490234374,-0.3610796332359314,-0.41052788496017456,-0.0352778285741806
1788957291371603500,8.126603515625,-0.31338614225387573,-0.3834608495235443,-0.015812784433364868
1788957291381653500,8.136653564453125,-0.24067625403404236,-0.3473169505596161,0.09619338065385818
1788957291391703300,8.146703369140624,-0.1504611372947693,-0.280414879322052,0.24996483325958252
1788957291401754400,8.15675439453125,-0.08033452183008194,-0.24639007449150085,0.280336856842041
1788957291411804400,8.166804443359375,-0.0790247768163681,-0.3071564733982086,0.024285897612571716
1788957291421855500,8.17685546875,-0.13202327489852905,-0.3457092046737671,-0.3289746940135956
1788957291431905500,8.186905517578126,-0.13642361760139465,-0.3104313611984253,-0.43860238790512085
1788957291441955600,8.19695556640625,-0.12174507975578308,-0.2092011570930481,-0.29323747754096985
1788957291452006700,8.207006591796874,-0.043468914926052094,-0.047397077083587646,0.057008955627679825
1788957291462056400,8.217056396484375,0.11040240526199341,0.022050973027944565,0.5136857032775879
1788957291472107500,8.227107421875,0.24051034450531006,0.022423550486564636,0.7699459791183472
1788957291482157600,8.237157470703124,0.3355220854282379,-0.10709316283464432,0.5850549340248108
1788957291492207600,8.24720751953125,0.333540678024292,-0.2706559896469116,0.16881191730499268
1788957291502258400,8.257258544921875,0.2225598394870758,-0.20683813095092773,-0.12436003237962723
1788957291512308500,8.26730859375,0.05588723346590996,-0.0619208924472332,-0.38022029399871826
1788957291522358500,8.277358642578125,-0.06294461339712143,0.021919414401054382,-0.6682392954826355
1788957291532409300,8.287409423828125,0.008825715631246567,-0.03454173356294632,-0.6774488091468811
1788957291542459400,8.29745947265625,0.09203272312879562,-0.08582036197185516,-0.3075077533721924
1788957291552510500,8.307510498046875,0.1696111410856247,-0.05566778779029846,0.13114602863788605
1788957291562560500,8.317560546875,0.2226376086473465,-0.12549453973770142,0.33475321531295776
1788957291572610300,8.3276103515625,0.22392843663692474,-0.2836013436317444,0.2923559546470642
1788957291582661400,8.337661376953125,0.21780316531658173,-0.4728120267391205,0.1339958906173706
1788957291592711400,8.34771142578125,0.18749958276748657,-0.4992345869541168,0.019846143200993538
1788957291602762500,8.357762451171874,0.15550251305103302,-0.3855695426464081,-0.027994615957140923
1788957291612812500,8.3678125,0.14791542291641235,-0.25761130452156067,-0.10229974240064621
1788957291622862600,8.377862548828125,0.17210544645786285,-0.17754948139190674,-0.15426227450370789
1788957291632913700,8.38791357421875,0.2276025265455246,-0.15613953769207,-0.19847208261489868
1788957291642963500,8.39796337890625,0.2654457986354828,-0.09748207777738571,-0.2885338068008423
1788957291653014500,8.4080146484375,0.30608004331588745,-0.0016383767360821366,-0.3169718384742737
1788957291663064600,8.418064697265624,0.37060949206352234,0.05155880004167557,-0.25215527415275574
1788957291673114600,8.428114501953125,0.4125652015209198,0.07157138735055923,-0.1581539511680603
1788957291683165400,8.43816552734375,0.40196314454078674,0.09843815863132477,-0.23982538282871246
1788957291693215500,8.448215576171876,0.37923893332481384,0.10415703058242798,-0.37904879450798035
1788957291703266300,8.458266357421875,0.381137490272522,-0.0454268716275692,-0.45057544112205505
1788957291713316400,8.46831640625,0.3515913188457489,-0.05756369233131409,-0.4965096414089203
1788957291723366400,8.478366455078126,0.29239964485168457,0.0895937979221344,-0.5364797115325928
1788957291733417500,8.48841748046875,0.22972586750984192,0.14272519946098328,-0.5866448283195496
1788957291743467500,8.498467529296875,0.20532679557800293,0.035409122705459595,-0.5884038805961609
1788957291753517300,8.508517333984376,0.23181459307670593,-0.10117881745100021,-0.48102468252182007
1788957291763568400,8.518568359375,0.28972503542900085,-0.10042620450258255,-0.402466744184494
1788957291773618400,8.528618408203124,0.3802839517593384,0.023662984371185303,-0.30211058259010315
1788957291783669500,8.53866943359375,0.46305686235427856,0.1089525818824768,-0.11502059549093246
1788957291793719600,8.548719482421875,0.4739209711551666,0.06365833431482315,0.08059604465961456
1788957291803769600,8.55876953125,0.4273148477077484,0.08181683719158173,0.23922669887542725
1788957291813820700,8.568820556640626,0.3459773659706116,0.05174362286925316,0.30862176418304443
1788957291823870500,8.578870361328125,0.23128807544708252,-0.0040972731076180935,0.19811788201332092
1788957291833921500,8.588921630859375,0.12598855793476105,-0.05557937175035477,-0.004488491453230381
1788957291843971600,8.5989716796875,0.08908487111330032,-0.08046634495258331,-0.17242583632469177
1788957291854021600,8.609021728515625,0.12202071398496628,-0.048230379819869995,-0.24936509132385254
1788957291864072400,8.619072509765624,0.19510158896446228,0.06709328293800354,-0.2560751736164093
1788957291874122500,8.62912255859375,0.26626789569854736,0.16887636482715607,-0.30675008893013
1788957291884173300,8.63917333984375,0.2985432744026184,0.1809343695640564,-0.4170997738838196
1788957291894223400,8.649223388671874,0.3147962987422943,0.1280948519706726,-0.43449631333351135
1788957291904273400,8.6592734375,0.3226073384284973,0.0887993797659874,-0.3178709149360657
1788957291914324500,8.669324462890625,0.30493834614753723,0.09706929326057434,-0.19537030160427094
1788957291924374500,8.67937451171875,0.26244840025901794,0.09165135771036148,-0.1294863522052765
1788957291934425600,8.689425537109376,0.2332409769296646,0.016637032851576805,-0.14145566523075104
1788957291944475400,8.699475341796875,0.2079010009765625,-0.055024370551109314,-0.20760725438594818
1788957291954525400,8.709525390625,0.2083425521850586,-0.07901599258184433,-0.2658979892730713
1788957291964576500,8.719576416015625,0.22415374219417572,-0.06431187689304352,-0.25768932700157166
1788957291974626600,8.72962646484375,0.2227393388748169,-0.03460618108510971,-0.22385519742965698
1788957291984676600,8.739676513671874,0.18063688278198242,-0.03537210449576378,-0.19888833165168762
1788957291994727400,8.7497275390625,0.09420426189899445,-0.07831691205501556,-0.15143506228923798
1788957292004777500,8.759777587890625,0.025404158979654312,-0.1132860779762268,-0.0941118523478508
1788957292014828500,8.76982861328125,-0.05573836341500282,-0.15655551850795746,-0.1100761666893959
1788957292024878600,8.779878662109375,-0.14122024178504944,-0.14590314030647278,-0.16320942342281342
1788957292034928600,8.7899287109375,-0.18183238804340363,-0.09045293182134628,-0.17493079602718353
1788957292044979500,8.7999794921875,-0.16010871529579163,-0.0741618424654007,-0.08629201352596283
1788957292055029500,8.810029541015625,-0.12201032787561417,-0.11031026393175125,0.0912494882941246
1788957292065080300,8.820080322265625,-0.04363882541656494,-0.1333298236131668,0.28835296630859375
1788957292075130400,8.83013037109375,0.027632426470518112,-0.13165417313575745,0.3852986991405487
1788957292085180400,8.840180419921875,0.08566643297672272,-0.11940602213144302,0.45108142495155334
1788957292095231500,8.8502314453125,0.11418143659830093,-0.1354275941848755,0.4680124819278717
1788957292105281500,8.860281494140626,0.08656711876392365,-0.19194680452346802,0.34538987278938293
1788957292115332400,8.870332275390625,0.011188206262886524,-0.24482093751430511,0.18017536401748657
1788957292125382100,8.880382080078125,-0.0608268640935421,-0.2957003712654114,0.07689052075147629
1788957292135432200,8.89043212890625,-0.09862165153026581,-0.23045584559440613,0.10678903013467789
1788957292145483300,8.900483154296875,-0.09951913356781006,-0.1088830754160881,0.2573806643486023
1788957292155533300,8.910533203125,-0.04946528747677803,-0.021323664113879204,0.4026734232902527
1788957292165584400,8.92058447265625,-0.004308462142944336,-0.023743679746985435,0.4257318675518036
1788957292175634200,8.93063427734375,0.0065593658946454525,-0.026548519730567932,0.3923177123069763
1788957292185684200,8.940684326171874,0.010641459375619888,-0.03997218236327171,0.37271419167518616
1788957292195735300,8.9507353515625,-0.006072273477911949,0.019116703420877457,0.30475857853889465
1788957292205785300,8.960785400390625,-0.03972770646214485,0.18778587877750397,0.23551025986671448
1788957292215836200,8.970836181640625,-0.006451241206377745,0.23308198153972626,0.27395644783973694
1788957292225886500,8.980886474609376,0.029690250754356384,0.2250182032585144,0.3511122167110443
1788957292235936300,8.990936279296875,0.02793096750974655,0.34122177958488464,0.3320956528186798
1788957292245987000,9.000987060546874,-0.003203782718628645,0.41841137409210205,0.2598179876804352
1788957292256037000,9.011037109375,-0.046483080834150314,0.3653923571109772,0.19915437698364258
1788957292266087200,9.021087158203125,-0.06504371762275696,0.18069946765899658,0.12076476961374283
1788957292276138200,9.03113818359375,-0.06781899183988571,0.04952574148774147,0.058831360191106796
1788957292286188000,9.04118798828125,-0.015557387843728065,0.09760592132806778,0.06003857031464577
1788957292296239000,9.051239013671875,0.0817454606294632,0.21716320514678955,0.11427757143974304
1788957292306289200,9.0612890625,0.16964149475097656,0.25710397958755493,0.19365282356739044
1788957292316339200,9.071339111328125,0.2010420262813568,0.2599585950374603,0.27806171774864197
1788957292326390300,9.081390380859375,0.17425063252449036,0.22198379039764404,0.30109378695487976
1788957292336440300,9.0914404296875,0.11287648230791092,0.148109570145607,0.23708711564540863
1788957292346491400,9.101491455078126,0.02841353230178356,0.04157087951898575,0.09157253056764603
1788957292356541200,9.111541259765625,-0.10579753667116165,-0.030991205945611,-0.05260542035102844
1788957292366591200,9.12159130859375,-0.21306434273719788,0.025709889829158783,-0.06157361716032028
1788957292376642300,9.131642333984376,-0.27347496151924133,0.11317076534032822,0.0577586367726326
1788957292386692400,9.1416923828125,-0.2714618742465973,0.13402864336967468,0.1833341419696808
1788957292396743400,9.151743408203124,-0.2031419277191162,0.05434419959783554,0.30971869826316833
1788957292406793200,9.161793212890625,-0.128721222281456,-0.06111714988946915,0.4021061658859253
1788957292416843300,9.17184326171875,-0.11686456948518753,-0.012620720081031322,0.40719467401504517
1788957292426894000,9.18189404296875,-0.1269177347421646,0.2110065072774887,0.317776620388031
1788957292436944100,9.191944091796875,-0.12621226906776428,0.35805562138557434,0.15718881785869598
1788957292446995200,9.2019951171875,-0.1404937356710434,0.4119521379470825,0.010732538998126984
1788957292457045200,9.212045166015624,-0.15502606332302094,0.37278875708580017,-0.11229538172483444
1788957292467095000,9.222094970703125,-0.17793457210063934,0.27188050746917725,-0.18059507012367249
1788957292477146000,9.23214599609375,-0.2261282056570053,0.2180982381105423,-0.11887525767087936
1788957292487196200,9.242196044921876,-0.23391422629356384,0.17654307186603546,-0.012093148194253445
1788957292497247200,9.252247314453125,-0.2310851514339447,0.10268376767635345,0.056887783110141754
1788957292507297300,9.26229736328125,-0.25974607467651367,0.028377845883369446,0.11784647405147552
1788957292517347300,9.272347412109376,-0.2709968686103821,0.016808275133371353,0.190267413854599
1788957292527398400,9.2823984375,-0.21846869587898254,0.053280264139175415,0.27110421657562256
1788957292537448200,9.2924482421875,-0.1492278277873993,0.04421992599964142,0.26777446269989014
1788957292547499300,9.302499267578124,-0.11553298681974411,0.058099787682294846,0.15150563418865204
1788957292557549300,9.31254931640625,-0.10706759989261627,0.017967814579606056,-0.010334396734833717
1788957292567599400,9.322599365234375,-0.14264635741710663,-0.03520272672176361,-0.11333508044481277
1788957292577650400,9.332650390625,-0.15226277709007263,-0.005262672435492277,0.011930961161851883
1788957292587700200,9.3427001953125,-0.11515588313341141,0.01938221976161003,0.1429278552532196
1788957292597751000,9.3527509765625,-0.11345412582159042,0.04916754737496376,0.02725212648510933
1788957292607801000,9.362801025390626,-0.13857385516166687,0.056166067719459534,-0.1284698247909546
1788957292617851100,9.37285107421875,-0.12424977868795395,0.00917538907378912,-0.075370654463768
1788957292627902200,9.382902099609375,-0.10334556549787521,-0.03368392586708069,-0.028859078884124756
1788957292637952300,9.3929521484375,-0.1451587826013565,-0.10879785567522049,-0.22483603656291962
1788957292648003300,9.40300341796875,-0.22250844538211823,-0.1392495036125183,-0.4387182295322418
1788957292658053000,9.41305322265625,-0.29829293489456177,-0.16234736144542694,-0.4770081043243408
1788957292668103200,9.423103271484376,-0.3740966320037842,-0.10020969063043594,-0.3547133505344391
1788957292678154200,9.433154296875,-0.36494016647338867,-0.0009843043517321348,-0.048823997378349304
1788957292688204300,9.443204345703125,-0.2919386327266693,0.04831400141119957,0.29148510098457336
1788957292698255400,9.45325537109375,-0.26555177569389343,0.0091170659288764,0.408814400434494
1788957292708305200,9.46330517578125,-0.2457732856273651,-0.07248671352863312,0.33938631415367126
1788957292718355200,9.473355224609374,-0.18121638894081116,-0.16908755898475647,0.2466593086719513
1788957292728406300,9.48340625,-0.13950224220752716,-0.16267386078834534,0.14786696434020996
1788957292738456300,9.493456298828125,-0.13206268846988678,-0.054302651435136795,0.08016327768564224
1788957292748506400,9.50350634765625,-0.06457473337650299,0.058291271328926086,0.15105076134204865
1788957292758557400,9.513557373046876,0.03173209726810455,0.1368744969367981,0.28492042422294617
1788957292768607200,9.523607177734375,0.10203715413808823,0.17999666929244995,0.3746388554573059
1788957292778658000,9.533657958984374,0.1600884646177292,0.11262881010770798,0.3873160183429718
1788957292788708000,9.5437080078125,0.16508829593658447,-0.0043774377554655075,0.3105144500732422
1788957292798758100,9.553758056640625,0.09312142431735992,-0.06204899027943611,0.09483889490365982
1788957292808809200,9.563809326171874,0.011330152861773968,-0.06244553625583649,-0.1538124680519104
1788957292818859300,9.573859375,-0.041191909462213516,-0.02683454379439354,-0.32783380150794983
1788957292828910300,9.583910400390625,-0.03307566046714783,0.0703524574637413,-0.37670600414276123
1788957292838960000,9.593960205078124,0.023965520784258842,0.10697438567876816,-0.3093874156475067
1788957292849010200,9.60401025390625,0.10875684022903442,0.10595652461051941,-0.21804897487163544
1788957292859061200,9.614061279296875,0.18276582658290863,0.08115850389003754,-0.15609373152256012
1788957292869111300,9.624111328125,0.2244163304567337,0.0022711437195539474,-0.1561557799577713
1788957292879162400,9.634162353515626,0.23317599296569824,-0.048584312200546265,-0.12048327177762985
1788957292889212200,9.644212158203125,0.19114279747009277,-0.06855003535747528,-0.10088080912828445
1788957292899262200,9.65426220703125,0.11966541409492493,-0.11602220684289932,-0.158421590924263
1788957292909313300,9.664313232421875,0.057974617928266525,-0.205362468957901,-0.14776256680488586
1788957292919363300,9.67436328125,0.03765629976987839,-0.286653071641922,-0.059968262910842896
1788957292929414400,9.684414306640624,0.09903790056705475,-0.21226485073566437,0.02473943494260311
1788957292939464400,9.69446435546875,0.23921631276607513,-0.13446886837482452,0.17049451172351837
1788957292949514200,9.70451416015625,0.3426516354084015,-0.00944969430565834,0.23710229992866516
1788957292959565000,9.71456494140625,0.33432260155677795,0.14473241567611694,0.1428205370903015
1788957292969615000,9.724614990234375,0.2721870541572571,0.10641911625862122,0.045885466039180756
1788957292979666200,9.734666259765625,0.19955837726593018,-0.010182596743106842,0.003855191869661212
1788957292989716200,9.74471630859375,0.15099669992923737,-0.08181364089250565,-0.0566323846578598
1788957292999766300,9.754766357421875,0.18205635249614716,-0.15642955899238586,-0.062194131314754486
1788957293009817000,9.764817138671875,0.2863398790359497,-0.08890324085950851,-0.08098725974559784
1788957293019867100,9.7748671875,0.36592739820480347,0.03904833272099495,-0.10283184051513672
1788957293029918200,9.784918212890625,0.3813875615596771,0.11778256297111511,-0.031923577189445496
1788957293039968300,9.79496826171875,0.3358166217803955,0.16137690842151642,0.0695258155465126
1788957293050018300,9.805018310546876,0.1917547881603241,0.10572057217359543,0.1249304860830307
1788957293060069400,9.8150693359375,0.0744641125202179,-0.10383771359920502,0.15129391849040985
1788957293070119200,9.825119140625,0.025480592623353004,-0.22256037592887878,0.07155966758728027
1788957293080170200,9.835170166015626,0.04133705422282219,-0.20263566076755524,-0.02292662113904953
1788957293090220300,9.84522021484375,0.1223783791065216,-0.16707980632781982,-0.07850705832242966
1788957293100270300,9.855270263671875,0.2109932005405426,-0.038662973791360855,-0.10113167762756348
1788957293110321400,9.8653212890625,0.30200114846229553,0.01131097786128521,-0.006452572997659445
1788957293120371500,9.875371337890625,0.38895440101623535,-0.02207867056131363,0.14819346368312836
1788957293130422000,9.885422119140625,0.3224360942840576,-0.07128190249204636,0.16384512186050415
1788957293140472000,9.89547216796875,0.16817249357700348,-0.23524980247020721,0.06328602880239487
1788957293150522000,9.905522216796875,0.12419438362121582,-0.3232390582561493,0.0013014868600293994
1788957293160573200,9.9155732421875,0.16362221539020538,-0.16736635565757751,-0.07876192033290863
1788957293170623200,9.925623291015626,0.21278630197048187,0.015549132600426674,-0.1748514324426651
1788957293180674300,9.93567431640625,0.25901558995246887,0.04584098979830742,-0.2266283482313156
1788957293190724000,9.94572412109375,0.34014052152633667,-0.06798304617404938,-0.09683307260274887
1788957293200774100,9.955774169921876,0.363984614610672,-0.06928905844688416,0.07405451685190201
1788957293210825200,9.9658251953125,0.32035911083221436,-0.10646465420722961,0.165855273604393
1788957293220875300,9.975875244140624,0.22267994284629822,-0.2065718173980713,0.17492839694023132
1788957293230926300,9.98592626953125,0.1331053227186203,-0.24059902131557465,0.11108044534921646
1788957293240976400,9.995976318359375,0.08381526917219162,-0.19099418818950653,0.0646253302693367
1788957293251026200,10.006026123046874,0.07284091413021088,-0.15614193677902222,0.05576819181442261
1788957293261077200,10.0160771484375,0.07151786237955093,-0.15800268948078156,0.07851451635360718
1788957293271127300,10.026127197265625,0.08527841418981552,-0.22325891256332397,0.16656607389450073
1788957293281178000,10.03617822265625,0.11769227683544159,-0.3066350221633911,0.2868104577064514
1788957293291228400,10.046228515625,0.10190479457378387,-0.2931261360645294,0.42021939158439636
1788957293301278500,10.056278564453125,0.1268647313117981,-0.2608577013015747,0.5700973272323608
1788957293311329000,10.0663291015625,0.13175776600837708,-0.2804167568683624,0.5082951784133911
1788957293321379000,10.076379150390625,0.04047418758273125,-0.20667195320129395,0.24892885982990265
1788957293331430100,10.08643017578125,0.014242852106690407,-0.13145576417446136,0.07633844763040543
1788957293341480200,10.096480224609374,0.05408427491784096,-0.059665195643901825,0.000723048229701817
1788957293351530200,10.1065302734375,0.07568197697401047,0.026731213554739952,-0.024812938645482063
1788957293361581300,10.116581298828125,0.10105417668819427,0.002046372974291444,0.06095363199710846
1788957293371631000,10.126631103515624,0.13088051974773407,-0.07431764155626297,0.16228105127811432
1788957293381682200,10.13668212890625,0.13345232605934143,-0.09833802282810211,0.2507043778896332
1788957293391732200,10.146732177734375,0.13948892056941986,-0.05519294738769531,0.43649768829345703
1788957293401782300,10.1567822265625,0.1515788733959198,0.006900250446051359,0.513012170791626
1788957293411833300,10.166833251953125,0.11095794290304184,0.06066441163420677,0.4389949440956116
1788957293421883400,10.17688330078125,0.04818084463477135,0.07682473957538605,0.30866169929504395
1788957293431933200,10.18693310546875,0.011890481226146221,0.06553373485803604,0.15055355429649353
1788957293441984300,10.196984375,-0.03209055960178375,0.09989064186811447,-0.0656525120139122
1788957293452034300,10.207034423828125,-0.07898296415805817,0.12773798406124115,-0.2276105284690857
1788957293462085000,10.217085205078124,-0.06927068531513214,0.13101287186145782,-0.2450864464044571
1788957293472135400,10.227135498046875,-0.03484772890806198,0.1489894837141037,-0.17805495858192444
1788957293482185200,10.237185302734375,-0.013854296877980232,0.17234061658382416,-0.05993736907839775
1788957293492236000,10.247236083984374,0.020624052733182907,0.14010091125965118,0.0931115671992302
1788957293502286000,10.2572861328125,0.028308603912591934,0.11221788078546524,0.17954924702644348
1788957293512337200,10.267337158203125,0.012375975959002972,-0.017494305968284607,0.17437393963336945
1788957293522387200,10.27738720703125,-0.02979304827749729,-0.08619507402181625,0.10154739767313004
1788957293532437200,10.287437255859375,-0.07860959321260452,-0.054302651435136795,0.07589422911405563
1788957293542488300,10.29748828125,-0.11324906349182129,-0.03399578481912613,0.1283039152622223
1788957293552538000,10.3075380859375,-0.13439056277275085,-0.03179148584604263,0.18052050471305847
1788957293562589200,10.317589111328125,-0.16742467880249023,-0.017913220450282097,0.133894145488739
1788957293572639200,10.32763916015625,-0.19714608788490295,0.013718209229409695,0.12187504023313522
1788957293582689300,10.337689208984376,-0.20589298009872437,0.029519543051719666,0.1667730063199997
1788957293592740400,10.347740234375,-0.20506952702999115,0.15546628832817078,0.23387748003005981
1788957293602790100,10.3577900390625,-0.17079970240592957,0.2932435870170593,0.24197641015052795
1788957293612841200,10.36784130859375,-0.15459862351417542,0.3284527063369751,0.09827596694231033
1788957293622891300,10.377891357421875,-0.1634800136089325,0.32271865010261536,-0.09262234717607498
1788957293632941300,10.38794140625,-0.13373489677906036,0.2586222290992737,-0.17754602432250977
1788957293642992400,10.397992431640626,-0.09311103820800781,0.2052122801542282,-0.15161189436912537
1788957293653042400,10.40804248046875,-0.07875633239746094,0.25981372594833374,-0.08833066374063492
1788957293663093200,10.41809326171875,-0.08746673166751862,0.34658804535865784,-0.01726287603378296
1788957293673143000,10.42814306640625,-0.11193931847810745,0.29320549964904785,0.013103284873068333
1788957293683193000,10.438193115234375,-0.15353363752365112,0.1919201761484146,0.03592924028635025
1788957293693244200,10.448244140625,-0.1650150567293167,0.11057151854038239,0.13900741934776306
1788957293703294200,10.458294189453126,-0.15457120537757874,0.03169374540448189,0.21166777610778809
1788957293713345300,10.46834521484375,-0.1763121783733368,0.027156785130500793,0.16941885650157928
1788957293723395300,10.478395263671874,-0.1743563562631607,0.048706818372011185,0.15064702928066254
1788957293733445000,10.488445068359376,-0.16268877685070038,-0.031494807451963425,0.19571490585803986
1788957293743496200,10.49849609375,-0.16616714000701904,-0.07715177536010742,0.19159020483493805
1788957293753546200,10.508546142578124,-0.15546734631061554,-0.06910556554794312,0.06301385164260864
1788957293763597300,10.518597412109376,-0.14038799703121185,-0.07848814874887466,-0.17705734074115753
1788957293773647400,10.5286474609375,-0.11138404905796051,-0.05836210772395134,-0.30921509861946106
1788957293783697200,10.538697265625,-0.0905139222741127,-0.035225629806518555,-0.21883328258991241
1788957293793748200,10.548748291015626,-0.030492927879095078,0.0250994935631752,-0.03702326491475105
1788957293803798300,10.55879833984375,0.04146568477153778,0.1147787794470787,0.14599262177944183
1788957293813849000,10.56884912109375,0.10185632109642029,0.08817113935947418,0.24478977918624878
1788957293823899400,10.5788994140625,0.08290579915046692,0.0009531453251838684,0.17812606692314148
1788957293833949400,10.588949462890625,0.02484755963087082,-0.006600910797715187,0.0019347865600138903
1788957293844000300,10.599000244140624,-0.07583750784397125,0.05928010120987892,-0.17625918984413147
1788957293854050000,10.609050048828125,-0.11349859833717346,0.13890914618968964,-0.2472875565290451
1788957293864101000,10.61910107421875,-0.07844287902116776,0.14396995306015015,-0.12185665965080261
1788957293874151200,10.629151123046874,-0.0010157296201214194,0.1645149141550064,0.0900353491306305
1788957293884201200,10.639201171875,0.04662209749221802,0.17592468857765198,0.15865889191627502
1788957293894252300,10.649252197265625,0.05342567339539528,0.18350590765476227,0.09314245730638504
1788957293904302000,10.659302001953124,0.10073140263557434,0.15792252123355865,0.10879892110824585
1788957293914353200,10.669353271484376,0.11653140932321548,0.1728316992521286,0.19508719444274902
1788957293924403200,10.6794033203125,0.1233333870768547,0.2611876428127289,0.2511827051639557
1788957293934453200,10.689453369140624,0.15525244176387787,0.2511342167854309,0.24068903923034668
1788957293944504300,10.69950439453125,0.16541239619255066,0.16702334582805634,0.10767586529254913
1788957293954554400,10.709554443359375,0.11417131125926971,0.15519598126411438,-0.08363444358110428
1788957293964605400,10.71960546875,0.08607283234596252,0.1258157193660736,-0.19668616354465485
1788957293974655200,10.7296552734375,0.10458100587129593,0.11215823143720627,-0.20050913095474243
1788957293984705300,10.739705322265625,0.1012595072388649,0.1373506635427475,-0.16230662167072296
1788957293994756000,10.749756103515624,0.0933065116405487,0.12673982977867126,-0.15024569630622864
1788957294004806400,10.759806396484375,0.132177472114563,0.07321908324956894,-0.0770348608493805
1788957294014857200,10.769857177734375,0.17064231634140015,0.054194264113903046,0.02081420086324215
1788957294024907300,10.7799072265625,0.1583893746137619,0.10475011169910431,0.047922518104314804
1788957294034957000,10.78995703125,0.13724760711193085,0.017347831279039383,0.12203030288219452
1788957294045008100,10.800008056640625,0.11544910073280334,-0.13470828533172607,0.10109013319015503
1788957294055058200,10.81005810546875,0.06304368376731873,-0.10413119941949844,-0.09550788253545761
1788957294065108200,10.820108154296875,-0.054543402045965195,-0.06180637702345848,-0.2743511199951172
1788957294075159300,10.8301591796875,-0.09259384870529175,-0.0543372742831707,-0.4379994571208954
1788957294085209000,10.840208984375,-0.1353471726179123,0.10336180776357651,-0.5536853075027466
1788957294095260200,10.85026025390625,-0.1129784807562828,0.09881871938705444,-0.45475125312805176
1788957294105310200,10.860310302734375,-0.06156216561794281,0.07118469476699829,-0.29326143860816956
1788957294115360300,10.8703603515625,-0.03298031911253929,0.10994434356689453,-0.20505355298519135
1788957294125410800,10.880410888671875,-0.014238590374588966,0.08344881981611252,-0.2185930609703064
1788957294135460900,10.8904609375,-0.021831262856721878,-0.026806579902768135,-0.3132535219192505
1788957294145512000,10.900511962890626,-0.05066637322306633,-0.09608551859855652,-0.4141029119491577
1788957294155562000,10.91056201171875,-0.03217098489403725,-0.1448301523923874,-0.4271249771118164
1788957294165611800,10.92061181640625,0.04055435210466385,-0.15030242502689362,-0.3703301250934601
1788957294175662800,10.930662841796876,0.09816385060548782,-0.08330047875642776,-0.28370946645736694
1788957294185713000,10.940712890625,0.12179621309041977,-0.009997506625950336,-0.15965038537979126
1788957294195763700,10.950763671875,0.12448973208665848,-0.006773217581212521,-0.0129349734634161
1788957294205813800,10.960813720703126,0.12525592744350433,-0.040466997772455215,0.12545272707939148
1788957294215864000,10.970864013671875,0.12717419862747192,-0.047626107931137085,0.22817350924015045
1788957294225915000,10.980914794921874,0.1077970340847969,-0.008497614413499832,0.2406000941991806
1788957294235964700,10.990964599609375,0.044077977538108826,0.050454385578632355,0.04087872430682182
1788957294246015700,11.001015625,-0.009073123335838318,0.07347740978002548,-0.14673298597335815
1788957294256065800,11.011065673828124,0.024625452235341072,-0.009488044306635857,-0.18005551397800446
1788957294266115800,11.02111572265625,0.08893732726573944,0.027306456118822098,-0.13007943332195282
1788957294276167000,11.0311669921875,0.13215617835521698,0.058164503425359726,-0.014282532967627048
1788957294286217000,11.041217041015624,0.14075179398059845,-0.013347763568162918,0.015425828285515308
1788957294296267800,11.051267822265626,0.1076098158955574,-0.05188477039337158,-0.07386863231658936
1788957294306317800,11.06131787109375,0.09339812397956848,-0.05407867953181267,-0.12346494942903519
1788957294316368000,11.071367919921874,0.11465121805667877,-0.049570482224226,-0.10090398043394089
1788957294326419000,11.0814189453125,0.12694676220417023,-0.08005009591579437,-0.02473943494260311
1788957294336469000,11.091468994140625,0.11811385303735733,-0.18774646520614624,0.06205485016107559
1788957294346520000,11.10152001953125,0.08648109436035156,-0.3033771812915802,0.10150185972452164
1788957294356569900,11.11156982421875,0.04165956377983093,-0.31851857900619507,0.11861799657344818
1788957294366620000,11.121619873046875,0.009950635023415089,-0.2797730565071106,0.1418636590242386
1788957294376670700,11.131670654296874,-0.019900737330317497,-0.18954037129878998,0.14164555072784424
1788957294386720800,11.141720703125,-0.05745077505707741,-0.0987502783536911,0.16282673180103302
1788957294396771000,11.15177099609375,-0.05362701043486595,-0.12739257514476776,0.1738399714231491
1788957294406822000,11.16182177734375,-0.04628094658255577,-0.19384989142417908,0.0342320054769516
1788957294416871700,11.17187158203125,-0.06386792659759521,-0.20820699632167816,-0.10691366344690323
1788957294426922800,11.1819228515625,0.012076104059815407,-0.261324018239975,-0.09724532812833786
1788957294436972800,11.191972900390626,0.09459734708070755,-0.1539277732372284,0.0031310785561800003
1788957294447022800,11.20202294921875,0.1745976358652115,0.016232499852776527,0.18505187332630157
1788957294457074000,11.212073974609375,0.2413787990808487,0.058878496289253235,0.3305049538612366
1788957294467123700,11.222123779296876,0.2460009753704071,-0.0025513083674013615,0.30978769063949585
1788957294477174800,11.2321748046875,0.18401670455932617,-0.11008282750844955,0.13104590773582458
1788957294487224800,11.242224853515625,0.11240536719560623,-0.17737612128257751,0.008949552662670612
1788957294497275000,11.25227490234375,0.08293669670820236,-0.17511402070522308,0.07735098153352737
1788957294507326000,11.262325927734375,0.05372448265552521,-0.08349968492984772,0.24780847132205963
1788957294517376000,11.2723759765625,0.010476609691977501,0.03660408407449722,0.4487820565700531
1788957294527427000,11.282427001953126,-0.029376531019806862,0.12377866357564926,0.6120449900627136
1788957294537476900,11.292476806640625,0.004626177251338959,0.10290800780057907,0.6860401630401611
1788957294547527000,11.30252685546875,0.06155763566493988,0.04109124466776848,0.562398374080658
1788957294557577700,11.31257763671875,0.05393460392951965,0.02955709397792816,0.2776068449020386
1788957294567628000,11.3226279296875,0.00888057705014944,-0.00045060686534270644,0.01116423774510622
1788957294577678800,11.332678955078125,-0.04140123724937439,0.07339991629123688,-0.16508562862873077
1788957294587729000,11.34272900390625,-0.05708352476358414,0.3189585506916046,-0.19267304241657257
1788957294597778700,11.35277880859375,-0.022593192756175995,0.5111730098724365,-0.057137321680784225
1788957294607829800,11.362829833984375,0.010233196429908276,0.539463222026825,0.12910312414169312
1788957294617879800,11.3728798828125,0.028323249891400337,0.4686862528324127,0.31291210651397705
1788957294627931000,11.382930908203125,0.02582493983209133,0.31697261333465576,0.3980799913406372
1788957294637981000,11.39298095703125,0.002511360915377736,0.24879197776317596,0.3212669789791107
1788957294648030700,11.40303076171875,-0.005456550512462854,0.3186384439468384,0.16136199235916138
1788957294658081800,11.413081787109375,-0.0344272144138813,0.4075358211994171,0.03783606365323067
1788957294668131800,11.4231318359375,-0.05469173938035965,0.42424795031547546,0.02502252906560898
1788957294678182000,11.433181884765625,-0.02257668226957321,0.31062817573547363,0.06842273473739624
1788957294688233000,11.44323291015625,0.018563564866781235,0.216849222779274,0.058940548449754715
1788957294698283000,11.453282958984374,0.02616795524954796,0.2206367701292038,0.00478383619338274
1788957294708334000,11.463333984375,0.024048078805208206,0.2242959588766098,-0.029810093343257904
1788957294718383900,11.4733837890625,0.0032447953708469868,0.2510383427143097,-0.02690378576517105
1788957294728434000,11.483433837890624,-0.013362943194806576,0.28746721148490906,-0.005934055428951979
1788957294738484700,11.493484619140625,-0.022854449227452278,0.2758062779903412,-0.03773699328303337
1788957294748535000,11.50353515625,-0.04398529976606369,0.2091367095708847,-0.10293996334075928
1788957294758585900,11.5135859375,-0.1186337023973465,0.11687228828668594,-0.14748293161392212
1788957294768635600,11.5236357421875,-0.205827996134758,0.08271538466215134,-0.09269025921821594
1788957294778685700,11.533685791015625,-0.23585326969623566,0.09120234847068787,0.013509683310985565
1788957294788736800,11.54373681640625,-0.25439712405204773,0.14243890345096588,0.0868840292096138
1788957294798786800,11.553786865234375,-0.2616017758846283,0.16013666987419128,0.10799065232276917
1788957294808838000,11.563837890625,-0.2692141532897949,0.13866280019283295,0.08836980909109116
1788957294818888000,11.573887939453124,-0.2549009919166565,0.10607822984457016,0.08099737763404846
1788957294828937700,11.583937744140625,-0.22969818115234375,0.017847971990704536,0.08028445392847061
1788957294838988800,11.59398876953125,-0.22579051554203033,-0.029985861852765083,0.05048820748925209
1788957294849038800,11.604038818359374,-0.20692335069179535,0.020744159817695618,0.06209293007850647
1788957294859089000,11.6140888671875,-0.16563743352890015,0.06947015225887299,0.124395452439785
1788957294869140000,11.624139892578125,-0.1551903784275055,0.1097419410943985,0.16662973165512085
1788957294879190000,11.63418994140625,-0.14646373689174652,0.10617810487747192,0.23334909975528717
1788957294889240800,11.64424072265625,-0.13216575980186462,0.016319317743182182,0.2860035300254822
1788957294899291000,11.654290771484375,-0.1612493395805359,-0.09889009594917297,0.20895934104919434
1788957294909341000,11.6643408203125,-0.21674908697605133,-0.18781490623950958,0.0421232171356678
1788957294919391700,11.674391845703125,-0.3010442554950714,-0.24960796535015106,-0.07430991530418396
1788957294929442000,11.684442138671875,-0.34841975569725037,-0.2756592631340027,-0.061654310673475266
1788957294939492900,11.694492919921874,-0.3412209749221802,-0.21523134410381317,0.018145713955163956
1788957294949542700,11.704542724609375,-0.26188966631889343,-0.1326800137758255,0.1800459325313568
1788957294959592700,11.7145927734375,-0.15620744228363037,-0.1528840810060501,0.3028149902820587
1788957294969643800,11.724643798828126,-0.09591986984014511,-0.1667165458202362,0.34860751032829285
1788957294979693800,11.73469384765625,-0.058761052787303925,-0.20923657715320587,0.30209726095199585
1788957294989745000,11.744744873046875,-0.05145253986120224,-0.15571822226047516,0.07728120684623718
1788957294999795000,11.754794921875,-0.08762066066265106,0.004804342519491911,-0.26247209310531616
1788957295009844700,11.7648447265625,-0.1342960149049759,0.09692255407571793,-0.47124555706977844
1788957295019895800,11.774895751953125,-0.10322066396474838,0.14682193100452423,-0.328981876373291
1788957295029945900,11.78494580078125,0.018337462097406387,0.2475309669971466,0.03549061715602875
1788957295039996000,11.794995849609375,0.12699736654758453,0.16138888895511627,0.29526039958000183
1788957295050047000,11.805046875,0.1914120316505432,-0.05879594013094902,0.18599064648151398
1788957295060096800,11.8150966796875,0.1825932413339615,-0.23414139449596405,-0.10255913436412811
1788957295070147800,11.82514794921875,0.11423443257808685,-0.1391589492559433,-0.19073054194450378
1788957295080198000,11.835197998046874,-0.007240602280944586,0.12889114022254944,-0.10683830082416534
1788957295090248000,11.845248046875,-0.08837540447711945,0.26364949345588684,0.0035025894176214933
1788957295100299000,11.855299072265625,-0.08870217204093933,0.20710870623588562,0.1457422822713852
1788957295110349000,11.86534912109375,-0.011897671967744827,0.12173628807067871,0.30935439467430115
1788957295120400000,11.87539990234375,0.02116999961435795,0.1307838410139084,0.3259908854961395
1788957295130449700,11.88544970703125,-0.005755091086030006,0.13481293618679047,0.15152160823345184
1788957295140499700,11.895499755859374,-0.03895219415426254,0.07966074347496033,-0.07322973757982254
1788957295150550800,11.90555078125,-0.06681551784276962,0.15277330577373505,-0.18752887845039368
1788957295160600800,11.915600830078125,-0.06385914236307144,0.29655471444129944,-0.16263630986213684
1788957295170652000,11.92565185546875,-0.0060344566591084,0.38924363255500793,-0.07784819602966309
1788957295180702000,11.935701904296875,0.06299174576997757,0.3973502814769745,0.005657619331032038
1788957295190751700,11.945751708984375,0.09842510521411896,0.30868539214134216,0.056703224778175354
1788957295200802800,11.955802734375,0.07763034850358963,0.23298372328281403,0.14055605232715607
1788957295210852900,11.965852783203125,0.029316343367099762,0.13205178081989288,0.19286932051181793
1788957295220903000,11.97590283203125,-0.015626896172761917,0.04132320359349251,0.09100393950939178
1788957295230954000,11.9859541015625,-0.04480928182601929,-0.017553959041833878,-0.15341778099536896
1788957295241003800,11.996003662109375,-0.04061746597290039,0.002055960241705179,-0.3881397545337677
1788957295251054800,12.006054931640625,-0.02232874184846878,0.017732657492160797,-0.4882897734642029
1788957295261105000,12.01610498046875,-0.008744489401578903,0.09311050176620483,-0.38796183466911316
1788957295271155000,12.026155029296875,0.01677658222615719,0.07155194878578186,-0.23968742787837982
1788957295281206000,12.0362060546875,0.07926712185144424,-0.04412059113383293,-0.25682008266448975
1788957295291256000,12.046256103515624,0.13164591789245605,-0.25011396408081055,-0.3404252231121063
1788957295301307000,12.056306884765625,0.15598560869693756,-0.45674675703048706,-0.3112225830554962
1788957295311356700,12.066356689453125,0.18414773046970367,-0.45724958181381226,-0.23487189412117004
1788957295321406700,12.07640673828125,0.233099564909935,-0.3671950399875641,-0.1204899325966835
1788957295331457800,12.086457763671875,0.2749817669391632,-0.3720465302467346,0.11847205460071564
1788957295341507800,12.0965078125,0.2604696750640869,-0.32301294803619385,0.36093583703041077
1788957295351558000,12.106557861328126,0.1972382366657257,-0.27657514810562134,0.48280712962150574
1788957295361608700,12.116608642578125,0.11873757094144821,-0.34481704235076904,0.4283857047557831
1788957295371658800,12.12665869140625,0.055386293679475784,-0.41047221422195435,0.24851953983306885
1788957295381709800,12.136709716796876,0.03080904483795166,-0.3886212408542633,0.018967831507325172
1788957295391760000,12.146759765625,0.08369968831539154,-0.2828114628791809,-0.13255777955055237
1788957295401810000,12.156809814453124,0.1798163652420044,-0.18287287652492523,-0.18057456612586975
1788957295411861000,12.166861083984376,0.26896223425865173,-0.1266908347606659,-0.1805090606212616
1788957295421910800,12.176910888671875,0.36304929852485657,-0.12774145603179932,-0.012717393226921558
1788957295431961900,12.1869619140625,0.45122525095939636,-0.16178862750530243,0.2242024689912796
1788957295442012000,12.197011962890626,0.41630399227142334,-0.18160760402679443,0.2716197967529297
1788957295452062000,12.20706201171875,0.2617916762828827,-0.24106934666633606,0.14084073901176453
1788957295462113000,12.217113037109375,0.15800081193447113,-0.3133232891559601,-0.01714463159441948
1788957295472163000,12.2271630859375,0.11365120112895966,-0.25263145565986633,-0.23332060873508453
1788957295482214000,12.2372138671875,0.04831346869468689,-0.12027687579393387,-0.41823825240135193
1788957295492263700,12.247263671875,0.06788690388202667,-0.034700989723205566,-0.40650835633277893
1788957295502313700,12.257313720703126,0.16575194895267487,0.02901354245841503,-0.21492135524749756
1788957295512364800,12.26736474609375,0.3164980411529541,0.07517411559820175,0.04854649677872658
1788957295522414800,12.277414794921874,0.3972395062446594,0.054371628910303116,0.2366519570350647
1788957295532464600,12.287464599609375,0.3098723590373993,-0.05796023830771446,0.239656001329422
1788957295542515700,12.297515625,0.1285795420408249,-0.1574293076992035,0.04066593572497368
1788957295552565800,12.307565673828124,0.016343286260962486,-0.13241742551326752,-0.2114536613225937
1788957295562616800,12.317616943359376,-0.004609399009495974,-0.04223773628473282,-0.3561594486236572
1788957295572667000,12.3276669921875,0.05666168034076691,-0.024278707802295685,-0.31615903973579407
1788957295582717000,12.337717041015624,0.12423566728830338,-0.1328216940164566,-0.18168431520462036
1788957295592768000,12.34776806640625,0.1738245189189911,-0.21570725739002228,-0.01913854107260704
1788957295602817800,12.35781787109375,0.2559976875782013,-0.23671001195907593,0.16194762289524078
1788957295612868900,12.367868896484374,0.18487930297851562,-0.16302141547203064,0.15073758363723755
1788957295622919000,12.3779189453125,0.03771195933222771,-0.14294517040252686,-0.0047119311057031155
1788957295632969000,12.387968994140625,-0.11696337163448334,-0.11599691212177277,-0.12024358659982681
