time,seconds_elapsed,z,y,x
1789202924403511600,0.042511474609375,-0.5927522778511047,0.15060362219810486,-0.08130284398794174
1789202924413481700,0.052481689453125,-0.5902408957481384,0.2180444449186325,-0.13125495612621307
1789202924423451600,0.06245166015625,-0.5800327658653259,0.27242565155029297,-0.19329090416431427
1789202924433421600,0.072421630859375,-0.5706754922866821,0.2828671336174011,-0.25100773572921753
1789202924443391500,0.0823916015625,-0.5797533988952637,0.2179293930530548,-0.2873891592025757
1789202924453362700,0.09236279296875,-0.6150964498519897,0.1220683827996254,-0.2696993947029114
1789202924463332600,0.10233251953125,-0.6584764122962952,0.012136025354266167,-0.20709379017353058
1789202924473302500,0.112302490234375,-0.6830208897590637,-0.06865256279706955,-0.11212573945522308
1789202924483272400,0.1222724609375,-0.6705631613731384,-0.09969037771224976,-0.00015153386630117893
1789202924493242600,0.13224267578125,-0.623444139957428,-0.12655740976333618,0.10562656074762344
1789202924503213600,0.142213623046875,-0.5739402174949646,-0.16740763187408447,0.16576845943927765
1789202924513183500,0.15218359375,-0.540510356426239,-0.17562668025493622,0.1918216347694397
1789202924523153700,0.162153564453125,-0.5219079256057739,-0.1679605096578598,0.21071410179138184
1789202924533123600,0.17212353515625,-0.5012423396110535,-0.18361350893974304,0.24472346901893616
1789202924543093800,0.18209375,-0.48296719789505005,-0.2089841067790985,0.2832103967666626
1789202924553064700,0.192064697265625,-0.4732639491558075,-0.23249635100364685,0.3038451075553894
1789202924563034600,0.20203466796875,-0.4668148458003998,-0.24781592190265656,0.2973294258117676
1789202924573004500,0.212004638671875,-0.4677450954914093,-0.2513001263141632,0.270511656999588
1789202924582974700,0.221974609375,-0.4605652093887329,-0.24441081285476685,0.2423149049282074
1789202924592944600,0.231944580078125,-0.4388423264026642,-0.28670021891593933,0.20401598513126373
1789202924602915600,0.24191552734375,-0.41100218892097473,-0.3764745593070984,0.15595178306102753
1789202924612885800,0.2518857421875,-0.3814679980278015,-0.40764766931533813,0.12469026446342468
1789202924622855700,0.261855712890625,-0.3735743761062622,-0.40399807691574097,0.09637127816677094
1789202924632825600,0.27182568359375,-0.38056331872940063,-0.4118078052997589,0.08134545385837555
1789202924642796500,0.281796630859375,-0.3812645375728607,-0.354646235704422,0.09173444658517838
1789202924652766700,0.2917666015625,-0.37229233980178833,-0.2797269821166992,0.09932046383619308
1789202924662736600,0.301736572265625,-0.34375524520874023,-0.28986403346061707,0.10871582478284836
1789202924672706600,0.31170654296875,-0.2989494204521179,-0.31834229826927185,0.14379285275936127
1789202924682676500,0.321676513671875,-0.2534378468990326,-0.3105908930301666,0.22837059199810028
1789202924692647700,0.331647705078125,-0.2049883008003235,-0.2859515845775604,0.3269086182117462
1789202924702617600,0.34161767578125,-0.10812114179134369,-0.27275562286376953,0.395592600107193
1789202924712587500,0.35158740234375,0.03720942139625549,-0.2763146758079529,0.4451596140861511
1789202924722557400,0.361557373046875,0.18797843158245087,-0.3303467631340027,0.465484082698822
1789202924732528600,0.371528564453125,0.37051814794540405,-0.47194597125053406,0.5021272897720337
1789202924742498600,0.38149853515625,0.44027191400527954,-0.5826951265335083,0.5225574970245361
1789202924752468500,0.391468505859375,0.45976412296295166,-0.6384292244911194,0.517571210861206
1789202924762438700,0.401438720703125,0.5078427195549011,-0.6349335312843323,0.5394464731216431
1789202924772408600,0.41140869140625,0.5572425127029419,-0.6127366423606873,0.5835720896720886
1789202924782379500,0.421379638671875,0.6145033836364746,-0.5906816720962524,0.5801251530647278
1789202924792349700,0.431349609375,0.6514022946357727,-0.6637715697288513,0.5472173094749451
1789202924802319600,0.441319580078125,0.6452948451042175,-0.7264951467514038,0.5204477310180664
1789202924812289800,0.451289794921875,0.5837576985359192,-0.7467748522758484,0.4591689109802246
1789202924822260700,0.4612607421875,0.4383555054664612,-0.7942041754722595,0.36080291867256165
1789202924832230700,0.471230712890625,0.3180099129676819,-0.8224680423736572,0.27477458119392395
1789202924842200600,0.48120068359375,0.3232068121433258,-0.8456915616989136,0.19302085041999817
1789202924852170800,0.491170654296875,0.41965293884277344,-0.8877596855163574,0.08429969847202301
1789202924862141700,0.5011416015625,0.5060650706291199,-0.7294192910194397,-0.10074738413095474
1789202924872111600,0.511111572265625,0.580547571182251,0.16810405254364014,-0.22524216771125793
1789202924882081500,0.52108154296875,0.619929850101471,0.5583769679069519,-0.29029732942581177
1789202924892051700,0.5310517578125,0.681866466999054,0.7654401659965515,-0.23194481432437897
1789202924902021600,0.541021728515625,0.6738268733024597,0.6722058057785034,-0.0887804701924324
1789202924911992600,0.55099267578125,0.5926457643508911,0.2515896260738373,0.07233039289712906
1789202924921962500,0.56096240234375,0.5423226356506348,-0.10305874049663544,0.2634561359882355
1789202924931932700,0.5709326171875,0.4868498146533966,-0.36433908343315125,0.44157955050468445
1789202924941902600,0.580902587890625,0.4187985956668854,-0.5221651792526245,0.555438220500946
1789202924951873500,0.59087353515625,0.330474317073822,-0.5885711312294006,0.5822338461875916
1789202924961843500,0.600843505859375,0.24632136523723602,-0.5999521613121033,0.5382022261619568
1789202924971813600,0.610813720703125,0.14853514730930328,-0.632408857345581,0.45763200521469116
1789202924981783600,0.620783447265625,-0.005393966566771269,-0.6507660150527954,0.3560848832130432
1789202924991754500,0.63075439453125,-0.20531320571899414,-0.5149336457252502,0.23506231606006622
1789202925001724400,0.640724365234375,-0.336974561214447,-0.18072158098220825,0.14775270223617554
1789202925011694600,0.650694580078125,-0.37072721123695374,0.1692606657743454,0.06505889445543289
1789202925021664500,0.66066455078125,-0.31836172938346863,0.4131758511066437,-0.02341051772236824
1789202925031635500,0.670635498046875,-0.20737102627754211,0.4602712094783783,-0.10586091876029968
1789202925041605600,0.680605712890625,-0.06648474931716919,0.3722268342971802,-0.14081516861915588
1789202925051575600,0.690575439453125,0.07054367661476135,0.2835419774055481,-0.10245899856090546
1789202925061545700,0.700545654296875,0.17624667286872864,0.22524191439151764,-0.03086976520717144
1789202925071516400,0.710516357421875,0.19339290261268616,0.11581981182098389,0.019210180267691612
1789202925081486600,0.720486572265625,0.17756147682666779,0.07257699966430664,0.05024585872888565
1789202925091456800,0.730456787109375,0.14683391153812408,0.13488911092281342,0.043357592076063156
1789202925101426700,0.7404267578125,0.07941226661205292,0.2212703377008438,-0.027299530804157257
1789202925111397600,0.750397705078125,-0.03359231352806091,0.24008822441101074,-0.1495221108198166
1789202925121367800,0.760367919921875,-0.16957812011241913,0.2417479157447815,-0.25292015075683594
1789202925131337700,0.770337646484375,-0.21637918055057526,0.3145153224468231,-0.3044605553150177
1789202925141307600,0.7803076171875,-0.1509905755519867,0.38733068108558655,-0.3159145414829254
1789202925151278600,0.790278564453125,-0.050998203456401825,0.37561702728271484,-0.30752506852149963
1789202925161248800,0.800248779296875,-0.01685754396021366,0.2892640233039856,-0.2766161561012268
1789202925171218700,0.81021875,-0.020806211978197098,0.2595122754573822,-0.2022537738084793
1789202925181188600,0.820188720703125,-0.04451979696750641,0.3045439124107361,-0.09725970774888992
1789202925191159600,0.83015966796875,-0.08462167531251907,0.3540073335170746,-0.00017896443023346364
1789202925201129500,0.84012939453125,-0.1329529881477356,0.37529051303863525,0.0646655485033989
1789202925211099400,0.850099365234375,-0.1973934918642044,0.35462892055511475,0.07657226920127869
1789202925221069600,0.860069580078125,-0.2903015911579132,0.2751716375350952,0.024408137425780296
1789202925231040500,0.87004052734375,-0.34677499532699585,0.16588324308395386,-0.07671075314283371
1789202925241010400,0.880010498046875,-0.3437587022781372,0.06342211365699768,-0.21213862299919128
1789202925250980400,0.88998046875,-0.30103573203086853,-0.01840856857597828,-0.33646535873413086
1789202925260950500,0.899950439453125,-0.2512037456035614,-0.029832463711500168,-0.4106197655200958
1789202925270921500,0.90992138671875,-0.23803120851516724,0.021089039742946625,-0.40636056661605835
1789202925280891400,0.919891357421875,-0.25562724471092224,0.14952556788921356,-0.31344154477119446
1789202925290861300,0.929861328125,-0.26811668276786804,0.30304935574531555,-0.18192346394062042
1789202925300831500,0.93983154296875,-0.27417856454849243,0.3915390074253082,-0.0749426856637001
1789202925310802400,0.949802490234375,-0.33309486508369446,0.30033373832702637,-0.04200976714491844
1789202925320772400,0.9597724609375,-0.37865301966667175,0.1039077565073967,-0.052384376525878906
1789202925330742300,0.9697421875,-0.4197658598423004,-0.1462424248456955,-0.094983771443367
1789202925340712400,0.97971240234375,-0.39753592014312744,-0.3262055516242981,-0.1571802943944931
1789202925350683400,0.989683349609375,-0.3296777606010437,-0.3920431435108185,-0.22581475973129272
1789202925360653300,0.9996533203125,-0.25219735503196716,-0.3544944226741791,-0.28975510597229004
1789202925370623500,1.00962353515625,-0.1889675259590149,-0.2641701400279999,-0.3438599109649658
1789202925380594400,1.019594482421875,-0.09474728256464005,-0.13389255106449127,-0.3877362906932831
1789202925390564400,1.029564453125,-0.02261662855744362,0.09588897973299026,-0.39098426699638367
1789202925400534300,1.0395341796875,0.00771890627220273,0.4189000427722931,-0.3408198952674866
1789202925410504700,1.049504638671875,-0.01968155987560749,0.7597974538803101,-0.28837960958480835
1789202925420475400,1.059475341796875,-0.10047867149114609,0.9545320272445679,-0.251310259103775
1789202925430445300,1.0694453125,-0.2315453439950943,0.8141270279884338,-0.2357291728258133
1789202925440415500,1.07941552734375,-0.34620508551597595,0.4310842752456665,-0.27025306224823
1789202925450385700,1.0893857421875,-0.4160211682319641,-0.1731664538383484,-0.33949044346809387
1789202925460356400,1.0993564453125,-0.42304712533950806,-0.5758611559867859,-0.37108513712882996
1789202925470326500,1.109326416015625,-0.3782977759838104,-0.8417477011680603,-0.381733775138855
1789202925480296400,1.11929638671875,-0.2765620946884155,-0.9738277196884155,-0.3176299035549164
1789202925490266600,1.1292666015625,-0.2374620884656906,-0.971398651599884,-0.20814600586891174
1789202925500237600,1.139237548828125,-0.25487756729125977,-0.8620878458023071,-0.06466261297464371
1789202925510207500,1.14920751953125,-0.38577911257743835,-0.664829671382904,0.05278731510043144
1789202925520177400,1.159177490234375,-0.6302045583724976,-0.4921806752681732,0.09731163829565048
1789202925530148600,1.169148681640625,-0.9338065385818481,-0.3412089943885803,0.055039018392562866
1789202925540118500,1.179118408203125,-1.2054164409637451,-0.22660277783870697,-0.04490195959806442
1789202925550088400,1.18908837890625,-1.3963185548782349,-0.1796635091304779,-0.14359737932682037
1789202925560058400,1.199058349609375,-1.5167485475540161,-0.25610047578811646,-0.23233497142791748
1789202925570029600,1.209029541015625,-1.6186459064483643,-0.45248517394065857,-0.2969784140586853
1789202925579999500,1.21899951171875,-1.6696128845214844,-0.5979755520820618,-0.3232656717300415
1789202925589969400,1.228969482421875,-1.434502124786377,-0.5031126737594604,-0.3140878975391388
1789202925599939600,1.238939697265625,-0.9159321784973145,-0.17759396135807037,-0.26341724395751953
1789202925609910500,1.24891064453125,-0.37300047278404236,0.009681656025350094,-0.2453458458185196
1789202925619880400,1.25888037109375,-0.10005735605955124,0.0816786140203476,-0.29383403062820435
1789202925629850400,1.268850341796875,-0.19575485587120056,0.016956346109509468,-0.4465034604072571
1789202925639821600,1.278821533203125,-0.28031766414642334,-0.022967632859945297,-0.575770914554596
1789202925649791500,1.28879150390625,-0.2486465722322464,-0.030275613069534302,-0.6253365874290466
1789202925659761400,1.298761474609375,-0.21783778071403503,0.02123578079044819,-0.5746065378189087
1789202925669731300,1.3087314453125,-0.1894351691007614,0.01955479197204113,-0.4581358730792999
1789202925679702500,1.31870263671875,-0.14907710254192352,0.013666544109582901,-0.2917458415031433
1789202925689672400,1.32867236328125,-0.10507582128047943,-0.03214462101459503,-0.11454575508832932
1789202925699642400,1.338642333984375,-0.07498849183320999,-0.03897589445114136,0.050629887729883194
1789202925709613600,1.348613525390625,-0.08463312685489655,0.020200876519083977,0.21356821060180664
1789202925719583500,1.35858349609375,-0.08938900381326675,0.05762894079089165,0.33731359243392944
1789202925729553400,1.368553466796875,-0.062011972069740295,0.07415811717510223,0.39620646834373474
1789202925739523300,1.3785234375,0.0016141419764608145,0.0734635666012764,0.40581247210502625
1789202925749494500,1.38849462890625,0.026641197502613068,0.02449202723801136,0.3782714009284973
1789202925759464400,1.39846435546875,0.058457449078559875,-0.04301963746547699,0.3054738938808441
1789202925769434400,1.408434326171875,0.13267575204372406,-0.17662270367145538,0.1841762363910675
1789202925779405300,1.4184052734375,0.2172553539276123,-0.2873883545398712,0.05361182987689972
1789202925789375500,1.42837548828125,0.24067333340644836,-0.3192770481109619,-0.06282343715429306
1789202925799345400,1.438345458984375,0.2638918459415436,-0.29058656096458435,-0.1457904875278473
1789202925809315300,1.4483154296875,0.3030956983566284,-0.2496311366558075,-0.1736261248588562
1789202925819286500,1.45828662109375,0.3290348947048187,-0.18052397668361664,-0.12507909536361694
1789202925829256400,1.46825634765625,0.34597018361091614,-0.06843418627977371,-0.03591352701187134
1789202925839226400,1.478226318359375,0.36810266971588135,0.07033195346593857,0.05284323915839195
1789202925849197300,1.488197265625,0.41369250416755676,0.14633697271347046,0.10833792388439178
1789202925859167500,1.49816748046875,0.47386717796325684,0.093368299305439,0.10421561449766159
1789202925869137400,1.508137451171875,0.5340692400932312,0.12999048829078674,0.11101227253675461
1789202925879107600,1.518107666015625,0.5465717315673828,0.11124715954065323,0.12333977967500687
1789202925889078300,1.528078369140625,0.5288920998573303,0.08197689056396484,0.14528928697109222
1789202925899048400,1.53804833984375,0.5023861527442932,0.09456512331962585,0.20097598433494568
1789202925909018600,1.5480185546875,0.506293535232544,0.11256835609674454,0.27392634749412537
1789202925918989300,1.5579892578125,0.5491989254951477,0.12698617577552795,0.32123875617980957
1789202925928959500,1.56795947265625,0.5970324873924255,0.26689612865448,0.39134326577186584
1789202925938929700,1.5779296875,0.6205383539199829,0.30163681507110596,0.40823596715927124
1789202925948900400,1.587900390625,0.6324741244316101,0.2822772264480591,0.381206750869751
1789202925958870500,1.59787060546875,0.642339825630188,0.23707060515880585,0.334102600812912
1789202925968840400,1.60784033203125,0.6610367894172668,0.1578167974948883,0.2741132974624634
1789202925978810600,1.617810546875,0.6733179688453674,0.030783744528889656,0.19358225166797638
1789202925988781600,1.627781494140625,0.5921192169189453,0.07856245338916779,0.18215195834636688
1789202925998751500,1.63775146484375,0.5758787393569946,0.11489782482385635,0.19192390143871307
1789202926008721700,1.6477216796875,0.6260335445404053,0.18078602850437164,0.22771571576595306
1789202926018692600,1.657692626953125,0.6710920929908752,0.30952775478363037,0.2916440963745117
1789202926028662500,1.66766259765625,0.6882633566856384,0.3520680367946625,0.34423860907554626
1789202926038632400,1.677632568359375,0.731404185295105,0.28632470965385437,0.350165992975235
1789202926048602600,1.6876025390625,0.774070680141449,0.2288518249988556,0.3491063416004181
1789202926058573600,1.697573486328125,0.7598482966423035,0.17687810957431793,0.3300679326057434
1789202926068543500,1.70754345703125,0.6925268173217773,0.08067700266838074,0.28894710540771484
1789202926078513400,1.717513427734375,0.6012243032455444,-0.027524035423994064,0.2552104592323303
1789202926088484600,1.727484619140625,0.4925204813480377,-0.10069677978754044,0.24119237065315247
1789202926098454500,1.73745458984375,0.3641377389431,-0.12240447849035263,0.2421274185180664
1789202926108424400,1.747424560546875,0.2442997545003891,-0.08835382759571075,0.2627658545970917
1789202926118395600,1.757395751953125,0.16956453025341034,0.0101415840908885,0.2802487015724182
1789202926128365600,1.767365478515625,0.1597616970539093,0.11547919362783432,0.24489444494247437
1789202926138335500,1.77733544921875,0.1852572113275528,0.16990754008293152,0.1458011418581009
1789202926148306400,1.787306396484375,0.1991165578365326,0.16790831089019775,-0.011472364887595177
1789202926158276600,1.797276611328125,0.19614234566688538,0.1143590658903122,-0.20553238689899445
1789202926168246500,1.80724658203125,0.15371525287628174,0.0217130184173584,-0.3568321466445923
1789202926178216400,1.817216552734375,0.07459700852632523,-0.0958932414650917,-0.44191774725914
1789202926188187400,1.8271875,-0.007966846227645874,-0.19889286160469055,-0.45800459384918213
1789202926198158000,1.837157958984375,-0.08486562222242355,-0.23224416375160217,-0.41557857394218445
1789202926208128000,1.8471279296875,-0.15049496293067932,-0.19322724640369415,-0.32228216528892517
1789202926218099200,1.85709912109375,-0.1923619955778122,-0.09376590698957443,-0.21016308665275574
1789202926228069000,1.867069091796875,-0.18305423855781555,0.023271234706044197,-0.12454459071159363
1789202926238039000,1.8770390625,-0.15164145827293396,0.09054934233427048,-0.11007457226514816
1789202926248010200,1.88701025390625,-0.14065352082252502,0.06270252913236618,-0.14904354512691498
1789202926257980200,1.896980224609375,-0.18756189942359924,-0.01871829479932785,-0.22316624224185944
1789202926267950000,1.9069501953125,-0.2616763412952423,-0.10298550128936768,-0.3165028393268585
1789202926277920000,1.916919921875,-0.3367777466773987,-0.19990140199661255,-0.4124027490615845
1789202926287891200,1.92689111328125,-0.3883783519268036,-0.2951948940753937,-0.458650678396225
1789202926297861000,1.936861083984375,-0.41580334305763245,-0.3599430024623871,-0.4335152208805084
1789202926307831000,1.9468310546875,-0.4122661352157593,-0.35084936022758484,-0.3277171552181244
1789202926317802000,1.956802001953125,-0.3998587131500244,-0.2611791491508484,-0.1665000319480896
1789202926327772200,1.966772216796875,-0.40041932463645935,-0.06701205670833588,0.04930336773395538
1789202926337742000,1.9767421875,-0.42881128191947937,0.1816622018814087,0.2965933084487915
1789202926347713000,1.986713134765625,-0.45990660786628723,0.3213047981262207,0.4809415936470032
1789202926357683000,1.996682861328125,-0.4887017607688904,0.33895570039749146,0.5430302619934082
1789202926367653000,2.006653076171875,-0.4962044358253479,0.23598803579807281,0.49503636360168457
1789202926377624000,2.0166240234375,-0.5089923739433289,0.041734661906957626,0.3642674386501312
1789202926387594000,2.026593994140625,-0.5483328700065613,-0.1719840168952942,0.20767037570476532
1789202926397564200,2.036564208984375,-0.5935840010643005,-0.32405877113342285,0.07855100184679031
1789202926407534000,2.0465341796875,-0.6149462461471558,-0.3974437713623047,0.010913900099694729
1789202926417505000,2.056505126953125,-0.610962450504303,-0.3515591025352478,0.003964648116379976
1789202926427475000,2.066474853515625,-0.5723623037338257,-0.24815361201763153,0.04375573620200157
1789202926437445000,2.076445068359375,-0.5296425223350525,-0.08886834979057312,0.09044494479894638
1789202926447416000,2.086416015625,-0.49474021792411804,0.05109221115708351,0.11198938637971878
1789202926457386000,2.096385986328125,-0.48134639859199524,0.10595785826444626,0.0680520236492157
1789202926467356000,2.10635595703125,-0.4915343225002289,0.08515457808971405,-0.030895065516233444
1789202926477327000,2.1163271484375,-0.5089561939239502,-0.024328242987394333,-0.15400953590869904
1789202926487297000,2.126297119140625,-0.5164716243743896,-0.1859978288412094,-0.26591184735298157
1789202926497267000,2.136266845703125,-0.5155872106552124,-0.35019049048423767,-0.3558286726474762
1789202926507238100,2.146238037109375,-0.4967631697654724,-0.48648256063461304,-0.4375203549861908
1789202926517208000,2.1562080078125,-0.4597793221473694,-0.5357731580734253,-0.4650728702545166
1789202926527178000,2.166177978515625,-0.41239848732948303,-0.482193261384964,-0.41872748732566833
1789202926537149000,2.17614892578125,-0.37023985385894775,-0.30965372920036316,-0.3039388358592987
1789202926547119000,2.186119140625,-0.3082542419433594,-0.08062560111284256,-0.14004072546958923
1789202926557089000,2.196089111328125,-0.24234792590141296,0.07951879501342773,0.007691209204494953
1789202926567060000,2.20606005859375,-0.19917568564414978,0.16271834075450897,0.10678130388259888
1789202926577030000,2.21602978515625,-0.1743968427181244,0.17155657708644867,0.15928739309310913
1789202926587000000,2.226,-0.18847057223320007,0.08164506405591965,0.12891323864459991
1789202926596970000,2.235969970703125,-0.23319384455680847,-0.02299373224377632,0.030969634652137756
1789202926606941000,2.24594091796875,-0.2723902463912964,-0.12217944115400314,-0.09959210455417633
1789202926616911000,2.2559111328125,-0.2878054082393646,-0.17101222276687622,-0.1971234530210495
1789202926626881000,2.265881103515625,-0.27726808190345764,-0.17330120503902435,-0.23337413370609283
1789202926636852000,2.27585205078125,-0.2341483235359192,-0.13082565367221832,-0.17932209372520447
1789202926646822000,2.28582177734375,-0.1791689544916153,-0.05565820261836052,-0.02688727341592312
1789202926656792000,2.2957919921875,-0.14554761350154877,0.002922020386904478,0.17177042365074158
1789202926666763000,2.305762939453125,-0.1355418562889099,0.042818568646907806,0.34909647703170776
1789202926676733000,2.31573291015625,-0.12608017027378082,0.08660413324832916,0.4498414695262909
1789202926686702800,2.325702880859375,-0.12221858650445938,0.08425362408161163,0.4412554204463959
1789202926696674000,2.335674072265625,-0.1092977300286293,0.035883430391550064,0.33883851766586304
1789202926706644000,2.34564404296875,-0.07872703671455383,-0.033483657985925674,0.17313823103904724
1789202926716614000,2.35561376953125,-0.05612532049417496,-0.13879357278347015,-0.02520628646016121
1789202926726585000,2.365585205078125,-0.057425741106271744,-0.2600981593132019,-0.19993574917316437
1789202926736555000,2.375554931640625,-0.07826285064220428,-0.33534231781959534,-0.27481186389923096
1789202926746525000,2.38552490234375,-0.12946878373622894,-0.33954477310180664,-0.1985969841480255
1789202926756496000,2.395495849609375,-0.17800435423851013,-0.19043278694152832,0.005085838492959738
1789202926766466000,2.405466064453125,-0.18899229168891907,0.003369697602465749,0.2210756540298462
1789202926776436000,2.41543603515625,-0.11837005615234375,0.004479969386011362,0.3342245817184448
1789202926786407000,2.425406982421875,-0.059181030839681625,0.057202037423849106,0.37489956617355347
1789202926796376800,2.435376953125,-0.013888917863368988,0.038299985229969025,0.3023843765258789
1789202926806347000,2.445346923828125,0.034865837544202805,-0.08343976736068726,0.12269183248281479
1789202926816318000,2.45531787109375,0.09379253536462784,-0.20790153741836548,-0.11337848752737045
1789202926826287900,2.465287841796875,0.15624207258224487,-0.2820756435394287,-0.3454705774784088
1789202926836258000,2.475258056640625,0.2378770112991333,-0.3527734875679016,-0.5155978202819824
1789202926846229000,2.48522900390625,0.31900808215141296,-0.3587525486946106,-0.5637994408607483
1789202926856199000,2.495198974609375,0.35958772897720337,-0.26780322194099426,-0.45331689715385437
1789202926866169000,2.505169189453125,0.3697309195995331,-0.1049748882651329,-0.2227449268102646
1789202926876140000,2.51514013671875,0.3789995014667511,0.0876811146736145,0.06946349889039993
1789202926886110000,2.52510986328125,0.412854939699173,0.16148529946804047,0.32085952162742615
1789202926896080100,2.535080078125,0.45218050479888916,0.13225017488002777,0.45521119236946106
1789202926906051000,2.545051025390625,0.4626595079898834,0.028957614675164223,0.48745009303092957
1789202926916021000,2.55502099609375,0.43773046135902405,-0.07234450429677963,0.4665120542049408
1789202926925991200,2.5649912109375,0.41650453209877014,-0.1494094580411911,0.423797607421875
1789202926935961900,2.5749619140625,0.4299202263355255,-0.2377057671546936,0.36485013365745544
1789202926945932000,2.58493212890625,0.4525304436683655,-0.29968711733818054,0.29303666949272156
1789202926955902200,2.594902099609375,0.4748128652572632,-0.33876368403434753,0.2106477916240692
1789202926965873000,2.604872802734375,0.4689562916755676,-0.3385032117366791,0.16122031211853027
1789202926975843000,2.614843017578125,0.43128135800361633,-0.19636870920658112,0.1695975512266159
1789202926985813200,2.624813232421875,0.4012361168861389,0.0002985403698403388,0.2086631953716278
1789202926995783200,2.634783203125,0.2671981453895569,0.2023853212594986,0.25061410665512085
1789202927005754000,2.644754150390625,0.322222501039505,0.18403668701648712,0.27593064308166504
1789202927015724000,2.65472412109375,0.37951910495758057,0.08406081795692444,0.2662889361381531
1789202927025694200,2.664694091796875,0.3254004716873169,-0.1372358798980713,0.1705927699804306
1789202927035665200,2.6746650390625,0.26619839668273926,-0.38751816749572754,0.021147895604372025
1789202927045635000,2.684635009765625,0.28650233149528503,-0.5128507614135742,-0.1043490394949913
1789202927055605200,2.694605224609375,0.2634691894054413,-0.4938856065273285,-0.15654167532920837
1789202927065576200,2.704576171875,0.18564097583293915,-0.32175779342651367,-0.1009785458445549
1789202927075546000,2.714546142578125,0.1616498827934265,-0.10181424766778946,0.05788593739271164
1789202927085516000,2.72451611328125,0.18085765838623047,0.05976506322622299,0.26759734749794006
1789202927095487200,2.7344873046875,0.1889994740486145,0.11266795545816422,0.4835597574710846
1789202927105457200,2.74445703125,0.2107902616262436,0.05363473296165466,0.6849463582038879
1789202927115427000,2.754427001953125,0.21330241858959198,-0.15451660752296448,0.8341119289398193
1789202927125398300,2.764398193359375,0.1940658837556839,-0.40280789136886597,0.8881064057350159
1789202927135368200,2.7743681640625,0.1300157904624939,-0.5306918621063232,0.8578566312789917
1789202927145338000,2.784338134765625,0.02804921194911003,-0.6120389103889465,0.7274096608161926
1789202927155309000,2.79430908203125,-0.021266140043735504,-0.6253986358642578,0.5270749926567078
1789202927165279200,2.804279296875,-0.007561779581010342,-0.5450188517570496,0.3175942003726959
1789202927175249200,2.814249267578125,0.036738041788339615,-0.42734575271606445,0.12415816634893417
1789202927185220000,2.82422021484375,0.0671774372458458,-0.31351903080940247,-0.00618306128308177
1789202927195190000,2.83418994140625,0.11245144158601761,-0.22642754018306732,-0.051049068570137024
1789202927205159200,2.8441591796875,0.1767721027135849,-0.14853514730930328,0.00019148127466905862
1789202927215130000,2.854130126953125,0.2015456259250641,-0.23568709194660187,0.08189752697944641
1789202927225100300,2.864100341796875,0.1946275383234024,-0.4656153619289398,0.20003429055213928
1789202927235070200,2.8740703125,0.2181624323129654,-0.6210685968399048,0.3432979881763458
1789202927245041200,2.884041259765625,0.241769477725029,-0.6912834048271179,0.4825360178947449
1789202927255011000,2.894010986328125,0.33486002683639526,-0.4836742579936981,0.6124021410942078
1789202927264981200,2.903981201171875,0.4397651255130768,-0.19042479991912842,0.6583805680274963
1789202927274952200,2.9139521484375,0.4758208692073822,-0.027759458869695663,0.6332922577857971
1789202927284922000,2.923922119140625,0.45279091596603394,-0.02279958873987198,0.6161609292030334
1789202927294892000,2.93389208984375,0.3538488745689392,-0.3478738069534302,0.5934543013572693
1789202927304863200,2.94386328125,0.2251199334859848,-0.7981512546539307,0.5966750979423523
1789202927314833200,2.953833251953125,0.17202049493789673,-1.1587637662887573,0.6474432349205017
1789202927324803000,2.963802978515625,0.151902973651886,-1.341626524925232,0.6944426894187927
1789202927334774300,2.973774169921875,0.12360822409391403,-1.391171932220459,0.6836483478546143
1789202927344744200,2.983744140625,0.14171718060970306,-1.434591293334961,0.6041969656944275
1789202927354714000,2.993714111328125,0.24302808940410614,-1.4516600370407104,0.5065953135490417
1789202927364685300,3.003685302734375,0.42884936928749084,-1.535884141921997,0.4522220492362976
1789202927374655200,3.0136552734375,0.5932849049568176,-1.730090856552124,0.5545015335083008
1789202927384625200,3.023625244140625,0.707047700881958,-1.9790607690811157,0.8037998080253601
1789202927394596000,3.03359619140625,0.7762621641159058,-2.154087781906128,1.1124385595321655
1789202927404566300,3.043566162109375,0.8050165772438049,-2.1580684185028076,1.3346588611602783
1789202927414536200,3.0535361328125,0.7501118183135986,-2.0709033012390137,1.3146476745605469
1789202927424507100,3.063507080078125,0.5914417505264282,-2.054805278778076,1.0456407070159912
1789202927434477000,3.07347705078125,0.5313682556152344,-2.2079060077667236,0.6578471064567566
1789202927444447200,3.083447265625,0.5061933994293213,-2.4028031826019287,0.25219976902008057
1789202927454418200,3.093418212890625,0.07625588774681091,-2.3055849075317383,-0.07969962060451508
1789202927464388000,3.10338818359375,-0.41494205594062805,-1.6875700950622559,-0.2849361300468445
1789202927474358000,3.11335791015625,-0.47020745277404785,-1.0129388570785522,-0.6196451187133789
1789202927484329200,3.1233291015625,-0.2698863446712494,-1.2388421297073364,-1.2397310733795166
1789202927494299100,3.133299072265625,0.17321333289146423,-1.6770985126495361,-1.6345521211624146
1789202927504269000,3.14326904296875,0.7896919846534729,-2.1855390071868896,-1.7469936609268188
1789202927514240300,3.153240234375,1.3216190338134766,-2.8689756393432617,-1.7454863786697388
1789202927524210200,3.163210205078125,1.5764517784118652,-3.8381712436676025,-1.7339857816696167
1789202927534181000,3.17318115234375,1.508748173713684,-5.083690166473389,-1.7012696266174316
1789202927544151000,3.183151123046875,1.2291545867919922,-6.2446417808532715,-1.6357542276382446
1789202927554121200,3.193121337890625,0.8505726456642151,-6.686948776245117,-1.366411805152893
1789202927564092200,3.203092041015625,0.5444185733795166,-6.873134136199951,-0.9265238642692566
1789202927574062000,3.21306201171875,0.2847587764263153,-6.962475776672363,-0.38452422618865967
1789202927584032300,3.2230322265625,-0.010017747059464455,-6.717433929443359,0.27010098099708557
1789202927594003200,3.233003173828125,-0.2993483543395996,-6.270593643188477,0.9747430682182312
1789202927603973000,3.24297314453125,-0.5510492920875549,-5.719081878662109,1.6388896703720093
1789202927613943000,3.252943115234375,-0.6353449821472168,-4.788522720336914,2.125718116760254
1789202927623914200,3.262914306640625,-0.2738043963909149,-3.237976312637329,2.093017101287842
1789202927633884200,3.27288427734375,0.4440176486968994,-2.155177593231201,1.8159950971603394
1789202927643854000,3.28285400390625,1.4129350185394287,-2.0479629039764404,1.5197858810424805
1789202927653825300,3.2928251953125,2.5862762928009033,-2.3216545581817627,1.3117170333862305
1789202927663795200,3.302795166015625,3.645062208175659,-2.4111716747283936,1.2827168703079224
1789202927673765000,3.31276513671875,4.475976943969727,-2.6997013092041016,1.3474808931350708
1789202927683736000,3.322736083984375,5.149580955505371,-2.977374315261841,1.4774900674819946
1789202927693706200,3.332706298828125,5.7502760887146,-3.039602518081665,1.69878351688385
1789202927703676200,3.34267626953125,6.145122528076172,-2.682213068008423,2.0680196285247803
1789202927713647000,3.352647216796875,6.074561595916748,-1.9919205904006958,2.509390354156494
1789202927723617000,3.362616943359375,5.814336776733398,-1.2521717548370361,2.8373465538024902
1789202927733587200,3.372587158203125,5.9279866218566895,-1.101016879081726,2.68764328956604
1789202927743558100,3.38255810546875,6.208424091339111,-1.0883636474609375,2.14731502532959
1789202927753528000,3.392528076171875,6.299702167510986,-0.9504638314247131,1.563997745513916
1789202927763498000,3.402498046875,6.283459186553955,-1.0951945781707764,1.0503789186477661
1789202927773469200,3.41246923828125,5.6981892585754395,-1.2403587102890015,0.7886102199554443
1789202927783439000,3.422439208984375,4.492252349853516,-0.8815361261367798,1.2648802995681763
1789202927793409000,3.432408935546875,3.4820683002471924,-0.13516554236412048,2.203737497329712
1789202927803380200,3.442380126953125,2.8993947505950928,0.28079837560653687,2.817809581756592
1789202927813350100,3.45235009765625,2.483271837234497,0.5412355661392212,3.0128726959228516
1789202927823320000,3.462320068359375,2.3993330001831055,0.8114997744560242,3.0952749252319336
1789202927833291300,3.472291259765625,2.5348029136657715,0.8801145553588867,3.2096598148345947
1789202927843261200,3.48226123046875,2.6686489582061768,0.5900331735610962,3.417928695678711
1789202927853231000,3.492231201171875,2.5680716037750244,0.08269274979829788,3.7183620929718018
1789202927863202000,3.5022021484375,2.331148624420166,-0.36568236351013184,4.055722713470459
1789202927873172200,3.512172119140625,2.1681759357452393,-0.45768287777900696,4.257609844207764
1789202927883142100,3.52214208984375,2.156262159347534,-0.024866467341780663,4.308499336242676
1789202927893113000,3.532113037109375,2.242596387863159,0.7577177882194519,4.266662120819092
1789202927903083000,3.5420830078125,2.2396063804626465,1.5533087253570557,4.123261451721191
1789202927913053200,3.55205322265625,2.032484292984009,2.0248122215270996,3.79440975189209
1789202927923024100,3.562024169921875,1.5418179035186768,1.791347622871399,3.0569920539855957
1789202927932994000,3.571994140625,0.9707794785499573,1.183095932006836,1.7481729984283447
1789202927942964000,3.5819638671875,0.5300292372703552,0.5972775220870972,0.4413132071495056
1789202927952935200,3.59193505859375,0.28950878977775574,0.400444358587265,-0.7749372720718384
1789202927962905000,3.601905029296875,0.18178391456604004,0.713921308517456,-1.6565120220184326
1789202927972875000,3.611875,0.02484889142215252,1.061357855796814,-2.005852460861206
1789202927982846200,3.62184619140625,-0.12027607858181,1.0592057704925537,-1.908797025680542
1789202927992816000,3.631816162109375,-0.2544277608394623,0.873296856880188,-1.478140950202942
1789202928002786000,3.6417861328125,-0.1486525982618332,0.4031091034412384,-0.9110082983970642
1789202928012757000,3.651757080078125,0.2801932990550995,0.050999268889427185,-0.46491387486457825
1789202928022727200,3.66172705078125,0.6045522093772888,-0.3323851525783539,-0.1710100919008255
1789202928032697000,3.671697021484375,0.7629077434539795,-1.0825285911560059,0.028416993096470833
1789202928042668000,3.68166796875,0.7169826030731201,-1.6400456428527832,0.2739817500114441
1789202928052638200,3.69163818359375,0.5302593111991882,-2.165314197540283,0.4790526032447815
1789202928062608100,3.701608154296875,0.38320064544677734,-2.5093297958374023,0.76631098985672
1789202928072579000,3.7115791015625,0.501796543598175,-2.7883267402648926,1.005914330482483
1789202928082549000,3.721549072265625,0.4831658601760864,-3.1259708404541016,0.9945311546325684
1789202928092519200,3.731519287109375,0.41972190141677856,-3.0914008617401123,0.8785086870193481
1789202928102490000,3.741489990234375,0.33941322565078735,-2.8252973556518555,0.8448918461799622
1789202928112460000,3.7514599609375,0.3837524652481079,-2.6543171405792236,0.9004248976707458
1789202928122431200,3.76143115234375,0.5987558364868164,-2.3020660877227783,0.7050034403800964
1789202928132401200,3.771401123046875,0.850511372089386,-1.5658742189407349,0.4109225571155548
1789202928142371000,3.78137109375,0.7074871063232422,-0.36854445934295654,0.25652846693992615
1789202928152342000,3.791342041015625,0.09075440466403961,0.44768109917640686,-0.10362226516008377
1789202928162312200,3.801312255859375,-0.18357622623443604,0.05313911661505699,-0.5679188370704651
1789202928172282000,3.8112822265625,0.15412113070487976,-0.43927961587905884,-0.7158286571502686
1789202928182253000,3.821253173828125,0.27167969942092896,-0.4442591965198517,-0.3317129611968994
1789202928192223000,3.831222900390625,0.31265270709991455,-0.6637036800384521,-0.13230611383914948
1789202928202193200,3.841193115234375,0.1303739845752716,-1.2483389377593994,-0.17471455037593842
1789202928212164000,3.8511640625,-0.07659091800451279,-1.5271239280700684,-0.045330196619033813
1789202928222134000,3.861134033203125,-0.14538942277431488,-1.4786500930786133,-0.08183468133211136
1789202928232104200,3.871104248046875,0.0062520368956029415,-1.256305456161499,-0.4453955888748169
1789202928242075100,3.8810751953125,0.1485348790884018,-1.203171968460083,-0.8616010546684265
1789202928252045000,3.891045166015625,0.15138553082942963,-1.069052815437317,-1.3728710412979126
1789202928262015200,3.90101513671875,0.17167721688747406,-0.7995840311050415,-1.9904087781906128
1789202928271986200,3.910986083984375,0.12572650611400604,-0.4714716672897339,-2.428544759750366
1789202928281956000,3.9209560546875,0.46844205260276794,-0.7886837124824524,-2.5366859436035156
1789202928291926300,3.93092626953125,1.037149429321289,-1.3873945474624634,-2.644904136657715
1789202928301897200,3.940897216796875,1.2783063650131226,-1.6871370077133179,-2.729496955871582
1789202928311867100,3.9508671875,1.595969557762146,-1.6572723388671875,-2.7565882205963135
1789202928321837300,3.96083740234375,1.919337272644043,-1.3326092958450317,-2.8592796325683594
1789202928331808300,3.970808349609375,2.459484338760376,-0.7944436073303223,-3.134465456008911
1789202928341778200,3.980778076171875,3.0444328784942627,-0.5643536448478699,-3.3898613452911377
1789202928351748400,3.990748291015625,3.363924741744995,-0.48644715547561646,-3.3047492504119873
1789202928361719000,4.000718994140625,3.441730499267578,-0.23083028197288513,-2.524864912033081
1789202928371689200,4.010689208984375,2.96752667427063,-0.052624329924583435,-2.3939085006713867
1789202928381659400,4.020659423828125,2.333768367767334,-0.4628688395023346,-2.444404125213623
1789202928391630000,4.030630126953125,1.7901369333267212,-0.47234517335891724,-2.2976627349853516
1789202928401600000,4.04060009765625,1.240169882774353,-0.41827234625816345,-2.110513925552368
1789202928411571200,4.0505712890625,0.7695374488830566,-0.3429728150367737,-1.886773705482483
1789202928421541000,4.060541015625,0.5008215308189392,-0.2747833728790283,-1.695044994354248
1789202928431511000,4.070510986328125,0.3560044467449188,0.0088789789006114,-1.5301426649093628
1789202928441482200,4.080482177734375,0.2460704892873764,0.4116666316986084,-1.3995798826217651
1789202928451452200,4.0904521484375,0.16159182786941528,1.0249241590499878,-1.3505464792251587
1789202928461422000,4.100422119140625,0.245987668633461,1.553969144821167,-1.4769930839538574
1789202928471393000,4.11039306640625,0.2849244177341461,1.8580571413040161,-1.5991973876953125
1789202928481363200,4.12036328125,0.18778055906295776,1.820948839187622,-1.7106934785842896
1789202928491333000,4.1303330078125,-0.2585769593715668,1.213120698928833,-1.6444412469863892
1789202928501304000,4.140303955078125,-0.8035579919815063,1.0008246898651123,-1.2596299648284912
1789202928511274200,4.150274169921875,-1.1026314496994019,0.7519991993904114,-1.0550512075424194
1789202928521244200,4.160244140625,-1.2222676277160645,0.3678211569786072,-1.0859653949737549
1789202928531215000,4.170215087890625,-1.375760793685913,0.20163404941558838,-1.0164984464645386
1789202928541185000,4.18018505859375,-1.4336485862731934,0.4361325800418854,-0.604005753993988
1789202928551155500,4.190155517578125,-1.3965104818344116,0.3290085196495056,-0.4842553734779358
1789202928561126100,4.200126220703125,-1.3598936796188354,0.5082517862319946,-0.2910584807395935
1789202928571096000,4.210095947265625,-1.2709991931915283,0.7683062553405762,-0.08301818370819092
1789202928581066200,4.220066162109375,-1.2351869344711304,0.7915138602256775,-0.06384050101041794
1789202928591037200,4.230037109375,-1.2781527042388916,1.1508005857467651,-0.14605414867401123
1789202928601007000,4.240007080078125,-1.3438467979431152,1.7695685625076294,-0.18728014826774597
1789202928610977300,4.249977294921875,-1.2850687503814697,1.3933911323547363,0.04008376970887184
1789202928620948200,4.2599482421875,-1.300294280052185,1.106174349784851,0.09981340914964676
1789202928630918100,4.269918212890625,-1.4261538982391357,1.158570408821106,0.16514155268669128
1789202928640888300,4.279888427734375,-1.5032705068588257,0.9186376929283142,0.22481286525726318
1789202928650859000,4.28985888671875,-1.5735012292861938,0.815312385559082,0.23786582052707672
1789202928660829200,4.2998291015625,-1.712748408317566,0.985977053642273,0.29173386096954346
1789202928670799400,4.30979931640625,-1.8387364149093628,0.9123278856277466,0.29256927967071533
1789202928680770000,4.31977001953125,-1.7894583940505981,0.561121940612793,-0.1032227948307991
1789202928690740200,4.329740234375,-1.148536205291748,0.2436494082212448,0.048711612820625305
1789202928700711200,4.339711181640625,-0.9504667520523071,0.19420330226421356,0.04550277069211006
1789202928710681000,4.34968115234375,-0.5554517507553101,0.042096853256225586,-0.013846040703356266
1789202928720651300,4.3596513671875,-0.0005637911963276565,0.5026854872703552,0.06752791255712509
1789202928730622200,4.369622314453125,0.608348548412323,0.7849273085594177,-0.011923238635063171
1789202928740592000,4.379592041015625,1.0140435695648193,1.0525579452514648,-0.1074119433760643
1789202928750562300,4.389562255859375,1.2154803276062012,1.3017851114273071,-0.15366145968437195
1789202928760533200,4.399533203125,1.4062542915344238,1.2540817260742188,-0.17393743991851807
1789202928770503200,4.409503173828125,1.643402099609375,1.2051552534103394,-0.09440959244966507
1789202928780473300,4.419473388671875,1.8807454109191895,0.9534114003181458,-0.06869011372327805
1789202928790444000,4.429444091796875,2.033766031265259,0.4317876398563385,-0.2196016013622284
1789202928800414200,4.439414306640625,2.1773922443389893,0.08651891350746155,-0.16878849267959595
1789202928810384400,4.44938427734375,2.385529041290283,-0.21037907898426056,0.043954674154520035
1789202928820355000,4.45935498046875,2.503953456878662,-0.36574921011924744,0.14547596871852875
1789202928830325200,4.4693251953125,2.2957510948181152,-0.29675763845443726,0.04915503039956093
1789202928840295400,4.47929541015625,2.2435860633850098,0.17339682579040527,0.12022201716899872
1789202928850266000,4.48926611328125,2.3745830059051514,0.5409266352653503,0.09937026351690292
1789202928860236300,4.499236328125,2.7801942825317383,0.37343642115592957,0.3152839243412018
1789202928870206200,4.509206298828125,2.805819034576416,-0.4768001139163971,0.7375379800796509
1789202928880177200,4.51917724609375,2.701920747756958,-0.5358450412750244,0.5232935547828674
1789202928890147300,4.529147216796875,2.4311881065368652,-1.528727412223816,0.33461794257164
1789202928900117200,4.5391171875,2.5154294967651367,-2.1390931606292725,0.4818337559700012
1789202928910088200,4.549088134765625,2.2977988719940186,-1.83757746219635,0.5326092839241028
1789202928920058400,4.559058349609375,2.0985934734344482,-1.5238580703735352,0.3941744565963745
1789202928930028300,4.5690283203125,1.634677529335022,-0.5507622361183167,0.09564875811338425
1789202928939999000,4.5789990234375,1.2713541984558105,-0.5451445579528809,0.4495583772659302
1789202928949969400,4.588969482421875,0.6821396946907043,0.035588089376688004,0.9905124306678772
1789202928959939300,4.598939208984375,0.11612048000097275,0.6908767223358154,1.329909086227417
1789202928969910300,4.60891015625,-0.3803792893886566,0.8800801634788513,1.4736181497573853
1789202928979880400,4.61888037109375,-1.006062388420105,0.7989184856414795,1.50123929977417
1789202928989850400,4.628850341796875,-1.7327649593353271,0.3990597724914551,1.3105759620666504
1789202928999821300,4.6388212890625,-2.24269962310791,-0.2172529548406601,0.6292263865470886
1789202929009791200,4.648791259765625,-2.5522336959838867,-0.036978788673877716,-0.1813037395477295
1789202929019761400,4.658761474609375,-2.367319345474243,0.17152221500873566,-0.5778713226318359
1789202929029732400,4.668732421875,-1.231567144393921,0.008410529233515263,-0.6281859278678894
1789202929039702300,4.678702392578125,0.1584373116493225,0.004347876645624638,-0.6081717014312744
1789202929049672200,4.688672119140625,1.1694467067718506,0.6198970675468445,-0.30626538395881653
1789202929059643400,4.698643310546875,1.4843196868896484,1.08774733543396,0.43518662452697754
1789202929069613300,4.70861328125,0.7642553448677063,0.869268536567688,-0.3461478352546692
1789202929079583200,4.718583251953125,0.8206309676170349,1.518764853477478,0.4984513521194458
1789202929089554400,4.728554443359375,0.9766080379486084,1.4959309101104736,0.6141036152839661
1789202929099524400,4.7385244140625,1.4668680429458618,1.097205638885498,0.8206672072410583
1789202929109495000,4.7484951171875,1.8128079175949097,0.5327759981155396,0.6550713181495667
1789202929119465200,4.75846533203125,1.9878214597702026,0.22300778329372406,0.4245899021625519
1789202929129435400,4.768435302734375,1.8945144414901733,0.1710180789232254,0.12692466378211975
1789202929139406000,4.778406005859375,1.8956103324890137,0.5929805040359497,-0.03453906998038292
1789202929149376300,4.788376220703125,1.9074944257736206,1.0964961051940918,0.03911731019616127
1789202929159346200,4.79834619140625,1.7589236497879028,1.4940812587738037,0.08152788132429123
1789202929169317000,4.808317138671875,1.6560747623443604,1.5914256572723389,0.04569292068481445
1789202929179287300,4.818287353515625,1.5873968601226807,1.4833985567092896,0.007652859669178724
1789202929189257200,4.82825732421875,1.7095755338668823,1.383780598640442,0.04704207554459572
1789202929199228400,4.838228515625,2.04282808303833,1.3579565286636353,0.09093523025512695
1789202929209198600,4.848198486328125,2.4916961193084717,1.661998987197876,0.06320906430482864
1789202929219168800,4.858168701171875,2.9346094131469727,2.2743947505950928,0.07166699320077896
1789202929229139500,4.868139404296875,3.1484224796295166,2.6813621520996094,0.005456284619867802
1789202929239109600,4.878109619140625,2.182945966720581,0.25286662578582764,-0.9240759015083313
1789202929249079600,4.88807958984375,1.2335118055343628,0.29696324467658997,-0.3414958119392395
1789202929259050500,4.898050537109375,0.672974169254303,1.013630747795105,1.0235127210617065
1789202929269020700,4.908020751953125,0.036138828843832016,-1.050460934638977,0.7609543204307556
1789202929278990600,4.917990478515625,-0.8286822438240051,-1.7018177509307861,1.052156925201416
1789202929288961500,4.92796142578125,-2.0365190505981445,-1.8224527835845947,0.6690316200256348
1789202929298931700,4.937931640625,-2.4998769760131836,-0.8958442211151123,0.3679359555244446
1789202929308901600,4.947901611328125,-2.5734641551971436,-0.08225226402282715,-0.1376689225435257
1789202929318872600,4.95787255859375,-2.2686688899993896,1.3178585767745972,-0.7095910310745239
1789202929328842800,4.9678427734375,-1.7541027069091797,2.98231840133667,-1.060167670249939
1789202929338812700,4.977812744140625,-1.470810890197754,3.9168529510498047,-0.9640350341796875
1789202929348783600,4.98778369140625,-1.3737226724624634,4.412313938140869,-0.5423551201820374
1789202929358753500,4.99775341796875,-1.3197052478790283,4.179262638092041,0.13631363213062286
1789202929368723700,5.0077236328125,-1.4382984638214111,3.274350881576538,1.0504953861236572
1789202929378694700,5.017694580078125,-1.5748144388198853,2.4704763889312744,1.8763551712036133
1789202929388664600,5.02766455078125,-1.6219305992126465,2.511744737625122,2.2850759029388428
1789202929398634800,5.037634765625,-1.559723973274231,3.0826170444488525,2.2865304946899414
1789202929408605700,5.047605712890625,-1.5264687538146973,3.4186007976531982,1.7734253406524658
1789202929418575600,5.05757568359375,-1.5828570127487183,2.735490560531616,0.9167612195014954
1789202929428545500,5.067545654296875,-1.672156810760498,1.3412963151931763,0.056298159062862396
1789202929438516700,5.077516845703125,-1.8030221462249756,-0.3186248540878296,-0.5719170570373535
1789202929448486700,5.087486572265625,-1.8558716773986816,-1.1741472482681274,-0.9638733863830566
1789202929458456600,5.09745654296875,-1.9053820371627808,-1.269142508506775,-1.2111949920654297
1789202929468427800,5.107427734375,-1.9721455574035645,-0.9640501737594604,-1.2251217365264893
1789202929478397700,5.117397705078125,-2.025064468383789,-0.7122264504432678,-1.0155740976333618
1789202929488367600,5.12736767578125,-2.085137367248535,-0.7458446025848389,-0.7591351270675659
1789202929498338600,5.137338623046875,-2.066622257232666,-0.8470077514648438,-0.62776780128479
1789202929508308700,5.147308837890625,-1.8941082954406738,-0.9692726731300354,-0.5737423896789551
1789202929518278700,5.157278564453125,-1.7150248289108276,-1.190933346748352,-0.5796146392822266
1789202929528249600,5.16724951171875,-1.6534419059753418,-1.3344337940216064,-0.597593367099762
1789202929538219500,5.177219482421875,-1.6825393438339233,-1.3504005670547485,-0.57487952709198
1789202929548189700,5.187189697265625,-1.6515209674835205,-1.297257661819458,-0.5820863246917725
1789202929558160600,5.19716064453125,-1.4987255334854126,-1.2181791067123413,-0.5067135095596313
1789202929568130600,5.207130615234375,-1.3662959337234497,-0.9542018175125122,-0.4844404458999634
1789202929578100500,5.2171005859375,-1.3993366956710815,-0.6791234016418457,-0.49140942096710205
1789202929588071700,5.22707177734375,-1.4905321598052979,-0.503075122833252,-0.4881121516227722
1789202929598041600,5.23704150390625,-1.519232988357544,-0.4208817183971405,-0.5383201837539673
1789202929608011500,5.247011474609375,-1.3984503746032715,-0.4440762400627136,-0.5403684377670288
1789202929617982700,5.256982666015625,-1.1858744621276855,-0.6367024183273315,-0.4060087502002716
1789202929627952600,5.26695263671875,-0.8766353726387024,-0.8058152794837952,-0.2556847631931305
1789202929637922600,5.276922607421875,-0.6225922107696533,-0.8178144097328186,-0.15620344877243042
1789202929647893800,5.286893798828125,-0.4493437111377716,-0.5917410850524902,-0.004087686073035002
1789202929657863700,5.29686376953125,-0.35099372267723083,-0.2653086185455322,0.14360563457012177
1789202929667833600,5.30683349609375,-0.25300323963165283,0.17126283049583435,0.23286600410938263
1789202929677804500,5.316804443359375,-0.09586474299430847,0.5993020534515381,0.27006450295448303
1789202929687774700,5.326774658203125,0.07412322610616684,0.8654969930648804,0.29655390977859497
1789202929697744600,5.33674462890625,0.20477232336997986,0.7968454957008362,0.3533455431461334
1789202929707715600,5.346715576171875,0.33340272307395935,0.5519843697547913,0.36344024538993835
1789202929717685500,5.356685546875,0.5050684809684753,0.3904244601726532,0.3380821645259857
1789202929727655700,5.36665576171875,0.6382244229316711,0.31182900071144104,0.34318238496780396
1789202929737626600,5.376626708984375,0.7495917081832886,0.3982861340045929,0.3592311441898346
1789202929747596500,5.386596435546875,0.8342293500900269,0.49544331431388855,0.3794112503528595
1789202929757566500,5.39656640625,0.9353341460227966,0.592955470085144,0.4166070818901062
1789202929767537700,5.40653759765625,1.0444339513778687,0.6624147295951843,0.47311028838157654
1789202929777507600,5.416507568359375,1.150139331817627,0.6097579002380371,0.536028265953064
1789202929787477500,5.4264775390625,1.261379361152649,0.599757730960846,0.5472122430801392
1789202929797448700,5.43644873046875,1.3708856105804443,0.7364165186882019,0.48625966906547546
1789202929807418600,5.446418701171875,1.4185189008712769,0.9275526404380798,0.40583911538124084
1789202929817388500,5.456388427734375,1.432417631149292,1.1415882110595703,0.3433823883533478
1789202929827359500,5.466359375,1.464538335800171,1.2762224674224854,0.280637264251709
1789202929837329700,5.47632958984375,1.5286915302276611,1.254948377609253,0.22845634818077087
1789202929847299600,5.486299560546875,1.6462204456329346,1.1449060440063477,0.13865642249584198
1789202929857270500,5.4962705078125,1.8052340745925903,1.063143253326416,0.05042429268360138
1789202929867240700,5.50624072265625,1.9572335481643677,0.9584453105926514,-0.03967257961630821
1789202929877210600,5.516210693359375,2.078798294067383,0.7425864934921265,-0.1057695746421814
1789202929887181600,5.526181640625,2.1975250244140625,0.5845779776573181,-0.13753549754619598
1789202929897151500,5.5361513671875,2.2906200885772705,0.4454523026943207,-0.12482023239135742
1789202929907121700,5.54612158203125,2.3638851642608643,0.3124907910823822,-0.07743673771619797
1789202929917092600,5.556092529296875,2.4223434925079346,0.22342589497566223,-0.0379716157913208
1789202929927062500,5.5660625,2.421814441680908,0.2428659051656723,-0.006691192276775837
1789202929937032400,5.576032470703125,2.3346107006073,0.42773643136024475,-0.03405117616057396
1789202929947003600,5.586003662109375,2.1831417083740234,0.7790587544441223,-0.13004028797149658
1789202929956973600,5.5959736328125,2.0234761238098145,1.2314413785934448,-0.2976604402065277
1789202929966943500,5.605943603515625,1.9835050106048584,1.3877689838409424,-0.4682031571865082
1789202929976914700,5.615914794921875,1.9248422384262085,1.0972516536712646,-0.5914430618286133
1789202929986884600,5.625884521484375,1.854724407196045,0.5734137296676636,-0.7048189043998718
1789202929996854500,5.6358544921875,1.8262197971343994,0.09552305936813354,-0.8077127933502197
1789202930006825500,5.645825439453125,1.7675679922103882,-0.2715843617916107,-0.8902590870857239
1789202930016795600,5.655795654296875,1.6273448467254639,-0.6583896279335022,-0.8696153163909912
1789202930026765600,5.665765625,1.4935885667800903,-1.023647427558899,-0.7226495742797852
1789202930036736500,5.675736572265625,1.4195891618728638,-1.2377523183822632,-0.48910897970199585
1789202930046706400,5.68570654296875,1.3740017414093018,-1.335126519203186,-0.30580732226371765
1789202930056676600,5.695676513671875,1.3133176565170288,-1.356139898300171,-0.1982686072587967
1789202930066647600,5.7056474609375,1.2036737203598022,-1.268331527709961,-0.13995204865932465
1789202930076617500,5.715617431640625,1.050591230392456,-1.054801106452942,-0.12927596271038055
1789202930086587600,5.725587646484375,0.883237361907959,-0.6403163075447083,-0.20303939282894135
1789202930096557600,5.7355576171875,0.6837772727012634,-0.16612185537815094,-0.34447988867759705
1789202930106528500,5.745528564453125,0.5670647621154785,0.11889816075563431,-0.5150265693664551
1789202930116498400,5.75549853515625,0.5480124950408936,0.35021448135375977,-0.6139827370643616
1789202930126468600,5.765468505859375,0.4747864902019501,0.6438192129135132,-0.6210970878601074
1789202930136439600,5.775439453125,0.3932807147502899,0.8577386736869812,-0.571429967880249
1789202930146409500,5.785409423828125,0.29567453265190125,0.7415907382965088,-0.5009581446647644
1789202930156379400,5.79537939453125,0.19709442555904388,0.4299801290035248,-0.44455188512802124
1789202930166350600,5.8053505859375,0.127356618642807,0.1753409206867218,-0.4614408612251282
1789202930176320500,5.815320556640625,0.06975724548101425,0.020472517237067223,-0.5254930853843689
1789202930186290400,5.82529052734375,-0.0075692362152040005,-0.055813997983932495,-0.5832357406616211
1789202930196261600,5.83526171875,-0.11544403433799744,-0.07642792910337448,-0.6095264554023743
1789202930206231000,5.84523095703125,-0.24036839604377747,-0.08984360098838806,-0.6075853109359741
1789202930216201000,5.855200927734375,-0.3564462661743164,-0.1149287149310112,-0.5811377167701721
1789202930226172000,5.865171875,-0.48179247975349426,-0.13478897511959076,-0.537891685962677
1789202930236142000,5.87514208984375,-0.593412458896637,-0.08615725487470627,-0.495975136756897
1789202930246112000,5.885112060546875,-0.6875560283660889,0.005365736782550812,-0.4411204159259796
1789202930256083000,5.8950830078125,-0.7249108552932739,0.09342502057552338,-0.3679215610027313
1789202930266052900,5.905052978515625,-0.7222378253936768,0.14962491393089294,-0.2715185880661011
1789202930276023000,5.91502294921875,-0.6867123246192932,0.09549403190612793,-0.1554311364889145
1789202930285994000,5.924993896484375,-0.6783310770988464,0.062374960631132126,-0.10555519163608551
1789202930295964000,5.9349638671875,-0.6896883845329285,0.08537854999303818,-0.11070147901773453
1789202930305934000,5.94493408203125,-0.7319929599761963,0.05976666137576103,-0.10872381925582886
1789202930315905000,5.954905029296875,-0.8271658420562744,0.03202344477176666,-0.10419164597988129
1789202930325875000,5.964875,-0.9234141111373901,-0.059125106781721115,-0.06927227973937988
1789202930335845000,5.97484521484375,-0.9743731617927551,-0.1457151174545288,0.003477555699646473
1789202930345816000,5.984816162109375,-0.9949290156364441,-0.1917944699525833,0.02827531285583973
1789202930355786000,5.994785888671875,-0.984404444694519,-0.2054612785577774,-0.026249980553984642
1789202930365756200,6.004756103515625,-0.9973410367965698,-0.20717395842075348,-0.1184544712305069
1789202930375726800,6.014726806640625,-1.0069113969802856,-0.20196402072906494,-0.21700182557106018
1789202930385697000,6.024697021484375,-1.004287838935852,-0.15244200825691223,-0.27348586916923523
1789202930395667200,6.034667236328125,-0.967589795589447,-0.17127801477909088,-0.22901400923728943
1789202930405638000,6.044637939453125,-0.9629330039024353,-0.1709488481283188,-0.13084590435028076
1789202930415608000,6.054608154296875,-1.0102224349975586,-0.015180017799139023,-0.04541728273034096
1789202930425578200,6.064578125,-1.0950673818588257,0.34701892733573914,-0.023959394544363022
1789202930435549000,6.074548828125,-1.1659923791885376,0.7847086787223816,-0.09289718419313431
1789202930445518800,6.084518798828125,-1.2326710224151611,1.052459716796875,-0.19422699511051178
1789202930455489300,6.0944892578125,-1.3054198026657104,1.0798228979110718,-0.2660961151123047
1789202930465460000,6.1044599609375,-1.3218562602996826,0.9002874493598938,-0.2822151780128479
1789202930475430000,6.114429931640625,-1.3232232332229614,0.5054895281791687,-0.22056832909584045
1789202930485400000,6.124400146484375,-1.3156931400299072,0.058932825922966,-0.14894767105579376
1789202930495371000,6.13437109375,-1.312097430229187,-0.21931052207946777,-0.13058863580226898
1789202930505341000,6.1443408203125,-1.3527462482452393,-0.34742000699043274,-0.1582716554403305
1789202930515311000,6.15431103515625,-1.4273632764816284,-0.4162760376930237,-0.21238230168819427
1789202930525282000,6.164281982421875,-1.5171042680740356,-0.3672312796115875,-0.28009557723999023
1789202930535252000,6.174251953125,-1.635998010635376,-0.2731790840625763,-0.32942530512809753
1789202930545222100,6.18422216796875,-1.7703973054885864,-0.19830696284770966,-0.3687189221382141
1789202930555192800,6.19419287109375,-1.8636183738708496,-0.1564556509256363,-0.41265788674354553
1789202930565163000,6.2041630859375,-1.8947323560714722,-0.12155146151781082,-0.4528455138206482
1789202930575133200,6.21413330078125,-1.8690147399902344,0.08612929284572601,-0.4510497450828552
1789202930585104000,6.224103759765625,-1.8226253986358643,0.3350224792957306,-0.40402019023895264
1789202930595074000,6.234073974609375,-1.8046109676361084,0.3844805657863617,-0.3073982894420624
1789202930605044200,6.244044189453125,-1.821678876876831,0.05885479599237442,-0.21836349368095398
1789202930615015000,6.254014892578125,-1.8093793392181396,-0.5525460243225098,-0.15892626345157623
1789202930624985000,6.263985107421875,-1.7401312589645386,-1.1204220056533813,-0.2133554220199585
1789202930634955300,6.273955322265625,-1.607222557067871,-1.2385773658752441,-0.3274420499801636
1789202930644926000,6.283926025390625,-1.4846587181091309,-1.049245834350586,-0.38773706555366516
1789202930654896000,6.293896240234375,-1.374574065208435,-0.9061427116394043,-0.4389595091342926
1789202930664866000,6.303865966796875,-1.2247246503829956,-0.9107917547225952,-0.45587751269340515
1789202930674836200,6.313836181640625,-1.0569145679473877,-0.955477237701416,-0.4306488633155823
1789202930684807200,6.32380712890625,-0.9549981355667114,-0.8289093971252441,-0.31875187158584595
1789202930694777000,6.333777099609375,-0.9143121838569641,-0.5514690279960632,-0.12349797040224075
1789202930704747000,6.3437470703125,-0.8222799897193909,-0.3064044117927551,0.06863845139741898
1789202930714718200,6.35371826171875,-0.6912263631820679,-0.11181201785802841,0.2091207355260849
1789202930724688100,6.363688232421875,-0.49648991227149963,0.07780824601650238,0.33649811148643494
1789202930734658000,6.373657958984375,-0.28184500336647034,0.4818454682826996,0.4305332899093628
1789202930744629200,6.383629150390625,-0.1486872136592865,0.7710669040679932,0.5608769059181213
1789202930754599200,6.39359912109375,-0.027124561369419098,0.7742911577224731,0.6588716506958008
1789202930764569000,6.403569091796875,0.08827127516269684,0.5457789301872253,0.6378853917121887
1789202930774540000,6.4135400390625,0.22955089807510376,0.3723061978816986,0.5655214786529541
1789202930784510200,6.42351025390625,0.32915472984313965,0.47341388463974,0.5894728302955627
1789202930794480000,6.433480224609375,0.4211634695529938,0.6500927805900574,0.7108903527259827
1789202930804451000,6.443451171875,0.5523819327354431,0.9033018946647644,0.7887492179870605
1789202930814421000,6.4534208984375,0.6880905032157898,0.9428237080574036,0.8790088295936584
1789202930824391200,6.46339111328125,0.8428137898445129,0.8548938632011414,0.9784523248672485
1789202930834362000,6.473362060546875,0.998608410358429,0.802845299243927,1.0027296543121338
1789202930844332000,6.48333203125,1.1253762245178223,0.7542351484298706,0.9566236734390259
1789202930854302200,6.49330224609375,1.2210561037063599,0.675438642501831,0.8982887268066406
1789202930864273200,6.503273193359375,1.3189973831176758,0.7073385119438171,0.8126601576805115
1789202930874243000,6.5132431640625,1.4122871160507202,0.742469847202301,0.7141298651695251
1789202930884213000,6.523212890625,1.4848209619522095,0.7040439248085022,0.6272268891334534
1789202930894184200,6.53318408203125,1.5661823749542236,0.5933845043182373,0.5375297665596008
1789202930904154000,6.543154052734375,1.6459683179855347,0.4714106619358063,0.4449460506439209
1789202930914124000,6.5531240234375,1.7290579080581665,0.37352779507637024,0.359840989112854
1789202930924095200,6.56309521484375,1.8346953392028809,0.30809924006462097,0.2943730354309082
1789202930934065200,6.573065185546875,1.9678754806518555,0.23062042891979218,0.2618081867694855
1789202930944035000,6.58303515625,2.1104795932769775,0.09021831303834915,0.23753665387630463
1789202930954006000,6.593006103515625,2.229627847671509,-0.037830203771591187,0.20682081580162048
1789202930963976200,6.60297607421875,2.2947475910186768,-0.10485104471445084,0.183489128947258
1789202930973946000,6.612946044921875,2.3154735565185547,-0.08640546351671219,0.15364788472652435
1789202930983917000,6.6229169921875,2.335479974746704,0.12725035846233368,0.08603288233280182
1789202930993887000,6.632886962890625,2.336008310317993,0.4593428075313568,-0.010577542707324028
1789202931003857200,6.642857177734375,2.285036563873291,0.7377981543540955,-0.07807882130146027
1789202931013828000,6.652828125,2.254263162612915,0.7879889011383057,-0.084142304956913
1789202931023798000,6.662798095703125,2.197239875793457,0.5845816731452942,-0.08389862626791
1789202931033768000,6.672767822265625,2.105612277984619,0.2694796621799469,-0.11270631104707718
1789202931043738000,6.682738037109375,1.9819731712341309,-0.027880899608135223,-0.19288556277751923
1789202931053709000,6.692708984375,1.826859474182129,-0.23185959458351135,-0.28385302424430847
1789202931063679000,6.702678955078125,1.629137396812439,-0.3683391511440277,-0.34552890062332153
1789202931073649200,6.712649169921875,1.4529242515563965,-0.5457349419593811,-0.37059351801872253
1789202931083620000,6.7226201171875,1.3669278621673584,-0.723721981048584,-0.3448287546634674
1789202931093590000,6.732590087890625,1.329450011253357,-0.8493001461029053,-0.2760142683982849
1789202931103560000,6.742559814453125,1.3027784824371338,-0.8929973244667053,-0.16468721628189087
1789202931113531100,6.75253125,1.2525850534439087,-0.9010997414588928,-0.027120301499962807
1789202931123501000,6.7625009765625,1.1742372512817383,-0.8603736162185669,0.07964050024747849
1789202931133471000,6.772470947265625,1.126444697380066,-0.34408947825431824,0.1201556995511055
1789202931143442200,6.782442138671875,1.098193883895874,0.4744695723056793,0.08780229091644287
1789202931153412000,6.792412109375,1.0518319606781006,1.0671494007110596,0.005959089379757643
1789202931163382000,6.802382080078125,0.9721038341522217,1.0321141481399536,-0.19340941309928894
1789202931173353000,6.81235302734375,0.8338605165481567,0.707500696182251,-0.4563683271408081
1789202931183323100,6.8223232421875,0.7267055511474609,0.564716637134552,-0.6272503137588501
1789202931193293000,6.83229296875,0.6740607023239136,0.40746816992759705,-0.6905779242515564
1789202931203264500,6.842264404296875,0.6463704705238342,0.24950143694877625,-0.6661447286605835
1789202931213234700,6.852234619140625,0.5728893280029297,0.13627475500106812,-0.5974774956703186
1789202931223204600,6.86220458984375,0.463398814201355,0.11165861785411835,-0.5231422781944275
1789202931233175600,6.872175537109375,0.3291419446468353,0.09159782528877258,-0.45361462235450745
1789202931243145500,6.8821455078125,0.14766135811805725,0.039805468171834946,-0.41550904512405396
1789202931253115600,6.89211572265625,-0.04597494751214981,-0.050322026014328,-0.4330819249153137
1789202931263085600,6.90208544921875,-0.22564004361629486,-0.15135303139686584,-0.47214198112487793
1789202931273056500,6.912056396484375,-0.4221065044403076,-0.21033379435539246,-0.4884066879749298
1789202931283026400,6.9220263671875,-0.5897673964500427,-0.157672718167305,-0.4622645676136017
1789202931292996600,6.93199658203125,-0.6607939004898071,-0.05920526757836342,-0.425705224275589
1789202931302967600,6.941967529296875,-0.6688970923423767,0.028807945549488068,-0.3884534537792206
1789202931312937500,6.9519375,-0.675364077091217,-0.043168775737285614,-0.34274643659591675
1789202931322907400,6.961907470703125,-0.6812533736228943,-0.11977646499872208,-0.2632473409175873
1789202931332878600,6.971878662109375,-0.7103865146636963,-0.16459614038467407,-0.17962701618671417
1789202931342848500,6.9818486328125,-0.758972704410553,-0.19912642240524292,-0.13247787952423096
1789202931352818400,6.991818359375,-0.7929655313491821,-0.13709713518619537,-0.13799329102039337
1789202931362789600,7.00178955078125,-0.8491222858428955,-0.17869384586811066,-0.16478389501571655
1789202931372759600,7.011759521484375,-0.9246883988380432,-0.1647636443376541,-0.1685408055782318
1789202931382729500,7.0217294921875,-0.9958560466766357,-0.1100066602230072,-0.1380220502614975
1789202931392700700,7.03170068359375,-1.0425904989242554,-0.0920252650976181,-0.14414066076278687
1789202931402670600,7.041670654296875,-1.0528128147125244,-0.09476272761821747,-0.24914191663265228
1789202931412640500,7.051640625,-1.0254967212677002,-0.10712538659572601,-0.3995170295238495
1789202931422611500,7.061611572265625,-1.0002766847610474,-0.07508409768342972,-0.5066275000572205
1789202931432581600,7.07158154296875,-1.0112403631210327,0.05217398703098297,-0.5429218411445618
1789202931442551600,7.081551513671875,-1.0639804601669312,0.21807560324668884,-0.47369274497032166
1789202931452522500,7.0915224609375,-1.1385577917099,0.36205407977104187,-0.33374014496803284
1789202931462492400,7.101492431640625,-1.1437536478042603,0.5287322998046875,-0.18782609701156616
1789202931472462600,7.111462646484375,-1.1478482484817505,0.7047674655914307,-0.11033263057470322
1789202931482432500,7.1214326171875,-1.210734248161316,0.8617251515388489,-0.14614123106002808
1789202931492403500,7.131403564453125,-1.296114444732666,1.050910234451294,-0.2856658399105072
1789202931502373400,7.141373291015625,-1.3697338104248047,1.169909119606018,-0.4776802957057953
1789202931512343600,7.151343505859375,-1.4500904083251953,1.1173070669174194,-0.6164208650588989
1789202931522314500,7.161314453125,-1.499269962310791,0.9706345796585083,-0.6402721405029297
1789202931532284400,7.171284423828125,-1.5138568878173828,0.707053005695343,-0.6086734533309937
1789202931542254300,7.18125439453125,-1.5240378379821777,0.37330007553100586,-0.5719191431999207
1789202931552225500,7.1912255859375,-1.5399256944656372,0.13310745358467102,-0.5640407204627991
1789202931562195500,7.201195556640625,-1.592734932899475,0.01581651344895363,-0.5657259821891785
1789202931572165400,7.211165283203125,-1.667079210281372,-0.045826878398656845,-0.574432909488678
1789202931582136600,7.221136474609375,-1.711978793144226,-0.10930971056222916,-0.5731040239334106
1789202931592106500,7.2311064453125,-1.67928946018219,-0.12091071158647537,-0.5973672866821289
1789202931602076400,7.241076416015625,-1.6065011024475098,0.0145874647423625,-0.6441004276275635
1789202931612047600,7.251047607421875,-1.6204406023025513,0.27643585205078125,-0.6174629330635071
1789202931622017500,7.261017578125,-1.6529841423034668,0.5732851028442383,-0.4795929789543152
1789202931631987500,7.270987548828125,-1.6670656204223633,0.5742645859718323,-0.2971312701702118
1789202931641957600,7.28095751953125,-1.6984783411026,0.2714086174964905,-0.11677109450101852
1789202931651928600,7.290928466796875,-1.7314645051956177,-0.2728283405303955,-0.03482722118496895
1789202931661898500,7.3008984375,-1.718363642692566,-0.904524028301239,-0.07123663276433945
1789202931671868700,7.31086865234375,-1.6334937810897827,-1.32160222530365,-0.16794826090335846
1789202931681839400,7.32083935546875,-1.5359792709350586,-1.3925869464874268,-0.2958580255508423
1789202931691809500,7.3308095703125,-1.3976328372955322,-1.2894706726074219,-0.37329262495040894
1789202931701779700,7.34077978515625,-1.2309620380401611,-1.07227623462677,-0.34750205278396606
1789202931711750400,7.35075048828125,-1.1142455339431763,-0.8950567245483398,-0.27634263038635254
1789202931721720600,7.360720458984375,-1.0624494552612305,-0.7430354952812195,-0.20496194064617157
1789202931731690800,7.370690673828125,-1.0681790113449097,-0.6551618576049805,-0.10991904139518738
1789202931741661400,7.380661376953125,-1.0310057401657104,-0.6626210808753967,0.14280615746974945
1789202931751631600,7.390631591796875,-0.9394689202308655,-0.4810662269592285,0.36795592308044434
1789202931761601500,7.4006015625,-0.7619788646697998,-0.2526514232158661,0.5167824029922485
1789202931771571700,7.41057177734375,-0.6159310936927795,0.015982694923877716,0.6087690591812134
1789202931781542700,7.420542724609375,-0.5176034569740295,0.16162298619747162,0.6545746326446533
1789202931791512600,7.4305126953125,-0.42112112045288086,0.20256535708904266,0.6464442610740662
1789202931801482500,7.440482421875,-0.28705069422721863,0.22672395408153534,0.6161651611328125
1789202931811453700,7.45045361328125,-0.06330759823322296,0.26814889907836914,0.6057218909263611
1789202931821423600,7.460423583984375,0.14578117430210114,0.30999407172203064,0.6041876077651978
1789202931831393500,7.4703935546875,0.3216584622859955,0.411508172750473,0.6154623627662659
1789202931841364700,7.48036474609375,0.4802244007587433,0.46845588088035583,0.6586556434631348
1789202931851334700,7.490334716796875,0.6296147108078003,0.5239242315292358,0.6953558921813965
1789202931861304600,7.5003046875,0.7866067290306091,0.626500129699707,0.7077390551567078
1789202931871275800,7.51027587890625,0.9132903218269348,0.6880167722702026,0.7265430688858032
1789202931881245700,7.52024560546875,1.0285950899124146,0.7639437317848206,0.7194409966468811
1789202931891215600,7.530215576171875,1.1447712182998657,0.8322969675064087,0.6787020564079285
1789202931901185500,7.540185546875,1.2630702257156372,0.8509103059768677,0.6684925556182861
1789202931911156700,7.55015673828125,1.3761956691741943,0.8246981501579285,0.6680845618247986
1789202931921126700,7.560126708984375,1.4531821012496948,0.7084447741508484,0.6494645476341248
1789202931931096600,7.5700966796875,1.4900953769683838,0.5849286913871765,0.6122239828109741
1789202931941067500,7.580067626953125,1.513323187828064,0.4738868772983551,0.5300611853599548
1789202931951037700,7.59003759765625,1.5240453481674194,0.3713224232196808,0.4348129630088806
1789202931961007600,7.600007568359375,1.5418802499771118,0.2908816337585449,0.33253613114356995
1789202931970978600,7.609978515625,1.607376217842102,0.29731637239456177,0.22565096616744995
1789202931980948500,7.619948486328125,1.7021734714508057,0.3531026542186737,0.12861017882823944
1789202931990918700,7.629918701171875,1.8169533014297485,0.3785760700702667,0.05951818823814392
1789202932000889600,7.6398896484375,1.8883697986602783,0.3041668236255646,0.0036818201187998056
1789202932010859500,7.649859619140625,1.9249706268310547,0.17575398087501526,-0.012288624420762062
1789202932020829400,7.659829345703125,1.961776614189148,0.07572618871927261,-0.017584852874279022
1789202932030799600,7.669799560546875,1.953708529472351,0.08153906464576721,-0.01685141772031784
1789202932040770600,7.6797705078125,1.9600341320037842,0.19734902679920197,0.005675728898495436
1789202932050740500,7.689740478515625,1.9606980085372925,0.2647334039211273,0.02887905202805996
1789202932060710700,7.699710693359375,1.9874212741851807,0.22827178239822388,0.03364158421754837
1789202932070681600,7.709681640625,1.9970711469650269,0.030225014314055443,0.02365339733660221
1789202932080651500,7.719651611328125,1.9658187627792358,-0.22895196080207825,-0.006046707276254892
1789202932090621400,7.729621337890625,1.863383173942566,-0.44947075843811035,-0.04910096526145935
1789202932100592600,7.739592529296875,1.7372177839279175,-0.561806857585907,-0.07778187841176987
1789202932110562600,7.7495625,1.655604362487793,-0.6233802437782288,-0.05246666818857193
1789202932120532500,7.759532470703125,1.6372677087783813,-0.6695210933685303,-0.0253349170088768
1789202932130502400,7.76950244140625,1.692344069480896,-0.5872352719306946,-0.03257498890161514
1789202932140473600,7.7794736328125,1.7377040386199951,-0.3425930440425873,-0.06269853562116623
1789202932150443500,7.789443603515625,1.6442502737045288,-0.185019388794899,-0.0807928517460823
1789202932160413400,7.799413330078125,1.4337053298950195,-0.10935258865356445,-0.09562160074710846
1789202932170384600,7.809384521484375,1.2821985483169556,0.0462159663438797,-0.19964733719825745
1789202932180354600,7.8193544921875,1.2370619773864746,0.4104655683040619,-0.3664328455924988
1789202932190324500,7.829324462890625,1.1610777378082275,0.6838648915290833,-0.5339781641960144
1789202932200296200,7.839296142578125,1.0663707256317139,0.5835891366004944,-0.6217791438102722
1789202932210266000,7.84926611328125,0.9999184608459473,0.32085898518562317,-0.5726706981658936
1789202932220236300,7.859236328125,0.9359685182571411,0.15575151145458221,-0.4068564474582672
1789202932230206200,7.869206298828125,0.8551564812660217,0.13479509949684143,-0.1855677366256714
1789202932240177200,7.87917724609375,0.7241957783699036,0.16006982326507568,-0.070411317050457
1789202932250147000,7.88914697265625,0.5743836760520935,0.18909987807273865,-0.11632847040891647
1789202932260117200,7.8991171875,0.414275199174881,0.20173737406730652,-0.24951955676078796
1789202932270088200,7.909088134765625,0.29293546080589294,0.2404155284166336,-0.3869013786315918
1789202932280058000,7.91905810546875,0.1641537845134735,0.19396626949310303,-0.4635029435157776
1789202932290028300,7.9290283203125,0.018758507445454597,0.018039720132946968,-0.4635237157344818
1789202932299999200,7.938999267578125,-0.13283102214336395,-0.10754083842039108,-0.3947385251522064
1789202932309969200,7.94896923828125,-0.2913024127483368,-0.18903596699237823,-0.30750614404678345
1789202932319939000,7.95893896484375,-0.4527243375778198,-0.241784930229187,-0.26292404532432556
1789202932329909200,7.9689091796875,-0.5906550288200378,-0.3017020523548126,-0.2534613013267517
1789202932339880200,7.978880126953125,-0.6694116592407227,-0.241672545671463,-0.2589484751224518
1789202932349850000,7.98885009765625,-0.7019991278648376,-0.2019115537405014,-0.24217508733272552
1789202932359820000,7.998820068359375,-0.760556697845459,-0.20406471192836761,-0.19409677386283875
1789202932369791200,8.008791259765625,-0.8375471234321594,-0.17853938043117523,-0.11680757254362106
1789202932379761200,8.01876123046875,-0.9134935140609741,-0.20493291318416595,-0.06094617396593094
1789202932389731000,8.02873095703125,-0.9667311906814575,-0.13647235929965973,-0.03293131664395332
1789202932399701000,8.038700927734375,-0.9941582679748535,-0.0022242721170186996,-0.059665728360414505
1789202932409672200,8.048672119140624,-1.008232831954956,0.0955563485622406,-0.1083669513463974
1789202932419642000,8.05864208984375,-1.0183539390563965,0.12900511920452118,-0.1365344077348709
1789202932429612000,8.068612060546876,-1.0360711812973022,0.08210445940494537,-0.1796981245279312
1789202932439583200,8.078583251953125,-1.0287338495254517,-0.084626205265522,-0.23893322050571442
1789202932449553200,8.08855322265625,-1.031081199645996,-0.30453434586524963,-0.2869628071784973
1789202932459523300,8.0985234375,-1.0277514457702637,-0.39932501316070557,-0.3092412054538727
1789202932469494000,8.108493896484376,-1.0430091619491577,-0.3998691141605377,-0.3077003061771393
1789202932479464200,8.118464111328125,-1.0910388231277466,-0.32783326506614685,-0.3011667728424072
1789202932489434400,8.128434326171876,-1.135258436203003,-0.19036808609962463,-0.2659994661808014
1789202932499404300,8.138404296875,-1.1635066270828247,-0.009354086592793465,-0.1959061175584793
1789202932509375200,8.148375244140626,-1.207664966583252,0.25560301542282104,-0.14348658919334412
1789202932519345400,8.158345458984375,-1.2815853357315063,0.6113283634185791,-0.13342437148094177
1789202932529315300,8.1683154296875,-1.3483408689498901,0.8590087294578552,-0.132121279835701
1789202932539286000,8.1782861328125,-1.394515872001648,0.865826427936554,-0.15976569056510925
1789202932549256400,8.18825634765625,-1.4139251708984375,0.6677053570747375,-0.17183594405651093
1789202932559226400,8.198226318359374,-1.4125573635101318,0.375907301902771,-0.15658853948116302
1789202932569196300,8.2081962890625,-1.4152346849441528,0.13568592071533203,-0.10617224127054214
1789202932579167200,8.218167236328124,-1.4321614503860474,0.06268681585788727,-0.013025254011154175
1789202932589137400,8.228137451171875,-1.4530491828918457,0.15568199753761292,0.08091508597135544
1789202932599107300,8.238107421875,-1.482627034187317,0.3146546185016632,0.10902795195579529
1789202932609078300,8.248078369140625,-1.4968591928482056,0.3945166766643524,0.051351338624954224
1789202932619048200,8.258048095703124,-1.4719661474227905,0.4095446467399597,0.010748517699539661
1789202932629018400,8.268018310546875,-1.4475440979003906,0.3839910626411438,-0.02526567503809929
1789202932638988300,8.27798828125,-1.4669040441513062,0.4857616424560547,-0.01118980348110199
1789202932648959200,8.287959228515625,-1.536325216293335,0.6302301287651062,0.05675143003463745
1789202932658929200,8.29792919921875,-1.628309965133667,0.6443113684654236,0.1776304394006729
1789202932668899300,8.3078994140625,-1.7087602615356445,0.42791351675987244,0.26097220182418823
1789202932678870300,8.317870361328126,-1.7541221380233765,0.030407439917325974,0.2611415982246399
1789202932688840200,8.327840087890625,-1.7771143913269043,-0.4468454122543335,0.2062261402606964
1789202932698810400,8.337810302734376,-1.8069926500320435,-0.7190691828727722,0.11873144656419754
1789202932708780300,8.3477802734375,-1.811523675918579,-0.6502802968025208,0.010177802294492722
1789202932718751200,8.357751220703125,-1.7615723609924316,-0.4275476038455963,-0.05012015998363495
1789202932728721200,8.36772119140625,-1.6745247840881348,-0.22464962303638458,0.004316451493650675
1789202932738691300,8.37769140625,-1.5789607763290405,-0.28438806533813477,0.0939486026763916
1789202932748662300,8.387662353515625,-1.465059757232666,-0.4322057366371155,0.1482568383216858
1789202932758632200,8.397632080078125,-1.3884891271591187,-0.5733058452606201,0.14715349674224854
1789202932768602000,8.40760205078125,-1.3522876501083374,-0.7528732419013977,0.1840537190437317
1789202932778572300,8.417572265625,-1.3007307052612305,-0.851176917552948,0.2786944806575775
1789202932788543200,8.427543212890624,-1.1756961345672607,-0.7762041091918945,0.3927784264087677
1789202932798513200,8.43751318359375,-0.9779066443443298,-0.48230645060539246,0.4243728518486023
1789202932808483000,8.447483154296876,-0.8057079315185547,-0.0914795845746994,0.3149246573448181
1789202932818454300,8.457454345703125,-0.7188345789909363,0.1519583761692047,0.2341909259557724
1789202932828424200,8.467424072265626,-0.6327295303344727,0.3193915784358978,0.21246379613876343
1789202932838394000,8.47739404296875,-0.5355696678161621,0.41340407729148865,0.24151834845542908
1789202932848364000,8.487364013671876,-0.3665841221809387,0.5295072793960571,0.26376959681510925
1789202932858335200,8.497335205078125,-0.1502414345741272,0.5427884459495544,0.29356691241264343
1789202932868305200,8.50730517578125,0.055219314992427826,0.4999339282512665,0.3204653561115265
1789202932878275000,8.517275146484375,0.19133853912353516,0.6098854541778564,0.25601500272750854
1789202932888246300,8.527246337890626,0.31452545523643494,0.7675387263298035,0.20611828565597534
1789202932898216200,8.53721630859375,0.42835667729377747,0.7510780096054077,0.24026159942150116
1789202932908186000,8.54718603515625,0.5661038756370544,0.7625982761383057,0.25883156061172485
1789202932918156000,8.557156005859374,0.6967748403549194,0.7515970468521118,0.2855167090892792
1789202932928127200,8.567127197265625,0.7891470789909363,0.6270436644554138,0.34543517231941223
1789202932938097200,8.57709716796875,0.8747733235359192,0.580692708492279,0.34150752425193787
1789202932948067000,8.587067138671875,0.9412878751754761,0.5717460513114929,0.32648569345474243
1789202932958038300,8.597038330078124,1.0247803926467896,0.59571373462677,0.3084832727909088
1789202932968008200,8.60700830078125,1.1020088195800781,0.6479659676551819,0.25523895025253296
1789202932977978000,8.61697802734375,1.1584808826446533,0.5716786980628967,0.2108115702867508
1789202932987948300,8.6269482421875,1.2157807350158691,0.40592193603515625,0.20454755425453186
1789202932997919200,8.636919189453126,1.3207087516784668,0.338951975107193,0.18598052859306335
1789202933007889200,8.64688916015625,1.4403765201568604,0.32744789123535156,0.1618080735206604
1789202933017859300,8.656859375,1.5482697486877441,0.26563355326652527,0.16233964264392853
1789202933027829200,8.666829345703125,1.671950101852417,0.18138231337070465,0.17601950466632843
1789202933037800200,8.67680029296875,1.804560899734497,0.12782613933086395,0.17208734154701233
1789202933047770400,8.686770263671875,1.914554476737976,0.0758577436208725,0.16193164885044098
1789202933057740300,8.696740234375,1.9832981824874878,0.030476415529847145,0.15707163512706757
1789202933067711200,8.706711181640625,2.0080418586730957,0.05692986026406288,0.18786604702472687
1789202933077681400,8.716681396484375,2.0076568126678467,0.1111166700720787,0.24723748862743378
1789202933087651300,8.7266513671875,2.0196192264556885,0.18522098660469055,0.29118096828460693
1789202933097621200,8.736621337890625,2.004694938659668,0.18949562311172485,0.24910223484039307
1789202933107592200,8.74659228515625,1.9441936016082764,0.1756996512413025,0.17991943657398224
1789202933117562400,8.756562255859375,1.8812847137451172,0.16126292943954468,0.11101733148097992
1789202933127532300,8.7665322265625,1.8094626665115356,0.17161010205745697,0.07436158508062363
1789202933137502200,8.776502197265625,1.746370553970337,0.11614338308572769,0.04166009649634361
1789202933147473400,8.786473388671874,1.731499433517456,0.008207595907151699,0.00929256808012724
1789202933157443300,8.796443359375,1.7333290576934814,-0.18505001068115234,-0.021941518411040306
1789202933167413200,8.806413330078126,1.7219911813735962,-0.4375523030757904,-0.029752302914857864
1789202933177384200,8.81638427734375,1.690411925315857,-0.7095595598220825,-0.01788019761443138
1789202933187354400,8.826354248046876,1.68867826461792,-0.8516432046890259,0.02917466312646866
1789202933197324300,8.83632421875,1.6758593320846558,-0.8710036277770996,0.06973540782928467
1789202933207293000,8.84629296875,1.6071157455444336,-0.7773466110229492,0.13715705275535583
1789202933217264000,8.85626416015625,1.531996726989746,-0.6281589865684509,0.2514050602912903
1789202933227234000,8.866234130859375,1.4530925750732422,-0.4272959232330322,0.33460596203804016
1789202933237204000,8.876203857421874,1.3939887285232544,-0.0548749677836895,0.3814504146575928
1789202933247174100,8.886174072265625,1.3221042156219482,0.4540274143218994,0.33282271027565
1789202933257145000,8.89614501953125,1.2466059923171997,0.7743495106697083,0.1355580985546112
1789202933267115000,8.906114990234375,1.1813478469848633,0.9509799480438232,-0.10667292028665543
1789202933277085200,8.916085205078126,1.1309832334518433,1.0077747106552124,-0.2776950001716614
1789202933287056100,8.92605615234375,1.0657981634140015,0.8923512101173401,-0.3142341077327728
1789202933297026000,8.936026123046876,0.9433038830757141,0.6333601474761963,-0.2848280072212219
1789202933306996200,8.945996337890625,0.747463047504425,0.3656538724899292,-0.22727949917316437
1789202933316966100,8.955966064453126,0.5177249312400818,0.22882652282714844,-0.13206376135349274
1789202933326937000,8.96593701171875,0.31213924288749695,0.22364453971385956,-0.024057932198047638
1789202933336907300,8.9759072265625,0.14180906116962433,0.23281167447566986,0.060923539102077484
1789202933346877200,8.985877197265625,-0.002743322169408202,0.24621163308620453,0.09629590809345245
1789202933356847000,8.99584716796875,-0.13994085788726807,0.21885378658771515,0.0710720494389534
1789202933366818300,9.005818359375,-0.26543086767196655,0.13280385732650757,0.02316896803677082
1789202933376788200,9.015788330078125,-0.40959176421165466,0.04687030240893364,-0.005702094174921513
1789202933386758100,9.025758056640624,-0.5405220985412598,-0.04265132173895836,-0.024568192660808563
1789202933396728000,9.03572802734375,-0.6228616833686829,-0.035182222723960876,-0.03506291285157204
1789202933406699300,9.04569921875,-0.6880905032157898,0.034458376467227936,-0.030793333426117897
1789202933416669200,9.055669189453125,-0.7715707421302795,0.1265385001897812,-0.0009139968897216022
1789202933426639000,9.06563916015625,-0.8566923141479492,0.1822126805782318,0.03879506513476372
1789202933436610000,9.075610107421875,-0.9097371697425842,0.22852452099323273,0.06573054194450378
1789202933446580200,9.085580322265624,-0.9244918823242188,0.30631011724472046,0.056542638689279556
1789202933456550100,9.095550048828125,-0.9215117692947388,0.4317447543144226,0.0229167677462101
1789202933466520000,9.10552001953125,-0.9059826135635376,0.5432459712028503,-0.007351655978709459
1789202933476491300,9.1154912109375,-0.8689010143280029,0.6233221888542175,-0.04638401046395302
1789202933486461200,9.125461181640626,-0.8343819379806519,0.5324918627738953,-0.10906283557415009
1789202933496431000,9.13543115234375,-0.7979693412780762,0.4050721228122711,-0.18131573498249054
1789202933506401000,9.145401123046875,-0.7852128148078918,0.27662548422813416,-0.21284542977809906
1789202933516372200,9.155372314453125,-0.8041545152664185,0.10808172821998596,-0.18788547813892365
1789202933526342100,9.165342041015625,-0.8681830763816833,-0.0468793585896492,-0.12120498716831207
1789202933536312000,9.17531201171875,-0.9742099046707153,-0.06911542266607285,-0.03882675617933273
1789202933546282000,9.185281982421875,-1.062565565109253,0.1061466783285141,0.018683671951293945
1789202933556253200,9.195253173828124,-1.1381943225860596,0.40941840410232544,0.014870026148855686
1789202933566223000,9.20522314453125,-1.22425377368927,0.7558373212814331,-0.09674358367919922
1789202933576193000,9.215193115234374,-1.3333216905593872,1.1374760866165161,-0.26148486137390137
1789202933586163000,9.225162841796875,-1.4788488149642944,1.4180337190628052,-0.4442022144794464
1789202933596134100,9.235134033203124,-1.5570799112319946,1.5386618375778198,-0.622543454170227
1789202933606104000,9.24510400390625,-1.5447591543197632,1.6241133213043213,-0.7131375670433044
1789202933616074000,9.255073974609376,-1.4634206295013428,1.6785483360290527,-0.5818586349487305
1789202933626044200,9.265044189453125,-1.3669419288635254,1.654983639717102,-0.322701096534729
1789202933636015000,9.27501513671875,-1.313223123550415,1.539475679397583,-0.027395404875278473
1789202933645985000,9.284985107421875,-1.3206205368041992,1.3375859260559082,0.1742064207792282
1789202933655955200,9.294955078125,-1.37533438205719,1.0905224084854126,0.2100088894367218
1789202933665925000,9.304925048828125,-1.4583408832550049,0.8809563517570496,0.10660047829151154
1789202933675896000,9.31489599609375,-1.4997918605804443,0.7524018287658691,-0.04563513025641441
1789202933685866200,9.3248662109375,-1.5027050971984863,0.63906329870224,-0.15517494082450867
1789202933695836200,9.334836181640625,-1.5001189708709717,0.40703433752059937,-0.2254839837551117
1789202933705806000,9.34480615234375,-1.5144747495651245,0.15117193758487701,-0.25383228063583374
1789202933715777300,9.35477734375,-1.5359586477279663,0.08515910059213638,-0.2754203975200653
1789202933725747200,9.364747314453124,-1.575635313987732,0.24810940027236938,-0.3372765779495239
1789202933735717000,9.374717041015625,-1.6402782201766968,0.408927321434021,-0.4313545823097229
1789202933745688300,9.384688232421874,-1.679641604423523,0.4829072654247284,-0.4754008948802948
1789202933755658200,9.394658203125,-1.7110782861709595,0.41974562406539917,-0.47893595695495605
1789202933765628200,9.404628173828126,-1.756322979927063,0.1939726620912552,-0.43095672130584717
1789202933775598000,9.41459814453125,-1.8003487586975098,-0.1175370141863823,-0.37496986985206604
1789202933785569300,9.4245693359375,-1.8104344606399536,-0.38915255665779114,-0.33622249960899353
1789202933795539200,9.434539306640625,-1.7065634727478027,-0.6012037992477417,-0.3612162470817566
1789202933805509000,9.444509033203126,-1.5322734117507935,-0.7460414171218872,-0.47015658020973206
1789202933815479000,9.45447900390625,-1.3704699277877808,-0.7657157778739929,-0.5952849388122559
1789202933825450200,9.4644501953125,-1.2729192972183228,-0.6795225739479065,-0.6638972759246826
1789202933835420200,9.474420166015625,-1.187703251838684,-0.47011396288871765,-0.6826278567314148
1789202933845390000,9.48439013671875,-1.1024503707885742,-0.28552281856536865,-0.6563618779182434
1789202933855360000,9.494360107421874,-0.9901995062828064,-0.15373603999614716,-0.5869889259338379
1789202933865331200,9.504331298828125,-0.8875098824501038,-0.03195580095052719,-0.48291072249412537
1789202933875301000,9.514301025390624,-0.7648337483406067,0.14713804423809052,-0.3625771403312683
1789202933885271000,9.52427099609375,-0.6619313359260559,0.3038586974143982,-0.16988304257392883
1789202933895241000,9.534240966796874,-0.5538397431373596,0.6397400498390198,-0.002495914464816451
1789202933905212200,9.544212158203125,-0.41527068614959717,1.0081015825271606,0.07776590436697006
1789202933915182000,9.55418212890625,-0.31853190064430237,1.040453314781189,0.10094419121742249
1789202933925152000,9.564152099609375,-0.22042185068130493,0.7290456891059875,0.07660343497991562
1789202933935122000,9.574121826171876,-0.08159206807613373,0.38885852694511414,-0.03684616461396217
1789202933945093000,9.584093017578125,0.05468694865703583,0.33943983912467957,-0.15597441792488098
1789202933955063000,9.59406298828125,0.18295623362064362,0.42541468143463135,-0.16784758865833282
1789202933965033000,9.604032958984375,0.29167553782463074,0.5443781018257141,-0.1123526394367218
1789202933975003000,9.6140029296875,0.3686411380767822,0.693302571773529,-0.06978786736726761
1789202933984974000,9.62397412109375,0.4244788587093353,0.7621466517448425,-0.07584816217422485
1789202933994944000,9.633944091796875,0.48349741101264954,0.7541177272796631,-0.11425307393074036
1789202934004914000,9.643913818359374,0.5801510214805603,0.7650987505912781,-0.15453125536441803
1789202934014884000,9.653884033203125,0.6632645130157471,0.6979990601539612,-0.15067899227142334
1789202934024854300,9.663854248046874,0.750154972076416,0.6739797592163086,-0.14216512441635132
1789202934034825000,9.673824951171875,0.8421168327331543,0.6814067959785461,-0.15823517739772797
1789202934044795100,9.683795166015624,0.9325820207595825,0.714897096157074,-0.20190143585205078
1789202934054765000,9.69376513671875,1.0341392755508423,0.7392200231552124,-0.2516911029815674
1789202934064735200,9.7037353515625,1.1443723440170288,0.7242605090141296,-0.3039207458496094
1789202934074706200,9.7137060546875,1.2522600889205933,0.6944839358329773,-0.3537474274635315
1789202934084676000,9.723676025390626,1.353883147239685,0.6185694932937622,-0.4170568883419037
1789202934094646300,9.733646240234375,1.4613456726074219,0.45635154843330383,-0.47190120816230774
1789202934104616200,9.7436162109375,1.5853984355926514,0.25625067949295044,-0.4954454302787781
1789202934114587100,9.753587158203125,1.7132033109664917,0.0797606110572815,-0.513232946395874
1789202934124557000,9.76355712890625,1.8460382223129272,-0.008305334486067295,-0.5254970788955688
1789202934134527200,9.77352734375,1.9374600648880005,-0.0289970301091671,-0.5268832445144653
1789202934144497200,9.7834970703125,1.9839354753494263,0.10067947208881378,-0.431118369102478
1789202934154468000,9.793468017578125,2.0005476474761963,0.4148280918598175,-0.23634622991085052
1789202934164438000,9.80343798828125,1.9740198850631714,0.725287675857544,-0.14849919080734253
1789202934174408200,9.813408203125,1.859137773513794,1.1241064071655273,-0.1415954828262329
1789202934184378000,9.823378173828125,1.719750165939331,1.613358974456787,-0.23117169737815857
1789202934194349000,9.83334912109375,1.6495156288146973,1.9588165283203125,-0.394099622964859
1789202934204319500,9.843319580078125,1.6202781200408936,1.9972906112670898,-0.6034051775932312
1789202934214289700,9.85328955078125,1.6123785972595215,1.7355631589889526,-0.8624849319458008
1789202934224259600,9.863259521484375,1.5690325498580933,1.2627761363983154,-1.0508215427398682
1789202934234230500,9.87323046875,1.4483470916748047,0.7236772775650024,-1.1078717708587646
1789202934244200400,9.883200439453125,1.3067561388015747,0.31316855549812317,-1.1214475631713867
1789202934254170600,9.893170654296876,1.1902860403060913,-0.022430740296840668,-1.1348257064819336
1789202934264140500,9.903140625,1.1642149686813354,-0.2786840796470642,-1.1498427391052246
1789202934274110500,9.9131103515625,1.2075285911560059,-0.4773561656475067,-1.0907971858978271
1789202934284081400,9.923081298828125,1.187106728553772,-0.6948533654212952,-0.9441619515419006
1789202934294051600,9.933051513671876,1.1109296083450317,-0.8990980982780457,-0.7451401948928833
1789202934304021500,9.943021484375,1.0498114824295044,-1.0373518466949463,-0.5867122411727905
1789202934313991400,9.952991455078125,1.0083390474319458,-0.9992033839225769,-0.48143401741981506
1789202934323962400,9.96296240234375,0.9478680491447449,-0.7910948991775513,-0.4520396292209625
1789202934333932500,9.9729326171875,0.8750156760215759,-0.536098062992096,-0.4773343503475189
1789202934343902500,9.98290234375,0.7994844317436218,-0.22385679185390472,-0.5029752254486084
1789202934353872600,9.99287255859375,0.7583966255187988,0.21813713014125824,-0.5039329528808594
1789202934363843300,10.00284326171875,0.6986134648323059,0.6885131597518921,-0.5638316869735718
1789202934373813500,10.0128134765625,0.6193423271179199,1.171278476715088,-0.7113441824913025
1789202934383783700,10.02278369140625,0.534238874912262,1.488675832748413,-0.8730782270431519
1789202934393753600,10.032753662109375,0.453829824924469,1.3913037776947021,-0.9599334597587585
1789202934403723500,10.0427236328125,0.38696423172950745,1.1212706565856934,-0.9277566075325012
1789202934413694700,10.05269482421875,0.33340245485305786,0.8564017415046692,-0.7993544340133667
1789202934423664600,10.06266455078125,0.25878921151161194,0.6198816299438477,-0.6615976691246033
1789202934433634600,10.072634521484375,0.17581816017627716,0.392229825258255,-0.6003710627555847
1789202934443604500,10.0826044921875,0.10127761960029602,0.2843608856201172,-0.6039354205131531
1789202934453575700,10.09257568359375,0.0032764871139079332,0.16806623339653015,-0.6483457684516907
1789202934463545600,10.102545654296875,-0.10563535243272781,0.07171306759119034,-0.6169607043266296
1789202934473515500,10.112515625,-0.2146020531654358,0.1757446676492691,-0.49140381813049316
1789202934483485400,10.1224853515625,-0.3281081020832062,0.02496367320418358,-0.4230748414993286
1789202934493456600,10.13245654296875,-0.4218447208404541,-0.24926841259002686,-0.4132291078567505
1789202934503426600,10.142426513671875,-0.46328669786453247,-0.22547253966331482,-0.4008723199367523
1789202934513396500,10.152396484375,-0.47566425800323486,-0.247070774435997,-0.38341689109802246
1789202934523366400,10.162366455078125,-0.5028066635131836,-0.36093369126319885,-0.3370664417743683
1789202934533336600,10.172336669921876,-0.557623028755188,-0.36048734188079834,-0.2511776387691498
1789202934543307500,10.1823076171875,-0.6336259245872498,-0.2327943593263626,-0.16137583553791046
1789202934553277400,10.19227734375,-0.720649778842926,0.005208876915276051,-0.10681832581758499
1789202934563247400,10.202247314453125,-0.8100078701972961,0.26196104288101196,-0.11909949034452438
1789202934573217500,10.212217529296876,-0.8889855146408081,0.40267127752304077,-0.13714374601840973
1789202934583188500,10.2221884765625,-0.9577600955963135,0.3340642750263214,-0.14664296805858612
1789202934593158400,10.232158447265626,-0.9758514761924744,0.21992917358875275,-0.14044445753097534
1789202934603128600,10.242128662109375,-0.9227458834648132,0.06332943588495255,-0.11138777434825897
1789202934613098500,10.252098388671875,-0.8461840152740479,-0.14104793965816498,-0.09718433767557144
1789202934623068700,10.262068603515624,-0.7826912999153137,-0.38307735323905945,-0.104070745408535
1789202934633039400,10.272039306640625,-0.7462302446365356,-0.5676485300064087,-0.07246807217597961
1789202934643009500,10.282009521484374,-0.779452383518219,-0.5945326089859009,-0.004503138829022646
1789202934652979700,10.291979736328125,-0.8742782473564148,-0.4040832817554474,0.03717559948563576
1789202934662949600,10.30194970703125,-0.9579139947891235,0.004926581867039204,0.05457376316189766
1789202934672920600,10.311920654296875,-1.0710874795913696,0.49393755197525024,-0.007994011044502258
1789202934682890800,10.321890869140624,-1.178303599357605,0.9391254186630249,-0.18592911958694458
1789202934692860700,10.331860595703125,-1.2492287158966064,1.1197972297668457,-0.3821316659450531
1789202934702830600,10.34183056640625,-1.283551812171936,1.1324621438980103,-0.4529307186603546
1789202934712800500,10.351800537109375,-1.2924842834472656,1.1343119144439697,-0.39918628334999084
1789202934722771700,10.361771728515626,-1.2988308668136597,1.0774041414260864,-0.34289076924324036
1789202934732741600,10.37174169921875,-1.3147610425949097,0.8566970825195312,-0.3086736798286438
1789202934742711600,10.381711669921875,-1.276847004890442,0.5789040923118591,-0.2607221305370331
1789202934752681500,10.391681396484374,-1.1324639320373535,0.41045942902565,-0.15216264128684998
1789202934762652700,10.401652587890625,-0.9518651366233826,0.31950634717941284,-0.0500732883810997
1789202934772622600,10.41162255859375,-0.8007371425628662,0.2598837614059448,0.001070857048034668
1789202934782592500,10.421592529296875,-0.7070258259773254,0.30823320150375366,0.00532472413033247
1789202934792562400,10.4315625,-0.6686997413635254,0.5088446140289307,-0.025542112067341805
1789202934802532600,10.44153271484375,-0.6897680163383484,0.8434356451034546,-0.07695496827363968
1789202934812503600,10.451503662109374,-0.7786912322044373,1.211466670036316,-0.12855450809001923
1789202934822473500,10.461473388671875,-0.9518345594406128,1.448907732963562,-0.11844994872808456
1789202934832443400,10.471443359375,-1.301648736000061,1.557862401008606,-0.16438308358192444
1789202934842413600,10.48141357421875,-1.6725780963897705,1.4625252485275269,-0.2916733920574188
1789202934852384500,10.491384521484376,-1.8600443601608276,1.1133853197097778,-0.4473559260368347
1789202934862354400,10.5013544921875,-1.909999132156372,0.25291773676872253,-0.58510422706604
1789202934872324400,10.511324462890625,-1.8178383111953735,-0.6846702098846436,-0.6177617311477661
1789202934882294500,10.52129443359375,-1.6138068437576294,-1.2972075939178467,-0.47944703698158264
1789202934892264700,10.5312646484375,-1.4193942546844482,-1.5325312614440918,-0.32208696007728577
1789202934902235400,10.5412353515625,-1.2994835376739502,-1.3745572566986084,-0.27934667468070984
1789202934912205600,10.55120556640625,-1.293489933013916,-1.0877177715301514,-0.33082133531570435
1789202934922175700,10.56117578125,-1.3283357620239258,-0.8627129197120667,-0.4424690306186676
1789202934932145700,10.571145751953125,-1.36568021774292,-0.7440688014030457,-0.5175507068634033
1789202934942115600,10.581115478515626,-1.397655963897705,-0.6148722171783447,-0.5115746259689331
1789202934952086500,10.59108642578125,-1.312873125076294,-0.3506927788257599,-0.40400898456573486
1789202934962056700,10.601056640625,-1.1311739683151245,0.010220146737992764,-0.26488733291625977
1789202934972026600,10.611026611328125,-0.9878242015838623,-0.04906181991100311,-0.18571341037750244
1789202934981996500,10.62099658203125,-0.9362550377845764,-0.5014724135398865,-0.1492787003517151
1789202934991966500,10.630966552734375,-0.9057442545890808,-0.6634775996208191,-0.18451738357543945
1789202935001937700,10.640937744140626,-0.8823752999305725,-0.440681517124176,-0.244754359126091
1789202935011907600,10.650907470703125,-0.8731916546821594,-0.016158729791641235,-0.21334370970726013
1789202935021877500,10.66087744140625,-0.8120417594909668,0.28469619154930115,-0.08441288769245148
1789202935031847400,10.670847412109374,-0.7442824244499207,0.4263678193092346,-0.054012101143598557
1789202935041818600,10.680818603515625,-0.6584391593933105,0.5103625655174255,-0.10270480811595917
1789202935051788500,10.69078857421875,-0.6058393120765686,0.31900089979171753,-0.07487690448760986
1789202935061758500,10.700758544921875,-0.4937726855278015,0.19344297051429749,-0.06277310103178024
1789202935071728400,10.710728271484374,-0.34212324023246765,0.246305912733078,-0.06913086771965027
1789202935081698600,10.720698486328125,-0.21272052824497223,0.33724913001060486,-0.04941708594560623
1789202935091669500,10.73066943359375,-0.08863053470849991,0.3836411237716675,-0.0313323549926281
1789202935101639400,10.740639404296875,0.024461401626467705,0.4114368259906769,0.011486480012536049
1789202935111609300,10.750609375,0.11850720643997192,0.5241095423698425,0.092164546251297
1789202935121579500,10.76057958984375,0.2047792375087738,0.6649423241615295,0.1735832393169403
1789202935131549700,10.7705498046875,0.2773767411708832,0.7995848059654236,0.21689370274543762
1789202935141520400,10.780520263671875,0.34742027521133423,0.869628369808197,0.2317967414855957
1789202935151490600,10.790490478515625,0.440725713968277,0.9339863061904907,0.22753062844276428
1789202935161460700,10.800460693359375,0.5361233353614807,0.9684276580810547,0.1992313414812088
1789202935171430700,10.8104306640625,0.631514310836792,1.040442705154419,0.1696375012397766
1789202935181400600,10.820400634765624,0.763320803642273,1.1656354665756226,0.11133690923452377
1789202935191371500,10.83037158203125,0.909536600112915,1.1987215280532837,0.10646972060203552
1789202935201341700,10.840341796875,1.035262107849121,1.0423247814178467,0.08472367376089096
1789202935211311900,10.850311767578125,1.169249176979065,0.7394179105758667,0.015630358830094337
1789202935221281800,10.86028173828125,1.3007094860076904,0.43340495228767395,-0.0756865069270134
1789202935231251700,10.870251708984375,1.42501962184906,0.17174991965293884,-0.16560786962509155
1789202935241223000,10.880222900390624,1.5596275329589844,0.029097165912389755,-0.23180420696735382
1789202935251192800,10.89019287109375,1.6903706789016724,0.007193197961896658,-0.30803078413009644
1789202935261162800,10.900162841796876,1.7515232563018799,0.17972369492053986,-0.3981095552444458
1789202935271132700,10.910132568359375,1.7275545597076416,0.5483368635177612,-0.43681275844573975
1789202935281102800,10.920102783203125,1.6994764804840088,0.9673357605934143,-0.4228878617286682
1789202935291073800,10.93007373046875,1.7042611837387085,1.1617814302444458,-0.39043858647346497
1789202935301043700,10.940043701171875,1.7589102983474731,1.1166117191314697,-0.4067898690700531
1789202935311013600,10.950013671875,1.8138949871063232,0.9987466335296631,-0.4451463222503662
1789202935320983800,10.95998388671875,1.8355622291564941,0.8253418207168579,-0.4873502254486084
1789202935330953700,10.96995361328125,1.8199470043182373,0.6746513843536377,-0.5282369256019592
1789202935340924700,10.979924560546875,1.7686781883239746,0.6248982548713684,-0.5878326296806335
1789202935350894600,10.98989453125,1.657395362854004,0.5951917171478271,-0.6760804653167725
1789202935360864800,10.99986474609375,1.566878318786621,0.5201337337493896,-0.7845057249069214
1789202935370835000,11.0098349609375,1.5009796619415283,0.4888248145580292,-0.8845643997192383
1789202935380804900,11.019804931640625,1.4207100868225098,0.44268715381622314,-0.9665317535400391
1789202935390775800,11.02977587890625,1.3374722003936768,0.3777816593647003,-1.0221095085144043
1789202935400746000,11.03974609375,1.282743215560913,0.27870938181877136,-1.0566493272781372
1789202935410716000,11.0497158203125,1.2401827573776245,0.06336698681116104,-1.0737167596817017
1789202935420685800,11.059685791015625,1.197938084602356,-0.29764899611473083,-1.0858941078186035
1789202935430655700,11.06965576171875,1.1744047403335571,-0.6006320118904114,-1.0347694158554077
1789202935440627000,11.079626953125,1.157470464706421,-0.7885044813156128,-0.9349615573883057
1789202935450596900,11.089596923828125,1.1427549123764038,-0.8550978899002075,-0.787289559841156
1789202935460566800,11.09956689453125,1.1241495609283447,-0.8653883337974548,-0.6498797535896301
1789202935470536700,11.10953662109375,1.1317169666290283,-0.7295029163360596,-0.5288332104682922
1789202935480507000,11.1195068359375,1.1438239812850952,-0.4869467616081238,-0.5096384882926941
1789202935490477800,11.129477783203125,1.0870165824890137,-0.31590574979782104,-0.5779184699058533
1789202935500447700,11.13944775390625,0.9960166215896606,-0.09210488945245743,-0.6902971863746643
1789202935510417700,11.149417724609375,0.8838634490966797,0.289905846118927,-0.8306740522384644
1789202935520387800,11.159387939453126,0.6840699315071106,0.976706326007843,-1.0026487112045288
1789202935530357800,11.169357666015625,0.5131932497024536,1.571966290473938,-1.074350118637085
1789202935540327700,11.17932763671875,0.4446975588798523,1.7125542163848877,-1.1023025512695312
1789202935550298600,11.189298583984375,0.3896428346633911,1.4228113889694214,-1.1594220399856567
1789202935560268800,11.199268798828125,0.35068291425704956,1.0834481716156006,-1.1454907655715942
1789202935570238700,11.20923876953125,0.3313601016998291,0.7728282809257507,-1.0249433517456055
1789202935580209000,11.219208984375,0.30752453207969666,0.44600677490234375,-0.8882108330726624
1789202935590178800,11.2291787109375,0.23961178958415985,0.15953373908996582,-0.8170613050460815
1789202935600149800,11.239149658203125,0.12151311337947845,-0.006795055698603392,-0.8117948770523071
1789202935610120000,11.249119873046874,-0.0182929877191782,-0.03909360617399216,-0.824207067489624
1789202935620089900,11.25908984375,-0.16470558941364288,-0.003200853243470192,-0.7861534357070923
1789202935630059800,11.269059814453126,-0.3467627465724945,-0.013364008627831936,-0.6482192873954773
1789202935640030000,11.279030029296875,-0.5503321290016174,-0.08255027234554291,-0.48946210741996765
1789202935650001000,11.2890009765625,-0.6824118494987488,-0.12226226180791855,-0.4205336272716522
1789202935659970800,11.298970703125,-0.7486342787742615,-0.18992120027542114,-0.44352126121520996
1789202935669940700,11.308940673828126,-0.7778257131576538,-0.23683437705039978,-0.49034175276756287
1789202935679911000,11.318910888671875,-0.7599929571151733,-0.29740452766418457,-0.5396584272384644
1789202935689880800,11.328880859375,-0.725500762462616,-0.34535953402519226,-0.5716366171836853
1789202935699850800,11.338850830078124,-0.6578207612037659,-0.33138298988342285,-0.5570486187934875
1789202935709821700,11.34882177734375,-0.6040909290313721,-0.26899683475494385,-0.5224093794822693
1789202935719791900,11.3587919921875,-0.5988503694534302,-0.16542065143585205,-0.46474477648735046
1789202935729761800,11.36876171875,-0.6001499891281128,-0.06269028037786484,-0.38313913345336914
1789202935739731700,11.378731689453126,-0.6133155822753906,0.047917190939188004,-0.3249509334564209
1789202935749701600,11.38870166015625,-0.6175013184547424,0.1548313945531845,-0.30896902084350586
1789202935759672800,11.3986728515625,-0.6296167969703674,0.23308491706848145,-0.29839760065078735
1789202935769642800,11.408642822265625,-0.6549443006515503,0.24427232146263123,-0.28515905141830444
1789202935779612700,11.41861279296875,-0.6789728999137878,0.1691160500049591,-0.2834423780441284
1789202935789582800,11.428582763671875,-0.689262330532074,0.07336769253015518,-0.27250635623931885
1789202935799553000,11.438552978515625,-0.7169458866119385,-0.08962415903806686,-0.24565823376178741
1789202935809523000,11.44852294921875,-0.7561318874359131,-0.25311267375946045,-0.21742206811904907
1789202935819494000,11.458493896484375,-0.8098483681678772,-0.35026904940605164,-0.17838811874389648
1789202935829463800,11.4684638671875,-0.8684437870979309,-0.3686819076538086,-0.11610902845859528
1789202935839434000,11.47843408203125,-0.9215131402015686,-0.24085815250873566,-0.06453344970941544
1789202935849404000,11.48840380859375,-0.9520278573036194,0.04686737433075905,-0.03158748894929886
1789202935859373800,11.498373779296875,-0.9973913431167603,0.33587414026260376,-0.054618239402770996
1789202935869344800,11.5083447265625,-1.0903764963150024,0.6015161871910095,-0.19095957279205322
1789202935879315000,11.51831494140625,-1.1862941980361938,0.7083310484886169,-0.40035805106163025
1789202935889284900,11.528284912109376,-1.2243379354476929,0.636298418045044,-0.571145236492157
1789202935899254800,11.5382548828125,-1.2339940071105957,0.4622499346733093,-0.6324222087860107
1789202935909224700,11.548224609375,-1.2172073125839233,0.3220805823802948,-0.6236814260482788
1789202935919194600,11.558194580078125,-1.1748790740966797,0.171625018119812,-0.5252326130867004
1789202935929165800,11.568165771484376,-1.1188997030258179,-0.07086405158042908,-0.3595648407936096
1789202935939135700,11.5781357421875,-1.0466121435165405,-0.22033557295799255,-0.19320674240589142
1789202935949105700,11.588105712890625,-0.9728540778160095,-0.23466630280017853,-0.08886036276817322
1789202935959075600,11.59807568359375,-0.935907781124115,-0.10299695283174515,-0.050392601639032364
1789202935969045800,11.608045654296875,-0.9648182392120361,0.0433618538081646,-0.05349065363407135
1789202935979016000,11.618015869140624,-1.0329149961471558,0.13465741276741028,-0.06296245753765106
1789202935988986600,11.627986572265625,-1.0990242958068848,0.24364355206489563,-0.06309321522712708
1789202935998956800,11.637956787109376,-1.1809803247451782,0.3648828864097595,-0.08361074328422546
1789202936008927000,11.647927001953125,-1.2762600183486938,0.4225730895996094,-0.11944969743490219
1789202936018897000,11.65789697265625,-1.3367822170257568,0.42530176043510437,-0.1745651513338089
1789202936028866800,11.66786669921875,-1.3725295066833496,0.3124162256717682,-0.2166345715522766
1789202936038836700,11.677836669921875,-1.3642114400863647,0.14173422753810883,-0.2519259750843048
1789202936048808000,11.687807861328125,-1.334600806236267,-0.016932643949985504,-0.26776087284088135
1789202936058777900,11.69777783203125,-1.3166916370391846,-0.2110946625471115,-0.30673569440841675
1789202936068747800,11.707747802734374,-1.304497480392456,-0.349938303232193,-0.3334900736808777
1789202936078717700,11.7177177734375,-1.3182554244995117,-0.44409462809562683,-0.3097091317176819
1789202936088687900,11.72768798828125,-1.328307032585144,-0.5667627453804016,-0.24078065156936646
1789202936098657800,11.73765771484375,-1.3001123666763306,-0.6413158178329468,-0.15958033502101898
1789202936108628700,11.747628662109374,-1.2630462646484375,-0.7848482131958008,-0.14560939371585846
1789202936118598700,11.7575986328125,-1.2195173501968384,-0.9785374999046326,-0.23056955635547638
1789202936128568800,11.76756884765625,-1.183977484703064,-0.9520148634910583,-0.35867053270339966
1789202936138538800,11.777538818359375,-1.162820816040039,-0.6887139678001404,-0.42283275723457336
1789202936148508700,11.7875087890625,-1.1094380617141724,-0.3997250199317932,-0.41733038425445557
1789202936158478800,11.797478759765625,-1.0211942195892334,-0.3155007064342499,-0.35600951313972473
1789202936168449800,11.80744970703125,-0.9355956315994263,-0.4084348976612091,-0.27324244379997253
1789202936178419700,11.817419677734375,-0.8688163757324219,-0.4614794850349426,-0.1864098161458969
1789202936188390000,11.827389892578125,-0.8001738786697388,-0.44515323638916016,-0.055639028549194336
1789202936198359800,11.83735986328125,-0.7298417091369629,-0.3951377272605896,0.11033662408590317
1789202936208329700,11.847329833984375,-0.627031147480011,-0.18885593116283417,0.16364991664886475
1789202936218299600,11.857299560546876,-0.5035331845283508,0.04566149413585663,0.1546897143125534
1789202936228270800,11.867270751953125,-0.3820464313030243,0.23361514508724213,0.21732193231582642
1789202936238240800,11.87724072265625,-0.2726579010486603,0.31638965010643005,0.3503665328025818
1789202936248210700,11.887210693359375,-0.18665483593940735,0.2636992931365967,0.4337913990020752
1789202936258180600,11.8971806640625,-0.10978881269693375,0.25990960001945496,0.44975969195365906
1789202936268150800,11.90715087890625,0.009288307279348373,0.4334971010684967,0.41329944133758545
1789202936278120700,11.91712060546875,0.11596415191888809,0.5289725065231323,0.40500953793525696
1789202936288091600,11.927091552734375,0.198338121175766,0.43786975741386414,0.4506435990333557
1789202936298061600,11.9370615234375,0.2814236879348755,0.439863920211792,0.459028035402298
1789202936308031700,11.94703173828125,0.3430172801017761,0.45233097672462463,0.42464742064476013
1789202936318001700,11.957001708984375,0.3849082589149475,0.39868319034576416,0.36683446168899536
1789202936327971600,11.9669716796875,0.42900460958480835,0.3836674988269806,0.3167252242565155
1789202936337941800,11.976941650390625,0.5009446144104004,0.41281312704086304,0.26666951179504395
1789202936347912700,11.98691259765625,0.5870600342750549,0.3578968942165375,0.2230256199836731
1789202936357882600,11.996882568359375,0.6882590651512146,0.28470495343208313,0.16916584968566895
1789202936367852800,12.006852783203126,0.804106593132019,0.2282683253288269,0.07770464569330215
1789202936377822700,12.01682275390625,0.8998807668685913,0.14481550455093384,0.018127338960766792
1789202936387793000,12.02679296875,0.9800469875335693,0.07670649886131287,0.0046818372793495655
1789202936397762800,12.0367626953125,1.0772883892059326,0.12404045462608337,-0.011743208393454552
1789202936407732700,12.046732666015625,1.163572072982788,0.2477133870124817,-0.034332141280174255
1789202936417703700,12.05670361328125,1.2323375940322876,0.3766292929649353,-0.056942377239465714
1789202936427673900,12.066673828125,1.2741327285766602,0.4636116027832031,-0.09747302532196045
1789202936437643800,12.076643798828124,1.336915373802185,0.5118718147277832,-0.13862551748752594
1789202936447613700,12.08661376953125,1.4012019634246826,0.4948648512363434,-0.13435514271259308
1789202936457583600,12.09658349609375,1.4551855325698853,0.47524294257164,-0.0874456912279129
1789202936467553500,12.106553466796875,1.5429236888885498,0.42971888184547424,-0.08501315861940384
1789202936477524700,12.116524658203126,1.6620428562164307,0.3814714550971985,-0.1017330214381218
1789202936487494700,12.12649462890625,1.7733986377716064,0.26155784726142883,-0.08922068774700165
1789202936497464600,12.136464599609376,1.8687644004821777,0.17670392990112305,-0.05742654204368591
1789202936507434500,12.1464345703125,1.9641684293746948,0.2563103437423706,-0.04242122545838356
1789202936517404700,12.15640478515625,2.0385403633117676,0.41981297731399536,-0.052325256168842316
1789202936527374800,12.166374755859374,2.0583324432373047,0.4979325532913208,-0.06963846832513809
1789202936537344800,12.1763447265625,2.077878713607788,0.42098984122276306,-0.08228235691785812
1789202936547315700,12.186315673828124,2.0782458782196045,0.2962236702442169,-0.076566681265831
1789202936557286000,12.196285888671875,2.015558958053589,0.1418737769126892,-0.09904695302248001
1789202936567255800,12.206255859375,1.9090089797973633,0.02184164896607399,-0.12435231357812881
1789202936577225700,12.216225830078125,1.773730754852295,-0.08102800697088242,-0.1834193617105484
1789202936587195600,12.226195556640626,1.6392699480056763,-0.10105391591787338,-0.26222923398017883
1789202936597165800,12.236165771484375,1.529709815979004,-0.10290320962667465,-0.3319641053676605
1789202936607135700,12.2461357421875,1.4800277948379517,-0.14906777441501617,-0.3782229423522949
1789202936617106700,12.256106689453125,1.463948130607605,-0.22499822080135345,-0.4182206690311432
1789202936627076600,12.26607666015625,1.4505205154418945,-0.2471511960029602,-0.42965763807296753
1789202936637046800,12.276046875,1.4261581897735596,-0.2403729259967804,-0.4476243853569031
1789202936647016700,12.2860166015625,1.4085900783538818,-0.2531997859477997,-0.47455212473869324
1789202936656986600,12.295986572265624,1.4005279541015625,-0.3205748200416565,-0.5174998641014099
1789202936666956500,12.30595654296875,1.376510739326477,-0.4704873561859131,-0.5478947758674622
1789202936676926700,12.3159267578125,1.3203380107879639,-0.5433482527732849,-0.5180671215057373
1789202936686897700,12.325897705078125,1.2004626989364624,-0.48866209387779236,-0.4363035559654236
1789202936696867600,12.33586767578125,1.0302238464355469,-0.4265044331550598,-0.38822922110557556
1789202936706837800,12.345837646484375,0.8515872955322266,-0.5483816266059875,-0.41420650482177734
1789202936716807700,12.3558076171875,0.7353160977363586,-0.5697728991508484,-0.4513682425022125
1789202936726777900,12.36577783203125,0.6582514047622681,-0.3909909129142761,-0.46886467933654785
1789202936736747800,12.375747802734375,0.545956015586853,-0.04928472638130188,-0.5034301280975342
1789202936746717700,12.3857177734375,0.3998675048351288,0.22960150241851807,-0.5627738833427429
1789202936756689000,12.39568896484375,0.3035511076450348,0.4322214424610138,-0.5739948153495789
1789202936766658800,12.405658935546874,0.17911063134670258,0.35823512077331543,-0.5824176073074341
