time,seconds_elapsed,z,y,x
1789761531385677600,0.059677490234375,-1.731221735304594,0.48179158305227754,0.46256110514253374
1789761531395725800,0.069725830078125,-0.14168167631924153,-0.1846118865072727,-0.806495830860734
1789761531405773600,0.079773681640625,2.0572949333786963,-0.21303426339328288,-0.9200655114173889
1789761531415821600,0.089821533203125,3.2750217873781917,-0.37010523202419277,0.41342473379075523
1789761531425870600,0.09987060546875,3.94204485014081,-1.102753736385703,2.243386975441128
1789761531435918600,0.109918701171875,0.8161638229161501,-0.33426293427050113,1.600629169885069
1789761531445966800,0.119966796875,-2.2310849816203118,0.2410235095590353,0.18491571002574636
1789761531456014600,0.1300146484375,-4.267586133295297,0.35989012748003,-0.2997706446199678
1789761531466063600,0.140063720703125,-2.7868665145128966,-0.6458779834032058,1.2344134926453232
1789761531476111600,0.150111572265625,0.48857028340697284,-0.6417588576465845,3.6066143333956595
1789761531486159600,0.16015966796875,3.0903356665909287,-1.051316979137063,4.651766067901254
1789761531496207600,0.17020751953125,2.5417729790359735,0.07571955011188984,3.0115880008295175
1789761531506255600,0.180255615234375,0.47881052141487596,0.6854740807324647,0.4303356461791321
1789761531516304600,0.1903046875,0.132764210370183,-0.32215397880375385,-0.1211919921286404
1789761531526352600,0.2003525390625,0.2913865000963211,-0.6184411104232073,0.4993693983841687
1789761531536400600,0.210400634765625,0.4729962821781635,-0.7819406507968902,0.3982698712894693
1789761531546448600,0.22044873046875,-0.8400999942988157,-1.0109475593477486,-0.5738275137254968
1789761531556496600,0.23049658203125,-2.0506886669814586,-1.5178420194745064,-1.4240062363050878
1789761531566545700,0.240545654296875,-0.7822399260044097,-0.8125158218026161,-0.7426140180587768
1789761531576593700,0.25059375,1.1643722804307937,-0.32419688280820846,0.14383816023338586
1789761531586641700,0.2606416015625,2.797913393706083,0.5391740969628095,0.5035475608516484
1789761531596689700,0.270689697265625,1.7159329807579515,-0.17070961788296699,0.35996264472696926
1789761531606738700,0.28073876953125,0.9021130906194448,-0.4627916990280151,-0.24690986418388783
1789761531616786700,0.29078662109375,-0.4682639929592609,0.07045534597337245,-0.9550741348259151
1789761531626834700,0.300834716796875,-0.8068810307860373,0.4579904362261295,-1.6466420023888348
1789761531636882400,0.31088232421875,-0.6210322959601878,0.14321078558266162,-2.045393483182788
1789761531646930700,0.3209306640625,0.19485738618969917,-0.751245068281889,-1.498884805548191
1789761531656979500,0.3309794921875,2.63915140324831,-0.6004337445676327,-0.34228469348885115
1789761531667027700,0.34102783203125,2.6354654082119464,-0.28302257637679573,-0.18275281463712453
1789761531677075700,0.35107568359375,-0.16412673236131667,0.11391864012479781,-0.8450853814959526
1789761531687123500,0.36112353515625,-2.4330934086084364,0.49962476138472556,-1.1269132681954652
1789761531697171700,0.371171630859375,-2.815521531111002,1.4701736748486756,-1.4557451903931795
1789761531707220500,0.381220458984375,-3.9562171678781506,1.6739947042167185,-2.8359254367142914
1789761531717268700,0.391268798828125,-2.360135139903426,1.4881985763609409,-2.846842259787023
1789761531727316700,0.401316650390625,1.3984125069737434,0.7965390849918127,-1.1390016923308373
1789761531737364500,0.411364501953125,2.963292756476998,0.1506447349756956,-0.7458066035550087
1789761531747412700,0.421412841796875,1.071361988300085,0.48933892969191073,-1.7429652184598148
1789761531757461500,0.43146142578125,-0.2846183211356401,0.403654450404644,-2.586332251730561
1789761531767509800,0.441509765625,-2.8604537287712097,-0.32163083171248436,-2.8964895032703875
1789761531777557500,0.4515576171875,-2.5399095232516524,0.7359720958262681,-1.7636849120140075
1789761531787605500,0.46160546875,-1.0070762708723544,1.4396061026275158,0.23036299933493137
1789761531797654500,0.471654541015625,0.06570610561966896,1.0289847358196973,1.850041299213469
1789761531807702500,0.48170263671875,0.8134761912673711,-0.6243675778627396,2.2165897155389187
1789761531817750800,0.491750732421875,0.726647218120098,-1.1619073516219853,1.4043652778983116
1789761531827798500,0.501798583984375,0.9627718497216701,-0.6182143159300089,0.4267856255473569
1789761531837846800,0.5118466796875,1.983523594725132,0.2518845107913017,0.05617181381336413
1789761531847895600,0.5218955078125,0.18170096749663353,-0.9460948556870221,-0.1896737730067223
1789761531857943600,0.531943603515625,-1.455241478654742,-0.3048176440775394,-0.7929388685427605
1789761531867991800,0.54199169921875,-2.0629870075404644,-0.22836744160354136,-1.913861737217009
1789761531878039600,0.55203955078125,-0.2938262944638729,0.878289147439599,-2.6032524068713188
1789761531888087800,0.562087890625,1.06717505800426,0.8197907812416553,-2.3697459949441253
1789761531898136600,0.572136474609375,1.4113801250964402,-1.0490893662154674,-0.5662423558261245
1789761531908184600,0.5821845703125,0.8059948956012726,-1.137213639870286,2.020428261013329
1789761531918232600,0.592232666015625,0.20865502539575098,-0.5194558355361223,4.031799063085019
1789761531928280600,0.602280517578125,-0.3814367733776569,0.5655412948846816,4.314282125757634
1789761531938329600,0.61232958984375,0.38457682496905327,0.9266291077166795,2.8627646360620855
1789761531948377600,0.622377685546875,1.0809610067725182,-0.3320312296956777,1.5795768833756445
1789761531958425600,0.632425537109375,1.5934633699089287,-1.247978199878335,2.0036014832444486
1789761531968473600,0.6424736328125,1.613349389117956,-1.7773416814446448,3.5530218594178553
1789761531978521600,0.652521484375,-0.7843354369789362,-0.7385726337134838,3.9565959380626676
1789761531988570600,0.662570556640625,-0.8795300874114036,0.0013239420801401138,2.367830078320205
1789761531998618600,0.67261865234375,-1.4467910456955433,0.09598960020244121,-0.25305021183611826
1789761532008667000,0.6826669921875,0.596677022382617,-0.5400841975450515,-1.7308780364334582
1789761532018714600,0.692714599609375,1.6087199757516384,-1.1491115829348564,-1.161875349048525
1789761532028762600,0.7027626953125,0.9475918162465095,-1.7325544452130794,0.4264347297504544
1789761532038811600,0.712811767578125,1.6319523827791214,-0.5698883841782808,1.5734278592266142
1789761532048859600,0.722859619140625,0.5634335089504718,0.29320085604190826,0.17445541681516916
1789761532058907600,0.73290771484375,0.49367315950393675,1.2857424056053162,-2.8042504877731202
1789761532068955600,0.74295556640625,-1.2120540690600872,0.010392214676737784,-4.118334606243669
1789761532079003600,0.753003662109375,0.9856693257063627,-0.07080138293206692,-2.817633993220329
1789761532089052700,0.763052734375,-1.8087842829346656,-0.9343751917988061,0.12073812914760783
1789761532099100700,0.7731005859375,-0.34483518168926236,-0.7830781303942203,3.6811829599067565
1789761532109148700,0.783148681640625,1.4509879128634928,-0.4887368721455335,3.8962127810314295
1789761532119196700,0.79319677734375,-0.39434184765815733,-0.5388596241861582,-1.2785153769612312
1789761532129245400,0.803245361328125,-1.7949217617988584,0.14812953728437422,-5.0311377254426475
1789761532139293700,0.813293701171875,1.1354793634235858,-1.2498515925347804,-1.7739537925720215
1789761532149341700,0.823341796875,5.14847932575345,-3.003447072210908,5.333641831880808
1789761532159389700,0.8333896484375,6.818105313366651,-3.5892683540582655,9.376714276391267
1789761532169437700,0.843437744140625,4.452468068915605,-4.171452740707993,7.632992540475725
1789761532179486700,0.85348681640625,1.0117705661684273,-1.9905086313068865,2.3191318061247466
1789761532189534700,0.86353466796875,-2.7590929569244382,-0.460481083998084,-2.179811305978894
1789761532199582500,0.87358251953125,-2.847470913079381,1.3192413551032542,-3.1946699012905357
1789761532209630700,0.883630615234375,-0.2562508893072605,1.4801327588051556,-2.702052680580318
1789761532219678700,0.8936787109375,0.9970914679527282,0.4331628689616918,-3.007920418232679
1789761532229727700,0.903727783203125,-0.42898412197232244,-0.295816006976366,-3.5323943741917607
1789761532239775700,0.913775634765625,-0.6367267086982726,2.2489801192730665,-2.9161370375484226
1789761532249823500,0.923823486328125,-0.8503466630250215,5.134825478932261,-2.086812558155507
1789761532259871700,0.933871826171875,-1.9346365219593047,4.980197811800241,-1.8079095459267496
1789761532269919700,0.943919677734375,-3.827464531236887,2.0801561690062282,-1.7257856817305086
1789761532279968800,0.95396875,-7.731053101733327,-1.7433038027644157,-0.6704793406963347
1789761532290016800,0.964016845703125,2.90743175304532,0.5304156209677457,2.486366149112582
1789761532300064500,0.974064453125,4.494423881113529,-1.0372346777707337,3.62456470836699
1789761532310112800,0.98411279296875,7.496585589689016,0.9806593885898589,3.141707249648869
1789761532320161500,0.99416162109375,3.763891930514574,-2.5828356417864557,2.1418612222909927
1789761532330209800,1.004209716796875,-5.365101384505629,-3.0927053183317184,0.8756289152543991
1789761532340257300,1.01425732421875,-11.201697998976707,1.4951520487606524,0.4923651456452906
1789761532350305000,1.024304931640625,-10.672429794478417,6.671971918335557,2.096432765546441
1789761532360353300,1.034353271484375,-1.6605185520499943,5.686168737116455,4.3082828853428365
1789761532370402000,1.044402099609375,6.650733315473794,0.27409984973073004,4.889782796859741
1789761532380450300,1.0544501953125,8.907529661455749,-5.568990802934765,3.6422114242166277
1789761532390498000,1.064498046875,3.784721952575445,-7.969573104038834,2.1404734211944043
1789761532400546000,1.074546142578125,-4.018737044677138,-2.732729266133904,0.636394481069222
1789761532410595000,1.084594970703125,-9.497036353817581,5.402262363642454,-1.4023134599350393
1789761532420643000,1.09464306640625,-7.150846152636408,10.223874710595608,-3.6981548452347517
1789761532430691300,1.10469140625,-1.1430617813766002,5.833584573173523,-4.580092870570719
1789761532440739000,1.114739013671875,7.022236723858118,-2.8557611870408057,-2.778974299958348
1789761532450787000,1.124787109375,10.064638088363408,-6.057717738208174,-1.3404444482602178
1789761532460836000,1.134836181640625,6.0226417486518615,-4.676920967423915,-1.5265024419225752
1789761532470884000,1.144884033203125,-1.4195061484068632,0.020023381853103636,-0.8970051730211823
1789761532480932400,1.154932373046875,-6.424874641820788,3.7837452164977785,1.8328095939055085
1789761532490980000,1.16497998046875,-5.933322712254524,4.388052587628365,4.488815393581986
1789761532501028000,1.175028076171875,-0.352708107021451,0.4616290849894285,3.700723818939924
1789761532511077000,1.1850771484375,4.414256703943014,-4.441386702930927,-0.2349430936668068
1789761532521125000,1.195125,6.377272932690381,-7.503731954312324,-2.495920743921399
1789761532531173000,1.205173095703125,7.911855659085512,-4.582949136784673,-0.7907076023593544
1789761532541221000,1.21522119140625,2.5580226875692604,0.6076894147843123,0.9865377060387283
1789761532551270100,1.225270263671875,-4.6786944068372245,5.120847222462296,0.30953407814018424
1789761532561318100,1.235318115234375,-6.454762415084242,4.1284447891086336,-1.348596921186149
1789761532571366100,1.2453662109375,-2.832313675957918,-0.19087503855526447,-2.4275341670460997
1789761532581414100,1.2554140625,-1.3856886344790458,-4.0165731446415185,-1.7403274173021315
1789761532591462100,1.265462158203125,5.077260009670257,-3.2845395573079585,0.5531394208859652
1789761532601511200,1.27551123046875,5.012728793048859,-0.2517886492013931,1.012582467073202
1789761532611559200,1.28555908203125,1.996252143394947,2.74364696598947,-1.416363758727908
1789761532621607200,1.295607177734375,-2.9818560026496645,2.051764187258482,-4.788022212040424
1789761532631655200,1.3056552734375,-3.6970986141800877,-0.9624573769450188,-5.120906843695044
1789761532641703200,1.315703125,-1.5197417156159876,-1.7108885568499563,-1.1328675004247575
1789761532651752200,1.325752197265625,1.3195616730988025,-0.8902449581712484,2.8763825347870586
1789761532661800200,1.33580029296875,3.2074627473682162,0.015557634615898132,3.552925413306057
1789761532671848000,1.345847900390625,1.8196838626116514,-0.43785833330154417,1.2920643021032214
1789761532681896200,1.355896240234375,0.31427520825266836,0.20907938828766345,-1.0037318558152764
1789761532691945000,1.365945068359375,-0.7904618109047412,0.7520628144055604,-1.1851526181310414
1789761532701993200,1.3759931640625,0.20109131214320658,-0.7560089216828346,0.18158114050924776
1789761532712041200,1.386041259765625,0.44806700810492034,-2.1831991948515177,0.3400482396736741
1789761532722089000,1.3960888671875,0.17908990821540355,-1.404338389891386,-1.3029855090901254
1789761532732137200,1.40613720703125,0.33477965162098405,0.3177776634156704,-1.8698488463588059
1789761532742186000,1.41618603515625,3.434537811073661,1.367168642926216,0.042016748604923486
1789761532752234200,1.426234130859375,5.2800400055527685,2.5337556767970324,1.2960980876639485
1789761532762282200,1.4362822265625,2.493755674842,1.003044823399186,0.19713519492857157
1789761532772330000,1.446330078125,-1.9445476751208304,-2.640272516232729,-1.3665686312064527
1789761532782378200,1.456378173828125,-3.3922838927119967,-3.2630262291580436,-1.9011454635068774
1789761532792427000,1.466427001953125,-1.9878391198366878,-0.8167758173346519,-1.557356283739209
1789761532802475300,1.476475341796875,-0.12457973487079142,0.9802513923108577,-0.4976572241714224
1789761532812523000,1.48652294921875,3.1564018376946446,1.5092366882145405,0.8631761147860437
1789761532822571000,1.496571044921875,4.111085658028721,0.913584332704544,1.8356189522378146
1789761532832620000,1.5066201171875,1.7910282614916562,-0.7036410210639238,1.9027027759514747
1789761532842668000,1.51666796875,-1.5631903967201708,-1.5466501808077096,0.4174620630154386
1789761532852716300,1.52671630859375,-4.270969345992803,-1.7607289848178624,-2.1085950586356224
1789761532862764000,1.536763916015625,-3.5718823349714275,-0.6663789196401834,-3.860614813427627
1789761532872812000,1.54681201171875,-1.4029174171775578,-0.5264133995890617,-3.3570454060703514
1789761532882861000,1.556861083984375,2.3598972394943236,-0.9974088633388281,-0.3996206648439169
1789761532892909000,1.566908935546875,3.5592081468373533,-2.252580189591646,2.8403979059532283
1789761532902957300,1.576957275390625,3.5931799745440482,-1.9939041189640758,3.684562080951035
1789761532913005000,1.587005126953125,-1.2293676074326039,-1.0655682073295116,0.7979149033896624
1789761532923053000,1.597052978515625,-3.914615575945377,1.0473638575971127,-2.2652679678596557
1789761532933102000,1.60710205078125,-3.5558904005914926,1.5428975502759217,-1.6944328043505548
1789761532943150000,1.617150146484375,-0.7835363955557346,1.3302028941005468,2.3714532372534274
1789761532953198000,1.627197998046875,3.0245559112131595,-0.3870470144748688,6.795768978396057
1789761532963246000,1.63724609375,5.146583721265197,-1.6796780105501412,7.656586766552925
1789761532973295000,1.647295166015625,2.9624720877438784,-1.889855130946636,4.039935607789457
1789761532983343000,1.657343017578125,-1.0343746121644972,-0.5945394258320331,-0.7333627170454711
1789761532993391000,1.66739111328125,-3.0184266146779057,1.284587974873185,-2.6417656773999334
1789761533003439000,1.677439208984375,-1.7963561785161495,2.713078224724531,-0.7508615488570183
1789761533013487000,1.687487060546875,0.5859522147506475,2.1486878534406424,1.909492874483019
1789761533023536000,1.6975361328125,2.8438258345752954,-0.0032300679624080657,2.4064275200009346
1789761533033584000,1.707584228515625,1.9508488210916517,-2.217313061377406,0.435328303367272
1789761533043632000,1.717632080078125,0.9900678529262542,-1.406430978256464,-1.3989587426796555
1789761533053680000,1.72768017578125,-1.19793085116148,-0.3133797207176685,-0.7544660761550068
1789761533063728000,1.73772802734375,-1.077518172842264,0.7579413510501384,1.6945521929465233
1789761533073777200,1.747777099609375,-1.398579095712304,0.9201087660372257,2.852475004976988
1789761533083825200,1.7578251953125,-1.3171452596068383,-0.5059475346654653,1.664933738143742
1789761533093873000,1.767872802734375,0.4508008169829845,-0.4839601592630148,-0.6598807167273014
1789761533103921200,1.777921142578125,1.4254875609040258,-0.019109774139523503,-2.062415052871406
1789761533113970000,1.787969970703125,2.452119011595845,0.4240624476611614,-1.0303738520905374
1789761533124018200,1.79801806640625,2.8455454979747534,0.36533962505757805,1.168803613941744
1789761533134066200,1.808066162109375,0.6605313626557588,0.32996085316240786,1.7525345724463461
1789761533144114200,1.8181142578125,-2.5213544603854414,-0.09583119477033615,0.34956564427725967
1789761533154162200,1.828162109375,-4.282396164414286,0.6094990945547819,-1.430884743772447
1789761533164211000,1.8382109375,-3.9928947474122043,0.6797878517895937,-2.44195505271703
1789761533174259200,1.84825927734375,0.429783163395524,0.10998889946043491,-1.8164903272673487
1789761533184307200,1.85830712890625,3.4011773932635783,-1.8937305110752582,-0.3797089266717434
1789761533194355200,1.868355224609375,3.748360014861822,-1.878392656689882,0.5045439880104735
1789761533204403200,1.8784033203125,0.5850210713803767,-1.5773533621072768,0.9274775412395596
1789761533214452000,1.888451904296875,-0.746289491701126,0.11900514960885047,0.7244514616414904
1789761533224500200,1.898500244140625,-2.014929955857992,1.3301380121707915,-0.9519218082748353
1789761533234548000,1.9085478515625,-1.144233163243532,0.5102437705546617,-2.4336891825444993
1789761533244596200,1.91859619140625,0.7208592823684216,-1.4553227271974085,-2.1597820789068938
1789761533254644200,1.928644287109375,0.7716203323125839,-2.841422280564904,-0.8407494711834936
1789761533264693000,1.93869287109375,-0.49030514437556266,-1.712555028757453,0.4927273300211876
1789761533274741200,1.9487412109375,-1.0680571015357971,0.7770908726781606,0.8488749099720269
1789761533284789000,1.9587890625,0.31858839527666566,2.9284119972318408,0.7222514673791826
1789761533294837200,1.968837158203125,3.009921821182966,1.8754320533186195,0.6928428559347987
1789761533304886000,1.978885986328125,3.631618134009838,-0.25788170537948607,0.9191864635605365
1789761533314934300,1.988934326171875,0.8508440911531447,-3.0322756918102503,1.3085418280430137
1789761533324982300,1.998982177734375,-2.362572596183419,-1.6213655223131178,1.8065433721400797
1789761533335030800,2.00903076171875,-2.8661797052025793,1.3085340831279755,1.8808124311827121
1789761533345078800,2.019078857421875,-3.216646755298972,2.4820675751358268,0.6673384123221039
1789761533355127800,2.0291279296875,-0.29728257239758965,0.483506570276618,-0.87695592607446
1789761533365175800,2.03917578125,2.8930747263908385,-1.2625742959856987,-1.0282726420275867
1789761533375223800,2.049223876953125,3.3377819026738402,-1.3962223034530876,0.5775420772692188
1789761533385271800,2.059271728515625,0.8804670760005712,1.0330553462594747,2.56007494392395
1789761533395319800,2.06931982421875,-3.3323002563923594,2.276998591533303,2.4569541766673324
1789761533405368800,2.079368896484375,-4.913173024797439,2.6570699217766522,0.30096780024897307
1789761533415416800,2.089416748046875,-3.08578282559216,0.6165577808946371,-0.7735241201072931
1789761533425464800,2.09946484375,2.202365083092451,-1.1961889759302138,1.1053639188840985
1789761533435512800,2.109512939453125,6.437640015369653,-2.3090257149130107,3.9853807185202834
1789761533445561600,2.1195615234375,5.9237552579641335,-1.7445137630760668,4.793406827688217
1789761533455609900,2.12960986328125,-0.9037883303552865,-0.787157508662343,2.3544296217381953
1789761533465657600,2.13965771484375,-6.902914178863167,2.420806173965335,-0.9585715484876185
1789761533475705900,2.149705810546875,-7.792698533785343,4.362987704476714,-1.9616851262740789
1789761533485753900,2.15975390625,-3.7905157335460182,3.1281454650253058,0.21435192186310886
1789761533495803000,2.169802978515625,2.414574586099386,-0.8967641308069229,3.1519694082051513
1789761533505851000,2.179850830078125,4.8359483308196065,-4.222900019350647,3.0677415574669835
1789761533515898600,2.189898681640625,1.7991548693239687,-3.780284846910834,-0.271063185448572
1789761533525947000,2.19994677734375,-1.6069441982507704,0.03971533979475498,-3.6172418181329964
1789761533535995000,2.209994873046875,-4.613284069293737,4.561023720702528,-4.811104689203202
1789761533546044000,2.2200439453125,-2.3692151029378175,5.07078233808875,-2.8894337395399807
1789761533556092000,2.230091796875,1.8091326579809188,0.280368262475729,0.6932561859760433
1789761533566139600,2.2401396484375,4.878689155915379,-4.414373608320951,2.754216583059728
1789761533576188000,2.25018798828125,3.975163275888562,-4.285823800775408,1.5084069593921303
1789761533586235600,2.260235595703125,0.3145926036387682,-2.5411755976647137,-0.36195443959869444
1789761533596285000,2.270284912109375,-0.37997956030666824,1.666037607732415,0.3186125068046152
1789761533606332700,2.280332763671875,-0.45012394063472744,1.4838520715892314,2.2849203244432807
1789761533616380700,2.290380615234375,0.7021364617198705,-0.6339432154595852,3.2314687691166997
1789761533626429000,2.300428955078125,1.0707435641407965,-3.6696354377150535,3.0082188166573642
1789761533636477700,2.310477783203125,1.0478373203277587,-3.037481443759799,2.7206200184062124
1789761533646526000,2.32052587890625,-0.571254996356368,-0.6374772348046303,2.450671443136036
1789761533656573700,2.33057373046875,-1.486751300162077,1.3229939856350421,2.202971524553001
1789761533666621700,2.34062158203125,-1.2965730116993188,2.4207114814192057,2.227072531108558
1789761533676670000,2.350669921875,0.802036513364315,1.1066653568714857,2.2978154618516564
1789761533686718700,2.36071875,1.3622504757463931,-0.5218254872769117,1.0864986940901726
1789761533696767000,2.37076708984375,-0.7549789941132068,-0.9588754268050194,-1.4232172778844832
1789761533706814700,2.380814697265625,-3.2176492103397845,0.07091010400354862,-3.0416309646546837
1789761533716862700,2.39086279296875,-2.8323651138842103,2.415440263018012,-2.6602356923311947
1789761533726910700,2.40091064453125,-1.672091500943899,3.138231974753737,-1.611722226307541
1789761533736959700,2.410959716796875,0.3736743226826191,0.5433756403058767,-0.6854382787667215
1789761533747007700,2.4210078125,3.253075913029909,-2.606785841694474,0.08526333126574755
1789761533757055700,2.4310556640625,2.9838077212393284,-3.8219858075648543,0.033994477929919956
1789761533767103700,2.441103759765625,0.8417062604516744,-1.9929531018495559,-0.44653994466811414
1789761533777151700,2.45115185546875,-1.2501987985372542,0.5000368493169546,-0.23160320865437387
1789761533787200800,2.46120068359375,-1.3607821567595004,2.810672922036052,0.34662177284508944
1789761533797248800,2.471248779296875,-1.9210902271658181,1.6068249557852745,0.22309680772423743
1789761533807296800,2.481296875,-1.04919633372128,-1.6165514000296592,0.14230229243561623
1789761533817344800,2.4913447265625,-0.5972977846294641,-3.7680811988979577,0.09518222934231162
1789761533827393800,2.501393798828125,0.12434417254924773,-1.4398130233764648,0.14408289224207402
1789761533837441800,2.51144189453125,2.480169048038125,1.8117519005686045,0.3477916934072971
1789761533847489800,2.52148974609375,3.877461026549339,2.279551783147454,0.12496610383987426
1789761533857537800,2.531537841796875,3.6451965775072575,-0.18811317262649535,-0.36561551938951015
1789761533867585500,2.54158544921875,2.9075077408909795,-1.8741005124539136,-0.5557450002744794
1789761533877634800,2.551634765625,-0.2633914087116718,-2.4787854847252366,-0.9598352848131209
1789761533887682600,2.5616826171875,-3.6364252420306205,-0.839375771677494,-1.2052592943534255
1789761533897730800,2.571730712890625,-4.730898056805134,1.617489557662606,-0.9482704461604357
1789761533907778800,2.58177880859375,-1.5437795938074588,3.3875212083548307,-0.15096161890514195
1789761533917826600,2.59182666015625,2.498322544366121,1.675927718105912,0.5198877972126007
1789761533927875800,2.601875732421875,4.114901416924596,-1.2688999918758868,-0.4559055927760899
1789761533937923600,2.611923583984375,1.7937158931404351,-3.248137287583947,-2.2181416211560365
1789761533947971800,2.621971923828125,-1.2910972106367349,-2.548558693653345,-2.3004171687826513
1789761533958019800,2.632019775390625,-2.8626427632480858,0.9505185173481703,-0.6680896690808236
1789761533968068900,2.64206884765625,-2.6881793457895515,3.268872617098689,1.1117495282679795
1789761533978116900,2.652116943359375,-1.2257447407603264,1.8742273537039755,1.5135127580985426
1789761533988164600,2.66216455078125,0.19768647213578222,-0.22565233742594717,-0.09355893898941577
1789761533998212900,2.672212890625,1.062012560674548,-1.8669822048813103,-2.4132880534201857
1789761534008260600,2.682260498046875,-0.23574060072004793,-2.1373487133026123,-2.832684847357869
1789761534018310000,2.692309814453125,-0.29241642766594883,0.372098451668024,-1.0647308066572994
1789761534028357600,2.702357666015625,-1.0161293458998202,2.8507728772342205,0.7584170057378709
1789761534038405600,2.712405517578125,-0.6122820032715797,2.6500182496994733,1.1339135023463516
1789761534048454000,2.722453857421875,-0.4834837739229202,0.5140612830162048,-0.5139326882004738
1789761534058501600,2.732501708984375,-0.36683541657328606,-1.7337153056859969,-2.0497980017520487
1789761534068551000,2.742551025390625,2.1765987736731764,-1.2883768457621336,-1.3535986749961972
1789761534078598700,2.7525986328125,2.3048107275664806,0.020675708281993863,0.03069602090641856
1789761534088646700,2.762646728515625,-0.15617489657402037,0.5120353301465511,0.36549737290255724
1789761534098695000,2.77269482421875,-1.751741960763931,0.5121066418170929,-0.19301522892173378
1789761534108742700,2.78274267578125,-0.5156301397681236,0.7022831767141818,-0.5756808499746024
1789761534118792000,2.7927919921875,1.3472645035386084,0.2947159367799759,-0.14040511704478412
1789761534128839700,2.802839599609375,2.80023160752058,-1.1459031422823667,0.7626064202517271
1789761534138888000,2.812887939453125,2.6855162640601393,-2.2107243306368587,1.205691986682266
1789761534148935700,2.822935791015625,1.9584142879098652,-1.809589169576764,0.6575467938870191
1789761534158983700,2.832983642578125,1.9476795434057712,0.2932294976145029,-0.44915239218883213
1789761534169032700,2.84303271484375,1.3078157057255506,0.6247703134447335,-1.2286195655442773
1789761534179080700,2.853080810546875,-0.4977922852605581,-0.6657143182516098,-1.2368898196309803
1789761534189129000,2.86312890625,-2.209011681500077,-1.137687102600932,-0.8651911078702658
1789761534199176700,2.8731767578125,-3.05864698138535,-0.6011071137845516,-0.5990663286719471
1789761534209225700,2.883225830078125,-0.9559364507436752,1.0283896925359963,-0.4637148417549207
1789761534219273700,2.893273681640625,1.0820376960933207,1.2114701316922902,-0.3725904364360496
1789761534229321700,2.90332177734375,2.346315873387456,-0.37492753761410713,0.40437184142637994
1789761534239370000,2.913369873046875,1.1325205136179923,-1.5429484036803245,1.448347042965889
1789761534249417700,2.923417724609375,-1.600874522948265,-0.29538813695311544,1.6317349406361579
1789761534259466800,2.933466796875,-3.479944640508294,1.6604717902988195,0.8963200403012335
1789761534269514800,2.9435146484375,-1.211217033714056,2.146601110294461,0.23416714085824786
1789761534279562800,2.953562744140625,0.141451374694705,0.5081920987218618,0.24931208475371822
1789761534289610800,2.96361083984375,1.2611381257027388,-2.2830513157010075,1.0722050149954854
1789761534299658800,2.97365869140625,1.5262579656422137,-2.5329455294579266,1.8732967948555945
1789761534309707800,2.983707763671875,0.6842202812790871,-1.179849251025915,2.017218943578005
1789761534319755800,2.993755859375,-1.0561188264608383,1.3273159404873847,1.3805899961657822
1789761534329803800,3.0038037109375,-0.8141548211812972,1.1699492037802934,0.5251702676601707
1789761534339851800,3.013851806640625,-0.10506313349604605,-0.15629004738628863,-0.36030594173930586
1789761534349900000,3.023900146484375,-1.267813950204849,-1.725138031476736,-0.8220512004543096
1789761534359948800,3.03394873046875,-0.8917343199461698,-0.7566548183709383,0.24298702818434684
1789761534369996800,3.043996826171875,-0.7441156547933816,0.575794393351674,1.2305388431690634
1789761534380045000,3.054045166015625,-0.1323790104448795,0.696514530184865,0.9636632456034422
1789761534390092800,3.0640927734375,1.143172256013751,0.24350597402453422,-0.573883408631198
1789761534400141000,3.07414111328125,1.8736381556391715,0.41915304830968375,-1.9428984466090797
1789761534410189800,3.08418994140625,3.3194922127455473,-0.1630231550335884,-1.652841149289906
1789761534420237800,3.09423779296875,4.082458113959431,0.426554848998785,-0.697973642951995
1789761534430285800,3.104285888671875,0.8240238887667656,-0.538563271588087,-0.3480028154073283
1789761534440333800,3.114333740234375,-2.1523720949113367,0.5038736510008573,-0.3944454906957224
1789761534450382000,3.124382080078125,-3.4384377411216493,1.5722078159123658,-0.3469486301792785
1789761534460430800,3.134430908203125,-3.7134833472698925,0.610147913852334,-0.555193832665123
1789761534470478800,3.144478759765625,-2.3872440961033106,-1.720251428478956,-1.124443882407248
1789761534480526800,3.15452685546875,-0.3978898955285549,-3.1547447181373833,-1.4127576970599591
1789761534490574800,3.164574951171875,0.8110200302869081,-2.568892456629872,-0.5838655812023207
1789761534500623000,3.174623046875,1.573856167641282,0.6665373250722885,1.2701371324554085
1789761534510672000,3.184671875,1.750909017071128,3.7143098612219094,1.8817055806301533
1789761534520720100,3.19472021484375,0.38078327790498734,2.300958728313446,0.7722397793851792
1789761534530768000,3.204767822265625,-0.49086745443344115,-1.7183014634549616,-0.5445427478564903
1789761534540816000,3.21481591796875,-0.35662615724802016,-2.5196798051714895,-0.9064915979646145
1789761534550865000,3.224864990234375,-0.7200584873795509,-0.9163041130572557,0.5180560152081772
1789761534560913000,3.234912841796875,0.9865268193185329,1.6844599841296672,2.8931413618862627
1789761534570961000,3.2449609375,0.896661254954338,1.751171467399597,3.0819606369554995
1789761534581009000,3.2550087890625,0.3025000147849321,0.18661153589189053,0.4178154430303722
1789761534591057000,3.265056884765625,-0.7987076612025499,-1.86950032518208,-2.387142389294505
1789761534601106000,3.27510595703125,-1.1479366939365863,-1.4625205297470092,-2.6792762006267905
1789761534611154000,3.28515380859375,-1.6133932282596826,0.5222516037344932,-0.92358360254094
1789761534621202000,3.295201904296875,-0.24134265851080416,2.4286060340613127,0.39754400470033285
1789761534631250000,3.30525,-0.46239890031814573,0.8212772204071283,-0.6663393913473934
1789761534641298000,3.3152978515625,-0.31738720279335975,-1.4288736962109803,-2.444101270965487
1789761534651347000,3.325346923828125,0.6262567526102065,-1.7522282829761504,-2.562920981004834
1789761534661395000,3.33539501953125,0.8732692734509706,0.0007505261063575744,-1.028305009927228
1789761534671443000,3.34544287109375,-0.3901753756284714,1.314253045296669,0.49392077758945524
1789761534681491000,3.355490966796875,-1.9166987142086027,1.4971452684044837,0.5083337356822565
1789761534691538700,3.36553857421875,-0.5572241329163312,2.1426918278962375,-0.5955543019630014
1789761534701588000,3.375587890625,0.666717357814312,1.4227876542955635,-1.2629700173050165
1789761534711635700,3.3856357421875,2.8362551070600746,-1.171482989218831,-0.22465545360939576
1789761534721684000,3.39568408203125,4.815320553332567,-2.9103982016354797,1.1802936337925494
1789761534731732000,3.40573193359375,3.855664789804816,-2.681326411154866,1.4207500109881162
1789761534741779700,3.41577978515625,0.25212241120040413,-1.3250912501752377,0.807238904312998
1789761534751829000,3.4258291015625,-4.954243870854378,0.7628618563175201,0.0862995972446166
1789761534761876700,3.435876708984375,-7.185534604179859,2.4128444013059136,-0.26290525089623407
1789761534771925000,3.445925048828125,-5.062931040066481,2.4336662400603295,0.31020247892104086
1789761534781973000,3.455972900390625,0.3967126684427261,0.48304070633053775,1.205543664252758
1789761534792020700,3.466020751953125,4.136264522948861,-2.1024591862291095,1.0980734696149825
1789761534802070000,3.476070068359375,5.056734523513913,-2.8385125305980443,0.053080688530765474
1789761534812117800,3.48611767578125,1.8346926311731337,-1.8568524405330418,-0.8771956531144678
1789761534822166000,3.496166015625,-1.2466086650907993,1.537710503026843,-0.6328788010984658
1789761534832213800,3.5062138671875,-2.6777783632844683,3.9016906279206274,0.31783085490763185
1789761534842261800,3.51626171875,-1.7336206131398677,1.8997317973166703,0.6622599400140344
1789761534852310800,3.526310791015625,-0.06342179407477379,-0.6536433567076921,-0.5655160873781889
1789761534862358800,3.53635888671875,2.0898785215973854,-3.3447640166461468,-1.9169084114365278
1789761534872407000,3.546406982421875,2.3466034581571815,-3.1763018854290244,-1.4161569841094315
1789761534882454800,3.556454833984375,1.4326181434363126,-0.7077893729150295,0.21790099264681337
1789761534892502800,3.566502685546875,-0.6625964784920215,2.440778117892146,1.1486055331088603
1789761534902551800,3.5765517578125,-1.6605495317101477,2.311902731654048,0.5179551851822063
1789761534912599800,3.586599853515625,-0.6896236016273498,0.8430582595825195,-1.5508157760545611
1789761534922648000,3.59664794921875,0.5914373681634664,-1.5675211194008587,-3.6006712070822715
1789761534932695800,3.60669580078125,0.9511720128208399,-3.7069162438392635,-3.3818817411631343
1789761534942743800,3.616743896484375,3.680007778647542,-2.6305361351162193,-0.5335840949360281
1789761534952792800,3.626792724609375,1.4834598574012516,0.07211012744307517,1.0365222917176782
1789761534962840800,3.6368408203125,-3.295021788355708,2.204248412621021,0.23601675078030673
1789761534972888800,3.646888916015625,-2.694338452941179,2.836594129756093,-0.6955259575389325
1789761534982936800,3.656936767578125,-0.24340309817194938,1.6198633010566235,-1.0270172351390123
1789761534992984800,3.66698486328125,2.0780571509003636,-0.8401800737977028,-0.1914642914189957
1789761535003033900,3.677033935546875,3.561167464211583,-2.612316003292799,1.288926734729856
1789761535013081900,3.687081787109375,2.2680869708031413,-1.7784727313011883,1.978413850495964
1789761535023129900,3.6971298828125,-1.0569406642377377,0.20971651714742182,1.4600019710548222
1789761535033177900,3.707177734375,-3.170896811515093,2.928738160446286,0.32472956491280347
1789761535043227000,3.717226806640625,-3.9528701955378054,1.6327181064546108,-0.5591450179763138
1789761535053275000,3.72727490234375,-1.8893840063035487,-0.5950216563910246,-0.35301636925302443
1789761535063323000,3.737322998046875,0.18249533274471758,-1.656128792658448,0.06222476630993187
1789761535073371000,3.747370849609375,0.35172435668110846,-0.4284352559179067,0.2636759247414768
1789761535083419000,3.7574189453125,0.5339145689994096,1.0983142926335334,0.7370821759600192
1789761535093468000,3.767468017578125,0.06415595356822014,2.4041087216645476,0.48755555340647694
1789761535103516000,3.777515869140625,-1.543454599636793,0.7796966712623834,-0.42620669314824045
1789761535113564000,3.78756396484375,-1.1377344488739967,-0.7998112385302781,-0.406288379104808
1789761535123612000,3.79761181640625,-0.32451486271619795,-0.9723743753254414,0.29122312622815366
1789761535133660000,3.807659912109375,-0.003949029886722564,0.42788638986349103,1.1877857431136072
1789761535143709000,3.817708984375,-0.20867782174944877,0.6950292600631713,1.781188712261617
1789761535153757000,3.8277568359375,0.3489601526647806,0.6505635108709334,1.251371495578438
1789761535163804700,3.8378046875,-0.426868152731657,-0.6633037499785422,0.019300839732214806
1789761535173853000,3.84785302734375,1.44163088645339,-0.4637590827554464,-0.3239115630608052
1789761535183901000,3.85790087890625,0.9634569093763827,-0.1375432613402605,0.2044424126693979
1789761535193950000,3.867949951171875,0.8854045324027537,0.2869996633142233,1.2722415573887527
1789761535203998000,3.877998046875,-0.7768360211342573,-0.04889350250661373,1.553201209886372
1789761535214046000,3.8880458984375,-0.36897359764575954,-0.3584025192707777,0.5224275082906708
1789761535224094000,3.898093994140625,0.25221125852763654,0.003622282150387764,-1.0420371096163987
1789761535234142000,3.908141845703125,0.48092006091475487,-0.6603554215669631,-1.4896224716842175
1789761535244191000,3.91819091796875,1.2259089914113281,-1.606253293377161,-0.06693557434938847
1789761535254238700,3.92823876953125,0.2202612920373678,-1.9079034133344888,1.7349767039239405
1789761535264287000,3.938286865234375,-0.6288315715342759,0.5295575428336858,1.8525242020703852
1789761535274335000,3.9483349609375,-0.7044166816115379,2.467809332680702,0.2793437417335808
1789761535284382700,3.9583828125,0.8720423620045185,2.0369547406613826,-1.049720357595384
1789761535294432000,3.968431884765625,2.6530267838656902,0.0795335554420948,-1.273077569821477
1789761535304479700,3.978479736328125,0.10785714812874793,-2.384938157248497,-0.42635925336144864
1789761535314528000,3.988528076171875,-1.3081284249365328,-2.425057986190915,1.1031181127186864
1789761535324576000,3.998575927734375,-2.469009940642118,0.6280483122020959,1.4786527493804693
1789761535334623700,4.008623779296875,-3.2533693430185315,2.8414117591708896,0.7234672729097307
1789761535344672500,4.018672607421875,-0.8890431811660527,1.9762305151075124,0.5381818710550665
1789761535354720300,4.02872021484375,1.816700462886691,-0.8205623501360416,0.6813990863785148
1789761535364768500,4.0387685546875,1.9346967277139424,-2.430077275657654,0.5544225925642997
1789761535374816500,4.04881640625,1.4706734410643576,-2.2984750948041675,0.6103771925635636
1789761535384864300,4.0588642578125,0.0755816029459238,1.1816478248804807,0.12660736824087798
1789761535394913500,4.06891357421875,-1.1378086831539869,2.267906353539228,-0.05636003899499774
1789761535404961300,4.078961181640625,0.6853115836471319,0.7736731731891632,0.922077070435509
1789761535415009500,4.089009521484375,0.19279343939721583,-1.075771036913991,1.3568915790617466
1789761535425057500,4.0990576171875,-1.9023931254804134,-2.143932183346152,1.106325165131688
1789761535435105300,4.109105224609375,-1.7568647106051445,-1.4339742342203854,1.067791947793588
1789761535445154300,4.119154296875,-1.5037082801818846,1.2335288187652826,0.181142456831038
1789761535455202300,4.129202392578125,0.767457367414236,1.35067460424304,-0.4620964102402329
1789761535465250600,4.13925048828125,3.104223906689882,-0.26171616897583005,0.05511676093563437
1789761535475298300,4.14929833984375,3.0396769079774617,-2.037714619117975,0.11599018570184708
1789761535485346300,4.15934619140625,1.148733981794119,-1.6268945148676632,-0.19750169015340505
1789761535495395300,4.169395263671875,-0.9042045099407434,-0.21901801397800444,-0.3398634576912969
1789761535505443300,4.179443359375,-0.7059621574878692,2.7061417034596205,-0.41006007966324687
1789761535515491600,4.18949169921875,0.7658347346484661,2.8429671719193457,0.0804408795453608
1789761535525539300,4.199539306640625,0.6261854409396648,0.04882803605496883,0.4036675290819257
1789761535535587300,4.20958740234375,-1.1566156749546528,-2.3324895926088094,-0.14096717137433587
1789761535545636400,4.21963623046875,-3.2867952272802587,-2.033052472525835,-0.27601189389713104
1789761535555684400,4.229684326171875,-2.2387281898498532,0.23411504534482955,0.11206446362547576
1789761535565732400,4.239732421875,-0.7195166355878114,2.875810872378945,-0.19843385643698275
1789761535575780400,4.2497802734375,1.3714344836771488,1.7720692939996718,-0.8346601413324475
1789761535585828600,4.25982861328125,1.6609306399822235,-0.8636234932273625,-1.1069298530265688
1789761535595877400,4.26987744140625,0.051847676137089724,-2.9673054992496968,-0.5950619153361767
1789761535605925400,4.27992529296875,-1.1198773051440716,-2.3051631942659614,0.9925569663282483
1789761535615973400,4.289973388671875,-2.213739879065752,0.858950825241208,2.0387901393949983
1789761535626021400,4.300021484375,-2.556999189740419,3.5218373243421315,1.5779789466597138
1789761535636069600,4.310069580078125,-1.3459604352027177,2.2609739239275455,0.3110004974309355
1789761535646118400,4.320118408203125,0.268572026219964,-0.23994039049744603,-0.5718718130804598
1789761535656166400,4.33016650390625,0.5629881032705306,-2.6858576248437163,-0.013490472953021526
1789761535666214400,4.34021435546875,2.770576473969221,-0.9358698142707347,1.6253075379371642
1789761535676262400,4.350262451171875,1.1102110666543246,0.989240169930458,1.6235506112672387
1789761535686310700,4.360310546875,-1.2746604550987481,2.1100153006970883,-0.1653489676326513
1789761535696359400,4.370359375,-1.3524597340941429,1.2192933726638555,-1.5612635203108192
1789761535706407400,4.380407470703125,0.13516133463978766,-0.2821644982427359,-1.418137490402162
1789761535716455400,4.390455322265625,1.212156944912672,-1.7628548909306525,0.24549312925375996
1789761535726503400,4.40050341796875,2.141435105833411,-1.4764011710613965,1.8874688203319907
1789761535736551400,4.410551513671875,0.3034919484317303,-0.681577657815814,1.3018532901898026
1789761535746600400,4.420600341796875,-1.2880372385442256,1.4218874905854462,-0.983553940987587
1789761535756648400,4.4306484375,-3.0936557509243485,1.6614678155988454,-2.676216813056171
1789761535766696400,4.440696533203125,-0.3502507769972086,1.0999538765341044,-1.9412442496612667
1789761535776744400,4.450744384765625,1.7344500497013329,-0.5480863022148609,0.4056969160176813
1789761535786792400,4.46079248046875,2.44675719230175,-1.7928215746492147,2.046594091144204
1789761535796841500,4.470841552734375,1.5180442640483378,-1.8948317503154277,1.7354481208279728
1789761535806889500,4.480889404296875,-0.017283727756142616,-0.22531682186126709,0.05610913297384977
1789761535816937500,4.4909375,-0.9939648603647947,1.6579910793989896,-1.4463580611057578
1789761535826985500,4.5009853515625,-1.621076183977723,1.569022171613574,-1.7111884165793656
1789761535837033500,4.511033447265625,-1.6894605688959359,-0.468431750741601,-0.6492858190853148
1789761535847081500,4.52108154296875,-0.1290250238418579,-0.8627128081232309,0.732601961806044
1789761535857130500,4.531130615234375,-0.2178916402965784,-0.1716372541218996,1.2485010547086597
1789761535867178500,4.541178466796875,0.2250537870109081,0.21683424019813535,0.753000825908035
1789761535877226200,4.551226318359375,0.20617256093025207,0.4038672163724899,-0.48821646500062194
1789761535887274500,4.5612744140625,-0.4385246882557869,-0.038539866274595255,-1.14199429827556
1789761535897323300,4.5713232421875,0.7605436425030231,-0.559662173718214,-0.4671958157384768
1789761535907371500,4.58137158203125,1.8179215291142463,-0.21109540428519247,-0.04767360532283783
1789761535917419500,4.59141943359375,0.6462041466176509,-0.4643605557799339,-0.5549203129533677
1789761535927467300,4.60146728515625,-0.8425064709186554,-0.9539894083291292,-0.818157627081871
1789761535937515500,4.611515625,-2.6480612704128026,0.14619769243896005,-0.796686530638486
1789761535947563500,4.6215634765625,-2.188045465838909,1.0306962159126996,-0.5096467179769649
1789761535957612500,4.631612548828125,-0.3718009300261736,1.1292682338237763,0.30290870518367735
1789761535967660500,4.64166064453125,2.5262895787000654,0.4710749587267637,0.4466674800379202
1789761535977708300,4.651708251953125,2.0139988124877215,-0.933776641383767,-0.79327555315122
1789761535987756500,4.661756591796875,0.7812374709635973,-2.3126439054101704,-1.668132534185052
1789761535997804300,4.67180419921875,-1.1032564252108334,-1.3451117094188927,-1.5622829264864324
1789761536007853600,4.681853515625,-1.4739754052191971,1.5396674823135137,-0.7189163316071033
1789761536017901300,4.6919013671875,-0.6052712477266788,3.497637533587217,0.052056606180034576
1789761536027949300,4.70194921875,-0.00918809958398342,1.6807909402281045,-0.0442159574159421
1789761536037997600,4.71199755859375,1.8944436277806758,-0.6947843453913927,-0.2493653127782978
1789761536048045300,4.72204541015625,3.116080348700285,-1.3962550366789102,-0.5477530516725033
1789761536058094600,4.732094482421875,1.2384054848909378,-0.9116203391551971,-1.010698114631325
1789761536068142300,4.742142333984375,-0.6150280871093273,0.5021335293352603,-1.2710391958616674
1789761536078190300,4.7521904296875,-2.010826612192392,2.2966554781615733,-1.7412068304851651
1789761536088238600,4.762238525390625,-3.174870391321182,1.7717402081757783,-2.309871664217859
1789761536098286300,4.772286376953125,-1.5375748939484357,-0.06940028396248817,-2.035741127087921
1789761536108335600,4.782335693359375,0.25109599076211453,-2.2879361651331185,-1.2147515645157545
1789761536118383400,4.79238330078125,1.8777526052206754,-2.6556460264533754,-0.21552363252360374
1789761536128431400,4.802431396484375,1.5081132371425627,-1.9238298812627792,0.5238153824524954
1789761536138479400,4.812479248046875,-0.22397709769010543,0.3084668142348528,0.7572649130932986
1789761536148527400,4.82252734375,-2.2996833015501497,1.2400994293272494,0.8533708331517875
1789761536158576400,4.832576416015625,-1.9347668703407048,1.3479004633545875,0.746119980353117
1789761536168624400,4.842624267578125,-0.01063596030473709,0.5186258144527673,0.3268251854851842
1789761536178672400,4.85267236328125,1.4605448457598684,-1.1523434044629335,0.08783267029710114
1789761536188720400,4.862720458984375,1.2252385448038576,-1.7825713987916707,0.5293168294129893
1789761536198768400,4.872768310546875,0.4743856907099485,-0.08905658606886863,1.0926191497318447
1789761536208817400,4.8828173828125,-0.6106687228560448,1.8258055603623389,0.9167014418117702
1789761536218865400,4.892865478515625,-0.976276643460989,2.09691967228055,0.15359437856152652
1789761536228913700,4.90291357421875,-0.4523170667648315,0.2314811897099018,-0.7257328066889196
1789761536238961400,4.91296142578125,0.7966869690299033,-0.9790320796489715,-1.1581854815546422
1789761536249009400,4.923009521484375,1.4917255814433097,-1.48144851757884,-0.5145788771495223
1789761536259058400,4.933058349609375,1.6053630665391683,-0.7737965073078871,0.636998219116032
1789761536269106400,4.9431064453125,-0.9628232876479625,0.440896678084135,0.9928682242345064
1789761536279154400,4.953154541015625,-1.429735865998268,1.3190437867045401,0.43978031434006987
1789761536289202400,4.963202392578125,-1.806857114264369,0.8107271848201751,-0.9797139974985272
1789761536299250400,4.97325048828125,-0.5995815116524696,0.35190731203258035,-1.6237568013638257
1789761536309299500,4.983299560546875,0.5870990466982126,-0.20105857891738413,-0.04647232150798663
1789761536319347500,4.993347412109375,1.0290648153185844,0.046968671923875806,2.2443070128954945
1789761536329395500,5.0033955078125,-0.5208125108420849,0.2342863102585077,3.2159090886741875
1789761536339443000,5.01344287109375,-0.7998217599242925,0.5985515840828418,2.1807339737817646
1789761536349491200,5.0234912109375,-1.034464628535509,0.9064794691354036,0.17611816239561884
1789761536359539000,5.0335390625,0.0027507600128650663,0.5225590622484684,-0.6042174278248101
1789761536369588000,5.043587890625,1.8604396513700485,-0.30482991903722284,0.3982853976521641
1789761536379636000,5.053635986328125,1.2389005749315023,-1.264261226159334,1.6574737775266168
1789761536389684000,5.06368408203125,-0.7565151176393031,-0.5555880561470985,1.9990055337563155
1789761536399732200,5.073732177734375,-0.9910440044820308,0.4652501980960369,1.1111659562263636
1789761536409780000,5.083780029296875,-1.561076765567064,1.458057705119252,-0.6005729703752324
1789761536419829200,5.093829345703125,-1.3327490714520216,-0.054364042872190474,-1.2983707087710499
1789761536429877000,5.103876953125,0.3783008134394884,-1.5382611226469278,-0.8148885422833263
1789761536439925000,5.113925048828125,-0.3507598955631256,-1.6816443421870468,-0.49669422435816374
1789761536449973000,5.123972900390625,-0.3251058143466711,-1.1391992607295514,-0.08592570416461676
1789761536460021000,5.13402099609375,1.7827642910152672,0.4738859244942665,0.3095452936539426
1789761536470070000,5.144070068359375,1.2520938185036181,1.1255582733899354,0.24868147696629164
1789761536480118000,5.154117919921875,2.4330600908607245,-0.346115284627676,0.8531914579968899
1789761536490166000,5.164166015625,1.5386369702219962,-1.0068541525542736,1.080753355371207
1789761536500214000,5.174214111328125,-2.303901796028018,-1.5573556992173194,0.6435670030470937
1789761536510262000,5.184261962890625,-0.7463602188497781,0.3099257808715105,1.2075238782845437
1789761536520311000,5.19431103515625,-0.9859007963746785,1.1376344956308602,1.5456638001188634
1789761536530359000,5.204359130859375,1.3789531887441873,0.2273550496906042,1.28393535618335
1789761536540407000,5.214406982421875,1.470654151841998,-2.2886223938316106,0.8548784612357616
1789761536550455000,5.224455078125,2.3009312557846306,-2.4919383962869643,0.4169282118670642
1789761536560503000,5.2345029296875,0.05422083500921726,-0.8717378260999917,0.5026789978561923
1789761536570552000,5.244552001953125,-0.5790723921090364,1.1579127290278672,1.4084304815106092
1789761536580600000,5.25460009765625,1.6611609416067599,2.448524201974273,1.71451843778491
1789761536590647800,5.264647705078125,1.4480711486339568,0.3937877209067344,0.44366058983951806
1789761536600696000,5.274696044921875,0.579332504349947,-2.8559084865570066,-0.644612712707743
1789761536610744000,5.284744140625,-0.1790823094308376,-3.07580503693521,-0.6777430480889975
1789761536620793000,5.29479296875,-1.8288012350469827,-0.7456628842353821,-0.058138337246514855
1789761536630841000,5.304841064453125,-1.1704957317471503,2.501599958601594,0.3405626189365983
1789761536640888800,5.314888916015625,-1.6242887162834405,3.169860454204678,-0.5250263291448355
1789761536650937000,5.32493701171875,-0.09459200836420059,1.1524714147567747,-1.3630442564725875
1789761536660985000,5.334985107421875,1.6812474518239497,-1.0114701219171285,-1.1287729245875031
1789761536671034000,5.3450341796875,1.1261714368522167,-2.4118852008849383,-0.42358825427815316
1789761536681082000,5.35508203125,0.09899462723731994,-1.7378507980555296,0.799915502622351
1789761536691129900,5.3651298828125,-1.262463821348548,0.35858664366602894,1.4170568555586038
1789761536701178000,5.37517822265625,-1.6923428463339805,2.940295327249169,0.5072385243240743
1789761536711226000,5.38522607421875,-1.2780857533723116,1.558889484655857,-0.6601018851973116
1789761536721273900,5.39527392578125,0.15225509278178215,-0.7184259177416562,-1.0835161711480468
1789761536731323000,5.405322998046875,0.38944238517880436,-1.7380401831477879,-0.5667766818985343
1789761536741371000,5.415370849609375,0.6562672754704952,-0.7269780575096607,0.7264177932783961
1789761536751419100,5.425419189453125,-0.1831447365641594,1.2154402043670416,0.8924865996181964
1789761536761467000,5.435466796875,-1.6634037520974874,1.990653008213639,-0.2659237767335027
1789761536771515100,5.44551513671875,-1.0939736330807208,0.9116419664651155,-0.8059988411240279
1789761536781564000,5.45556396484375,0.6487918250232935,-0.8599801682889461,0.0012178513571619986
1789761536791612000,5.46561181640625,1.7092209158986806,-2.0442104108780623,1.1702645533397793
1789761536801660200,5.47566015625,1.415606802880764,-1.217854864293337,1.8842691475078464
1789761536811708000,5.4857080078125,-0.097724461171031,0.5350836127787828,0.971888053113222
1789761536821756200,5.495756103515625,-2.893980150797963,2.608199215623736,-1.5041295743338763
1789761536831805000,5.505804931640625,-2.3444793056100606,1.8491344135016201,-2.700459566169977
1789761536841853000,5.51585302734375,0.5469242726981639,0.6452274105399847,-1.9410751767046748
1789761536851901000,5.52590087890625,2.5616607518106695,-0.4183177665293216,-0.7531376770954579
1789761536861949000,5.535948974609375,1.0579249990999697,-1.4811720387250185,-0.04890022450834512
1789761536871997200,5.5459970703125,0.10200783757865428,-0.5911702416598796,-0.4929862366857007
1789761536882046000,5.5560458984375,-1.0770470481991767,1.9503332727849483,-1.8082240187034009
1789761536892094000,5.566093994140625,-1.634092317417264,1.933011551105976,-2.199992801003158
1789761536902142000,5.576141845703125,-0.48589434219598765,0.9949942034125328,-1.2731415749683976
1789761536912190000,5.58618994140625,-0.08899462674856186,-0.8073486482977866,-0.06528192539084703
1789761536922238200,5.59623828125,-0.7864812168359756,-1.6080945373296738,0.6099230921205133
1789761536932286000,5.606285888671875,-0.9741139124691486,-0.7673106524199247,0.40237873138040303
1789761536942335200,5.616335205078125,-0.5586164640575647,0.8501198685318231,-0.2784228640289977
1789761536952383000,5.626383056640625,0.47559155936837194,1.2702689421415327,-0.8550145087055862
1789761536962431000,5.636430908203125,2.369872690063715,0.29765841997265813,-0.8492918202098458
1789761536972479200,5.646479248046875,2.2096201687872408,-1.3911129976153374,-0.18933971874676644
1789761536982527000,5.65652685546875,0.4741454522132873,-1.8124007198661565,0.746998589818552
1789761536992576000,5.666575927734375,-0.9176233789622783,0.10820084699988365,1.288408556074649
1789761537002624000,5.6766240234375,-2.293478017169237,1.7168232075959442,1.236639790392667
1789761537012672000,5.686672119140625,-2.318822886306047,1.3133809386372566,0.7510483036007731
1789761537022720000,5.696719970703125,0.047367315852642054,0.5015817406713963,0.5359272970613091
1789761537032768000,5.70676806640625,0.7260656188398599,-1.762723373505473,0.8106482743650675
1789761537042817000,5.716817138671875,2.9538942290127275,-1.874226769182086,0.9193936765704304
1789761537052865000,5.726864990234375,1.4244009347110986,-0.729687316468358,0.4625715534713119
1789761537062913000,5.7369130859375,0.35567572465538977,0.09825988322198391,0.30302098818542433
1789761537072961000,5.7469609375,-0.32793080863952634,1.0296206956356764,0.30169726530099283
1789761537083009000,5.757009033203125,-1.1727034709244966,1.6828016955286262,-0.2769703453994356
1789761537093058000,5.76705810546875,-2.155164940500259,0.18268939401209353,-0.7566013346180319
1789761537103106000,5.77710595703125,-1.9402654677569866,-0.4579460125625133,-0.286411780423671
1789761537113154000,5.787154052734375,-0.13034136713743208,0.2724187647759914,0.185725181511417
1789761537123202000,5.7972021484375,1.197094984859228,-0.2509884387344122,0.08564527978803962
1789761537133250000,5.80725,0.3021446254760027,-1.032704048603773,-0.32209373651649803
1789761537143297800,5.8172978515625,-0.2734486923456192,-0.27645255033671856,-0.7523021030541509
1789761537153347000,5.82734716796875,-0.15537877776026726,1.0759639291375875,-0.657321826024726
1789761537163394800,5.837394775390625,2.212193234145641,1.4069330825597046,-0.3391477837026119
1789761537173443000,5.847443115234375,2.8492361691862342,-0.41924072659313677,-0.6384013639122247
1789761537183491000,5.857490966796875,1.627618737488985,-2.5048908168405295,-0.7019570865649729
1789761537193538800,5.867538818359375,-0.055579848402738566,-1.5618278761953115,-0.35823764756526794
1789761537203588000,5.877588134765625,-2.655466578233242,0.15148878458440304,-0.39774924494884906
1789761537213635800,5.8876357421875,-4.0105701048344375,1.9788649552643298,-0.8613874778036028
1789761537223684000,5.89768408203125,-3.7816076199471946,2.0793997976809737,-1.5464571424536406
1789761537233732000,5.907732177734375,-0.9722720839947462,1.0607125839918852,-1.4543702487781642
1789761537243779800,5.91777978515625,3.119146750533581,-1.1629670898079871,-0.17820574579201637
1789761537253829000,5.9278291015625,3.838432499974966,-1.9048253210633992,0.651956572664529
1789761537263876900,5.937876953125,1.8641233083188533,-1.0519383259057997,0.3350178442910313
1789761537273925000,5.947925048828125,-0.27850597573518754,1.17405839266479,-0.9173419316723942
1789761537283972900,5.957972900390625,-1.3716788138270377,1.6857734048157929,-1.8321822557874023
1789761537294021000,5.968021240234375,-0.011879238364100455,0.5483832393348217,-1.1982704583793877
1789761537304069000,5.978069091796875,0.5768190602242946,-1.5006255117356777,-0.010635120054520665
1789761537314118000,5.988117919921875,1.6637264081805943,-1.0848334642916917,0.5745752998854965
1789761537324166100,5.998166259765625,0.5314174914866685,-1.3284388070374726,0.5537423552151769
1789761537334214000,6.0082138671875,-0.049073535248637196,0.7129419333726167,0.22125348141249268
1789761537344262400,6.018262451171875,-1.4575667067319154,1.9154799860686063,-0.4504058628486469
1789761537354310400,6.028310302734375,-1.40852707375288,0.8058189545124769,-0.7266269059844315
1789761537364359400,6.038359375,0.07018705042600631,-1.0915426065415144,-0.26535215085800734
1789761537374407200,6.0484072265625,-0.029475685331225392,-1.9935674343556165,0.4092213638167828
1789761537384455200,6.058455078125,0.666885115596652,-1.5822463948458432,1.8473326247766613
1789761537394503400,6.06850341796875,0.5458171882390975,-1.2841110050112008,3.156863609987497
1789761537404551200,6.07855126953125,-1.0476128639221192,-0.2062538094729185,2.7619349023520945
1789761537414600400,6.088600341796875,-2.0389058747291564,1.1097340967923401,1.6191471156112849
1789761537424648200,6.098648193359375,-1.4224971469163894,2.33657247800827,0.5664499706948176
1789761537434696200,6.1086962890625,-1.3102321192175148,1.7967068916499613,-0.5482277199795469
1789761537444744400,6.118744384765625,-1.1451590459167957,0.12696692226827144,-0.15090751409772782
1789761537454792200,6.128792236328125,0.8341267651081085,-0.7206552842289209,1.6952718855231999
1789761537464841500,6.138841552734375,1.213262860327959,-0.295776844009757,2.116307678839564
1789761537474889200,6.14888916015625,0.7374906836956739,-0.05318447769880295,0.5386161708191037
1789761537484937200,6.158937255859375,-0.7492430808097124,-0.34444355202317234,-1.2543971270099281
1789761537494985200,6.168985107421875,-1.4584446586102247,0.2569873868882656,-1.5369881801016627
1789761537505033200,6.179033203125,-1.2671557785570622,0.9933996276974677,0.2048812790106982
1789761537515081500,6.18908154296875,0.6832540665954351,0.5676572641253471,2.202447208417952
1789761537525130200,6.199130126953125,1.3641279600560665,0.9164408911794424,1.863144818675518
1789761537535178500,6.209178466796875,0.415472898492217,0.1313134270399809,0.14293357607647775
1789761537545226200,6.219226318359375,0.32993864133059975,-0.37250878603458404,-0.5330290914017707
1789761537555274200,6.229274169921875,-1.4546733233779667,-0.5621481453150511,-0.20561879950501025
1789761537565322500,6.239322509765625,-1.8284148660778998,0.9917828401505947,0.9541511747620999
1789761537575371300,6.249371337890625,-0.8778723833322525,1.054025069051981,1.7795967668950556
1789761537585419500,6.25941943359375,1.1666951704204083,0.47856209961175916,1.4862500726416705
1789761537595467300,6.26946728515625,2.0110610054701565,-2.327159922018647,0.8813516037501394
1789761537605515300,6.279515380859375,1.480551861000061,-2.814305141058564,0.42931569201424713
1789761537615563500,6.2895634765625,-1.3422481366813181,-1.5203852742165327,0.19993001327887178
1789761537625612300,6.2996123046875,-1.8875655587047337,1.5010861149847508,0.6077366879921406
1789761537635660300,6.309660400390625,-1.238130759602785,2.6120927159309386,0.7997399999249726
1789761537645708300,6.319708251953125,0.9671884971201419,1.9541449400275945,0.4213531887024641
1789761537655756300,6.32975634765625,3.6839264133960006,-1.6041367396146058,0.25749292525760825
1789761537665804300,6.33980419921875,3.3490871405422684,-4.9492818645328285,0.32177615846730767
1789761537675852300,6.349852294921875,-0.36825580476522446,-4.091176257944107,0.11112893634103238
1789761537685901300,6.3599013671875,-2.9850474921673533,0.5243722491502761,-0.15998744059950112
1789761537695949300,6.36994921875,-3.363666870036721,3.9925305902749297,-0.15433189905583858
1789761537705997300,6.379997314453125,-1.25419809730649,3.2617163156032563,-0.14727905793488025
1789761537716045300,6.39004541015625,1.5942133114933967,-0.7576222020983695,-0.151766724742949
1789761537726093300,6.40009326171875,3.4890450618088242,-4.359214615678787,0.267713217433542
1789761537736142300,6.410142333984375,2.3656717312425375,-4.602715913528204,1.0299516080904751
1789761537746190300,6.4201904296875,-0.40159050361216064,-1.8041139530360697,1.3263131931856273
1789761537756238300,6.43023828125,-3.00769537730515,2.5881255648881196,0.82565222062096
1789761537766286300,6.440286376953125,-2.756159826081991,4.08081969910264,0.6283385273203254
1789761537776334300,6.450334228515625,0.6175269181877374,1.8022580960363148,1.0342093386001885
1789761537786382000,6.460382080078125,2.304852228620648,-1.8004092532992362,1.1946526332084089
1789761537796431400,6.470431396484375,2.172426456424594,-3.7703736937493084,1.323055944955349
1789761537806479000,6.48047900390625,1.015270098721981,-2.1580694297701117,1.17138004030101
1789761537816527400,6.49052734375,-1.6654051550477742,1.797974135106802,0.4755566341854632
1789761537826575400,6.500575439453125,-2.1975112133204937,3.8541333424538373,0.3193976658329368
1789761537836623000,6.510623046875,-1.150039219173789,2.8251363316744564,0.530242748618871
1789761537846672400,6.52067236328125,0.28714871639609335,-0.22366788561046122,0.44101898928955197
1789761537856720100,6.53072021484375,0.7343558928012848,-2.5035440784066916,0.22778474634476004
1789761537866768400,6.540768310546875,1.361786365365982,-2.1685908237844704,0.2202341848347336
1789761537876816400,6.55081640625,-0.5470680650830269,-0.47555005831420416,0.38384894908592104
1789761537886864400,6.560864501953125,-2.192465620368719,0.6805284410238266,0.5740242418739945
1789761537896913400,6.570913330078125,-1.723535856977105,2.2784376844257115,0.22170082332119345
1789761537906961200,6.580961181640625,-0.965088309970498,1.3532161054193972,-0.583685804188624
1789761537917009400,6.591009521484375,0.29550621037483216,-0.09199965378344059,-0.659131651925668
1789761537927057200,6.60105712890625,0.7613818468928336,-1.2615087125808,-0.11111914559938013
1789761537937105400,6.61110546875,-1.023332409146428,-0.6962661083817482,-0.057773924380913375
1789761537947153400,6.6211533203125,-1.7807389226675032,1.427013163036108,-1.005508217838034
1789761537957202200,6.6312021484375,-1.7922031504899263,3.035023529213667,-2.5400848798185587
1789761537967250400,6.64125048828125,0.2897936779469251,2.265019984447956,-3.2747067300796506
1789761537977298200,6.651298095703125,1.400945824843645,0.29872692598700523,-2.457400166869163
1789761537987346400,6.661346435546875,1.8290718686819076,-1.6626333522468804,-0.8359036385875195
1789761537997394400,6.67139453125,0.8876268846273422,-0.9404653253674506,-0.10335063048973679
1789761538007443200,6.681443115234375,-1.9802099401324986,0.26335341478884217,-0.6961206354964524
1789761538017491500,6.691491455078125,-2.6166490640610456,1.9922779790669678,-1.1898358805764466
1789761538027539200,6.701539306640625,-1.342975866433978,1.03574999217093,-0.8901781034801155
1789761538037587500,6.71158740234375,0.08411854514479637,-0.7908890964061022,-0.14562844118364154
1789761538047635200,6.72163525390625,2.4944927569448945,-1.41227561263144,0.8559677177771925
1789761538057683200,6.73168310546875,2.1127251441776753,-1.2799550543755291,1.919240946037322
1789761538067732200,6.741732177734375,0.5020803378432989,0.043997547158598896,2.3304138092480597
1789761538077780200,6.7517802734375,-1.906082627648115,1.2159288646668196,2.0999115475729107
1789761538087828500,6.761828369140625,-2.812609443056583,1.2130302206158636,1.5785520703725515
1789761538097876200,6.771876220703125,-2.0902508620411155,0.8721189343720674,1.2289590266317127
1789761538107924200,6.78192431640625,-0.3855927240133285,0.5290612837493419,1.628079340738058
1789761538117973200,6.79197314453125,1.4006582400739191,-0.33230946211516854,2.3256243830144405
1789761538128021200,6.802021240234375,1.2002677696764468,-1.6654834809809922,2.2134594546891746
1789761538138069500,6.812069580078125,-0.6861684927374124,-1.653949110531807,0.9702723615448922
1789761538148117200,6.8221171875,-2.272610585707426,0.5180342783004045,-0.5487217140415683
1789761538158165200,6.832165283203125,-1.5234978532791137,3.4670419043153524,-1.3363463652916252
1789761538168214300,6.84221435546875,-0.33502164368331433,2.7925375458866357,-0.6139668876186013
1789761538178262300,6.85226220703125,1.237808103519678,-1.065694464057684,1.0400006353527307
1789761538188310300,6.862310302734375,3.814771053880453,-2.7976667254686354,1.4635636090591548
1789761538198358300,6.872358154296875,3.3425521858155727,-3.5894571546286342,-0.060909190199337895
1789761538208406300,6.88240625,1.9381021522432564,-2.1544015549123285,-2.0173820251852272
1789761538218454300,6.892454345703125,0.7189888123214244,0.34848142923712727,-3.6065906602591276
1789761538228503300,6.90250341796875,-1.091433300948143,0.10604746835827827,-3.667138652463257
1789761538238551300,6.91255126953125,-1.0711883852988482,-2.9178619616448875,-0.6117614865288138
1789761538248599300,6.922599365234375,2.275227490207553,-3.400739586368203,3.418016884383559
1789761538258647300,6.932647216796875,2.7070436207354067,-1.6213368807405233,3.824580792494118
1789761538268695300,6.9426953125,1.8927204572498797,1.0352011261165142,0.7784227788690478
1789761538278744300,6.952744384765625,0.18086743928194046,1.5197487298786638,-1.732340802462399
1789761538288792300,6.962792236328125,-1.7071803499817848,1.6595529218882321,-1.0933435184836386
1789761538298840300,6.97284033203125,-2.1998925554990767,0.9144406572729349,1.9815584321320057
1789761538308888300,6.982888427734375,-1.06088969412446,-0.052101358637213706,3.5647488298296928
1789761538318936300,6.992936279296875,-1.0971318048506975,-0.8372931201845407,1.4241694640427827
1789761538328984300,7.002984375,-1.121573587667942,0.1156312892615795,-1.9006411672465502
1789761538339033300,7.013033447265625,-0.45750995923280713,1.9183353754997252,-3.3206080650329586
1789761538349081000,7.0230810546875,-0.1286380703508854,2.6214438971221448,-2.468682316122949
1789761538359129000,7.033129150390625,0.22174831572473047,1.4049971460610626,-0.6270251796994358
1789761538369177000,7.043177001953125,-0.19861878454983234,-0.0638046559125185,0.8351903757516295
1789761538379225300,7.053225341796875,-1.5466630402892827,-0.2229799033463001,0.812525831739977
1789761538389273000,7.063273193359375,-0.2731435719192028,0.6194815593868493,-0.37972229760996995
1789761538399322000,7.073322021484375,-1.4015385300397871,0.3890332198560238,-2.178306162112951
1789761538409370000,7.0833701171875,-0.946464273521304,0.8676455883502959,-2.6062553880795836
1789761538419418000,7.093418212890625,0.051179567617177964,0.2404828268110752,-1.0889391460448503
1789761538429466400,7.10346630859375,1.3461474822074173,-0.2786111896753311,0.6640399552986025
1789761538439514000,7.11351416015625,0.26571137609183787,-0.9615350014030933,0.8985939765825867
1789761538449563100,7.123563232421875,-0.4051923274964094,-0.04401683638095855,-0.4423324099756777
1789761538459611100,7.133611083984375,-2.077151726493239,1.3335077808648348,-1.8933835973337292
1789761538469659100,7.1436591796875,-1.107923832499981,1.3720938243687153,-1.6960368785463273
1789761538479707100,7.15370703125,0.1814051994204521,-0.6865139451742172,-0.13673746138270942
1789761538489755100,7.163755126953125,1.1403753187716006,-1.7096897024542093,1.1084740137286484
1789761538499803100,7.17380322265625,0.4384720812857151,-1.2190420282512902,0.9103151748407632
1789761538509852200,7.18385205078125,-0.42202948052883144,-0.10122808537781237,-0.06998067766632884
1789761538519900200,7.193900146484375,-1.274565762552619,0.9204571410834789,-1.0040988624967635
1789761538529948200,7.2039482421875,-1.0230945087373255,0.769180537945032,-0.9356187621191143
1789761538539996200,7.21399609375,0.5490758977741003,-0.6208288823425769,0.42807800344545394
1789761538550044200,7.224044189453125,2.1496575752556324,-1.7062936302751301,1.6858111064776777
1789761538560093200,7.23409326171875,2.8919068516552446,-0.6323755277514458,1.9797953679822384
1789761538570141200,7.24414111328125,1.0711316866755485,-0.6590975304603576,1.4077994901306927
1789761538580189200,7.254189208984375,-0.05783727194070816,-0.18133856392502784,0.501705732377246
1789761538590237200,7.2642373046875,-1.584652871465683,-0.6195388425320386,0.22382753315158188
1789761538600285000,7.274284912109375,-0.7427543033123016,0.19404373171925543,1.2148363932549953
1789761538610333200,7.284333251953125,0.8454957158625125,1.0877385380834341,2.490660923697054
1789761538620382000,7.2943818359375,0.18541268149614332,0.522432805520296,2.4641113549456
1789761538630430200,7.30443017578125,-0.41715398344695565,-0.7257458853662013,1.1981493162177503
1789761538640478200,7.314478271484375,-0.343396088796854,-0.26663433615565296,-0.19719941927120088
1789761538650526000,7.32452587890625,-1.0955191089570522,-0.06630173342525959,-0.5038025950586423
1789761538660574200,7.33457421875,0.14893150131702423,0.22597966968417166,0.8510197399809956
1789761538670623000,7.344623046875,1.0477239230811595,-0.2097872442960739,1.6877113871410487
1789761538680671200,7.354671142578125,1.0441115778028964,0.0059761518001556395,1.192702887380123
1789761538690719200,7.36471923828125,-0.8523445588439702,-0.406472430434823,0.017069719679281115
1789761538700767000,7.37476708984375,-1.9143799158722161,0.3684744159519672,-0.6160317842591554
1789761538710815200,7.384815185546875,-1.7665806334555147,1.2878028452664614,-0.3397646734919399
1789761538720863000,7.394863037109375,1.3558067064344883,1.3031570662647485,0.18212931244391947
1789761538730912300,7.404912353515625,3.680875793653726,-0.6100374392151833,0.03173774851169437
1789761538740960000,7.4149599609375,4.500674173679948,-3.085000735303759,-0.6668015289664269
1789761538751008000,7.425008056640625,0.5103349559694528,-2.7605022392004726,-1.432915957339108
1789761538761056300,7.43505615234375,-2.669666368499398,-0.26963877866864205,-1.5210571821287273
1789761538771104000,7.44510400390625,-3.34956878657937,3.0022002870202065,-1.3904460581392049
1789761538781153300,7.4551533203125,-1.0361369456619023,2.4082705175191164,-1.7639967544421553
1789761538791201000,7.465200927734375,0.6929091991692781,-0.7560065835952758,-2.20005388354063
1789761538801249000,7.4752490234375,2.477315412172675,-3.866871827995777,-1.878408146519959
1789761538811297300,7.48529736328125,1.9789836132079361,-2.7824726634681225,-0.9854708074595778
1789761538821345000,7.495344970703125,-0.36510055560469623,0.7453747149437665,-0.17252145307790487
1789761538831393300,7.505393310546875,-1.7482897744834422,4.668023375219106,0.38621374198850245
1789761538841442000,7.515442138671875,-3.2352976797550914,4.205163871651887,0.5107970935884862
1789761538851490000,7.525489990234375,-2.3492776458024975,0.2874117512464523,0.21728044959567486
1789761538861538000,7.5355380859375,-0.4991138892531395,-2.758091670927405,-0.27861948257964103
1789761538871586000,7.5455859375,1.0499755014002323,-2.5838006874263284,-0.42559049747865646
1789761538881634300,7.55563427734375,2.731034737175703,-1.0981336753696203,0.0038625571796670555
1789761538891683000,7.56568310546875,3.91339860137105,0.8714648543775081,0.47650845501758154
1789761538901731300,7.5757314453125,1.709555846941471,0.8665566240698098,-0.12313362771570682
1789761538911779000,7.585779052734375,-1.3276327513515949,0.6860527574032544,-0.9284751739747822
1789761538921827000,7.5958271484375,-2.0962492256730796,0.5727314986497164,-0.6289758023105562
1789761538931875300,7.605875244140625,-0.9694143564760684,1.2894395065575837,0.024164025321789084
1789761538941923000,7.615923095703125,0.4115758910536766,0.18308979150652885,0.19204318728549405
1789761538951972400,7.625972412109375,1.74575762565732,-1.180462999010086,-0.08089338168636895
1789761538962020000,7.63602001953125,0.6126385616242885,-0.8267191192001104,-0.520005066916719
1789761538972068000,7.646068115234375,-2.202763727021217,0.5744967547565698,-0.2330305380437523
1789761538982116000,7.6561162109375,-2.7421377304702994,1.7055442732125519,0.6931856049578636
1789761538992164000,7.6661640625,-2.297069904181361,1.3441203602939844,0.9101292968798428
1789761539002212000,7.676212158203125,-0.04441314222216606,-0.3586936111718416,0.531708766050823
1789761539012261000,7.68626123046875,1.5157149443179367,-1.2311328635394572,-0.19977688681008293
1789761539022309000,7.69630908203125,1.16490127274096,-0.9619406595945358,-0.8185581707067787
1789761539032357000,7.706357177734375,0.2906026562422514,-0.1333779583543539,-0.7320184628296643
1789761539042405000,7.716405029296875,-0.1706616870880127,1.1014525906592607,-0.38346206866018473
1789761539052453000,7.726453125,-0.9008096068054438,0.9315998818665743,-0.4600772159049287
1789761539062502100,7.736502197265625,-1.8507096999943256,0.4295136988043785,-0.7083939146794378
1789761539072550100,7.746550048828125,-1.1471972737461327,0.4906365682870149,-0.9489485646177083
1789761539082598100,7.75659814453125,-0.7160252863407135,0.3276490690886974,-0.8300720098245888
1789761539092646100,7.766646240234375,0.26645313436985013,-0.7042869177520275,0.13317246237751096
1789761539102694100,7.776694091796875,2.4443805262982843,-1.2461883938521146,0.8931179563242941
1789761539112742100,7.7867421875,1.4565595755159855,-1.259910629734397,0.337098888348788
1789761539122791200,7.796791259765625,-1.2731845373272894,-0.8351625378966331,-0.1316963254103437
1789761539132839200,7.806839111328125,-1.7755916229069233,-0.24087562552094458,0.6301610665723681
1789761539142887200,7.81688720703125,0.07536240723729133,1.7920102582663298,1.6702742223888634
1789761539152935000,7.826934814453125,2.1522785714089867,0.5890542724192143,2.1038483024999497
1789761539162983200,7.836983154296875,3.3568215341866012,-0.5628577548891306,1.6850149876639247
1789761539173031200,7.84703125,1.4830167898088693,-1.0889385615229605,0.650004342618212
1789761539183080200,7.857080078125,-1.468145383891463,-0.5663508577018976,0.29825647719735277
1789761539193128200,7.867128173828125,-1.7479180185616014,0.47005204541981216,0.7155400601070374
1789761539203176000,7.877176025390625,-2.8030864124298094,0.8115969533920288,-0.09645652359444648
1789761539213224200,7.88722412109375,-1.855714376413822,0.1600824254065752,-1.2062681791350245
1789761539223272200,7.897272216796875,1.1922989827543495,0.39029578713774676,-1.1722212403655052
1789761539233321200,7.9073212890625,1.46632342916131,1.0288888742297888,-0.9545183275740593
1789761539243369200,7.917369140625,1.047158105891943,0.877241099691391,0.010483792817173525
1789761539253417200,7.927417236328125,-0.29885552080273625,-0.19933599290847778,0.699292324335128
1789761539263465200,7.93746533203125,-0.9030693684309721,-0.4207856179475784,0.28534924749238416
1789761539273513000,7.947512939453125,-0.05616495481431484,-1.3442548003286123,0.3775042927669361
1789761539283561200,7.957561279296875,0.7513467750906944,-0.7322159581631421,1.1486046563260257
1789761539293610000,7.96760986328125,-1.2999819433599709,-0.04687281033396721,1.2542454435795545
1789761539303658200,7.977658203125,-1.3095447214752436,0.5394406389445067,0.33534079263508315
1789761539313706200,7.987706298828125,-1.0811457156896591,0.17178806076943873,-1.4927309590935707
1789761539323754000,7.99775390625,0.6029530339121818,-0.6615875937104225,-2.6744974419176577
1789761539333802200,8.00780224609375,2.3331623773038386,-1.8831717076599597,-1.6363355662994086
1789761539343851500,8.0178515625,2.8818641810685395,-1.9673054503738878,0.48957135020829734
1789761539353899500,8.0278994140625,0.2803150709837675,-1.0027513934105634,1.2253333834804594
1789761539363947500,8.037947509765624,-1.8680173931479453,-0.056367783910036086,0.26523729230668397
1789761539373995500,8.04799560546875,-2.304412083637714,1.4577654441744088,-1.4138991221800445
1789761539384043500,8.05804345703125,-0.8828712145328521,1.5125152714937924,-2.201174996525049
1789761539394091500,8.068091552734375,1.6993910112798214,-0.3877992941468954,-1.1558183870971201
1789761539404140500,8.078140625,3.451040617585182,-1.4616121827304362,-0.019029110118746757
1789761539414188500,8.0881884765625,1.035587495085597,-0.5742600233912467,-0.5392635288119316
1789761539424236500,8.098236572265625,-0.48567982266247267,0.6606196254611015,-1.5590332770407198
1789761539434284500,8.108284423828126,-0.8361316751897334,2.3439795393943785,-2.1584899932697414
1789761539444332500,8.11833251953125,-1.9877409201592207,1.2091028180390595,-1.9747708178184926
1789761539454380500,8.128380615234375,0.012590016981959343,-0.3675900343328714,-0.8928199962910264
1789761539464429600,8.1384296875,1.8105664901763199,-0.9748971718013286,-0.663914648418501
1789761539474477600,8.1484775390625,1.8338766386151313,-0.7096388001739978,-1.290266166640073
1789761539484525600,8.158525634765626,1.669085304865241,-1.0534703577786684,-0.9516437950510531
1789761539494573600,8.168573486328125,-1.3608230732917785,0.12728373313248156,0.13604743329193442
1789761539504621600,8.17862158203125,-4.737221414607763,0.61446343896389,1.2892647345125674
1789761539514670600,8.188670654296875,-2.9140713371902702,1.5804291162908077,2.084525177870691
1789761539524718600,8.198718505859375,-2.3858763148814437,0.20149346320331096,1.7820337847836314
1789761539534766600,8.2087666015625,-0.09510346501767634,-1.2024018590956926,1.7453949298247693
1789761539544814600,8.218814697265625,3.4998154621481894,-1.9554910939395427,2.305504847310483
1789761539554862600,8.228862548828126,3.204626647159457,-1.2160019299030302,2.323230473615229
1789761539564910600,8.23891064453125,2.460266662216186,0.7006079369783401,1.6527490870922803
1789761539574959600,8.248959716796875,1.2907961818635463,1.7493167794436215,0.38736272936053573
1789761539585007600,8.259007568359374,-0.4528092341959476,0.22529928620457648,-1.1610226046767085
1789761539595055600,8.2690556640625,-0.21903438059091568,-0.9318366132318973,-2.2832363168790937
1789761539605103600,8.279103515625,-1.4353151274353264,0.0048036008894443505,-2.491272918115556
1789761539615151600,8.289151611328125,-3.707366910216212,1.5305588777065275,-1.1780340182974933
1789761539625199600,8.29919970703125,-2.131274946346879,2.2717028232127428,0.9828205121465027
1789761539635248600,8.30924853515625,0.3621574878901243,1.546289530801773,1.3633514227256178
1789761539645296600,8.319296630859375,-0.8590443487435578,-1.5115274295002221,-0.23483207104038445
1789761539655344400,8.329344482421876,0.1701069758147001,-1.7477689654797315,-0.9827943547919392
1789761539665392600,8.339392578125,-0.22966157306730745,-0.42782092341184613,-0.525146777186729
1789761539675440600,8.349440673828125,-0.8508651339411735,0.8863537959516048,0.7338214936636388
1789761539685489700,8.35948974609375,0.38591830270588395,1.6327993549972772,2.318974715866893
1789761539695537700,8.36953759765625,-0.029394436788558957,0.9500497307926415,2.2340815330877897
1789761539705585400,8.37958544921875,-0.16750409983992576,-0.26372107905745507,0.584773343697004
1789761539715633700,8.389633544921875,0.3497299679934978,-1.0142764115095138,-1.1923146187148987
1789761539725681700,8.399681640625,-0.23716917221844194,-0.8506476917982101,-2.0867394929192957
1789761539735729400,8.4097294921875,0.09233341578245162,-0.09877601605057716,-1.8800595669887958
1789761539745778700,8.41977880859375,-0.7119429854631424,-0.15605799219608307,-1.4054175634302197
1789761539755826400,8.429826416015626,0.3893015154033899,0.0388297891318798,-0.6286046309106051
1789761539765874700,8.439874755859375,0.789820590391755,0.19222528412044046,0.24897994845621285
1789761539775922400,8.44992236328125,1.6999615046441554,1.1377011311262846,0.7446696354143321
1789761539785970400,8.459970458984374,0.5845417634308337,0.4389724320232868,0.521586819682829
1789761539796018700,8.470018798828125,-0.45106385183334347,-2.818544093802571,0.38175961212385445
1789761539806067500,8.4800673828125,1.2267734992861747,-2.739184725883603,1.0218877632960677
1789761539816115700,8.49011572265625,2.4484447069972752,-0.2741203079968691,1.3873162356808781
1789761539826163500,8.50016357421875,0.1868909373551607,0.9075614191532134,0.902921338262409
1789761539836211500,8.51021142578125,-1.029737015491724,1.6970383106738327,0.24081253368947653
1789761539846259700,8.520259765625,-2.6511048758924005,1.4308423659354448,-0.613728694948554
1789761539856307500,8.530307373046876,-1.890709701949358,-0.28237784873247146,-0.4289135774867609
1789761539866356700,8.540356689453125,0.4173573970645666,-1.2073504214137791,0.7207932313948869
1789761539876404500,8.550404541015626,2.102338774719834,-1.5032237115353344,1.531046953484416
1789761539886452500,8.560452392578124,2.505796241247654,-1.2000029812604187,2.088131093408167
1789761539896500500,8.57050048828125,2.905848283246159,-0.45304362747371196,1.7744158571258186
1789761539906548500,8.580548583984376,0.6760252843856811,-0.30999650802016254,0.2621803158888593
1789761539916596700,8.5905966796875,-2.704148483815789,-1.0594804118484258,-0.8721341319411993
1789761539926645500,8.6006455078125,-2.9220436312437057,0.5446487289816141,-0.5749088061561808
1789761539936693800,8.61069384765625,-2.1267004780381917,1.9089169742912053,0.3083936028681695
1789761539946741500,8.620741455078125,0.45824704133570193,1.638321917811036,0.4146868261484429
1789761539956789500,8.63078955078125,1.5291320597738027,-0.22796529054343698,-0.9051561115771531
1789761539966837800,8.640837646484375,1.912809890076518,-1.538894744375348,-2.0387036301553247
1789761539976886500,8.650886474609376,-0.028958383458852766,-1.6249176618367434,-1.5749907246291637
1789761539986934800,8.660934814453125,-1.3832219521045683,0.1749041469633579,0.10954970432557165
1789761539996982500,8.670982421875,-1.8498866931736468,1.952301357987523,1.0789261399440466
1789761540007030500,8.681030517578124,-0.17809505195915698,1.9142150806993246,0.6210121299549937
1789761540017078500,8.69107861328125,1.8374048127412794,0.6770476131707429,-0.6166742468811571
1789761540027126500,8.70112646484375,1.1275345418989657,-1.8368863418251276,-1.0945672150596977
1789761540037175600,8.711175537109375,0.11892857724130153,-1.7583610866427422,-0.0014155293537303805
1789761540047223600,8.7212236328125,-1.5046692341685295,0.16126140605807304,1.1980384031891822
1789761540057271600,8.731271484375,-2.715412805151939,1.5353566333770752,1.4834122188672423
1789761540067319600,8.741319580078125,-0.7358814949333667,1.198665595176816,1.1457289547592402
1789761540077367600,8.751367431640626,2.1211095261633397,0.5553045630306005,0.09044391224142163
1789761540087415600,8.76141552734375,1.273711191549897,-1.9610288543224335,-0.9393068760473281
1789761540097464600,8.771464599609375,0.6968880396723747,-2.37323895162642,-0.8259124789923429
1789761540107512600,8.7815126953125,-1.1362614537119864,-0.5699497589766979,-0.1323956693187356
1789761540117560600,8.791560546875,-1.314345984277129,2.741853652831912,0.5035074845695868
1789761540127608600,8.801608642578126,-0.8228612747281789,1.9194383683055638,0.9723555975597351
1789761540137656600,8.811656494140625,0.5479191289544105,0.042134675896167754,0.9428377535872161
1789761540147704600,8.82170458984375,0.4765548514425754,-1.114160096541047,0.09756806503292173
1789761540157753300,8.83175341796875,-0.9094219523280859,-1.3252870650082826,-0.6896725553356111
1789761540167801600,8.841801513671875,-0.7931611329913139,-0.256951146531105,-0.7502683322042226
1789761540177849600,8.851849609375,-0.9913087928980588,1.2679524818927048,-0.22077410039771347
1789761540187897300,8.8618974609375,0.5751917512834072,1.8510744416534899,0.6006180881585925
1789761540197945600,8.871945556640625,1.240782735416293,0.8997796792358159,0.47660464540105313
1789761540207993600,8.88199365234375,-0.3946586585223675,-1.2874766820520163,-0.3909040552292019
1789761540218042600,8.892042724609375,-1.4652853182852268,-1.7993425008505581,-0.579463875644654
1789761540228090600,8.902090576171876,-1.4784896677732466,0.8107020503789186,-0.3950734133357182
1789761540238138400,8.912138427734375,-1.6737129646658897,1.8264111250400543,0.013112506486102939
1789761540248186600,8.9221865234375,0.09013502895534038,0.7053180143654346,0.6592278788417577
1789761540258234600,8.932234619140624,1.004083518797159,0.038925650721788406,0.45659609579090027
1789761540268283600,8.94228369140625,1.181531505024433,-0.7838356707632541,-0.08407638650350271
1789761540278331400,8.952331298828126,0.9023620969444512,-1.5494453644841908,-0.022387626766413447
1789761540288379600,8.962379638671875,0.06094459030628204,-0.534102200525999,0.0987412004655227
1789761540298427600,8.972427734375,-1.780750613105297,1.447569044330716,-0.21429924182780086
1789761540308475400,8.982475341796874,-1.741904457360506,2.5762895811438558,-0.13799173576012252
1789761540318523600,8.992523681640625,1.767861320915818,2.109946327114105,0.43679380934257056
1789761540328572400,9.002572509765624,2.143650443795323,-0.8335831597507,0.7179715981028973
1789761540338620700,9.01262060546875,2.1874270416796207,-3.0838129868239164,0.82587127019912
1789761540348668400,9.02266845703125,0.6295213073641062,-2.4721505767554044,0.7154752512425184
1789761540358716200,9.032716064453124,-1.9506980144441126,-0.20373218204081056,0.4903688572615385
1789761540368764200,9.04276416015625,-2.9129262588083744,2.423988895654678,0.4996361595615744
1789761540378812400,9.0528125,-3.333330183961987,2.389630114457011,0.2614599291924387
1789761540388861200,9.062861083984375,-1.079012210792303,-0.23748656760454176,-0.0022364538151770827
1789761540398909400,9.072909423828126,1.498728153681755,-2.9859809736251828,0.1458284938003868
1789761540408957200,9.082957275390624,5.029437935787439,-2.020613262191415,0.6318865021254867
1789761540419005200,9.093005126953125,2.76528129017055,-1.54504566822052,0.6875822319928556
1789761540429053200,9.10305322265625,0.4666963052511215,0.46656946400105953,0.32279286122918127
1789761540439101200,9.11310107421875,-1.7912743452072142,1.0852893913656472,-0.2602116096317768
1789761540449150200,9.123150146484376,-2.4105723647207022,1.5056278500676155,-0.5801018812872469
1789761540459198200,9.1331982421875,-1.1621931828260421,0.6403548360675573,-0.031889322344213725
1789761540469246200,9.14324609375,-0.11415361792445182,-0.8299205455899238,0.28754012686647473
1789761540479294200,9.153294189453124,2.3963784196734426,-1.9240385555773973,0.0948958866816014
1789761540489342200,9.16334228515625,2.0260873096883296,-1.0847066230416298,-0.2866683855332434
1789761540499391200,9.17339111328125,1.1194856754779816,-0.6225760182708502,-0.23453436673544345
1789761540509439200,9.183439208984375,0.21645254740417003,0.9613298342198133,0.32420660048462446
1789761540519487500,9.193487548828125,-0.05416881256103515,1.6641308973282574,0.5053652777981013
1789761540529535200,9.20353515625,-0.3440975150644779,0.6794798087537288,0.22465185514651237
1789761540539583200,9.213583251953125,0.6297977862179279,-0.7386217335522174,0.07953348237685859
1789761540549631200,9.22363134765625,0.7147919451534748,-1.0853519352078438,-0.40279673759676515
1789761540559680300,9.23368017578125,-0.5541963095277548,-0.7172568739622831,-1.0569657986789942
1789761540569728300,9.243728271484375,-1.1710825917243957,0.6956032605588436,-1.0681417110793292
1789761540579776300,9.2537763671875,-2.043843331131339,1.5894114641696213,-0.9372154567260295
1789761540589824300,9.26382421875,0.43603345596194265,1.1526947021186351,-0.37374702259264886
1789761540599872300,9.273872314453126,2.239893141975999,-0.563164628881216,0.3064617580227554
1789761540609920300,9.283920166015625,3.3942204137325285,-1.6666162844032049,0.13466047244556248
1789761540619969300,9.29396923828125,0.6001198563128709,-1.8601257631152868,-0.6388961616918444
1789761540630017300,9.304017333984374,-2.676595290979743,-0.9845341841965913,-0.5417513270396739
1789761540640065300,9.314065185546875,-3.241104320207238,1.2155313897818327,0.31303098034523424
1789761540650113300,9.32411328125,-2.1815502586007116,1.606035266712308,0.8530421126540749
1789761540660161300,9.334161376953125,-0.6326075829416513,0.050208676758408545,0.8866963988441974
1789761540670209300,9.344209228515625,0.9617086044043301,-1.6804741293638943,0.40734197981096804
1789761540680258300,9.35425830078125,0.35339375119805333,-1.3775029899358748,-0.03837356979697942
1789761540690306300,9.364306396484375,-0.8229518756210803,0.06721008044183253,0.016087138382717966
1789761540700354300,9.374354248046876,-0.8663426890581846,2.053852683970332,-0.04178403582759201
1789761540710402300,9.38440234375,-0.8256722404956817,2.1583447395801545,-0.665977791493386
1789761540720450000,9.394449951171875,-0.33910920525789257,1.136900336137414,-1.192820010953769
1789761540730498300,9.404498291015624,-0.10447919612824916,-0.6806161193072795,-1.3501476577594875
1789761540740547000,9.414547119140625,-1.1843073994785547,-1.1565566382437944,-0.8343143235694617
1789761540750595300,9.42459521484375,-0.4575760102063417,0.2947317188709974,0.5348267154082655
1789761540760643300,9.434643310546875,-1.336802730756998,2.1613509356588123,1.1736614292364567
1789761540770691000,9.444691162109375,-1.5947417192816733,1.9488637847542762,0.8578823922920972
1789761540780739300,9.4547392578125,-0.825427325823903,0.2832055317282677,0.07148220480307936
1789761540790787300,9.464787353515625,-1.0592653077930212,-0.6829015998959541,-0.9565860006935893
1789761540800836400,9.47483642578125,0.3758417298495769,-0.506613889619708,-0.7763970451951027
1789761540810884400,9.48488427734375,2.2011785036563873,-0.30977848135530944,0.29390016341768205
1789761540820932000,9.49493212890625,3.7335757027059793,0.2577197928160429,0.7248729019239545
1789761540830980400,9.50498046875,2.262328845667839,-0.24456220507919788,0.04010148956812918
1789761540841028000,9.515028076171875,0.8677262523710727,0.08814882357418537,-0.7671191484358161
1789761540851077400,9.525077392578124,-1.0512053354561328,0.775417386507988,-1.342842449312657
1789761540861125000,9.535125,-2.0871809530764818,0.6184937173932791,-1.491327522036433
1789761540871173400,9.54517333984375,-3.6617034756720064,-0.20836042636334895,-1.1374466449085623
1789761540881221400,9.555221435546875,-0.3819575823813677,0.43916707781255243,-0.08306067012231796
1789761540891269000,9.56526904296875,3.0197178235322237,0.6221931564331055,0.544836543171294
1789761540901317400,9.5753173828125,4.302689010858535,-0.1768956130415201,-0.17242602987941352
1789761540911366100,9.5853662109375,2.069399212670326,-1.4217553886383771,-1.6162743366539478
1789761540921414400,9.595414306640626,-0.5808481696099043,-1.6413403888493776,-2.0732292923524973
1789761540931462400,9.60546240234375,-3.3449820433109996,0.09905074133872985,-1.1964938040956854
1789761540941510100,9.61551025390625,-4.030421052730083,1.3392127145081758,0.23837979011721908
1789761540951558400,9.625558349609374,-1.4748907664984463,1.882917440637946,0.9551885549858212
1789761540961606100,9.635606201171875,0.3804512694716453,-0.15111761318445205,0.24467487167343496
1789761540971655400,9.645655517578126,1.323460434103012,-2.1582494625121353,-0.7100196161851287
1789761540981703200,9.655703125,0.6513467702031135,-2.7042788321971893,-0.7973761203378439
1789761540991751200,9.665751220703125,-0.44056350060701366,-0.03550970479846,-0.10818095498932524
1789761541001799400,9.67579931640625,-1.1207961735546588,2.2255255939275025,0.673683105173707
1789761541011847200,9.68584716796875,-1.0070049592018127,2.3799743973612784,0.7280787852931767
1789761541021895200,9.695895263671876,0.331795667374134,0.22749241233468054,-0.39821284387260675
1789761541031944200,9.705944091796875,0.8300421261429786,-1.901470749938488,-1.4616513456970452
1789761541041992200,9.7159921875,1.914777390757203,-2.741127676644921,-0.6956365783065557
1789761541052040400,9.72604052734375,2.3836498710036276,-0.7240659694552422,0.9308728097010404
1789761541062088200,9.736088134765625,0.5756441712260246,1.1312205369353294,1.4114752560339867
1789761541072136200,9.74613623046875,-2.2712392973542213,1.295766956013441,0.46675409985296423
1789761541082184200,9.75618408203125,-3.419542486515641,0.5705950711429119,-1.0536815893765539
1789761541092233200,9.766233154296875,-1.3024240758150816,1.1846569435685872,-1.689397586662322
1789761541102281200,9.77628125,1.5418343049585819,0.39379239708185193,-1.291323858999461
1789761541112329200,9.7863291015625,3.1475439929783344,-0.48379941574335095,-0.5846566950473934
1789761541122377200,9.796377197265626,2.389772153276205,-2.0136293946534396,0.2202377284986898
1789761541132425200,9.80642529296875,0.7843237465411425,-1.0257312869817017,0.92425251477845
1789761541142473200,9.81647314453125,-2.324968549454212,1.1946791558891534,0.6278662336334586
1789761541152522200,9.826522216796874,-3.442563881140947,2.4375322678387166,0.14103698520753533
1789761541162570200,9.8365703125,-0.5571452224612236,1.0557581764549016,0.09129969795369543
1789761541172618200,9.8466181640625,0.5947364097088575,-1.6381383779376744,-0.2335835322840139
1789761541182666200,9.856666259765625,1.3151391804814339,-2.5675112314045427,-0.4326252549536526
1789761541192714200,9.86671435546875,0.5950578967481851,-1.7158061395078896,-0.5225025097556412
1789761541202762200,9.87676220703125,0.0755032770127058,2.2083587705492973,-0.6979140217192471
1789761541212811300,9.886811279296875,0.04543897813856602,3.2311516659915447,-0.4510417130667716
1789761541222859300,9.896859375,-0.053042438879609105,0.9192425045967102,0.019183337132656013
1789761541232907300,9.9069072265625,0.8758353245466947,-1.531479499682784,0.1960963899327442
1789761541242955300,9.916955322265625,-0.7337608495175838,-2.8458243149161335,-0.3356208882180974
1789761541253003300,9.927003173828124,-1.3604665149390696,-1.2326748322844505,-0.6643040861275047
1789761541263051300,9.93705126953125,-1.6367518920153379,1.6326193222552536,-0.24111527949571607
1789761541273100300,9.947100341796874,-0.5735404769450426,1.8600182110875845,0.4152356191376224
1789761541283148300,9.957148193359375,0.7757096474528312,0.8306284015983343,0.8617930629298091
1789761541293196300,9.9671962890625,1.2593179245382546,-1.2802671890646218,1.2147060448735951
1789761541303244300,9.977244384765624,-0.0652946022093296,-0.8341612518996,1.411925922410935
1789761541313292300,9.987292236328125,-1.2165817756175994,0.7204600539177656,1.2160153008412569
1789761541323340300,9.99734033203125,-1.9765099165707825,1.2624065382033587,0.48711160903126
1789761541333389300,10.007389404296875,-1.4501602298676968,0.8417664662063121,0.003193590143229812
1789761541343437300,10.017437255859376,-0.25294366445541383,-0.32858371959030624,0.8986330664839595
1789761541353485600,10.027485595703125,1.444154267451167,-0.6785697081714868,2.362771918147802
1789761541363533600,10.037533447265625,1.3874983142495154,-0.09505670326650142,2.5584914741247893
1789761541373581300,10.047581298828124,-1.8132763336569069,-0.5790373207956552,1.0247229136567562
1789761541383629600,10.057629638671875,-3.4201287619709966,0.3149240275502205,-0.4428507712939754
1789761541393678300,10.06767822265625,-1.930363082423806,2.113176979598403,-0.22147559973057357
1789761541403726600,10.0777265625,1.7691572059452532,1.6485089653044938,1.731328848940879
1789761541413774600,10.087774658203125,3.9067233613908288,-0.5649813229143619,3.0603090693786736
1789761541423822300,10.097822265625,3.4742625032186507,-2.7064099990069863,2.251861666058749
1789761541433870600,10.10787060546875,2.4293892933934926,-2.4665415047019716,0.6746727007329464
1789761541443918600,10.117918701171876,0.299630012306571,-0.13340133922994135,-0.1677333420185372
1789761541453967600,10.127967529296875,-3.7892373841732736,1.8689888685286045,0.0335276276031509
1789761541464015400,10.138015380859375,-5.729393546336889,0.989396821796894,0.8518072370968759
1789761541474063400,10.1480634765625,-3.9643642339766023,-0.6150888773858547,1.4587807586967945
1789761541484111600,10.158111572265625,-0.009655717095732689,-1.8858219299077987,1.8535054681926966
1789761541494159400,10.168159423828126,3.6279876685529944,-1.0915011054873467,1.841281361913681
1789761541504207600,10.17820751953125,5.964577097696066,-1.5757149472504852,1.51273417494148
1789761541514256400,10.18825634765625,4.694084868192673,-1.4174427861362695,0.7261462097954005
1789761541524304600,10.1983046875,2.0257810202181337,0.4930564889103174,-0.07086933360174298
1789761541534352600,10.2083525390625,-2.1268495311200617,1.624015160039067,0.03896240253560245
1789761541544400400,10.218400390625,-4.00420466145575,1.7318121024131774,0.8252492658432573
1789761541554448600,10.22844873046875,-3.2704356286317107,1.619433092945814,0.7574838165409863
1789761541564496600,10.23849658203125,-0.8879384347945452,-0.7039999175041913,-0.33092809075936674
1789761541574545700,10.248545654296874,3.2456004625827073,-2.2694313711494205,-0.769722901193425
1789761541584593400,10.258593505859375,3.5938825698554515,-2.733647550022602,-0.5071046688113361
1789761541594641400,10.268641357421876,1.875171941077709,-0.9848217689663171,0.05302672985382378
1789761541604689700,10.278689697265625,-1.3319722418606281,1.0021563501268624,0.5072901814460754
1789761541614737400,10.2887373046875,-1.908583796814084,2.6345827801585195,0.677533496991545
1789761541624785400,10.298785400390624,-1.9459832608819008,1.5457207910031079,0.08660911985151469
1789761541634834400,10.30883447265625,0.2504009942352772,0.15212474440038204,-0.5750906289964914
1789761541644882400,10.31888232421875,0.34705753391385075,-2.3601006531119344,-0.8167644922230393
1789761541654930700,10.3289306640625,-0.5131622883498669,-1.6810031216740606,-0.6468696978542954
1789761541664978400,10.338978515625,-2.3879040213167664,0.027697569742798803,0.07223031975664199
1789761541675026400,10.3490263671875,-2.3240724773973227,2.0523171449661253,0.8683300634831189
1789761541685074700,10.35907470703125,-1.8541268149614334,2.6699188819557427,0.5714573139954358
1789761541695123500,10.36912353515625,1.0281354255139827,1.7411252896815537,-0.7856940119810402
1789761541705171700,10.379171630859375,3.6581840693742036,-0.4592646939456463,-2.558461663508415
1789761541715219500,10.389219482421876,2.5868016228079793,-2.4332687651753426,-3.4705759236603972
1789761541725267500,10.399267333984374,0.6446645159602165,-2.6414865681976076,-2.4833140680655834
1789761541735315500,10.4093154296875,-1.2461574141919611,-0.0811503429889679,-0.7155344340838492
1789761541745363500,10.419363525390626,-2.242232983100414,2.672212545850873,0.06968479999229311
1789761541755412500,10.42941259765625,-0.9446054939121007,2.900677018088102,-0.30856114145480096
1789761541765460500,10.43946044921875,-0.4317892425209284,0.30574878744781014,-1.4844056138187647
1789761541775508500,10.449508544921875,-0.403596582737565,-1.85603527893126,-1.9110946105912328
1789761541785556500,10.459556396484375,0.37058161736428735,-1.309135556152463,-0.7963098062805831
1789761541795604500,10.4696044921875,-0.19014204810559748,0.47456163179874417,0.08882672283574938
1789761541805652700,10.47965283203125,-1.3401076175212858,2.2179268093615767,-0.09595160627961158
1789761541815701500,10.489701416015626,-0.4577963749587536,1.5292776057243347,-0.4182938741970807
1789761541825749500,10.49974951171875,-0.0801911425679922,0.24820962167084215,-0.5877899515718221
1789761541835797500,10.509797607421875,0.2652507728427648,-1.4788912343114613,-0.21474245555065571
1789761541845845500,10.519845458984374,1.0897019471108913,-0.6232844588011502,0.48328306371904906
1789761541855893500,10.5298935546875,-0.04668693237304687,0.45884676079452036,0.06185578686706721
1789761541865941500,10.53994140625,-0.9104472037225961,1.9409680630683899,-1.1914033490888774
1789761541875990500,10.549990478515625,-1.4150672891765832,1.4715987392157315,-2.1317253204628823
1789761541886038500,10.56003857421875,0.28053894286751746,0.23101240315437316,-1.6213117462992668
1789761541896086500,10.57008642578125,1.8215946646690369,-1.3659049066007136,-0.12302830417770892
1789761541906134500,10.580134521484375,1.386516317474842,-1.4298019169718026,0.6296457374613732
1789761541916182500,10.5901826171875,-0.8090355784714222,-0.4280155692011118,0.04077080366443842
1789761541926230500,10.60023046875,-1.4749591555595396,1.322542734736204,-0.5475281203428283
1789761541936279600,10.610279541015625,-1.6728157235652208,2.0400860244244337,-0.2860360424464568
1789761541946327600,10.62032763671875,-0.188289113715291,0.3262853795200586,0.6759324915356933
1789761541956375600,10.63037548828125,1.5256395414829254,-2.2728420563757417,1.6709133970752357
1789761541966423600,10.640423583984376,2.1356857485264538,-2.886363830575347,1.947174224232137
1789761541976471600,10.650471435546875,1.083247656404972,-0.7185334697693586,1.6234154405802488
1789761541986519600,10.66051953125,-0.7949012546569109,1.138610062664747,1.5280698373697696
1789761541996568300,10.670568359375,-3.113924047449231,2.0366566344976422,1.4527690971918403
1789761542006616600,10.680616455078125,-2.494909521052241,1.476983939385414,1.5379497186101971
1789761542016664600,10.69066455078125,0.18513328003287313,0.05707914704978466,1.9761754239194094
1789761542026712300,10.70071240234375,1.6154349632203577,-2.162588368499279,2.2452961700633165
1789761542036760600,10.710760498046875,1.3863345311671496,-1.8770470872998237,2.232354563164711
1789761542046808600,10.72080859375,-1.0129185671597718,-1.1151719039320944,1.7906860239252447
1789761542056857600,10.730857666015625,-2.33918412181139,1.5238006356179714,0.6527969690114259
1789761542066905600,10.740905517578126,-2.955162056991458,2.274545937684178,-0.5500041185349226
1789761542076953300,10.750953369140625,-1.1707067441493273,0.5710755481362343,-0.7464633869633078
1789761542087001600,10.761001708984375,1.5286638577401637,-1.3659651123553513,-0.29562859464548524
1789761542097049600,10.771049560546874,2.3950474633306262,-2.3526105896174907,0.1556499959170818
1789761542107097600,10.78109765625,3.1537036846518514,-2.1792677006214856,0.3823449011985212
1789761542117146400,10.791146484375,1.3708920473635196,0.42505321226418014,-0.2773851550117135
1789761542127194400,10.8011943359375,-0.5042834008455276,0.8249456797868013,-1.0102142035719006
1789761542137242600,10.81124267578125,0.6567068359315394,1.0585317328214645,-0.45807855290099975
1789761542147290400,10.821290283203124,1.4760732542812824,-0.43587972670495506,0.5712725685456768
1789761542157338600,10.831338623046875,2.396694646015763,-1.3976935450494288,1.4736571330502628
1789761542167386600,10.84138671875,2.6783845124840733,-1.3042296639323234,1.0890596306193618
1789761542177435400,10.851435302734375,2.411752514415979,-0.07581248909235,-0.7652183563157916
1789761542187483600,10.861483642578126,0.8657926539599895,0.8129968833178282,-1.8410583668127656
1789761542197531400,10.871531494140624,-0.026795652467012404,0.35957097852826114,-0.9712633453436196
1789761542207579600,10.88157958984375,-2.410473580521345,-0.20089958896338939,0.0256938652375713
1789761542217627600,10.891627685546876,-3.2526211549997326,-1.336024732121825,0.6462009317472577
1789761542227675400,10.90167529296875,-0.9023568362474441,-0.3822872527271509,0.8387095628537237
1789761542237724400,10.911724365234376,0.7881576256155968,0.895350172355771,-0.4737375289995223
1789761542247772400,10.9217724609375,1.9836878453761337,1.170688623970747,-1.7446996410369873
1789761542257820700,10.931820556640625,1.938539374616742,-0.5963941137880087,-1.5592708851888775
1789761542267868400,10.941868408203124,-0.6434124700725078,-0.9112503367990255,-0.6678888858117162
1789761542277916400,10.95191650390625,-4.575294238117337,0.33071605544388294,0.4245755482824519
1789761542287964700,10.961964599609376,-3.6316952908992763,2.3537246883392333,1.454958277799189
1789761542298013400,10.972013427734375,-1.4529787944197654,2.795827235081792,1.2303601256012915
1789761542308061700,10.982061767578125,0.1259919397562742,0.5873696803331375,0.4325208081984892
1789761542318109400,10.992109375,2.057323574951291,-1.5142863728195428,0.3346137935347855
1789761542328157400,11.002157470703125,0.16479893253445624,-2.356553774285316,0.19839118633903563
1789761542338205700,11.012205810546876,-1.5361702878475187,-1.182751402208209,0.47222639378421005
1789761542348253200,11.022253173828124,-2.0929501841276883,1.5642711776942013,1.3009667166136205
1789761542358302500,11.032302490234375,-1.4358096329540013,2.999353080895543,1.2569025339595972
1789761542368350200,11.04235009765625,-1.0034083960145712,2.0068430955141783,-0.03237714239377528
1789761542378398200,11.052398193359375,0.7625380311906337,-1.1307722086459397,-0.8849315080635249
1789761542388446200,11.0624462890625,0.9704507137864827,-1.9419231718361376,-0.7353069099158048
1789761542398494200,11.072494140625,0.1356172617137432,-0.5414052170157432,0.250395039418526
1789761542408542200,11.082542236328125,0.734791946130991,0.7786421937733888,1.356186499532312
1789761542418591200,11.09259130859375,-0.5351718755841255,0.5985580138236284,1.2286314021125435
1789761542428639200,11.10263916015625,-0.873378579044342,0.1669885515332222,0.23116499990019945
1789761542438687200,11.112687255859376,0.20832418600618838,-0.6214625040709972,0.10977912916727363
1789761542448735200,11.1227353515625,1.4555202955961226,-0.350800227573514,0.6738257285147905
1789761542458783200,11.132783203125,-0.10493979937732219,0.7892074269294739,0.716213648519665
1789761542468831200,11.142831298828124,-1.3909072459101677,1.245437867745757,0.6853565918326378
1789761542478879200,11.152879150390625,-0.3791021929502487,1.4461919107586145,0.6514977229811251
1789761542488928300,11.16292822265625,0.8755991777032613,0.048801732569932935,0.7475627265073359
1789761542498976300,11.172976318359375,0.9960936890870332,-2.126095497882366,1.0299307844981551
1789761542509024300,11.183024169921875,1.3278981242895125,-2.783422511538863,0.875912700631842
1789761542519072300,11.193072265625,0.28008301579356193,-1.065746486505866,0.1974910956941545
1789761542529120300,11.203120361328125,0.4989812027841806,1.7608417975425719,-0.5639879279628396
1789761542539169300,11.213169189453126,0.07329729140102863,2.642624047794938,-0.8096844708342105
1789761542549217300,11.22321728515625,-0.19093582883179186,0.019929273828864096,-0.46442105379551646
1789761542559265300,11.233265380859375,-0.1984896052122116,-1.9425106163352728,-0.36998343227542935
1789761542569313300,11.243313232421874,0.041190088522434234,-2.3858435816556214,-0.1769515810124576
1789761542579361300,11.253361328125,-0.17810323526561259,-0.5800304234862327,0.7424586083013563
1789761542589409300,11.2634091796875,0.18856559256911276,1.0999807645410298,1.9977426742136477
1789761542599458300,11.273458251953125,-0.30849837841689587,1.8298574661016462,2.192224651219696
1789761542609506300,11.28350634765625,-2.313828731280565,0.0831412245452404,1.2061654494129121
1789761542619554300,11.29355419921875,-1.4971160423099994,-1.0946043321996926,0.611436492358148
1789761542629602300,11.303602294921875,-0.6003168401896953,-0.4041208988726139,0.2892850708376616
1789761542639650300,11.313650390625,-0.17675591230988502,0.6377005221664905,-0.03260463100671768
1789761542649698300,11.3236982421875,0.2626251005142927,0.07408873403966426,-0.21569814884029329
1789761542659747300,11.333747314453126,0.9600216742306947,0.05194646033644676,-0.6103471627514809
1789761542669795300,11.34379541015625,0.11088847864866257,-0.7524614583343266,-1.1596266202736645
1789761542679843000,11.353843017578125,-0.4402268159985542,-0.9279232391804456,-0.9965971085645258
1789761542689891300,11.363891357421876,-0.8911901300668716,0.009978957700729369,-0.21352986489050088
1789761542699939300,11.373939208984375,-0.15962708285450936,0.8100777810007334,0.7284083825737238
1789761542709987000,11.383987060546875,1.3185697394520044,1.2246698050051927,0.9343873936932533
1789761542720036400,11.394036376953125,2.116914412561059,0.4538420843750238,-0.4643766301319003
1789761542730084000,11.404083984375,1.124458787715435,-1.0623264489293098,-1.8986476553417742
1789761542740132400,11.41413232421875,0.39150867005884643,-0.8329086214900017,-1.4452403091222048
1789761542750180400,11.424180419921875,-1.7786410736054181,-0.1607540410578251,-0.06975479648858308
1789761542760228000,11.43422802734375,-1.6578326739668845,0.4146475535839796,1.3483902926981448
1789761542770276400,11.4442763671875,0.9501865089148283,0.8178858244031667,1.6644944699436426
1789761542780325000,11.4543251953125,0.10514613560438156,-0.5403273586511612,-0.5831942943446338
1789761542790373400,11.464373291015624,1.2117162154078482,-0.5238561163216829,-2.5878587306454777
1789761542800421000,11.474421142578125,0.15169628985524178,-1.9209242229491472,-2.6621011939421293
1789761542810469000,11.48446923828125,-1.2039888360261917,-1.059775010880828,-1.402118668015301
1789761542820517400,11.494517333984374,-0.6445014343529939,1.414053143697977,-0.054977717791125175
1789761542830565000,11.504565185546875,-0.002601122409105301,1.7262778491616249,0.06668521631751209
1789761542840614400,11.514614501953124,0.9963888726413249,-0.038300212299823756,-0.45806014046147464
1789761542850662100,11.524662109375,1.8080080378651617,-1.2020435471773148,-0.5637322727013379
1789761542860710400,11.53471044921875,2.459668696323037,-0.9998048185646533,-0.6640482847355306
1789761542870758400,11.54475830078125,1.0165969634115695,-0.9900772052764892,-0.889362476248294
1789761542880806100,11.55480615234375,-1.2395850500643253,0.12222469617724419,-1.0301001497156916
1789761542890854400,11.5648544921875,-3.3920120900332926,1.8108640118181705,-1.108306840468198
1789761542900903200,11.574903076171875,-3.7282764272540807,1.6649609184116123,-0.8717106458321213
1789761542910951400,11.584951416015626,-0.42066929809153075,0.3776981713712215,-0.15882015038579703
1789761542920999200,11.594999267578125,1.7486591923177242,-1.2084896545767783,0.20208982166126369
1789761542931047200,11.605047119140625,2.2228286099284884,-0.7711831099390983,-0.18273991862293332
1789761542941095400,11.615095458984374,1.1537620390892027,-0.1051876366585493,-0.5734486704757437
1789761542951143200,11.62514306640625,0.24117256264090536,0.8304799330383539,-0.7793046762701124
1789761542961192400,11.6351923828125,-1.728517737042904,1.522645035842061,-1.4567808170512317
1789761542971240200,11.645240234375,-2.7819693901211022,1.136588785970211,-1.5621385495796798
1789761542981288200,11.6552880859375,-1.8951877241462467,0.09598960020244121,-0.3530350739534944
1789761542991336400,11.66533642578125,-1.3595435548752546,-0.18314532108604906,0.826896083202213
1789761543001384200,11.67538427734375,-0.5026654442548751,0.9033668900728226,1.1223895802259445
1789761543011432200,11.68543212890625,-0.044429508835077285,1.0829910512953995,0.4103248315466568
1789761543021481200,11.695481201171875,0.6767325558722019,0.3962824603319168,-0.052176761960983274
1789761543031529200,11.705529296875,1.5344424411416053,-0.2724205183416605,0.38812308274116364
1789761543041577200,11.7155771484375,1.5399626658678054,-0.5546417152076959,1.070727124462649
1789761543051625200,11.725625244140625,0.6271341199666262,-0.7975181591570377,1.412141464857757
1789761543061673200,11.735673095703126,-1.0497446152538061,0.6011451077073812,0.9735182846635579
1789761543071721200,11.74572119140625,-3.2564766613841054,0.9394757298082113,0.4580244115609675
1789761543081770200,11.755770263671875,-1.9984324100434778,0.5722796632289886,0.3913202348146587
1789761543091818200,11.765818359375,-0.7812836481928825,-0.5270382534891367,-0.15632668960224835
1789761543101866200,11.7758662109375,2.2075784338265656,-1.0097153872042894,-0.46941579334288835
1789761543111914200,11.785914306640626,1.5626310092717408,-2.01683608174026,0.06530041089560837
1789761543121962200,11.795962158203125,0.9424965389341116,0.0017629180192947386,1.0473999518238006
1789761543132010200,11.80601025390625,-1.2116507489562034,0.8784037137299776,1.220654578014463
1789761543142059300,11.816059326171874,-1.7878607373714446,1.5461188504099845,0.19778262598663568
1789761543152107300,11.826107177734375,-1.552447468909621,1.106951772597432,-1.1385652006097138
1789761543162155300,11.8361552734375,-0.912222981223464,-0.42105742062628265,-1.4693360549807548
1789761543172203300,11.846203369140625,-1.3405460089385508,-1.9904788206905126,-0.583575914073363
1789761543182251300,11.856251220703125,0.5699561887174844,-1.0756184767007828,0.1312169809281826
1789761543192300300,11.86630029296875,0.10755319674611091,0.37777123660743234,-0.6508791526913642
1789761543202348300,11.876348388671875,1.4842653285652398,1.1116326238900422,-1.4803770889550447
1789761543212396000,11.88639599609375,2.7004630733013153,0.5104395853877067,-1.308635497675836
1789761543222444300,11.8964443359375,3.0434535039067265,0.019558686950802803,-0.5639492399202659
1789761543232492300,11.9064921875,0.8489666068434715,-0.17858780391216278,-0.15267551015093922
1789761543242540300,11.916540283203124,-1.0379740979611873,-0.0716477706283331,-0.06594568652920424
1789761543252589300,11.92658935546875,-3.1203742465019224,0.806674694558978,-0.07046338314935564
1789761543262637300,11.93663720703125,-1.8975304878801107,1.7229776385724545,-0.19060707180146128
1789761543272685300,11.946685302734375,-0.7932815445005893,0.5804933648228645,-0.3902930471913889
1789761543282733300,11.9567333984375,1.4955039309382439,-1.1525859810471535,-0.060825019047223025
1789761543292781300,11.96678125,1.454208628475666,-0.97297351026237,0.5633167141703889
1789761543302829300,11.976829345703125,0.34062662408351896,-0.5763929437667131,1.3492610841833055
1789761543312878300,11.98687841796875,-0.73223875451684,0.3844949919044971,1.5779055891625582
1789761543322926300,11.99692626953125,-1.6779875732451677,1.4740513930648564,0.7007151967450976
1789761543332974000,12.00697412109375,0.27596038290560243,1.3711504060387611,-0.10899835405312477
1789761543343022300,12.017022216796875,0.7188911971658468,-0.978822236290574,-0.28126868191417304
1789761543353070600,12.027070556640625,1.238610067552328,-2.9690771850973365,0.26876393206287175
1789761543363118300,12.037118408203124,0.6328700332701206,-2.4941338605046273,0.4951653342904523
1789761543373167400,12.04716748046875,-0.9677221656054258,-0.3503326100617647,0.012755546274594963
1789761543383215400,12.05721533203125,-1.2628075202196836,2.1428701070725915,-0.1997302894556895
1789761543393263400,12.067263427734375,-0.41882337796390057,2.581486565265059,0.36353699608240275
1789761543403311600,12.0773115234375,-0.009240122032165527,1.168504850190878,1.0050778635967523
1789761543413359400,12.087359375,0.7005021385163068,-1.996098998659849,1.1670631269499658
1789761543423407400,12.097407470703125,0.11718787105381488,-3.559712589228153,0.6786909233983606
1789761543433456400,12.107456298828126,-0.5910562598913908,-2.197566158378124,-0.18371983303837477
1789761543443504400,12.11750439453125,-1.3913923990786075,1.3437754923790692,-0.6651539078898727
1789761543453552400,12.127552490234375,-0.7774912701725959,1.9664426960647106,-0.011141169880516827
1789761543463600400,12.137600341796874,1.2137269707083702,0.009586158990859985,1.2434865875475107
1789761543473648400,12.1476484375,2.099111044844985,-1.099275246620178,1.5395207673192024
1789761543483697400,12.157697509765624,0.342663098347187,-1.0571662896871565,0.4554267962832004
1789761543493745400,12.167745361328125,-1.3633347638517617,0.5383318009197712,-1.4248326041266322
1789761543503793400,12.17779345703125,-2.587035431563854,2.514259533688426,-2.6305416880741714
1789761543513841400,12.18784130859375,-1.6356705265194176,2.043703630399704,-2.1873788186237215
1789761543523889400,12.197889404296875,0.5192851551443338,0.591887450018525,-0.7671222902409732
1789761543533937400,12.2079375,2.0502567053049803,-2.0870932747930286,0.407180834432505
1789761543543986400,12.217986328125,2.8869810856908558,-1.557712842091918,0.17355492431148886
1789761543554034400,12.228034423828126,0.4109212265372276,1.5193068313300608,-1.2115030841138212
1789761543564082400,12.23808251953125,-2.2003256862193346,2.392464461100101,-1.5485935699604452
1789761543574130200,12.248130126953125,-3.271086201494932,1.6058289304852484,-0.2868552864074707
1789761543584178400,12.258178466796876,-2.133468656998873,0.8820096292674541,1.2682365595310925
1789761543594226400,12.268226318359375,-0.6759270847082137,-0.21195874311625956,2.262694171848893
1789761543604275500,12.278275390625,1.6655787580490111,-0.834269388449192,2.2335025641560553
1789761543614323500,12.288323486328125,2.8261341105401514,-0.5084317526966333,1.0341555625863372
1789761543624371200,12.29837109375,2.193700130599737,-0.41632279331982136,-0.23603688025288283
1789761543634419500,12.30841943359375,-1.2411024688899517,-0.4732879586011171,-0.7303728875797242
1789761543644467500,12.318467529296875,-3.8615252062708136,0.09424012618660926,-0.44657903456948694
1789761543654515500,12.328515380859375,-3.86604531404376,0.8754922101974487,0.38862325081564486
1789761543664564500,12.338564453125,-1.032340475988388,0.8980559241831302,1.1606680190853773
1789761543674612200,12.3486123046875,1.4075439079344272,-0.20565876618921755,1.37116180421561
1789761543684660500,12.358660400390624,2.709099968743324,-2.0645108561068772,1.3405576993763446
1789761543694708200,12.368708251953125,2.410270166903734,-1.8633418025523423,0.8556197811223566
1789761543704756500,12.378756591796876,0.536683449190855,0.707822106140852,-0.28518150797635317
1789761543714805200,12.38880517578125,-1.9297937581032514,1.7805401852250098,-0.8306669800430536
1789761543724853200,12.398853271484375,-3.5296143880844113,1.1129472136199474,-0.12148509332370012
1789761543734901500,12.408901611328124,-2.1299498352229596,1.0018529832661152,0.9646683309927582
1789761543744949200,12.41894921875,-0.10686579900383948,0.10672960540354251,1.3594549998089671
1789761543754997500,12.42899755859375,1.8192969091206788,-0.6770657333493232,0.6175800366144627
1789761543765045500,12.43904541015625,2.1707669987797735,-0.3884083659559488,-1.055459924160689
1789761543775094300,12.44909423828125,-0.06660334672033787,-0.9004419425368309,-1.8770484024740755
1789761543785142500,12.459142578125,-0.22799159402847288,0.02762275094091892,-0.7220505379796027
1789761543795190300,12.469190185546875,-0.5024024094045162,1.3468565072596073,0.5646129279933869
1789761543805238500,12.479238525390626,-1.3458411927372216,1.9556179351896046,0.6299149097915738
1789761543815286300,12.489286376953125,0.023918635725975034,0.8349018411338329,0.024791874896548688
1789761543825334300,12.499334228515625,0.6773615014255047,-0.629597879731655,-0.8770922658052295
1789761543835383300,12.50938330078125,0.7259048753201961,-1.2259160056740044,-1.4485929805509745
1789761543845431300,12.519431396484375,1.0842045187383889,-0.48005730660557744,-0.6803814337685704
1789761543855479600,12.5294794921875,-0.060686816152930256,0.3017787147730589,1.0307630706038324
1789761543865527300,12.53952734375,-1.3078361639916896,0.7471925780206918,2.142749987824261
1789761543875575300,12.5495751953125,-0.7882458884209393,0.7600801166445016,1.7980023382879793
1789761543885623600,12.55962353515625,0.25115035129785535,-0.6071627605617046,-0.16094276856295764
1789761543895672300,12.56967236328125,0.6273001241832972,-1.0292144529223441,-1.8900433469951152
1789761543905720600,12.579720458984376,0.7504226459830999,-1.559378144955635,-1.4475715285487472
1789761543915768300,12.589768310546875,0.16584756480455398,-0.8366109831392765,0.15173987326864152
1789761543925816300,12.59981640625,-0.03702829266786575,0.4234785102933645,1.0403475490942597
1789761543935864600,12.609864501953124,-0.3584370060622692,0.7504986338287591,0.5315054620310664
1789761543945912300,12.619912353515625,-0.15300094271302223,-0.2719336116075516,-0.3365417659226805
1789761543955961300,12.62996142578125,0.37027298980653284,-0.5824895070761442,-0.9630989627841859
1789761543966009300,12.64000927734375,-1.0855518416941166,-1.0513035351336002,-1.1594097626525908
1789761543976057300,12.650057373046875,0.5203530766367912,-0.3974076649695635,-0.17371157617792485
1789761543986105300,12.660105224609374,-0.12755787389874457,0.5486380908787251,0.4509161869909614
