time,seconds_elapsed,z,y,x
1789761531370605800,0.044605712890625,-0.19590185582637787,-0.12821708619594574,0.034379810094833374
1789761531380653600,0.054653564453125,-0.09470147639513016,-0.36312761902809143,-0.10658956319093704
1789761531390701600,0.06470166015625,-0.10983622074127197,-0.33396226167678833,0.16256707906723022
1789761531400749600,0.07474951171875,-0.2637416422367096,-0.15190058946609497,0.1811298429965973
1789761531410797600,0.084797607421875,-0.21105711162090302,0.03669649362564087,0.08599160611629486
1789761531420846600,0.0948466796875,-0.2038460671901703,-0.11769893765449524,0.03584561496973038
1789761531430894600,0.10489453125,-0.12850497663021088,-0.28425276279449463,-0.08801853656768799
1789761531440942600,0.114942626953125,0.015900403261184692,-0.2112049162387848,-0.06223567575216293
1789761531450990600,0.124990478515625,0.10327152907848358,0.052855756133794785,-0.016223710030317307
1789761531461038600,0.13503857421875,0.08234893530607224,0.3185364305973053,0.34076955914497375
1789761531471087600,0.145087646484375,0.14018507301807404,0.3091490566730499,0.26693394780158997
1789761531481135600,0.155135498046875,0.18480953574180603,-0.06168999522924423,0.16731762886047363
1789761531491183600,0.16518359375,0.30308157205581665,-0.3243993818759918,-0.0774708241224289
1789761531501231600,0.175231689453125,0.47054487466812134,-0.14190174639225006,-0.04644552990794182
1789761531511280600,0.18528076171875,0.47365492582321167,0.16071777045726776,0.20580615103244781
1789761531521328600,0.19532861328125,0.43991586565971375,0.14082369208335876,0.028052406385540962
1789761531531376600,0.205376708984375,0.503971517086029,0.06708715856075287,0.06869011372327805
1789761531541424600,0.215424560546875,0.6022738814353943,0.07913157343864441,-0.014985873363912106
1789761531551472600,0.22547265625,0.628602147102356,0.3076512813568115,0.021994780749082565
1789761531561521400,0.235521484375,0.5680474638938904,0.42447590827941895,-0.11362216621637344
1789761531571569700,0.245569580078125,0.5149746537208557,0.2821400761604309,-0.008010256104171276
1789761531581617700,0.25561767578125,0.4990241825580597,0.27916133403778076,0.07907537370920181
1789761531591665700,0.265665771484375,0.4901289641857147,0.20287242531776428,-0.046900130808353424
1789761531601713700,0.275713623046875,0.42644959688186646,0.14741289615631104,-0.0012261193478479981
1789761531611762400,0.285762451171875,0.39267697930336,0.17141862213611603,-0.08408025652170181
1789761531621810700,0.295810791015625,0.37839576601982117,0.10881543159484863,-0.07602552324533463
1789761531631858700,0.305858642578125,0.26236504316329956,0.22183147072792053,0.08423232287168503
1789761531641906700,0.31590673828125,0.11115075647830963,0.34893348813056946,0.25907817482948303
1789761531651954700,0.32595458984375,0.03341175243258476,0.27138304710388184,0.15450036525726318
1789761531662003700,0.336003662109375,-0.0029443909879773855,0.13714933395385742,-0.08784063905477524
1789761531672051700,0.3460517578125,-0.04248807206749916,0.12036209553480148,-0.19450636208057404
1789761531682099500,0.356099365234375,0.00848616287112236,0.1065613329410553,-0.21633070707321167
1789761531692147700,0.366147705078125,-0.0706816241145134,-0.09528470784425735,-0.2697422504425049
1789761531702195700,0.37619580078125,-0.2595900297164917,-0.11876925826072693,-0.05946439132094383
1789761531712244700,0.38624462890625,-0.4149889349937439,0.09577286243438721,0.23653051257133484
1789761531722292700,0.396292724609375,-0.5833255052566528,0.10498660057783127,0.23302100598812103
1789761531732340500,0.406340576171875,-0.7285788059234619,-0.14030304551124573,0.14346688985824585
1789761531742388700,0.416388671875,-0.5929014086723328,-0.2483336478471756,-0.097712442278862
1789761531752437500,0.4264375,-0.43704551458358765,-0.2434704452753067,-0.20104070007801056
1789761531762485800,0.43648583984375,-0.5863063335418701,-0.14575986564159393,-0.19784703850746155
1789761531772533800,0.44653369140625,-0.806057333946228,-0.06516542285680771,-0.14830239117145538
1789761531782581500,0.45658154296875,-0.84489506483078,-0.06479950249195099,0.2035810798406601
1789761531792629800,0.466629638671875,-0.7157474160194397,-0.18454986810684204,0.16076864302158356
1789761531802678500,0.476678466796875,-0.6738764047622681,-0.4135356545448303,0.12644928693771362
1789761531812726800,0.486726806640625,-0.6914708614349365,-0.5367545485496521,0.027571173384785652
1789761531822774500,0.4967744140625,-0.6310285329818726,-0.4752320349216461,-0.036675188690423965
1789761531832822500,0.506822509765625,-0.5112486481666565,-0.31673505902290344,-0.07801437377929688
1789761531842870800,0.516870849609375,-0.39359575510025024,-0.2762526273727417,0.15830335021018982
1789761531852919600,0.52691943359375,-0.1867818683385849,-0.3203982412815094,-0.26961657404899597
1789761531862967800,0.5369677734375,-0.0545806884765625,-0.25130388140678406,-0.1720588505268097
1789761531873015600,0.547015625,0.000827177835162729,-0.06546422839164734,0.15772810578346252
1789761531883063600,0.5570634765625,0.08400462567806244,0.20991727709770203,0.14120160043239594
1789761531893112600,0.567112548828125,0.05500253289937973,0.42121195793151855,0.19841109216213226
1789761531903160600,0.57716064453125,0.09222366660833359,0.4654872715473175,-0.11734846234321594
1789761531913208800,0.587208740234375,0.2695766091346741,0.2686719298362732,-0.19557934999465942
1789761531923256600,0.597256591796875,0.39884060621261597,0.018061557784676552,-0.125599205493927
1789761531933304600,0.6073046875,0.3955121636390686,-0.05103228986263275,0.13331544399261475
1789761531943353600,0.617353515625,0.24832618236541748,0.07169309258460999,0.38114309310913086
1789761531953401600,0.627401611328125,0.14441204071044922,0.23344337940216064,0.038355644792318344
1789761531963449600,0.63744970703125,0.14213743805885315,0.19377745687961578,-0.08355960994958878
1789761531973497600,0.64749755859375,0.32046589255332947,-0.06198986619710922,-0.3347143530845642
1789761531983545600,0.657545654296875,0.4505288302898407,-0.3113746643066406,-0.06455609202384949
1789761531993594600,0.6675947265625,0.354458749294281,-0.2603740692138672,0.07485506683588028
1789761532003642600,0.677642578125,0.13601376116275787,-0.056121326982975006,0.2843398451805115
1789761532013690600,0.687690673828125,-0.03335609287023544,0.1330467313528061,0.19805316627025604
1789761532023738600,0.697738525390625,0.0006032059900462627,0.1724945455789566,-0.004372910596430302
1789761532033786600,0.70778662109375,0.1307670623064041,-0.039319973438978195,-0.2547028660774231
1789761532043835600,0.717835693359375,0.2085942178964615,-0.44154492020606995,-0.19118699431419373
1789761532053883600,0.727883544921875,0.18822823464870453,-0.3372296988964081,0.07296448945999146
1789761532063931600,0.737931640625,-0.0073106433264911175,0.07558530569076538,0.12331527471542358
1789761532073979600,0.747979736328125,-0.3134934604167938,0.15466228127479553,-0.06432998925447464
1789761532084028700,0.758028564453125,-0.4263332188129425,0.3672725558280945,0.11301017552614212
1789761532094076700,0.76807666015625,-0.022098643705248833,0.1590208113193512,0.13765719532966614
1789761532104124700,0.778124755859375,0.27383899688720703,-0.5789214372634888,-0.21310508251190186
1789761532114172700,0.788172607421875,0.2530770003795624,-0.8276164531707764,-0.18785911798477173
1789761532124220700,0.798220703125,0.006445382256060839,-0.004169711377471685,0.1880684345960617
1789761532134269700,0.808269775390625,-0.334028035402298,0.6723664402961731,0.4886980354785919
1789761532144317700,0.818317626953125,-0.4383983910083771,0.5642489790916443,0.6452767252922058
1789761532154365400,0.828365478515625,-0.0647643506526947,-0.14360004663467407,0.1216241717338562
1789761532164413700,0.83841357421875,0.35785961151123047,-0.7517358064651489,-0.33765339851379395
1789761532174461700,0.848461669921875,0.4584442675113678,-0.8433509469032288,-0.762269914150238
1789761532184510700,0.8585107421875,0.22529037296772003,-0.41488373279571533,-0.24355512857437134
1789761532194558700,0.868558837890625,0.06775347888469696,-0.08449757099151611,0.16984735429286957
1789761532204606500,0.8786064453125,0.20140181481838226,-0.07316182553768158,0.3143155872821808
1789761532214654700,0.88865478515625,0.4013618230819702,-0.04021373391151428,0.09099222719669342
1789761532224703500,0.898703369140625,0.4165689945220947,0.22962680459022522,-0.26260340213775635
1789761532234751700,0.908751708984375,0.4234900176525116,0.31565356254577637,-0.5295746326446533
1789761532244799500,0.918799560546875,0.5146244764328003,0.27558016777038574,-0.35026079416275024
1789761532254847500,0.928847412109375,0.43607452511787415,0.23955640196800232,0.13510189950466156
1789761532264895700,0.938895751953125,0.20857691764831543,0.25252172350883484,0.4713185131549835
1789761532274944500,0.948944580078125,0.119856096804142,0.5175331830978394,0.48233067989349365
1789761532284992800,0.95899267578125,0.08198700845241547,0.37160658836364746,0.046597860753536224
1789761532295040500,0.96904052734375,-0.03767627105116844,0.06918279826641083,0.4558756649494171
1789761532305088500,0.979088623046875,0.24524091184139252,-0.003320162883028388,0.15499597787857056
1789761532315136800,0.98913671875,0.4049919545650482,0.0009395632077939808,-0.09114348888397217
1789761532325185500,0.999185546875,0.21599887311458588,-0.020684238523244858,-1.0428861379623413
1789761532335233800,1.00923388671875,0.10470563918352127,0.20562054216861725,-1.0174002647399902
1789761532345281000,1.019281005859375,0.14361655712127686,0.34384685754776,-0.1817820519208908
1789761532355329000,1.0293291015625,0.03681500628590584,0.07190828025341034,1.3164756298065186
1789761532365378000,1.0393779296875,-0.01684742234647274,-0.1444685012102127,1.770500898361206
1789761532375426000,1.049426025390625,0.22974424064159393,-0.19061149656772614,0.6355266571044922
1789761532385474300,1.059474365234375,0.39670446515083313,-0.2074011266231537,-1.0749447345733643
1789761532395522000,1.06952197265625,0.23419971764087677,-0.24601510167121887,-2.0892813205718994
1789761532405570000,1.079570068359375,0.055511996150016785,-0.3767499327659607,-1.1654677391052246
1789761532415619000,1.089619140625,0.14907389879226685,-0.32388752698898315,0.7093933820724487
1789761532425667000,1.0996669921875,0.32336926460266113,0.18852144479751587,1.8252192735671997
1789761532435715000,1.109715087890625,0.31469962000846863,0.3725898265838623,1.550153374671936
1789761532445763000,1.11976318359375,0.33373162150382996,0.18113809823989868,-0.12535712122917175
1789761532455811000,1.12981103515625,0.31257203221321106,0.21649634838104248,-1.1913046836853027
1789761532465860000,1.139860107421875,0.11475081741809845,0.4850396513938904,-1.293809175491333
1789761532475908000,1.149908203125,-0.07288805395364761,0.5552565455436707,-0.2907751202583313
1789761532485956000,1.1599560546875,0.026329874992370605,0.14974261820316315,0.6193236708641052
1789761532496004000,1.170004150390625,0.2510268986225128,-0.45221567153930664,1.2405943870544434
1789761532506053000,1.18005322265625,0.2888275384902954,-0.3914913237094879,1.0578217506408691
1789761532516101000,1.19010107421875,0.07416770607233047,0.10798905044794083,0.12544579803943634
1789761532526149000,1.200149169921875,-0.12716834247112274,0.2915647327899933,-0.9384761452674866
1789761532536197000,1.210197021484375,-0.01564074493944645,0.08983881026506424,-1.2556133270263672
1789761532546245000,1.2202451171875,0.22493989765644073,-0.08055529743432999,-0.7560644745826721
1789761532556294100,1.230294189453125,0.13919436931610107,-0.1820203959941864,0.47646960616111755
1789761532566342100,1.240342041015625,-0.13086506724357605,-0.04249393194913864,1.471335768699646
1789761532576390100,1.25039013671875,-0.1794928014278412,0.2937410771846771,0.45407694578170776
1789761532586438100,1.260438232421875,-0.13143952190876007,0.10321533679962158,-0.5142092704772949
1789761532596486100,1.270486083984375,-0.05374658480286598,-0.18356290459632874,-0.493177205324173
1789761532606535200,1.28053515625,0.1687740981578827,-0.41401955485343933,-0.18089628219604492
1789761532616583200,1.290583251953125,0.19730854034423828,-0.1452309638261795,-0.1966845691204071
1789761532626631000,1.300630859375,-0.2683137357234955,0.4174129366874695,0.399064838886261
1789761532636679200,1.31067919921875,-0.5850749015808105,0.6016336679458618,0.42289718985557556
1789761532646728000,1.32072802734375,-0.20767329633235931,0.299841046333313,-0.028557874262332916
1789761532656776200,1.330776123046875,0.250936359167099,-0.10488753020763397,-0.2746693789958954
1789761532666824200,1.34082421875,0.11469621956348419,-0.28341758251190186,-0.23526285588741302
1789761532676872200,1.3508720703125,-0.23615767061710358,-0.15049496293067932,-0.021739117801189423
1789761532686920200,1.360920166015625,-0.25010064244270325,0.12892389297485352,0.07560447603464127
1789761532696969000,1.370968994140625,-0.15490037202835083,0.0713127925992012,0.21418100595474243
1789761532707017200,1.381017333984375,-0.20022577047348022,-0.20448416471481323,0.0005699164466932416
1789761532717065200,1.391065185546875,-0.19116303324699402,-0.2589050531387329,-0.18113090097904205
1789761532727113200,1.40111328125,-0.1876354068517685,0.15524844825267792,-0.23017488420009613
1789761532737161200,1.4111611328125,-0.3377689719200134,0.1066334992647171,-0.06115523353219032
1789761532747210000,1.4212099609375,-0.34462422132492065,-0.18712647259235382,0.11315425485372543
1789761532757258200,1.43125830078125,-0.15906554460525513,-0.2898634970188141,0.12439145892858505
1789761532767306000,1.441305908203125,-0.21880584955215454,-0.21012340486049652,0.004477039910852909
1789761532777354200,1.451354248046875,-0.4296725392341614,-0.16135986149311066,-0.23560479283332825
1789761532787403000,1.461403076171875,-0.44883719086647034,-0.0701868087053299,-0.19664834439754486
1789761532797451000,1.471450927734375,-0.4003223776817322,-0.025680063292384148,-0.08017872273921967
1789761532807499300,1.481499267578125,-0.44549864530563354,-0.03329723700881004,0.183579683303833
1789761532817547000,1.491547119140625,-0.41562730073928833,-0.10494266450405121,0.2036287635564804
1789761532827595300,1.50159521484375,-0.24757970869541168,-0.29075220227241516,-0.044984519481658936
1789761532837644000,1.51164404296875,-0.08759722858667374,-0.40643540024757385,-0.29419222474098206
1789761532847692300,1.5216923828125,-0.058701131492853165,-0.4189903438091278,-0.13242276012897491
1789761532857740300,1.531740234375,-0.1624016910791397,-0.15176741778850555,0.012802347540855408
1789761532867788000,1.5417880859375,-0.27726250886917114,0.210945263504982,0.23558855056762695
1789761532877837000,1.551837158203125,-0.23078741133213043,0.42553478479385376,0.45265108346939087
1789761532887885000,1.561885009765625,0.058689944446086884,0.39341041445732117,0.2129298448562622
1789761532897933300,1.571933349609375,0.440157949924469,-0.07515866309404373,-0.4000837504863739
1789761532907981000,1.58198095703125,0.6694251894950867,-0.2209363728761673,-0.6000970005989075
1789761532918029000,1.592029052734375,0.5813712477684021,0.15003158152103424,-0.3598282039165497
1789761532928078000,1.602078125,0.22088311612606049,0.5963792204856873,0.19577589631080627
1789761532938126000,1.6121259765625,0.051167845726013184,0.8781344890594482,0.5201073884963989
1789761532948174300,1.62217431640625,0.2395199090242386,0.6042680740356445,0.54864901304245
1789761532958222000,1.63222216796875,0.5616044998168945,0.0039145806804299355,0.17719635367393494
1789761532968270000,1.64227001953125,0.7804263234138489,-0.34686794877052307,-0.37046700716018677
1789761532978319000,1.652319091796875,0.6935819387435913,-0.13877679407596588,-0.5676663517951965
1789761532988367000,1.6623671875,0.33503445982933044,0.355020135641098,-0.2528839111328125
1789761532998415000,1.6724150390625,0.11584723740816116,0.5547233819961548,0.2711433470249176
1789761533008463000,1.682463134765625,0.27677062153816223,0.4903835654258728,0.5487152934074402
1789761533018511000,1.692510986328125,0.4989323019981384,0.17293556034564972,0.39904460310935974
1789761533028560100,1.70256005859375,0.48686498403549194,-0.05607898160815239,0.05434153601527214
1789761533038608100,1.712608154296875,0.3038637340068817,0.1925089955329895,-0.22837671637535095
1789761533048656100,1.72265625,0.08808538317680359,0.5118119120597839,-0.27259716391563416
1789761533058704100,1.7327041015625,-0.020237360149621964,0.4031144380569458,0.08986890316009521
1789761533068753200,1.742753173828125,0.08621344715356827,0.09203378856182098,0.24392957985401154
1789761533078801200,1.75280126953125,0.22885023057460785,-0.17549166083335876,0.243521049618721
1789761533088849200,1.76284912109375,0.19185039401054382,-0.18455013632774353,0.0021856562234461308
1789761533098897200,1.772897216796875,-0.00920441746711731,0.028302477672696114,-0.04987408220767975
1789761533108945200,1.782945068359375,-0.21009677648544312,0.3403703570365906,0.08185677975416183
1789761533118994200,1.792994140625,-0.1970004141330719,0.18704791367053986,0.07593737542629242
1789761533129042200,1.803042236328125,-0.023196665570139885,-0.09672734141349792,-0.31030699610710144
1789761533139090200,1.813090087890625,0.0006466155173256993,-0.1867179572582245,-0.29196953773498535
1789761533149138200,1.82313818359375,-0.1238766685128212,-0.22353215515613556,-0.1299196481704712
1789761533159186200,1.833186279296875,-0.18455839157104492,-0.06601656973361969,0.2222495824098587
1789761533169235200,1.843235107421875,-0.2367992252111435,0.08887980133295059,0.43120652437210083
1789761533179283200,1.853283203125,-0.36854368448257446,0.015860721468925476,0.2907428741455078
1789761533189331000,1.8633310546875,-0.3901091516017914,-0.04538026452064514,-0.17738144099712372
1789761533199379200,1.873379150390625,-0.29198285937309265,-0.045946985483169556,-0.48361140489578247
1789761533209428000,1.883427978515625,-0.23287266492843628,-0.28695639967918396,-0.37496641278266907
1789761533219476200,1.893476318359375,-0.21422068774700165,-0.36716070771217346,-0.08241072297096252
1789761533229524200,1.903524169921875,-0.2613634169101715,-0.20991435647010803,0.35475409030914307
1789761533239572000,1.913572021484375,-0.3610681891441345,-0.028737638145685196,0.3175388276576996
1789761533249620200,1.9236201171875,-0.3634871244430542,0.09040579944849014,0.008018244989216328
1789761533259669000,1.9336689453125,-0.21701113879680634,0.00043888893560506403,-0.5430281162261963
1789761533269717200,1.94371728515625,-0.10679755359888077,-0.10365582257509232,-0.4142318069934845
1789761533279765200,1.95376513671875,-0.11975756287574768,-0.16466911137104034,-0.012530971318483353
1789761533289813000,1.96381298828125,-0.21597810089588165,-0.14545705914497375,0.6234548091888428
1789761533299861200,1.973861328125,-0.20383381843566895,-0.05408374220132828,0.32472163438796997
1789761533309910000,1.983909912109375,-0.15598107874393463,-0.04941442236304283,-0.14811329543590546
1789761533319958300,1.993958251953125,-0.13845215737819672,-0.08052679896354675,-0.7234706282615662
1789761533330006000,2.004006103515625,-0.09723813831806183,-0.27224963903427124,-0.30900710821151733
1789761533340054800,2.0140546875,0.03484480082988739,-0.3548843264579773,0.3032272458076477
1789761533350103800,2.024103759765625,0.0655883327126503,-0.28348684310913086,0.6325889229774475
1789761533360151800,2.03415185546875,-0.1038435772061348,-0.00005459480235003866,0.28163114190101624
1789761533370199800,2.04419970703125,-0.17717450857162476,0.15142573416233063,-0.23817501962184906
1789761533380247800,2.054247802734375,0.009317069314420223,0.038785479962825775,-0.623371958732605
1789761533390295800,2.0642958984375,0.22734980285167694,-0.3248843550682068,-0.3252244293689728
1789761533400344800,2.0743447265625,0.2049848437309265,-0.34002283215522766,0.24081075191497803
1789761533410392800,2.084392822265625,-0.003906590864062309,-0.019105518236756325,0.7404717206954956
1789761533420440600,2.094440673828125,-0.12875185906887054,0.2284342348575592,0.6657871007919312
1789761533430488800,2.10448876953125,0.005702626891434193,0.0784977376461029,0.2020212709903717
1789761533440536800,2.114536865234375,0.29426491260528564,-0.245369553565979,-0.4445260465145111
1789761533450585900,2.1245859375,0.4899044632911682,-0.49361318349838257,-0.8535630702972412
1789761533460633900,2.1346337890625,0.44394442439079285,-0.3173728883266449,-0.8152942657470703
1789761533470681600,2.144681640625,0.2184782773256302,0.07908789068460464,0.08138273656368256
1789761533480729900,2.154729736328125,0.08249807357788086,0.30077874660491943,0.9976363778114319
1789761533490778600,2.164778564453125,0.1954834759235382,0.13205763697624207,1.0865657329559326
1789761533500827000,2.174826904296875,0.5216243267059326,-0.2824375629425049,0.29399168491363525
1789761533510874600,2.18487451171875,0.7787599563598633,-0.37732359766960144,-0.922020435333252
1789761533520922600,2.194922607421875,0.6533991098403931,-0.1258532702922821,-1.052537202835083
1789761533530971000,2.204970947265625,0.43521323800086975,0.200055330991745,-0.37384283542633057
1789761533541019600,2.21501953125,0.3313630223274231,0.5641957521438599,0.7243185639381409
1789761533551068000,2.22506787109375,0.3125118315219879,0.6400710344314575,1.2424516677856445
1789761533561115600,2.23511572265625,0.4103017747402191,0.2320457547903061,0.6391466856002808
1789761533571163600,2.24516357421875,0.6056057810783386,-0.05107437074184418,-0.657071053981781
1789761533581212000,2.2552119140625,0.5562475323677063,0.23539547622203827,-0.7061275839805603
1789761533591260700,2.2652607421875,0.3952719569206238,0.4403241276741028,-0.2695923149585724
1789761533601309000,2.275308837890625,0.33040109276771545,0.3350384533405304,0.4955247938632965
1789761533611356700,2.285356689453125,0.33659347891807556,0.17783604562282562,0.536995530128479
1789761533621404700,2.29540478515625,0.28405383229255676,0.10613548755645752,0.2531947195529938
1789761533631452700,2.30545263671875,0.2787916958332062,0.10311892628669739,-0.30233055353164673
1789761533641501700,2.315501708984375,0.32451575994491577,0.05812189355492592,-0.6219754219055176
1789761533651549700,2.3255498046875,0.2762662172317505,0.054724499583244324,-0.09762375801801682
1789761533661597700,2.33559765625,0.27683719992637634,0.10885217785835266,0.21358205378055573
1789761533671646000,2.34564599609375,0.3585970401763916,0.020870661363005638,0.3762122392654419
1789761533681694700,2.35569482421875,0.4341980516910553,-0.16306588053703308,0.18709132075309753
1789761533691742700,2.36574267578125,0.4617564380168915,-0.14007668197155,-0.243802011013031
1789761533701790700,2.375790771484375,0.35990625619888306,0.11023729294538498,-0.3932546079158783
1789761533711838700,2.385838623046875,0.20360718667507172,0.2819821536540985,-0.09189476817846298
1789761533721887000,2.395886962890625,0.22631782293319702,0.3388632833957672,0.3801113963127136
1789761533731935700,2.405935791015625,0.3128708302974701,0.3269834518432617,0.7607340812683105
1789761533741983700,2.415983642578125,0.2872413694858551,0.2739308774471283,0.5039907097816467
1789761533752031700,2.42603173828125,0.287396639585495,0.20379813015460968,-0.025557557120919228
1789761533762079700,2.436079833984375,0.36450979113578796,0.28523120284080505,-0.6422910690307617
1789761533772127700,2.446127685546875,0.2678498327732086,0.38219478726387024,-0.5074414014816284
1789761533782176800,2.4561767578125,0.1469404399394989,0.2071923315525055,0.03462136164307594
1789761533792224800,2.466224853515625,0.19126689434051514,0.23849672079086304,0.6575584411621094
1789761533802272800,2.476272705078125,0.21807454526424408,0.2458859384059906,0.5023723244667053
1789761533812320800,2.48632080078125,0.11448689550161362,0.25870639085769653,0.06320080906152725
1789761533822368800,2.49636865234375,0.10703883320093155,0.26539331674575806,-0.34616780281066895
1789761533832417800,2.506417724609375,0.1889512836933136,0.19063332676887512,-0.1375674456357956
1789761533842465800,2.5164658203125,0.14254383742809296,0.16596341133117676,0.2947373688220978
1789761533852513800,2.526513671875,0.010148773901164532,0.24899543821811676,0.5325725674629211
1789761533862561800,2.536561767578125,0.02251223288476467,0.20857930183410645,0.08722251653671265
1789761533872610800,2.54661083984375,0.08977915346622467,0.21177563071250916,-0.4299798607826233
1789761533882658800,2.556658935546875,0.016583237797021866,0.26691851019859314,-0.580115020275116
1789761533892706800,2.566706787109375,-0.12057541310787201,0.23625221848487854,-0.1691322922706604
1789761533902754800,2.5767548828125,-0.1701885163784027,0.361105740070343,0.38186001777648926
1789761533912802800,2.586802734375,-0.11010333150625229,0.10831155627965927,0.6988046765327454
1789761533922851800,2.596851806640625,-0.05349438264966011,-0.06803231686353683,0.42650285363197327
1789761533932899800,2.60689990234375,-0.13270637392997742,0.09576194733381271,-0.2291298508644104
1789761533942947800,2.61694775390625,-0.32494986057281494,0.3114774525165558,-0.5594374537467957
1789761533952995800,2.626995849609375,-0.40311524271965027,0.38878104090690613,-0.46855655312538147
1789761533963043600,2.637043701171875,-0.34055066108703613,0.2511523365974426,-0.0656874030828476
1789761533973092900,2.6470927734375,-0.31141406297683716,-0.06706265360116959,0.5322127938270569
1789761533983140600,2.657140625,-0.28174886107444763,-0.26024916768074036,0.4101680815219879
1789761533993188900,2.66718896484375,-0.2935123145580292,-0.08858339488506317,0.05686621367931366
1789761534003236900,2.67723681640625,-0.47579237818717957,0.18295197188854218,-0.34364551305770874
1789761534013284600,2.68728466796875,-0.636893630027771,0.2070344090461731,-0.4481831192970276
1789761534023334000,2.697333984375,-0.5710057020187378,0.1499175876379013,-0.09575475752353668
1789761534033381600,2.707381591796875,-0.3749142289161682,-0.16969822347164154,0.22092358767986298
1789761534043430000,2.717429931640625,-0.37223801016807556,-0.313849538564682,0.3208872079849243
1789761534053478000,2.727477783203125,-0.546639621257782,-0.11473457515239716,0.1978590190410614
1789761534063525600,2.737525634765625,-0.6592618227005005,0.04038523882627487,-0.10258816182613373
1789761534073574700,2.74757470703125,-0.5673432946205139,0.011544270440936089,-0.2942444086074829
1789761534083622700,2.75762255859375,-0.42431798577308655,-0.13256336748600006,-0.2683238685131073
1789761534093671000,2.7676708984375,-0.42776891589164734,-0.16822922229766846,-0.1180584654211998
1789761534103718700,2.77771875,-0.5264624953269958,-0.13439562916755676,0.1347184032201767
1789761534113768000,2.787767822265625,-0.5196711421012878,-0.0838075503706932,0.23847781121730804
1789761534123815700,2.797815673828125,-0.46353089809417725,-0.03169374540448189,0.2735676169395447
1789761534133863700,2.80786376953125,-0.404968798160553,-0.143869549036026,-0.0439797081053257
1789761534143912000,2.817911865234375,-0.35709020495414734,-0.26126596331596375,-0.24299933016300201
1789761534153959700,2.827959716796875,-0.292484313249588,-0.22967900335788727,-0.27873337268829346
1789761534164009000,2.838009033203125,-0.2803243398666382,-0.10682471841573715,0.06743124127388
1789761534174056700,2.848056640625,-0.29162225127220154,-0.01587616838514805,0.13607022166252136
1789761534184104700,2.858104736328125,-0.22510288655757904,0.015097193419933319,-0.10969720035791397
1789761534194153000,2.868153076171875,-0.13020087778568268,-0.02574930526316166,-0.2069060504436493
1789761534204200700,2.87820068359375,-0.11827471107244492,-0.011665444821119308,0.04529797285795212
1789761534214249700,2.888249755859375,-0.16128823161125183,0.0483185313642025,0.28912049531936646
1789761534224297700,2.898297607421875,-0.263040691614151,0.12632757425308228,0.302825927734375
1789761534234345700,2.908345703125,-0.24604704976081848,0.05224882438778877,-0.07880134135484695
1789761534244393700,2.918393798828125,-0.026206037029623985,-0.05611999332904816,-0.4796544909477234
1789761534254441700,2.928441650390625,0.10620526224374771,-0.08890696614980698,-0.4521770477294922
1789761534264490800,2.93849072265625,-0.055144477635622025,-0.05702786520123482,0.42256802320480347
1789761534274538800,2.948538818359375,-0.15964078903198242,0.02755998820066452,0.6403728127479553
1789761534284586800,2.958586669921875,-0.06810182332992554,0.11542858928442001,0.33913519978523254
1789761534294634800,2.968634765625,0.030487069860100746,0.03111184574663639,-0.4104924499988556
1789761534304682800,2.978682861328125,-0.01919393427670002,-0.055101070553064346,-0.4001511335372925
1789761534314731800,2.988731689453125,0.029503030702471733,-0.10074498504400253,-0.17479445040225983
1789761534324779800,2.99877978515625,0.10780955106019974,-0.1428556889295578,0.3075200021266937
1789761534334827800,3.008827880859375,0.0738702267408371,-0.14541125297546387,0.16704970598220825
1789761534344875800,3.018875732421875,-0.04645644873380661,0.08207063376903534,0.009734120219945908
1789761534354924800,3.0289248046875,-0.09040925651788712,0.132118359208107,-0.18995928764343262
1789761534364972800,3.038972900390625,0.006593187805265188,0.023196665570139885,-0.05296947434544563
1789761534375021000,3.04902099609375,0.12449000030755997,-0.19317452609539032,0.16086211800575256
1789761534385068800,3.05906884765625,0.11100534349679947,-0.25516146421432495,0.21537010371685028
1789761534395116800,3.06911669921875,0.03165566548705101,-0.016700683161616325,-0.021770276129245758
1789761534405165800,3.079165771484375,-0.04563353210687637,0.07541193068027496,0.1812337040901184
1789761534415213800,3.0892138671875,-0.025060079991817474,0.08056169003248215,-0.025261148810386658
1789761534425262000,3.099261962890625,-0.0006255765329115093,0.01709616184234619,-0.2569657564163208
1789761534435309800,3.109309814453125,-0.004294879734516144,0.08750641345977783,-0.34907224774360657
1789761534445357800,3.11935791015625,0.014653244987130165,0.010929080657660961,-0.10455729812383652
1789761534455406800,3.12940673828125,0.0015158712631091475,-0.0736268162727356,0.40049973130226135
1789761534465454800,3.139454833984375,-0.004627508576959372,-0.06758410483598709,0.6183934807777405
1789761534475502800,3.1495029296875,-0.003203782718628645,0.03158535808324814,0.19103440642356873
1789761534485550800,3.15955078125,-0.11186128854751587,0.26800987124443054,-0.3139009475708008
1789761534495598800,3.169598876953125,-0.19058246910572052,0.11698387563228607,-0.47314226627349854
1789761534505647900,3.17964794921875,-0.02906600572168827,-0.1228976920247078,-0.04024968296289444
1789761534515695900,3.18969580078125,0.0962679460644722,-0.1528441458940506,0.452970415353775
1789761534525743900,3.199743896484375,-0.04926634952425957,-0.1175985336303711,0.45156851410865784
1789761534535791900,3.2097919921875,-0.2280949503183365,0.01618456281721592,-0.07852037250995636
1789761534545839900,3.21983984375,-0.24453118443489075,0.23230966925621033,-0.42573851346969604
1789761534555889000,3.229888916015625,-0.16260142624378204,0.0940929427742958,-0.19471009075641632
1789761534565937000,3.23993701171875,-0.016519054770469666,-0.32831528782844543,0.23608283698558807
1789761534575985000,3.24998486328125,0.11596015840768814,-0.45863309502601624,0.2925093472003937
1789761534586033000,3.260032958984375,0.07846950739622116,-0.23158103227615356,-0.015107580460608006
1789761534596081000,3.270080810546875,-0.1150064766407013,0.08232736587524414,-0.3598657548427582
1789761534606130000,3.2801298828125,-0.19852933287620544,0.2060442417860031,-0.2865358889102936
1789761534616178000,3.290177978515625,-0.02256602980196476,-0.06119091808795929,0.08345574140548706
1789761534626226000,3.300225830078125,0.17689035832881927,-0.22300058603286743,0.38990381360054016
1789761534636274000,3.31027392578125,0.09840193390846252,-0.0805310606956482,0.13228747248649597
1789761534646321700,3.32032177734375,-0.14216487109661102,0.14679422974586487,-0.16352368891239166
1789761534656371000,3.330370849609375,-0.16192153096199036,0.2985163927078247,-0.16723932325839996
1789761534666418700,3.340418701171875,0.042563438415527344,0.1379576027393341,-0.19462434947490692
1789761534676467000,3.350467041015625,0.11164876818656921,-0.06250066310167313,-0.14054380357265472
1789761534686515000,3.360514892578125,-0.0028514466248452663,-0.1035706028342247,0.11433536559343338
1789761534696564000,3.37056396484375,-0.07221720367670059,0.10366541147232056,0.4952984154224396
1789761534706612000,3.380612060546875,-0.08931975811719894,0.24877865612506866,0.5302369594573975
1789761534716659700,3.39065966796875,-0.1256905496120453,0.11145355552434921,0.19088979065418243
1789761534726708000,3.4007080078125,-0.06795348227024078,-0.050086602568626404,-0.41865211725234985
1789761534736756000,3.410755859375,-0.011928032152354717,-0.022374015301465988,-0.5737639665603638
1789761534746805000,3.420804931640625,-0.045825012028217316,-0.09364073723554611,-0.698083221912384
1789761534756853000,3.43085302734375,-0.16846917569637299,-0.026214560493826866,-0.1940501630306244
1789761534766900700,3.440900634765625,-0.2621290981769562,-0.029528863728046417,0.528549075126648
1789761534776949000,3.450948974609375,-0.25969627499580383,-0.17049290239810944,0.7718570232391357
1789761534786996700,3.460996826171875,-0.17543387413024902,-0.22473616898059845,0.4749537408351898
1789761534797046000,3.4710458984375,-0.12040044367313385,-0.3193891644477844,-0.2386154979467392
1789761534807093800,3.48109375,-0.2278352975845337,-0.20176666975021362,-0.749418318271637
1789761534817141800,3.491141845703125,-0.31705546379089355,-0.06548846513032913,-0.5571830868721008
1789761534827190000,3.50118994140625,-0.25609222054481506,-0.11079495400190353,-0.11128976941108704
1789761534837237800,3.51123779296875,-0.22209538519382477,-0.29667961597442627,0.6836265325546265
1789761534847287000,3.521287109375,-0.12754011154174805,-0.42410600185394287,0.5714589953422546
1789761534857334800,3.531334716796875,-0.11744007468223572,-0.2797866463661194,0.21947775781154633
1789761534867383000,3.541383056640625,-0.2972385883331299,-0.001680987305007875,-0.39978334307670593
1789761534877431000,3.55143115234375,-0.34878915548324585,0.011899802833795547,-0.49338069558143616
1789761534887478800,3.561478759765625,-0.1426471620798111,-0.16485899686813354,-0.3333366811275482
1789761534897527800,3.57152783203125,-0.014168815687298775,-0.4038209617137909,0.11825553327798843
1789761534907575800,3.581575927734375,-0.030788272619247437,-0.5031622052192688,0.44154492020606995
1789761534917624000,3.5916240234375,-0.07709851115942001,-0.2758483588695526,0.448384165763855
1789761534927671800,3.601671875,-0.1787566989660263,0.22812505066394806,0.16796663403511047
1789761534937719800,3.6117197265625,-0.22991175949573517,0.13197055459022522,-0.32104700803756714
1789761534947768800,3.621768798828125,-0.06421627104282379,-0.10414531081914902,-0.5993263125419617
1789761534957816800,3.63181689453125,0.16862815618515015,-0.12847808003425598,-0.40363746881484985
1789761534967865000,3.641864990234375,0.11053556203842163,-0.16527044773101807,0.1550351232290268
1789761534977912800,3.651912841796875,-0.10430429875850677,-0.0641784518957138,0.647287130355835
1789761534987960800,3.6619609375,-0.14295396208763123,0.07290749996900558,0.5974884629249573
1789761534998009900,3.672009765625,-0.04586149752140045,0.0490969717502594,0.09097997099161148
1789761535008057900,3.682057861328125,0.01677951216697693,-0.09868236631155014,-0.6138482689857483
1789761535018105900,3.69210595703125,0.022818496450781822,-0.25198617577552795,-0.5326183438301086
1789761535028153900,3.70215380859375,0.05163389816880226,-0.28530576825141907,-0.2186279445886612
1789761535038201900,3.712201904296875,-0.0010780475568026304,-0.16560015082359314,0.40469661355018616
1789761535048251000,3.7222509765625,-0.09931913018226624,-0.1138290986418724,0.5007176995277405
1789761535058299000,3.732298828125,-0.08868512511253357,-0.15333814918994904,0.05765450745820999
1789761535068347000,3.742346923828125,0.005626726895570755,-0.07239936292171478,-0.4378865361213684
1789761535078395000,3.752394775390625,0.016567524522542953,-0.17487487196922302,-0.25125300884246826
1789761535088443000,3.76244287109375,0.02165602706372738,-0.2586784362792969,0.0503273531794548
1789761535098492000,3.772491943359375,0.0432627834379673,-0.17088626325130463,0.3175148367881775
1789761535108540000,3.782539794921875,-0.001056209672242403,-0.11327861994504929,0.11326850205659866
1789761535118588000,3.792587890625,-0.035233888775110245,-0.0821332186460495,-0.050576891750097275
1789761535128636000,3.802635986328125,0.02931074984371662,-0.04941122606396675,-0.20904456079006195
1789761535138684000,3.812683837890625,0.09212113916873932,-0.14794951677322388,-0.020180102437734604
1789761535148733000,3.82273291015625,0.16006609797477722,-0.30190205574035645,0.230224147439003
1789761535158781000,3.832781005859375,0.23036769032478333,-0.23671559989452362,0.14245115220546722
1789761535168829000,3.842828857421875,0.16657912731170654,-0.10968787968158722,-0.15255731344223022
1789761535178877000,3.852876953125,0.06635238975286484,0.03259549289941788,-0.0846235379576683
1789761535188924700,3.862924560546875,0.14150840044021606,0.027947477996349335,0.13467925786972046
1789761535198974000,3.872973876953125,0.34031203389167786,-0.1176115870475769,-0.06195977330207825
1789761535209021700,3.883021728515625,0.40639570355415344,-0.23941151797771454,-0.011501393280923367
1789761535219070000,3.893070068359375,0.3622666001319885,-0.14957191050052643,0.08852054178714752
1789761535229118000,3.903117919921875,0.32524681091308594,0.1330009251832962,0.26276105642318726
1789761535239165700,3.913165771484375,0.2797173857688904,0.28846055269241333,0.11522538959980011
1789761535249215000,3.923215087890625,0.26215997338294983,0.18930813670158386,-0.13583560287952423
1789761535259262700,3.9332626953125,0.4646821916103363,-0.10595785826444626,-0.40062811970710754
1789761535269311000,3.94331103515625,0.6126391887664795,-0.07278365641832352,-0.06199759244918823
1789761535279359000,3.95335888671875,0.4738416075706482,-0.0005597964627668262,0.3261839747428894
1789761535289406700,3.96340673828125,0.2951512038707733,0.16161739826202393,0.6070329546928406
1789761535299456000,3.9734560546875,0.3598894774913788,0.4190944731235504,0.16534821689128876
1789761535309503700,3.983503662109375,0.4815085828304291,0.3265906274318695,-0.5123671293258667
1789761535319552000,3.993552001953125,0.5151560306549072,0.16287440061569214,-0.5649669766426086
1789761535329599700,4.003599853515625,0.4922664165496826,0.16999942064285278,0.09829621016979218
1789761535339647700,4.013647705078125,0.4167117476463318,0.19886702299118042,0.6565091609954834
1789761535349696500,4.023696533203125,0.40070322155952454,0.18346436321735382,0.6774138808250427
1789761535359744500,4.03374462890625,0.468593031167984,0.28270119428634644,-0.11330898106098175
1789761535369792500,4.04379248046875,0.4050755798816681,0.18671289086341858,-0.4489026963710785
1789761535379840300,4.05384033203125,0.38385578989982605,0.19574765861034393,-0.40746524930000305
1789761535389888500,4.063888427734375,0.365633100271225,0.316725492477417,0.06330972909927368
1789761535399937300,4.073937255859375,0.21686041355133057,0.2991560697555542,0.4781274199485779
1789761535409985500,4.083985595703125,0.21853287518024445,0.20926906168460846,0.2626321613788605
1789761535420033500,4.094033447265625,0.3366680443286896,0.23911884427070618,-0.2622257471084595
1789761535430081300,4.104081298828125,0.2663813531398773,0.05423740670084953,-0.2602345049381256
1789761535440129500,4.114129638671875,0.2181464433670044,0.002546248259022832,-0.12201805412769318
1789761535450178300,4.12417822265625,0.1805170476436615,0.20207080245018005,0.48383137583732605
1789761535460226600,4.1342265625,0.09153897315263748,0.20192673802375793,0.39894765615463257
1789761535470274600,4.144274658203125,0.10926124453544617,0.09554196894168854,0.08737964928150177
1789761535480322300,4.154322265625,0.17052780091762543,0.14771196246147156,-0.35626569390296936
1789761535490370600,4.16437060546875,0.09649883955717087,0.07071597874164581,-0.5117471814155579
1789761535500419300,4.17441943359375,0.021396368741989136,0.19358038902282715,-0.1179916188120842
1789761535510467600,4.184467529296875,0.03905605524778366,0.23899659514427185,0.41916531324386597
1789761535520515300,4.194515380859375,0.04946528747677803,0.07406144589185715,0.38635995984077454
1789761535530563300,4.204563232421875,0.04031679779291153,0.10279535502195358,0.021453093737363815
1789761535540611600,4.214611572265625,0.019534818828105927,0.20805439352989197,-0.38191699981689453
1789761535550660400,4.224660400390625,-0.01104599330574274,0.0838504284620285,-0.19109751284122467
1789761535560708600,4.23470849609375,0.017306551337242126,0.02809661626815796,-0.007268032990396023
1789761535570756400,4.24475634765625,-0.018429607152938843,0.052138835191726685,0.5068613290786743
1789761535580804400,4.254804443359375,-0.11283200979232788,0.13390053808689117,0.4509517252445221
1789761535590852600,4.2648525390625,-0.13927000761032104,0.30873093008995056,-0.049006689339876175
1789761535600901400,4.2749013671875,-0.13810434937477112,0.2904722988605499,-0.4844162166118622
1789761535610949600,4.28494970703125,-0.07537544518709183,0.10513467341661453,-0.535877525806427
1789761535620997400,4.294997314453125,0.03766029328107834,-0.013231117278337479,-0.13162939250469208
1789761535631045400,4.30504541015625,0.02256443165242672,-0.08049430698156357,0.6116623282432556
1789761535641093400,4.31509326171875,-0.0913807824254036,0.05905266851186752,0.5142923593521118
1789761535651142400,4.325142333984375,-0.18568198382854462,0.2631288468837738,0.08817300200462341
1789761535661190400,4.3351904296875,-0.15524818003177643,0.16040672361850739,-0.3583613336086273
1789761535671238400,4.34523828125,-0.010106164030730724,-0.08861908316612244,-0.286125510931015
1789761535681286400,4.355286376953125,0.09297255426645279,-0.11268819868564606,-0.0957062840461731
1789761535691334400,4.36533447265625,-0.026446254923939705,-0.00803475733846426,0.22863318026065826
1789761535701383400,4.375383544921875,-0.21456928551197052,0.19859032332897186,0.4589385390281677
1789761535711431400,4.385431396484375,-0.21590380370616913,0.34433287382125854,0.24053750932216644
1789761535721479400,4.3954794921875,-0.06204073503613472,0.12650041282176971,-0.2541039288043976
1789761535731527400,4.40552734375,0.07484148442745209,-0.14758652448654175,-0.35381293296813965
1789761535741575400,4.415575439453125,0.11060667037963867,-0.175771564245224,-0.2549513280391693
1789761535751624400,4.42562451171875,0.008229699917137623,0.08330847322940826,-0.007921040058135986
1789761535761672400,4.43567236328125,-0.201943501830101,0.3243437111377716,0.40173253417015076
1789761535771720400,4.445720458984375,-0.28388550877571106,0.34472355246543884,0.49105706810951233
1789761535781768400,4.4557685546875,-0.10702551901340485,0.16155481338500977,0.13240490853786469
1789761535791816400,4.46581640625,0.05360490456223488,-0.07652939856052399,-0.3879892826080322
1789761535801865200,4.475865234375,0.010897655040025711,-0.12157143652439117,-0.41136518120765686
1789761535811913500,4.48591357421875,-0.06442718952894211,-0.02580389939248562,-0.04764927923679352
1789761535821961500,4.49596142578125,-0.11560995131731033,0.167853444814682,0.18008455634117126
1789761535832009200,4.50600927734375,-0.22822251915931702,0.23188436031341553,0.23663410544395447
1789761535842057500,4.516057373046875,-0.2747841477394104,0.15737365186214447,0.15189684927463531
1789761535852106200,4.526106201171875,-0.1397634893655777,0.06142314523458481,-0.22044847905635834
1789761535862154500,4.536154541015625,-0.05789685621857643,-0.12175839394330978,-0.09321463108062744
1789761535872202500,4.546202392578125,-0.1634962558746338,-0.14516331255435944,0.10384490340948105
1789761535882250500,4.55625048828125,-0.278994619846344,0.04135249927639961,0.04294959828257561
1789761535892298500,4.566298583984375,-0.30603981018066406,0.06611403822898865,0.09671668708324432
1789761535902347300,4.57634716796875,-0.25177446007728577,-0.0993761196732521,-0.019769443199038506
1789761535912395500,4.5863955078125,-0.19959139823913574,-0.04135516285896301,-0.15654008090496063
1789761535922443300,4.596443359375,-0.26546522974967957,-0.05596952512860298,-0.0526895746588707
1789761535932491500,4.606491455078125,-0.30837300419807434,-0.03370895981788635,-0.2976876199245453
1789761535942539500,4.61653955078125,-0.28736627101898193,0.025474999099969864,-0.0062914518639445305
1789761535952588300,4.62658837890625,-0.33437904715538025,-0.005703425966203213,0.24517486989498138
1789761535962636500,4.636636474609375,-0.3392523527145386,-0.28328442573547363,0.3001382648944855
1789761535972684300,4.646684326171875,-0.23696701228618622,-0.2165893018245697,0.20727995038032532
1789761535982732500,4.656732666015625,-0.24896907806396484,-0.0965140238404274,-0.10792087763547897
1789761535992780500,4.666780517578125,-0.4057413637638092,-0.04414748772978783,-0.5087109208106995
1789761536002829300,4.676829345703125,-0.46249333024024963,-0.06668874621391296,-0.29757416248321533
1789761536012877600,4.686877685546875,-0.3582143485546112,-0.1487005203962326,0.06328629702329636
1789761536022925300,4.69692529296875,-0.3323201537132263,-0.17464584112167358,0.4353852868080139
1789761536032973600,4.7069736328125,-0.439410924911499,-0.24311305582523346,0.3951212167739868
1789761536043021600,4.717021484375,-0.44241470098495483,-0.3182046115398407,-0.02273567207157612
1789761536053070600,4.727070556640625,-0.344443142414093,-0.26229020953178406,-0.40420979261398315
1789761536063118300,4.737118408203125,-0.34104520082473755,-0.2257889211177826,-0.4148065149784088
1789761536073166300,4.747166259765625,-0.37023797631263733,-0.2759777903556824,-0.2270057201385498
1789761536083214600,4.757214599609375,-0.37440741062164307,-0.20921820402145386,0.22955356538295746
1789761536093262300,4.767262451171875,-0.4004549980163574,-0.12895451486110687,0.4623197019100189
1789761536103311600,4.7773115234375,-0.40922293066978455,-0.07026617228984833,0.32481616735458374
1789761536113359400,4.787359375,-0.3771773874759674,-0.09797023981809616,-0.10991930961608887
1789761536123407400,4.797407470703125,-0.3302444815635681,-0.14068813621997833,-0.2686581015586853
1789761536133455600,4.80745556640625,-0.2516207695007324,-0.12259968370199203,-0.41142135858535767
1789761536143503400,4.81750341796875,-0.22033476829528809,-0.1869693547487259,-0.22486986219882965
1789761536153552600,4.827552734375,-0.20947200059890747,-0.2654958665370941,0.25498995184898376
1789761536163600400,4.837600341796875,-0.15167154371738434,-0.2713755667209625,0.3735232651233673
1789761536173648400,4.8476484375,-0.11810373514890671,-0.1076044887304306,0.18924155831336975
1789761536183696400,4.8576962890625,-0.12617231905460358,-0.0541527159512043,-0.17447540163993835
1789761536193744400,4.867744384765625,-0.06229906156659126,-0.13732323050498962,-0.3809409439563751
1789761536203793400,4.87779345703125,0.09109342098236084,-0.18647480010986328,-0.24170903861522675
1789761536213841400,4.88784130859375,0.16374605894088745,-0.1573518067598343,0.1140701100230217
1789761536223889400,4.897889404296875,0.1205461248755455,-0.17248548567295074,0.40408116579055786
1789761536233937400,4.9079375,0.11368848383426666,0.003052248852327466,0.2635496258735657
1789761536243985400,4.9179853515625,0.14425677061080933,0.1363069713115692,-0.17433345317840576
1789761536254033400,4.928033447265625,0.11987527459859848,0.11321870237588882,-0.22617214918136597
1789761536264082400,4.93808251953125,0.19406934082508087,0.04108884558081627,-0.2142300009727478
1789761536274130400,4.94813037109375,0.3440026342868805,-0.10284062474966049,-0.05896877869963646
1789761536284178400,4.958178466796875,0.35557353496551514,-0.12636353075504303,0.08682890236377716
1789761536294226400,4.968226318359375,0.18639464676380157,0.17819423973560333,0.16995655000209808
1789761536304274400,4.9782744140625,0.0325118713080883,0.35968121886253357,0.1356089562177658
1789761536314323500,4.988323486328125,0.10106270015239716,0.2960953116416931,-0.019294869154691696
1789761536324371500,4.998371337890625,0.2981739044189453,0.059484899044036865,-0.18673978745937347
1789761536334419500,5.00841943359375,0.3875027298927307,-0.21280068159103394,-0.051725246012210846
1789761536344467000,5.018467041015625,0.3106667995452881,-0.14026549458503723,0.07527105510234833
1789761536354515200,5.02851513671875,0.18102064728736877,0.09366896748542786,0.19121922552585602
1789761536364564000,5.03856396484375,0.09032723307609558,0.19854824244976044,0.2377007007598877
1789761536374612000,5.048612060546875,0.11226955056190491,0.13157081604003906,0.050934553146362305
1789761536384660000,5.058659912109375,0.23300449550151825,0.01341673918068409,-0.46100595593452454
1789761536394708000,5.0687080078125,0.29367583990097046,-0.22424055635929108,-0.15171122550964355
1789761536404756000,5.078755859375,0.2542288303375244,-0.07871291786432266,0.14844699203968048
1789761536414805000,5.088804931640625,0.15441247820854187,0.08462966978549957,0.2166079431772232
1789761536424853000,5.09885302734375,0.07056551426649094,0.046613309532403946,0.3174850046634674
1789761536434901000,5.10890087890625,0.1306794434785843,0.08852773159742355,-0.11363601684570312
1789761536444949000,5.118948974609375,0.18528038263320923,0.1150813177227974,-0.28381040692329407
1789761536454997000,5.1289970703125,0.1350741982460022,0.024835042655467987,0.03394997864961624
1789761536465046000,5.1390458984375,0.14908349514007568,0.1368212252855301,0.044185835868120193
1789761536475094000,5.149093994140625,0.15411287546157837,0.12566284835338593,0.2719486951828003
1789761536485142000,5.15914208984375,0.16058434545993805,0.014039119705557823,-0.04851081222295761
1789761536495190000,5.16918994140625,0.2066842019557953,0.11840973049402237,-0.3887232542037964
1789761536505238000,5.179238037109375,0.1430351883172989,0.13178732991218567,-0.14303039014339447
1789761536515287000,5.189287109375,0.13643081486225128,0.01890125311911106,0.0918383076786995
1789761536525335000,5.1993349609375,0.2328425645828247,0.04037831723690033,0.5364639759063721
1789761536535383000,5.209383056640625,0.2421623021364212,0.017830396071076393,0.27113163471221924
1789761536545430800,5.2194306640625,0.19812241196632385,0.01679735630750656,-0.20736810564994812
1789761536555479000,5.22947900390625,0.155355766415596,0.20349186658859253,-0.4284227192401886
1789761536565527000,5.239527099609375,0.15579625964164734,0.18757815659046173,-0.1798696368932724
1789761536575576000,5.249576171875,0.23845703899860382,-0.049745719879865646,0.30312100052833557
1789761536585624000,5.2596240234375,0.34384578466415405,-0.023185214027762413,0.5158452391624451
1789761536595672000,5.269672119140625,0.2966769337654114,0.10153514891862869,0.24544864892959595
1789761536605720000,5.279719970703125,0.19092415273189545,0.1981932520866394,-0.26668867468833923
1789761536615768000,5.28976806640625,0.20850206911563873,0.2288651317358017,-0.49341076612472534
1789761536625817000,5.299817138671875,0.29238685965538025,0.08510424196720123,-0.15898112952709198
1789761536635865000,5.309864990234375,0.318330317735672,0.024716531857848167,0.15383243560791016
1789761536645913000,5.3199130859375,0.19942495226860046,0.18941280245780945,0.6040731072425842
1789761536655961000,5.329961181640625,0.08161710202693939,0.2350548505783081,0.4485551416873932
1789761536666008800,5.3400087890625,0.1152147427201271,0.3083786070346832,-0.02737276814877987
1789761536676058000,5.35005810546875,0.12013652920722961,0.35768648982048035,-0.4274679720401764
1789761536686105900,5.36010595703125,0.08020615577697754,0.09218505769968033,-0.4109385311603546
1789761536696154000,5.370154052734375,0.17946510016918182,0.007121825125068426,-0.06692817062139511
1789761536706202000,5.3802021484375,0.1903446465730667,0.055322110652923584,0.4677871763706207
1789761536716249900,5.390249755859375,0.007220095954835415,0.1431177407503128,0.3249583840370178
1789761536726299100,5.400299072265625,-0.09033709019422531,0.2968338131904602,-0.002031459240242839
1789761536736347000,5.410346923828125,-0.017018664628267288,0.22701530158519745,-0.2726384401321411
1789761536746395100,5.42039501953125,0.07154395431280136,-0.025168469175696373,-0.3473963141441345
1789761536756443100,5.430443115234375,0.03923927992582321,-0.015461248345673084,-0.04880855232477188
1789761536766491000,5.440490966796875,-0.14476357400417328,0.1032709926366806,0.40602925419807434
1789761536776540200,5.4505400390625,-0.28605544567108154,0.15380793809890747,0.44038882851600647
1789761536786588000,5.460587890625,-0.2604867219924927,0.1253587156534195,0.06643760949373245
1789761536796636200,5.47063623046875,-0.203883096575737,-0.022776685655117035,-0.48258262872695923
1789761536806684000,5.480683837890625,-0.1658315807580948,-0.3388720750808716,-0.3745349943637848
1789761536816732000,5.49073193359375,-0.11163332313299179,-0.24981355667114258,-0.16238464415073395
1789761536826780200,5.5007802734375,-0.23378638923168182,-0.05568163841962814,0.24181795120239258
1789761536836829000,5.510828857421875,-0.42970797419548035,0.008795355446636677,0.3784697949886322
1789761536846877200,5.520877197265625,-0.39392226934432983,0.0741029903292656,0.31376752257347107
1789761536856925000,5.530925048828125,-0.23788286745548248,-0.06889544427394867,-0.2387808859348297
1789761536866973000,5.540972900390625,-0.2218591570854187,-0.265503853559494,-0.5349938869476318
1789761536877021200,5.551021240234375,-0.3045348525047302,-0.21876110136508942,-0.2998540997505188
1789761536887070000,5.561070068359375,-0.4197711646556854,-0.09479335695505142,0.19915437698364258
1789761536897118200,5.5711181640625,-0.518012523651123,-0.013313940726220608,0.23823334276676178
1789761536907166000,5.581166015625,-0.5079780220985413,-0.015912920236587524,0.16420625150203705
1789761536917214000,5.5912138671875,-0.3942756652832031,-0.15988926589488983,-0.06041860207915306
1789761536927262000,5.601261962890625,-0.29487717151641846,-0.2637224495410919,-0.25634390115737915
1789761536937311000,5.61131103515625,-0.2764755189418793,-0.25530606508255005,-0.18762288987636566
1789761536947359000,5.62135888671875,-0.27900686860084534,-0.23968343436717987,0.1812182515859604
1789761536957407000,5.631406982421875,-0.3119722604751587,-0.10782233625650406,0.36248791217803955
1789761536967455000,5.641455078125,-0.35554665327072144,-0.03217817470431328,0.030236998572945595
1789761536977503000,5.6515029296875,-0.29921412467956543,-0.08279021829366684,-0.26854944229125977
1789761536987552000,5.661552001953125,-0.15465082228183746,-0.0913887694478035,-0.4260471761226654
1789761536997600000,5.67160009765625,-0.08378304541110992,-0.1401136964559555,-0.31117066740989685
1789761537007648000,5.68164794921875,-0.10397886484861374,-0.22811998426914215,0.25866538286209106
1789761537017696000,5.691696044921875,-0.11293826997280121,-0.07839973270893097,0.5118193626403809
1789761537027744000,5.701743896484375,-0.062254853546619415,-0.12506231665611267,0.10510857403278351
1789761537037792000,5.7117919921875,-0.0018663433147594333,-0.15037405490875244,-0.030893467366695404
1789761537047841000,5.721841064453125,0.03981665521860123,-0.09793055802583694,-0.36575934290885925
1789761537057889000,5.731888916015625,0.024748489260673523,-0.07027948647737503,-0.24173672497272491
1789761537067937000,5.74193701171875,0.06980384886264801,-0.1187727227807045,0.05860605463385582
1789761537077985000,5.751985107421875,0.1998731642961502,-0.1293284296989441,-0.1424570083618164
1789761537088033000,5.762032958984375,0.14088654518127441,0.0396755076944828,0.08508560061454773
1789761537098082000,5.77208203125,-0.024267256259918213,0.05114760622382164,0.2431708425283432
1789761537108130000,5.782130126953125,0.046534743160009384,-0.07534614950418472,0.06818384677171707
1789761537118178000,5.792177978515625,0.18778720498085022,-0.040893103927373886,0.21936537325382233
1789761537128226000,5.80222607421875,0.11683980375528336,-0.08487866818904877,-0.08625099807977676
1789761537138274000,5.812274169921875,-0.04139617457985878,-0.07187605649232864,-0.203064426779747
1789761537148323000,5.822322998046875,-0.04055967554450035,-0.02400067448616028,0.10268297046422958
1789761537158371000,5.83237109375,0.023085877299308777,-0.1548849195241928,0.21947136521339417
1789761537168419000,5.842419189453125,-0.056252621114254,-0.10998482257127762,0.21697598695755005
1789761537178467000,5.852467041015625,-0.187800794839859,-0.05433247983455658,0.18884341418743134
1789761537188515000,5.86251513671875,-0.12461064010858536,-0.13529203832149506,-0.49568191170692444
1789761537198564000,5.872564208984375,-0.01600240170955658,-0.13038331270217896,-0.6717216372489929
1789761537208611800,5.88261181640625,-0.07949722558259964,-0.26239272952079773,-0.22693301737308502
1789761537218660000,5.89266015625,-0.2264387309551239,-0.2902888059616089,0.28976285457611084
1789761537228708000,5.9027080078125,-0.28167828917503357,-0.026327744126319885,0.4475679099559784
1789761537238755800,5.912755859375,-0.2834538221359253,-0.0904201790690422,0.42526155710220337
1789761537248804000,5.92280419921875,-0.27219823002815247,-0.26726818084716797,-0.13073085248470306
1789761537258852900,5.932852783203125,-0.24498578906059265,-0.3824685513973236,-0.5648143887519836
1789761537268901000,5.942901123046875,-0.18511205911636353,-0.3966629207134247,-0.3547109365463257
1789761537278949000,5.95294921875,-0.2046426236629486,-0.25308525562286377,0.09835506230592728
1789761537288996900,5.962996826171875,-0.3264803886413574,-0.08575218915939331,0.3294660449028015
1789761537299045000,5.973045166015625,-0.2905506193637848,-0.20578725636005402,0.3178512156009674
1789761537309094000,5.983093994140625,-0.05963030830025673,-0.19006527960300446,-0.13074176013469696
1789761537319142100,5.99314208984375,0.01004837267100811,-0.20340745151042938,-0.27256494760513306
1789761537329190000,6.00318994140625,-0.011812184937298298,-0.22344587743282318,-0.27208957076072693
1789761537339238000,6.01323779296875,0.13798263669013977,-0.1841924786567688,0.00905874278396368
1789761537349286400,6.023286376953125,0.25822436809539795,-0.023677099496126175,0.36179494857788086
1789761537359335400,6.03333544921875,0.19007407128810883,0.005087436642497778,0.27865374088287354
1789761537369383400,6.043383544921875,0.1794286072254181,0.17679262161254883,0.10668889433145523
1789761537379431200,6.05343115234375,0.31673160195350647,0.30366188287734985,-0.04230378195643425
1789761537389479400,6.0634794921875,0.4201139211654663,0.06279680877923965,-0.1563856154680252
1789761537399527400,6.07352734375,0.490894615650177,-0.06854178011417389,-0.2567220628261566
1789761537409575200,6.0835751953125,0.5319973230361938,0.0376640222966671,-0.1585712730884552
1789761537419624400,6.09362451171875,0.5334990620613098,-0.05226986110210419,-0.09377443045377731
1789761537429672200,6.103672119140625,0.46280571818351746,0.058703791350126266,0.3061058521270752
1789761537439720400,6.113720458984375,0.312956839799881,0.35760048031806946,0.34494540095329285
1789761537449768200,6.123768310546875,0.28341758251190186,0.2410949021577835,0.19675007462501526
1789761537459816200,6.133816162109375,0.5146950483322144,0.00815220270305872,0.00788508728146553
1789761537469865200,6.143865234375,0.6733413934707642,-0.03918442130088806,-0.07575548440217972
1789761537479913200,6.153913330078125,0.5062653422355652,0.06989306211471558,-0.08041388541460037
1789761537489961500,6.16396142578125,0.2850983142852783,0.30531197786331177,0.09475074708461761
1789761537500009200,6.17400927734375,0.2725846469402313,0.5067795515060425,0.03833487257361412
1789761537510057200,6.18405712890625,0.3067018687725067,0.18877284228801727,0.12462981045246124
1789761537520106200,6.194106201171875,0.3668794631958008,-0.015538479201495647,0.10836721956729889
1789761537530154200,6.204154296875,0.43221479654312134,0.05315669625997543,0.11878843605518341
1789761537540202500,6.214202392578125,0.3475204110145569,0.15038497745990753,-0.08273216336965561
1789761537550250200,6.224250244140625,0.1547994315624237,0.274589478969574,-0.10889159888029099
1789761537560298200,6.23429833984375,0.11059095710515976,0.2672173082828522,-0.10134845972061157
1789761537570347300,6.24434716796875,0.21973422169685364,0.10412560403347015,0.27329304814338684
1789761537580395300,6.254395263671875,0.3062547445297241,0.04813690111041069,0.34471502900123596
1789761537590443300,6.264443359375,0.20671802759170532,0.0005992112564854324,0.3334120512008667
1789761537600491300,6.2744912109375,0.12354110926389694,-0.01326653640717268,-0.06066787615418434
1789761537610539300,6.284539306640625,0.18765804171562195,0.1556846648454666,-0.496383935213089
1789761537620587300,6.294587158203125,0.19912907481193542,0.1778102070093155,-0.5063856840133667
1789761537630636300,6.30463623046875,0.08146663010120392,-0.006384928710758686,0.2488686740398407
1789761537640684300,6.314684326171875,0.08604966104030609,-0.031088942661881447,0.7277228832244873
1789761537650732300,6.324732177734375,0.19121763110160828,0.09034081548452377,0.6881259083747864
1789761537660780300,6.3347802734375,0.1781148761510849,0.12672758102416992,0.10359696298837662
1789761537670828300,6.344828369140625,0.14337021112442017,0.10135644674301147,-0.8262507915496826
1789761537680877300,6.354877197265625,0.19615432620048523,0.11576228588819504,-0.8281450867652893
1789761537690925300,6.36492529296875,0.24285338819026947,0.09163804352283478,-0.06588687002658844
1789761537700973300,6.374973388671875,0.1836116462945938,0.17936070263385773,0.7464196085929871
1789761537711021300,6.385021240234375,0.16701188683509827,0.20680324733257294,0.9365871548652649
1789761537721069300,6.3950693359375,0.20529749989509583,0.306674987077713,0.452861487865448
1789761537731117300,6.405117431640625,0.2647927701473236,0.2865971326828003,-0.5780252814292908
1789761537741166300,6.415166259765625,0.28399336338043213,0.19914932548999786,-0.8144668340682983
1789761537751214300,6.42521435546875,0.30642250180244446,0.23924347758293152,-0.44927555322647095
1789761537761262300,6.435262451171875,0.2759551405906677,0.2778521180152893,0.2650063633918762
1789761537771310300,6.445310302734375,0.22006285190582275,0.19203601777553558,0.8531114459037781
1789761537781358300,6.4553583984375,0.21079719066619873,0.286842942237854,0.6644712090492249
1789761537791407400,6.465407470703125,0.23935826122760773,0.27931952476501465,-0.14945660531520844
1789761537801455400,6.475455322265625,0.23880937695503235,0.16271434724330902,-0.6271110773086548
1789761537811503400,6.48550341796875,0.23952125012874603,0.19700254499912262,-0.6250015497207642
1789761537821551400,6.49555126953125,0.19312311708927155,0.21707452833652496,0.0837460309267044
1789761537831599400,6.505599365234375,0.1578064113855362,0.21953634917736053,0.617904782295227
1789761537841648400,6.5156484375,0.14032168686389923,0.2292981743812561,0.571054995059967
1789761537851696000,6.525696044921875,0.11113104969263077,0.12486790120601654,0.0563327819108963
1789761537861744400,6.535744384765625,0.04254532977938652,0.14599502086639404,-0.16385790705680847
1789761537871792400,6.54579248046875,-0.011107778176665306,0.21450164914131165,-0.35315433144569397
1789761537881840000,6.555840087890625,-0.04922746866941452,0.12089845538139343,-0.13786625862121582
1789761537891888400,6.565888427734375,-0.04423750191926956,-0.05240248888731003,0.0027276095934212208
1789761537901937200,6.575937255859375,-0.12378585338592529,-0.005587844643741846,0.39157310128211975
1789761537911985400,6.5859853515625,-0.2328561544418335,0.12186651676893234,0.292217493057251
1789761537922033400,6.596033447265625,-0.25786617398262024,0.06591110676527023,0.08494258671998978
1789761537932081200,6.6060810546875,-0.1872396618127823,-0.033258888870477676,-0.35463133454322815
1789761537942129400,6.61612939453125,-0.11124050617218018,-0.18723353743553162,-0.3955390751361847
1789761537952178200,6.62617822265625,-0.14567624032497406,-0.15048804879188538,-0.034572090953588486
1789761537962226400,6.636226318359375,-0.30318278074264526,0.048525191843509674,0.5225270986557007
1789761537972274200,6.646274169921875,-0.38908863067626953,0.23561811447143555,0.3724771738052368
1789761537982322200,6.656322265625,-0.3303385078907013,0.17308469116687775,0.05468854680657387
1789761537992370400,6.666370361328125,-0.22339420020580292,0.01702345907688141,-0.43999069929122925
1789761538002418200,6.676418212890625,-0.20099729299545288,-0.021203821524977684,-0.41484832763671875
1789761538012467500,6.686467529296875,-0.26751479506492615,0.007769772317260504,-0.15938113629817963
1789761538022515200,6.69651513671875,-0.3840848207473755,0.053038716316223145,0.48725274205207825
1789761538032563200,6.706563232421875,-0.3975183367729187,0.06991676986217499,0.4285430908203125
1789761538042611500,6.716611572265625,-0.34033307433128357,0.10859518498182297,-0.09479229152202606
1789761538052659200,6.7266591796875,-0.35689181089401245,0.03456410393118858,-0.3278234004974365
1789761538062708500,6.73670849609375,-0.3650389611721039,-0.04722290486097336,-0.2301703542470932
1789761538072756200,6.746756103515625,-0.2858157753944397,-0.16950194537639618,-0.2347176969051361
1789761538082804200,6.75680419921875,-0.2717819809913635,-0.22419634461402893,-0.10503827035427094
1789761538092852500,6.7668525390625,-0.3776852488517761,-0.1748351901769638,0.17531350255012512
1789761538102900200,6.776900146484375,-0.43949827551841736,-0.13931848108768463,0.20219197869300842
1789761538112949200,6.78694921875,-0.34444713592529297,-0.16719724237918854,0.1811748445034027
1789761538122997200,6.796997314453125,-0.18699172139167786,-0.32214421033859253,0.09991594403982162
1789761538133045200,6.807045166015625,-0.12641572952270508,-0.3951672911643982,-0.32961970567703247
1789761538143093200,6.81709326171875,-0.1503615379333496,-0.38865506649017334,-0.624034583568573
1789761538153141200,6.827141357421875,-0.19926810264587402,-0.18275943398475647,-0.09408441931009293
1789761538163189500,6.837189453125,-0.23805570602416992,0.07093409448862076,0.607225239276886
1789761538173238300,6.84723828125,-0.1783396452665329,-0.0029880667570978403,0.7562522292137146
1789761538183286300,6.857286376953125,0.09552013128995895,-0.3048374056816101,0.1293870210647583
1789761538193334300,6.867334228515625,0.29986074566841125,-0.30150526762008667,-0.2397071272134781
1789761538203382300,6.87738232421875,0.2515249252319336,-0.22540755569934845,-0.47686776518821716
1789761538213430500,6.887430419921875,0.1707107573747635,-0.1203775405883789,-0.271707147359848
1789761538223479300,6.897479248046875,0.1446399986743927,0.34783145785331726,0.38108396530151367
1789761538233527300,6.90752734375,0.03327859565615654,0.7315173745155334,0.592806875705719
1789761538243575300,6.9175751953125,0.06973300874233246,0.31024813652038574,0.10043659061193466
1789761538253623300,6.927623291015625,0.4173881709575653,-0.20840859413146973,-0.29888176918029785
1789761538263671300,6.93767138671875,0.576883852481842,-0.2014995664358139,-0.45188888907432556
1789761538273719300,6.94771923828125,0.20871566236019135,0.0057561565190553665,-0.11342589557170868
1789761538283768300,6.957768310546875,-0.17777186632156372,0.38725849986076355,0.20482291281223297
1789761538293816300,6.96781640625,-0.11368662118911743,0.3872523903846741,0.28366339206695557
1789761538303864300,6.9778642578125,0.22896075248718262,-0.07197645306587219,0.127690851688385
1789761538313912300,6.987912353515625,0.3773882985115051,-0.3441736102104187,-0.07225475460290909
1789761538323960300,6.997960205078125,0.2120523303747177,-0.26128512620925903,-0.18854114413261414
1789761538334009300,7.00800927734375,0.042387403547763824,0.04343056306242943,-0.0631355568766594
1789761538344057300,7.018057373046875,0.007647267077118158,0.25956952571868896,0.10782047361135483
1789761538354105300,7.028105224609375,-0.05544275417923927,0.2899961471557617,0.18840959668159485
1789761538364153000,7.038153076171875,-0.1268540918827057,0.08235079795122147,0.14883501827716827
1789761538374201000,7.048201171875,-0.010668356902897358,-0.06311371922492981,-0.09535980969667435
1789761538384249000,7.0582490234375,0.12054212391376495,-0.22346504032611847,-0.13619032502174377
1789761538394298000,7.068298095703125,0.017421601340174675,-0.15020841360092163,-0.058586880564689636
1789761538404346000,7.07834619140625,-0.20945921540260315,0.1511511653661728,0.0004652542411349714
1789761538414394000,7.08839404296875,-0.27787449955940247,0.18210189044475555,0.28067082166671753
1789761538424442000,7.098442138671875,-0.13210956752300262,0.13637515902519226,0.2114027887582779
1789761538434490000,7.108489990234375,0.010716560296714306,-0.12121297419071198,-0.3796863555908203
1789761538444538000,7.1185380859375,-0.019817113876342773,-0.2068205624818802,-0.32916536927223206
1789761538454587100,7.128587158203125,-0.09733480960130692,-0.04031066969037056,-0.1159210130572319
1789761538464635100,7.13863525390625,-0.17926588654518127,0.14021463692188263,0.1403890699148178
1789761538474683100,7.14868310546875,-0.2747015953063965,0.1635391265153885,0.4043983519077301
1789761538484731100,7.158731201171875,-0.2003895491361618,0.01727725751698017,0.12151657789945602
1789761538494779100,7.168779052734375,0.020234964787960052,-0.06579525768756866,-0.4174017608165741
1789761538504828200,7.178828125,0.0668080598115921,-0.08256091922521591,-0.3573077917098999
1789761538514876200,7.188876220703125,-0.050397660583257675,-0.03237498551607132,0.039802275598049164
1789761538524924200,7.198924072265625,-0.08389889448881149,0.15088751912117004,0.3109852969646454
1789761538534972200,7.20897216796875,-0.050872236490249634,0.20819900929927826,0.24833817780017853
1789761538545020200,7.219020263671875,-0.039442747831344604,0.12678749859333038,0.11444482207298279
1789761538555068200,7.229068115234375,0.03381096199154854,0.0510309599339962,-0.14825071394443512
1789761538565117200,7.2391171875,0.16420678794384003,-0.019717512652277946,-0.05889181047677994
1789761538575165000,7.2491650390625,0.19829364120960236,0.038720231503248215,-0.05928729102015495
1789761538585213200,7.259213134765625,0.09089794754981995,0.17634068429470062,-0.08408798277378082
1789761538595261200,7.26926123046875,0.021811023354530334,0.2655227482318878,-0.006359096150845289
1789761538605309200,7.27930908203125,0.1316658854484558,0.17236724495887756,0.1007218137383461
1789761538615358200,7.289358154296875,0.3140799105167389,0.05468295142054558,0.044382110238075256
1789761538625406000,7.299406005859375,0.29395943880081177,-0.0018500980222597718,0.07644310593605042
1789761538635454200,7.3094541015625,0.18224917352199554,0.0014082795241847634,-0.020230170339345932
1789761538645502200,7.319502197265625,0.1614842265844345,0.31793108582496643,0.062696672976017
1789761538655550200,7.32955029296875,0.1539781093597412,0.3075319826602936,-0.011553059332072735
1789761538665598200,7.33959814453125,0.15612994134426117,0.10846123099327087,0.1770525425672531
1789761538675647000,7.34964697265625,0.25630101561546326,0.06347165256738663,0.08154945075511932
1789761538685695200,7.3596953125,0.32453280687332153,0.05248664319515228,-0.24661749601364136
1789761538695743000,7.369742919921875,0.15799815952777863,0.17593134939670563,-0.19802600145339966
1789761538705791200,7.379791259765625,-0.002694586291909218,0.18044701218605042,0.10882128775119781
1789761538715839200,7.389839111328125,0.039555929601192474,0.16701029241085052,0.63427734375
1789761538725888300,7.39988818359375,0.18491658568382263,0.0936007872223854,0.38491013646125793
1789761538735936300,7.409936279296875,0.14770664274692535,0.0856001228094101,0.1356198787689209
1789761538745984000,7.41998388671875,0.07202359288930893,0.1612866222858429,-0.5690639615058899
1789761538756032300,7.4300322265625,0.07122038304805756,0.216305673122406,-0.6384305357933044
1789761538766080300,7.440080322265625,0.07544229179620743,0.14967603981494904,-0.2596752345561981
1789761538776128000,7.4501279296875,-0.022126873955130577,0.08381900191307068,0.6632086038589478
1789761538786177300,7.46017724609375,-0.11094356328248978,0.1830984503030777,0.8034448027610779
1789761538796225000,7.47022509765625,-0.08862867206335068,0.28499656915664673,0.2557627856731415
1789761538806273300,7.480273193359375,-0.07463961839675903,0.3078414499759674,-0.765334963798523
1789761538816321000,7.490321044921875,-0.14728319644927979,0.23593769967556,-0.9361591935157776
1789761538826369000,7.500369140625,-0.19979700446128845,0.18020199239253998,-0.22786273062229156
1789761538836418000,7.51041796875,-0.18695764243602753,0.12709003686904907,0.464216947555542
1789761538846466000,7.520466064453125,-0.2014998197555542,-0.0009299758239649236,0.6864465475082397
1789761538856514300,7.530514404296875,-0.3031066060066223,-0.009794839657843113,0.35708194971084595
1789761538866562000,7.54056201171875,-0.3707892596721649,-0.006136988289654255,-0.22318248450756073
1789761538876610000,7.550610107421875,-0.3939654231071472,0.06083378940820694,-0.11372603476047516
1789761538886658300,7.560658203125,-0.3840523362159729,-0.03219921514391899,-0.0935821458697319
1789761538896707000,7.57070703125,-0.3394917845726013,-0.19474898278713226,-0.19745048880577087
1789761538906755300,7.58075537109375,-0.3735429644584656,-0.04321538284420967,-0.23929940164089203
1789761538916803000,7.590802978515625,-0.5172588229179382,-0.04568546265363693,-0.09824773669242859
1789761538926851000,7.60085107421875,-0.5542999505996704,-0.08571384102106094,0.12476110458374023
1789761538936899000,7.610899169921875,-0.452676385641098,-0.16293539106845856,0.26287931203842163
1789761538946948000,7.620947998046875,-0.45736995339393616,-0.21745482087135315,0.04542740434408188
1789761538956996000,7.63099609375,-0.5173459649085999,-0.2093537598848343,-0.4485388994216919
1789761538967044000,7.641044189453125,-0.5327584743499756,-0.08826914429664612,-0.475240558385849
1789761538977092000,7.651092041015625,-0.5110870003700256,-0.18288485705852509,-0.039091743528842926
1789761538987140000,7.66114013671875,-0.480355441570282,-0.24784894287586212,0.3131544589996338
1789761538997188000,7.67118798828125,-0.44730478525161743,-0.37807005643844604,0.3409261703491211
1789761539007237000,7.681237060546875,-0.4121231138706207,-0.40492191910743713,0.06933166831731796
1789761539017285000,7.69128515625,-0.39172008633613586,-0.3156493008136749,-0.27928969264030457
1789761539027333000,7.7013330078125,-0.4261544942855835,-0.20170249044895172,-0.23710016906261444
1789761539037381000,7.711381103515625,-0.3994517922401428,-0.2843875288963318,-0.08647257089614868
1789761539047429000,7.72142919921875,-0.32256871461868286,-0.28081461787223816,0.08732904493808746
1789761539057477000,7.73147705078125,-0.28440508246421814,-0.30519959330558777,-0.15565350651741028
1789761539067526100,7.741526123046875,-0.29705750942230225,-0.29931533336639404,-0.011034009046852589
1789761539077574100,7.75157421875,-0.29512378573417664,-0.12607431411743164,0.19826941192150116
1789761539087622100,7.7616220703125,-0.2641221880912781,-0.10754963010549545,0.2044154554605484
1789761539097670100,7.771670166015625,-0.19505497813224792,-0.2564821243286133,0.12229475378990173
1789761539107718100,7.78171826171875,-0.08413191884756088,-0.2927311956882477,-0.11849682033061981
1789761539117767200,7.79176708984375,-0.058095525950193405,-0.12396029382944107,-0.4272967278957367
1789761539127815200,7.801815185546875,-0.17000502347946167,-0.07953823357820511,-0.05879594013094902
1789761539137863200,7.81186328125,-0.12035224586725235,-0.08363550901412964,0.1109563484787941
1789761539147911200,7.8219111328125,0.04892786219716072,-0.20794600248336792,0.3563826084136963
1789761539157959200,7.831959228515625,0.10014045238494873,-0.25871703028678894,0.10095564275979996
1789761539168007200,7.842007080078125,0.10561563819646835,-0.2623668909072876,-0.28328365087509155
1789761539178056200,7.85205615234375,0.10915844142436981,-0.05240834504365921,-0.25514495372772217
1789761539188104200,7.862104248046875,0.13352610170841217,-0.18333041667938232,-0.09115894138813019
1789761539198152200,7.872152099609375,0.2129410356283188,-0.3424529433250427,0.046296391636133194
1789761539208200200,7.8822001953125,0.19860364496707916,-0.16169089078903198,0.21324357390403748
1789761539218248200,7.892248291015625,0.09148304164409637,-0.16865000128746033,0.05350317060947418
1789761539228296000,7.9022958984375,0.11520542204380035,0.013153619132936,-0.052613675594329834
1789761539238345200,7.91234521484375,0.12662239372730255,0.08132708072662354,0.029193837195634842
1789761539248393000,7.92239306640625,0.11610636860132217,-0.16822975873947144,0.11058403551578522
1789761539258441200,7.932441162109375,0.1839197725057602,-0.07785724848508835,0.15270672738552094
1789761539268489200,7.9424892578125,0.17342372238636017,-0.018923357129096985,0.06437632441520691
1789761539278537000,7.952536865234375,0.09988877922296524,-0.015725700184702873,-0.14954927563667297
1789761539288586200,7.962586181640625,0.17964085936546326,-0.1671578288078308,-0.2009248435497284
1789761539298634000,7.972634033203125,0.27587711811065674,-0.28141382336616516,0.08356067538261414
1789761539308682200,7.98268212890625,0.2698349356651306,-0.34374353289604187,0.19453299045562744
1789761539318730200,7.992730224609375,0.15631850063800812,-0.028901156038045883,0.27920475602149963
1789761539328778000,8.002778076171875,0.008747152984142303,0.2366040199995041,0.26921549439430237
1789761539338826200,8.012826171875,0.07421164959669113,0.14124873280525208,0.01895824447274208
1789761539348875500,8.02287548828125,0.32217270135879517,-0.01636672206223011,-0.4771255552768707
1789761539358923800,8.032923828125,0.3625108301639557,-0.1942664086818695,-0.3006703555583954
1789761539368971500,8.042971435546875,0.22716231644153595,-0.17986883223056793,0.03849546238780022
1789761539379019500,8.05301953125,0.14163409173488617,0.07470326870679855,0.37687191367149353
1789761539389067800,8.06306787109375,0.0807289332151413,0.18820346891880035,0.49390479922294617
1789761539399116500,8.073116455078125,0.08757831901311874,-0.019346266984939575,0.12565432488918304
1789761539409164500,8.08316455078125,0.20466792583465576,-0.039687223732471466,-0.536618173122406
1789761539419212500,8.093212646484375,0.21328511834144592,-0.03399445116519928,-0.24260199069976807
1789761539429260500,8.103260498046875,0.11844702064990997,0.04758722707629204,0.03555027022957802
1789761539439308500,8.11330859375,0.05536685138940811,0.19086343050003052,0.2513374090194702
1789761539449356500,8.1233564453125,0.040056873112916946,0.1179087907075882,0.3883727788925171
1789761539459405600,8.133405517578124,0.0952594056725502,-0.01709935814142227,0.14970719814300537
1789761539469453600,8.14345361328125,0.12253763526678085,0.10528115183115005,-0.2549681067466736
1789761539479501600,8.15350146484375,-0.07314158976078033,0.14781902730464935,-0.04737470671534538
1789761539489549600,8.163549560546874,-0.16500306129455566,0.16646941006183624,-0.24841700494289398
1789761539499597600,8.17359765625,-0.04115329682826996,0.1828979104757309,-0.3234182894229889
1789761539509645600,8.1836455078125,-0.026929885149002075,-0.01429132092744112,0.07257300615310669
1789761539519694600,8.193694580078125,-0.13967347145080566,-0.11345013231039047,0.5041478276252747
1789761539529742600,8.20374267578125,-0.1590610295534134,-0.03898654878139496,0.4237390160560608
1789761539539790600,8.21379052734375,-0.07652273774147034,-0.0707458108663559,0.2316950112581253
1789761539549838600,8.223838623046875,-0.0013512879377231002,-0.13024269044399261,-0.38644543290138245
1789761539559886300,8.23388623046875,0.016294283792376518,-0.20586341619491577,-0.4434581398963928
1789761539569934600,8.2439345703125,0.07276181876659393,-0.28830182552337646,0.1954086422920227
1789761539579983400,8.2539833984375,0.15160363912582397,-0.22456812858581543,0.29849642515182495
1789761539590031600,8.264031494140625,0.10875923931598663,-0.12523354589939117,-0.10781993716955185
1789761539600079600,8.27407958984375,0.000877511571161449,0.05271514132618904,-0.434037983417511
1789761539610127400,8.28412744140625,-0.05307094007730484,0.34180739521980286,-0.24472425878047943
1789761539620175600,8.294175537109375,0.023188676685094833,0.14732606709003448,0.23049339652061462
1789761539630224400,8.304224365234376,0.16158942878246307,-0.19420169293880463,0.37849190831184387
1789761539640272600,8.314272705078125,0.19238223135471344,-0.15115275979042053,0.21585187315940857
1789761539650320600,8.324320556640625,0.11816498637199402,0.034755051136016846,-0.12821389734745026
1789761539660368400,8.334368408203124,0.0768074318766594,0.11437956988811493,-0.3532531261444092
1789761539670416600,8.344416748046875,0.042158905416727066,0.26698777079582214,-0.12548229098320007
1789761539680464400,8.35446435546875,0.025563150644302368,0.04994252696633339,0.07339219003915787
1789761539690513700,8.364513671875,0.12891431152820587,-0.11129536479711533,0.2094099521636963
1789761539700561400,8.3745615234375,0.2589801549911499,-0.1494337022304535,0.11641182750463486
1789761539710609400,8.384609375,0.24446406960487366,-0.10765242576599121,0.045282259583473206
1789761539720657700,8.39465771484375,0.13885562121868134,0.07362601906061172,-0.11903078109025955
1789761539730705400,8.404705322265626,0.06350626796483994,0.11420620232820511,-0.07769905775785446
1789761539740753700,8.414753662109375,0.09091978520154953,0.18327447772026062,0.16136571764945984
1789761539750802400,8.424802490234375,0.11415719985961914,0.23665913939476013,0.05122723430395126
1789761539760850700,8.4348505859375,0.028793031349778175,0.18089468777179718,-0.14087456464767456
1789761539770898700,8.444898681640625,0.04416879266500473,0.06785228103399277,0.0812772810459137
1789761539780946400,8.454946533203126,0.13164778053760529,0.07005791366100311,0.1752045750617981
1789761539790994700,8.46499462890625,0.008166050538420677,0.11950722336769104,0.3337942063808441
1789761539801043500,8.47504345703125,-0.09201834350824356,0.10600659251213074,0.014284662902355194
1789761539811091700,8.485091796875,0.07423161715269089,-0.0057494984939694405,-0.457007497549057
1789761539821139500,8.495139404296875,0.16976960003376007,0.010906975716352463,-0.4131649434566498
1789761539831187500,8.5051875,0.03874339908361435,-0.09502797573804855,-0.09686768800020218
1789761539841235700,8.515235595703125,-0.06185431405901909,-0.025536518543958664,0.20717263221740723
1789761539851283500,8.525283447265625,-0.06991703063249588,0.12369557470083237,0.4085787236690521
1789761539861332700,8.535332763671875,-0.06538699567317963,0.10108426958322525,0.1305076777935028
1789761539871380500,8.54538037109375,-0.06958014518022537,0.05408027768135071,0.02502652443945408
1789761539881428500,8.555428466796876,-0.06087107211351395,-0.023374298587441444,-0.0007182545377872884
1789761539891476700,8.565476806640625,0.03433826565742493,-0.17158854007720947,-0.043847616761922836
1789761539901524500,8.5755244140625,0.097487673163414,-0.20833136141300201,-0.1756538450717926
1789761539911572500,8.585572509765624,-0.02365286462008953,-0.07845433056354523,-0.18622207641601562
1789761539921621500,8.59562158203125,-0.15421061217784882,0.02748701721429825,-0.1715770810842514
1789761539931669500,8.60566943359375,-0.1010507196187973,-0.02947586588561535,0.020734572783112526
1789761539941717500,8.615717529296875,0.019235214218497276,-0.1654941588640213,0.35780927538871765
1789761539951765500,8.625765625,0.05314444378018379,-0.23078873753547668,0.35066214203834534
1789761539961813500,8.6358134765625,-0.03358272835612297,-0.07710996270179749,0.03748692199587822
1789761539971861500,8.645861572265625,-0.10139825940132141,0.19388771057128906,-0.25365063548088074
1789761539981910500,8.65591064453125,-0.0560733899474144,0.13300839066505432,-0.38430532813072205
1789761539991958500,8.66595849609375,0.018630942329764366,0.013462012633681297,-0.16964203119277954
1789761540002006500,8.676006591796876,0.07279936969280243,-0.18281535804271698,0.41274896264076233
1789761540012054500,8.686054443359374,0.06558407098054886,-0.154478520154953,0.3879229724407196
1789761540022102500,8.6961025390625,-0.050997670739889145,0.0998070240020752,0.04850122332572937
1789761540032151600,8.706151611328124,-0.09825386852025986,0.19628402590751648,-0.29337090253829956
1789761540042199600,8.716199462890625,0.021642178297042847,0.09547059237957001,-0.34310171008110046
1789761540052247600,8.72624755859375,0.13418017327785492,0.015796273946762085,-0.19814477860927582
1789761540062295600,8.736295654296875,0.09561467170715332,-0.12912629544734955,0.39445462822914124
1789761540072343600,8.746343505859375,0.11603472381830215,-0.16239982843399048,0.4607124924659729
1789761540082391600,8.7563916015625,0.16384539008140564,0.03941424936056137,0.14869946241378784
1789761540092440600,8.766440673828125,0.055989764630794525,0.1104186549782753,-0.3092401325702667
1789761540102488600,8.776488525390626,-0.05528349429368973,0.06970477849245071,-0.39291107654571533
1789761540112536600,8.78653662109375,0.034449853003025055,0.10312771797180176,-0.2342660278081894
1789761540122584600,8.79658447265625,0.07582791894674301,0.04881041496992111,0.3996446132659912
1789761540132632600,8.806632568359374,-0.0009952232940122485,-0.0995689332485199,0.37027767300605774
1789761540142680600,8.8166806640625,0.015223427675664425,-0.13096094131469727,0.01315068919211626
1789761540152729600,8.8267294921875,0.09965521842241287,-0.06543359905481339,-0.20752842724323273
1789761540162777600,8.836777587890625,0.01040656864643097,0.004828311037272215,-0.22445040941238403
1789761540172825600,8.84682568359375,-0.16818927228450775,0.0862312912940979,-0.15364016592502594
1789761540182873600,8.85687353515625,-0.1309652030467987,-0.030953655019402504,0.2587370276451111
1789761540192921600,8.866921630859375,0.05848514661192894,-0.13846227526664734,0.33632636070251465
1789761540202969600,8.876969482421876,0.04217302054166794,-0.0622926689684391,-0.11130069196224213
1789761540213018600,8.8870185546875,-0.15310752391815186,-0.09291262924671173,-0.23002521693706512
1789761540223066600,8.897066650390625,-0.1387224644422531,-0.017133979126811028,-0.1452179104089737
1789761540233114400,8.9071142578125,-0.01278903242200613,0.029077457264065742,-0.08851282298564911
1789761540243162600,8.91716259765625,-0.08943773806095123,-0.1099424809217453,0.2420898675918579
1789761540253210600,8.927210693359376,-0.15309368073940277,-0.15892253816127777,0.3493228554725647
1789761540263258400,8.93725830078125,-0.03508075699210167,-0.08504538238048553,0.055512260645627975
1789761540273307600,8.9473076171875,-0.00875114742666483,-0.019273828715085983,-0.140244722366333
1789761540283355400,8.95735546875,-0.07388487458229065,-0.11925901472568512,-0.2590893507003784
1789761540293403600,8.967403564453125,-0.04162893444299698,-0.11190283298492432,-0.2954939603805542
1789761540303451600,8.97745166015625,0.028070516884326935,-0.021518075838685036,-0.04158606007695198
1789761540313499400,8.98749951171875,-0.0391191728413105,-0.03609089180827141,0.4950861632823944
1789761540323548700,8.997548583984376,-0.11378222703933716,-0.033785127103328705,0.5108704566955566
1789761540333596400,9.007596435546875,-0.027652665972709656,-0.07047203928232193,0.13811446726322174
1789761540343644700,9.017644775390625,0.10185525566339493,-0.08802546560764313,-0.5077263116836548
1789761540353692400,9.0276923828125,0.10523907095193863,-0.04490595683455467,-0.7072913646697998
1789761540363740200,9.037740234375,0.04186036437749863,-0.0714544728398323,-0.16769978404045105
1789761540373788400,9.047788330078125,0.06959372758865356,-0.08989659696817398,0.45044413208961487
1789761540383837200,9.057837158203125,0.14523789286613464,-0.07451231777667999,0.629723846912384
1789761540393885400,9.067885498046875,0.10562815517187119,-0.006148972548544407,0.36766085028648376
1789761540403933200,9.07793310546875,0.06833751499652863,-0.03133714944124222,-0.19038112461566925
1789761540413981200,9.087981201171875,0.12797926366329193,-0.025558089837431908,-0.259606271982193
1789761540424029400,9.098029541015626,0.21292053163051605,0.0007382282637991011,-0.3579975664615631
1789761540434077200,9.1080771484375,0.17586131393909454,-0.1014387384057045,-0.2492886483669281
1789761540444126500,9.11812646484375,0.115605428814888,0.05757274851202965,0.15647882223129272
1789761540454174200,9.12817431640625,0.1626911759376526,0.06999985873699188,0.36635029315948486
1789761540464222200,9.13822216796875,0.22256968915462494,0.05047436058521271,0.15262442827224731
1789761540474270500,9.1482705078125,0.1963503360748291,0.02020833268761635,0.2643008828163147
1789761540484318200,9.158318115234374,0.1974233239889145,0.0463256873190403,-0.18965062499046326
1789761540494366200,9.1683662109375,0.19427627325057983,0.1486712396144867,-0.23662851750850677
1789761540504415200,9.178415283203124,0.18159934878349304,0.16653811931610107,-0.1383512169122696
1789761540514463200,9.188463134765625,0.23564687371253967,0.04682076722383499,-0.047136884182691574
1789761540524511200,9.19851123046875,0.22441260516643524,0.13381852209568024,0.2247398942708969
1789761540534559200,9.208559326171875,0.17967015504837036,0.09215229749679565,0.2666894793510437
1789761540544607200,9.218607177734375,0.20811910927295685,-0.012539493851363659,-0.14927363395690918
1789761540554655200,9.2286552734375,0.22298355400562286,0.12298823893070221,-0.29704925417900085
1789761540564704300,9.238704345703125,0.17693856358528137,0.18577386438846588,-0.21534453332424164
1789761540574752300,9.248752197265626,0.17468871176242828,0.2024068981409073,-0.04121241718530655
1789761540584800300,9.25880029296875,0.16827715933322906,0.2621024549007416,0.43306222558021545
1789761540594848300,9.26884814453125,0.1455066055059433,0.1829857975244522,0.36205780506134033
1789761540604896300,9.278896240234374,0.17477473616600037,0.08782492578029633,0.02827531285583973
1789761540614944300,9.2889443359375,0.16773094236850739,0.20056931674480438,-0.35833126306533813
1789761540624993300,9.2989931640625,0.04864077270030975,0.2993297278881073,-0.4312185049057007
1789761540635041300,9.309041259765625,-0.01008113007992506,0.19404563307762146,-0.18356263637542725
1789761540645089000,9.319089111328125,0.05592558532953262,0.18681089580059052,0.36940228939056396
1789761540655137300,9.32913720703125,0.0847010388970375,0.11789121478796005,0.29745087027549744
1789761540665185300,9.339185302734375,0.01629534922540188,0.05212658271193504,0.10947615653276443
1789761540675234300,9.349234375,0.0018703379901126027,0.13373595476150513,-0.13809634745121002
1789761540685282300,9.3592822265625,0.06482027471065521,0.15128086507320404,-0.3595808148384094
1789761540695330300,9.369330322265625,0.07371176779270172,0.04507240280508995,-0.34044572710990906
1789761540705378300,9.37937841796875,-0.007185208611190319,0.07580368220806122,0.2722456455230713
1789761540715426300,9.38942626953125,-0.027699803933501244,0.11364693939685822,0.3753105103969574
1789761540725474300,9.399474365234376,0.001719603082165122,0.11405200511217117,0.11393295973539352
1789761540735523300,9.4095234375,-0.06782937794923782,0.33073797821998596,-0.2426568567752838
1789761540745571300,9.4195712890625,-0.19150258600711823,0.27488428354263306,-0.22022797167301178
1789761540755619300,9.429619384765624,-0.11009534448385239,0.09712202101945877,-0.08623208850622177
1789761540765667300,9.439667236328125,0.022951655089855194,0.06635957956314087,0.1403195559978485
1789761540775715300,9.44971533203125,-0.06646930426359177,-0.08004077523946762,0.28572070598602295
1789761540785763300,9.459763427734375,-0.17521975934505463,0.02701696939766407,0.16381555795669556
1789761540795812400,9.469812255859376,-0.19950911402702332,0.1826302707195282,0.000313986703986302
1789761540805860400,9.4798603515625,-0.20832177996635437,0.14873407781124115,0.10152875632047653
1789761540815908000,9.489908203125,-0.1516268104314804,-0.007170561235398054,0.11705365031957626
1789761540825956400,9.499956298828126,-0.10969001054763794,-0.032834380865097046,-0.08387439697980881
1789761540836004400,9.51000439453125,-0.1655263751745224,-0.007707720622420311,-0.2302478551864624
1789761540846052000,9.520052001953125,-0.19361846148967743,0.015514510683715343,-0.13488644361495972
1789761540856101400,9.530101318359375,-0.23112083971500397,0.09485647082328796,0.11202161014080048
1789761540866149000,9.540149169921875,-0.29625189304351807,0.15037885308265686,0.0627954751253128
1789761540876197400,9.550197265625,-0.3102651834487915,0.13783669471740723,0.18236607313156128
1789761540886245400,9.560245361328125,-0.2191251665353775,-0.015205051749944687,0.29290032386779785
1789761540896293000,9.570293212890626,-0.12696807086467743,-0.10922741889953613,0.15850043296813965
1789761540906341400,9.58034130859375,-0.16941805183887482,-0.0313456729054451,-0.17611324787139893
1789761540916390100,9.59039013671875,-0.31788501143455505,0.08091322332620621,-0.25958389043807983
1789761540926438400,9.6004384765625,-0.36970773339271545,0.19650720059871674,-0.3987590968608856
1789761540936486100,9.610486083984375,-0.34952178597450256,0.1512662172317505,-0.13611948490142822
1789761540946534100,9.6205341796875,-0.3028019368648529,-0.06636730581521988,0.24246616661548615
1789761540956582400,9.63058251953125,-0.2740326225757599,-0.12387187778949738,0.5717833638191223
1789761540966630100,9.640630126953125,-0.3022743761539459,-0.09727808088064194,0.13309121131896973
1789761540976679400,9.650679443359374,-0.3982515037059784,-0.03169028460979462,-0.35095643997192383
1789761540986727200,9.66072705078125,-0.42348548769950867,0.023022228851914406,-0.5316635966300964
1789761540996775200,9.670775146484376,-0.37352192401885986,-0.01518960576504469,-0.16137397289276123
1789761541006823400,9.680823486328125,-0.327337384223938,-0.22030679881572723,0.18213091790676117
1789761541016871200,9.69087109375,-0.32985273003578186,-0.3511612117290497,0.515241265296936
1789761541026919400,9.70091943359375,-0.37650492787361145,-0.1322653591632843,0.2666032016277313
1789761541036968200,9.71096826171875,-0.474572092294693,0.04037218913435936,-0.19436095654964447
1789761541047016400,9.721016357421876,-0.49537965655326843,-0.01889832317829132,-0.46247735619544983
1789761541057064200,9.731064208984375,-0.36398300528526306,-0.21481403708457947,-0.2672005295753479
1789761541067112200,9.7411123046875,-0.24796266853809357,-0.4165426194667816,-0.15674567222595215
1789761541077160400,9.751160400390624,-0.2957770526409149,-0.36560115218162537,0.0007661914569325745
1789761541087208200,9.761208251953125,-0.4137979745864868,-0.22538518905639648,0.03297898918390274
1789761541097257500,9.771257568359376,-0.475205659866333,-0.17658542096614838,0.3709532916545868
1789761541107305200,9.78130517578125,-0.4040803611278534,-0.11573352664709091,0.295055091381073
1789761541117353200,9.791353271484375,-0.3315294682979584,-0.10395009815692902,-0.08494045585393906
1789761541127401500,9.8014013671875,-0.31399282813072205,-0.24351093173027039,-0.5520527958869934
1789761541137449200,9.81144921875,-0.2549087107181549,-0.3132399320602417,-0.4409171938896179
1789761541147497200,9.821497314453126,-0.23384657502174377,-0.21784204244613647,0.0490461066365242
1789761541157546200,9.831546142578125,-0.3054267466068268,-0.33487918972969055,0.5678985714912415
1789761541167594200,9.84159423828125,-0.30183443427085876,-0.30448347330093384,0.5773789286613464
1789761541177642200,9.851642333984374,-0.18763141334056854,-0.2967222034931183,-0.21272584795951843
1789761541187690200,9.861690185546875,-0.1948363333940506,-0.31089475750923157,-0.5199252367019653
1789761541197738200,9.87173828125,-0.2229321449995041,-0.2169637382030487,-0.46409177780151367
1789761541207786200,9.8817861328125,-0.2450297325849533,-0.20144043862819672,0.14821423590183258
1789761541217835300,9.891835205078126,-0.22567972540855408,-0.22504404187202454,0.6208933591842651
1789761541227883300,9.90188330078125,-0.11816046386957169,-0.3024216592311859,0.2843976318836212
1789761541237931300,9.91193115234375,-0.035774242132902145,-0.29846179485321045,-0.41624221205711365
1789761541247979300,9.921979248046876,-0.06500216573476791,-0.18575388193130493,-0.38999250531196594
1789761541258027300,9.93202734375,-0.08243788778781891,-0.15906928479671478,-0.26422712206840515
1789761541268075300,9.9420751953125,-0.04310273006558418,-0.14511218667030334,0.2725079655647278
1789761541278124300,9.952124267578125,0.032286565750837326,-0.15488731861114502,0.36384427547454834
1789761541288172300,9.96217236328125,0.02719753235578537,-0.17732365429401398,0.11024181544780731
1789761541298220000,9.972219970703126,0.051230695098638535,-0.15094637870788574,-0.3710789978504181
1789761541308268300,9.982268310546875,0.17499791085720062,-0.23992525041103363,-0.25462910532951355
1789761541318316300,9.99231640625,0.22716684639453888,-0.28941822052001953,0.11102558672428131
1789761541328365300,10.002365234375,0.16202804446220398,-0.10349682718515396,0.1851149946451187
1789761541338413300,10.012413330078125,0.07741915434598923,0.018331069499254227,0.2227340042591095
1789761541348461600,10.022461669921874,0.15715020895004272,-0.019162775948643684,0.15403537452220917
1789761541358509600,10.032509521484375,0.39283597469329834,-0.2220088243484497,-0.1689317673444748
1789761541368557600,10.0425576171875,0.5020428895950317,-0.3081274628639221,-0.24938799440860748
1789761541378605600,10.05260546875,0.3729384243488312,-0.14523255825042725,-0.12895052134990692
1789761541388654600,10.062654541015625,0.2830761671066284,0.12467429041862488,0.06600058823823929
1789761541398702600,10.07270263671875,0.3048565685749054,0.21418605744838715,0.5549633502960205
1789761541408750600,10.08275048828125,0.4497098922729492,-0.00484429020434618,0.5395510792732239
1789761541418798300,10.09279833984375,0.6411155462265015,-0.1306573450565338,0.1720290184020996
1789761541428846600,10.1028466796875,0.6851658225059509,-0.09812603145837784,-0.5326037406921387
1789761541438894600,10.11289453125,0.5620433688163757,0.09828449040651321,-0.5311959981918335
1789761541448943600,10.122943603515624,0.5867641568183899,0.2157416194677353,-0.18514828383922577
1789761541458991600,10.13299169921875,0.6694481372833252,0.28002604842185974,0.32509127259254456
1789761541469039400,10.143039306640626,0.6339671015739441,0.2431764304637909,0.4472494125366211
1789761541479087600,10.153087646484375,0.6020581722259521,0.13949984312057495,0.5320079922676086
1789761541489135600,10.163135498046875,0.7633998990058899,0.11750718951225281,0.20044973492622375
1789761541499183400,10.173183349609374,0.7986394166946411,0.17918041348457336,0.16316735744476318
1789761541509232600,10.183232666015625,0.6666272878646851,0.13446353375911713,-0.14085538685321808
1789761541519280400,10.1932802734375,0.6370033621788025,0.24085122346878052,-0.38871392607688904
1789761541529328600,10.20332861328125,0.657805860042572,0.36514654755592346,-0.34207984805107117
1789761541539376400,10.21337646484375,0.5856640338897705,0.32628676295280457,0.07966712862253189
1789761541549424400,10.22342431640625,0.6078526377677917,0.10691739618778229,0.41535672545433044
1789761541559472600,10.23347265625,0.6601113677024841,0.20099781453609467,0.6533452868461609
1789761541569521400,10.243521484375,0.5445530414581299,0.31130167841911316,0.3881591856479645
1789761541579569700,10.253569580078125,0.44617775082588196,0.32537275552749634,-0.10464172065258026
1789761541589617400,10.263617431640625,0.4463987946510315,0.36676016449928284,-0.49393755197525024
1789761541599665400,10.27366552734375,0.434037983417511,0.38096892833709717,-0.3925882875919342
1789761541609713700,10.283713623046875,0.4059073030948639,0.24058730900287628,0.008207595907151699
1789761541619761400,10.293761474609376,0.36459046602249146,0.1634850651025772,0.43927642703056335
1789761541629810700,10.303810791015625,0.2950628101825714,0.2053861767053604,0.3957206904888153
1789761541639858400,10.3138583984375,0.1822827160358429,0.1979793906211853,0.17011287808418274
1789761541649906400,10.323906494140624,0.10607556998729706,0.3502408266067505,-0.26820269227027893
1789761541659954400,10.333954345703125,0.08353670686483383,0.3350818455219269,-0.4479663372039795
1789761541670002400,10.34400244140625,0.05589122697710991,0.18214796483516693,-0.09639231860637665
1789761541680050700,10.35405078125,0.06746692210435867,0.03940892592072487,0.24935762584209442
1789761541690099500,10.364099365234376,0.07467397302389145,-0.10595998913049698,0.4614187479019165
1789761541700147700,10.374147705078125,-0.0067878649570047855,-0.03346927836537361,0.45078209042549133
1789761541710195500,10.384195556640625,-0.1357266753911972,0.2091825157403946,0.08967875689268112
1789761541720243500,10.394243408203126,-0.27128636837005615,0.3267458975315094,-0.4173668622970581
1789761541730291700,10.404291748046875,-0.32951346039772034,0.21941304206848145,-0.610748827457428
1789761541740339500,10.41433935546875,-0.25620409846305847,0.07879041880369186,-0.2326849102973938
1789761541750387500,10.424387451171874,-0.25723713636398315,-0.10243342816829681,0.2781914174556732
1789761541760436500,10.4344365234375,-0.3941097557544708,-0.1890210509300232,0.3967939615249634
1789761541770484500,10.444484375,-0.5369630455970764,-0.007701063062995672,0.11110787838697433
1789761541780532500,10.454532470703125,-0.601172924041748,0.06910689920186996,-0.3956887423992157
1789761541790580500,10.46458056640625,-0.5739160180091858,-0.1324661672115326,-0.3826826512813568
1789761541800628500,10.47462841796875,-0.5064229965209961,-0.16936266422271729,-0.1046995148062706
1789761541810677500,10.484677490234375,-0.5354871153831482,-0.2561742663383484,0.3083791434764862
1789761541820725500,10.4947255859375,-0.5978895425796509,-0.22713088989257812,0.17605438828468323
1789761541830773500,10.5047734375,-0.6142423748970032,-0.10039771348237991,0.12316320836544037
1789761541840821500,10.514821533203126,-0.5499462485313416,-0.21431176364421844,-0.2752757668495178
1789761541850869500,10.524869384765625,-0.4578551650047302,-0.36722221970558167,-0.3128734827041626
1789761541860917500,10.53491748046875,-0.38632506132125854,-0.40794941782951355,-0.15790681540966034
1789761541870966500,10.544966552734374,-0.3981364667415619,-0.17776067554950714,0.20921872556209564
1789761541881014500,10.5550146484375,-0.43989720940589905,0.00016218650853261352,0.3210672438144684
1789761541891062500,10.5650625,-0.36227405071258545,0.03663284704089165,0.2178329974412918
1789761541901110500,10.575110595703125,-0.12373019754886627,-0.08220219612121582,-0.20452997088432312
1789761541911158500,10.585158447265625,0.03996792063117027,-0.11325438320636749,-0.5192911028862
1789761541921206500,10.59520654296875,-0.03227005526423454,0.011156780645251274,-0.20791804790496826
1789761541931254500,10.605254638671875,-0.060919277369976044,0.15324361622333527,0.2635866403579712
1789761541941303600,10.615303466796876,0.038121018558740616,0.18480686843395233,0.5512183904647827
1789761541951351300,10.625351318359375,0.08662863820791245,0.20145241916179657,0.3353889286518097
1789761541961399600,10.635399658203125,0.14982198178768158,0.09181487560272217,-0.0704059898853302
1789761541971447600,10.645447509765624,0.28846481442451477,0.14314810931682587,-0.5692477226257324
1789761541981495600,10.65549560546875,0.2912054657936096,0.17694468796253204,-0.3778029680252075
1789761541991543600,10.66554345703125,0.2184111624956131,0.16279050707817078,0.03292465955018997
1789761542001592300,10.67559228515625,0.17784243822097778,0.21706493198871613,0.4267007112503052
1789761542011640600,10.685640625,0.18253065645694733,0.15046140551567078,0.396712988615036
1789761542021688600,10.6956884765625,0.17333637177944183,0.08540517836809158,0.3285653591156006
1789761542031736600,10.705736572265625,0.18527717888355255,0.1209232285618782,-0.23473075032234192
1789761542041784600,10.71578466796875,0.19818206131458282,0.0020240023732185364,-0.4392586052417755
1789761542051832300,10.725832275390625,0.21834857761859894,-0.11896127462387085,-0.25575587153434753
1789761542061881600,10.735881591796876,0.17882513999938965,-0.03051796182990074,0.1513168215751648
1789761542071929300,10.745929443359374,0.05402808263897896,0.05483501777052879,0.6084113717079163
1789761542081977600,10.7559775390625,0.0013616742799058557,0.1263374388217926,0.5610933899879456
1789761542092025600,10.766025634765626,0.07103289663791656,0.10558447986841202,-0.03773459419608116
1789761542102073300,10.7760732421875,0.07824952900409698,-0.000147272803587839,-0.12019192427396774
1789761542112121600,10.78612158203125,0.09995242953300476,-0.07643032819032669,-0.429361492395401
1789761542122170400,10.79617041015625,0.07698133587837219,0.06189718842506409,0.0020506340079009533
1789761542132218600,10.806218505859375,-0.04135143384337425,0.12670281529426575,0.27740204334259033
1789761542142266600,10.8162666015625,-0.10407606512308121,0.13879916071891785,0.29572540521621704
1789761542152314400,10.826314453125,-0.04458930715918541,0.07153383642435074,0.15232668817043304
1789761542162362600,10.836362548828125,0.10183928161859512,-0.20262421667575836,-0.18758641183376312
1789761542172410400,10.846410400390624,0.13218094408512115,-0.1992017775774002,-0.2978793680667877
1789761542182459600,10.856459716796875,-0.020977454259991646,0.07113995403051376,-0.2629549205303192
1789761542192507400,10.86650732421875,-0.16974429786205292,0.1884053349494934,0.17060981690883636
1789761542202555400,10.876555419921875,-0.04706870764493942,0.16020885109901428,0.038229409605264664
1789761542212603600,10.886603759765626,0.0900031253695488,0.15102893114089966,-0.03722513094544411
1789761542222651400,10.8966513671875,0.07036923617124557,-0.06762964278459549,-0.1282181590795517
1789761542232699400,10.906699462890625,0.08650000393390656,-0.17163912951946259,0.08419477194547653
1789761542242748400,10.91674853515625,0.12517470121383667,0.08926623314619064,0.17058612406253815
1789761542252796400,10.92679638671875,0.012599148787558079,0.20793935656547546,0.06474677473306656
1789761542262844700,10.9368447265625,-0.11003649234771729,0.2240448147058487,-0.31119304895401
1789761542272892400,10.946892333984374,-0.06729888170957565,0.2414184808731079,-0.4588860869407654
1789761542282940700,10.956940673828125,0.018001370131969452,0.08196704089641571,-0.11534709483385086
1789761542292988400,10.966988525390626,-0.008858473040163517,-0.11338727921247482,0.25417450070381165
1789761542303037400,10.977037353515625,-0.12874838709831238,-0.016924921423196793,0.4725227952003479
1789761542313085400,10.98708544921875,-0.19420942664146423,-0.07049334049224854,0.28560909628868103
1789761542323133400,10.997133544921875,-0.16030125319957733,-0.07036764174699783,-0.29125848412513733
1789761542333181700,11.007181640625,-0.18475013971328735,0.008212389424443245,-0.574424684047699
1789761542343229400,11.0172294921875,-0.2566877007484436,-0.020301543176174164,-0.41236358880996704
1789761542353277200,11.027277099609375,-0.16149862110614777,-0.25867071747779846,0.15734568238258362
1789761542363326200,11.037326171875,0.0027358653023838997,-0.2544618546962738,0.30175507068634033
1789761542373374200,11.047374267578125,-0.10868706554174423,-0.1605159044265747,0.3096763491630554
1789761542383422500,11.05742236328125,-0.2574818730354309,0.009939183481037617,-0.06287829577922821
1789761542393470200,11.06747021484375,-0.10773418843746185,0.09514275938272476,-0.4413142800331116
1789761542403518200,11.077518310546875,0.04312856122851372,0.04879150912165642,-0.18825432658195496
1789761542413566500,11.08756640625,0.06491535156965256,-0.15087206661701202,0.07179882377386093
1789761542423615200,11.097615234375,0.1104080006480217,-0.05698205903172493,0.1652049422264099
1789761542433663500,11.10766357421875,0.12584368884563446,0.10784577578306198,0.07010532170534134
1789761542443711200,11.117711181640624,0.1186629980802536,0.03849998861551285,-0.0547010637819767
1789761542453759200,11.12775927734375,0.20116026699543,0.1189948320388794,-0.20501120388507843
1789761542463807200,11.13780712890625,0.2490050345659256,0.10657038539648056,-0.007348992861807346
1789761542473855200,11.147855224609375,0.2138233333826065,0.09444741159677505,0.2433607280254364
1789761542483904300,11.157904296875,0.19839538633823395,0.1391456425189972,0.511881947517395
1789761542493952300,11.1679521484375,0.2608742117881775,0.13907532393932343,0.2826697826385498
1789761542504000300,11.178000244140625,0.30168581008911133,0.09680963307619095,-0.07578025013208389
1789761542514048300,11.18804833984375,0.2725367248058319,0.03555826097726822,-0.4613521695137024
1789761542524096300,11.19809619140625,0.24021393060684204,0.05915839597582817,-0.2307296097278595
1789761542534144300,11.208144287109375,0.21261346340179443,0.2005743831396103,0.20997799932956696
1789761542544193300,11.218193359375,0.1668774038553238,0.16317667067050934,0.5420121550559998
1789761542554241300,11.2282412109375,0.15356558561325073,0.17216111719608307,0.2040703147649765
1789761542564289300,11.238289306640626,0.12621359527111053,0.22179684042930603,-0.13692589104175568
1789761542574337300,11.248337158203125,0.054605722427368164,0.289600670337677,-0.3673545718193054
1789761542584385300,11.25838525390625,-0.0014474280178546906,0.14137443900108337,-0.0949384942650795
1789761542594433300,11.268433349609374,0.019941218197345734,-0.07203744351863861,0.11449328809976578
1789761542604482000,11.27848193359375,0.028619926422834396,-0.046299319714307785,0.14018453657627106
1789761542614530300,11.2885302734375,-0.06576649844646454,-0.08121762424707413,0.12410623580217361
1789761542624578300,11.298578369140625,-0.10259827971458435,-0.09454088658094406,-0.05859140679240227
1789761542634626000,11.3086259765625,-0.024094684049487114,-0.056288573890924454,-0.1460389643907547
1789761542644674300,11.31867431640625,-0.03741501644253731,-0.0516168549656868,0.2099124789237976
1789761542654722300,11.328722412109375,-0.046357911080121994,-0.06626823544502258,0.13128133118152618
1789761542664771300,11.338771240234376,0.03123062290251255,0.0003483414766378701,-0.061653509736061096
1789761542674819300,11.3488193359375,0.021269869059324265,0.11722995340824127,-0.06127214431762695
1789761542684867300,11.358867431640626,-0.03304636850953102,0.1282208263874054,-0.21185685694217682
1789761542694915300,11.368915283203124,-0.0393679104745388,0.1224827691912651,0.0539894662797451
1789761542704963300,11.37896337890625,0.05686008557677269,-0.05717966705560684,0.18723167479038239
1789761542715011300,11.38901123046875,0.14628317952156067,-0.19507016241550446,0.11124609410762787
1789761542725060400,11.399060302734375,0.027998078614473343,0.023031283169984818,0.033481795340776443
1789761542735108400,11.4091083984375,-0.16027356684207916,0.20125028491020203,-0.1738751232624054
1789761542745156400,11.41915625,-0.132454976439476,0.2068708837032318,-0.2100973129272461
1789761542755204000,11.4292041015625,-0.035944949835538864,0.20205935835838318,0.08997436612844467
1789761542765252400,11.43925244140625,0.00791278388351202,-0.17031393945217133,0.09854148328304291
1789761542775300400,11.44930029296875,0.0567956380546093,-0.3162972629070282,0.21111170947551727
1789761542785349400,11.459349365234376,0.034321755170822144,-0.0448116809129715,0.06709807366132736
1789761542795397400,11.4693974609375,-0.16264617443084717,0.11239311844110489,-0.06569325923919678
1789761542805445000,11.479445068359375,-0.3000809848308563,0.21600845456123352,-0.23382900655269623
1789761542815493400,11.489493408203124,-0.16897490620613098,0.08431514352560043,-0.16530480980873108
1789761542825541400,11.499541259765625,-0.05559268966317177,-0.12996119260787964,0.08619879931211472
1789761542835589000,11.509589111328125,-0.24204911291599274,-0.0452662818133831,0.39293184876441956
1789761542845638400,11.519638427734375,-0.3827066421508789,-0.1002885177731514,0.24311411380767822
1789761542855686100,11.52968603515625,-0.25581634044647217,-0.13003043830394745,-0.15134425461292267
1789761542865734400,11.539734375,-0.22005833685398102,-0.08975811302661896,-0.3094435930252075
1789761542875782100,11.5497822265625,-0.34366574883461,-0.14451749622821808,-0.3825143575668335
1789761542885830100,11.559830078125,-0.38892191648483276,-0.13505661487579346,-0.2418603003025055
1789761542895878400,11.56987841796875,-0.3149275779724121,-0.040403880178928375,0.26378771662712097
1789761542905927200,11.57992724609375,-0.3188994228839874,-0.053768955171108246,0.4255395829677582
1789761542915975400,11.589975341796874,-0.37948182225227356,-0.21407820284366608,0.12608443200588226
1789761542926023200,11.600023193359375,-0.2960633635520935,-0.2215811312198639,-0.17451241612434387
1789761542936071200,11.6100712890625,-0.1913238912820816,-0.11759374290704727,-0.24390454590320587
1789761542946119400,11.620119384765625,-0.21286699175834656,-0.16754212975502014,-0.26110056042671204
1789761542956168200,11.630168212890625,-0.21959200501441956,-0.1523144394159317,-0.12345881760120392
1789761542966216400,11.640216552734374,-0.18557678163051605,0.040289100259542465,0.13521480560302734
1789761542976264200,11.65026416015625,-0.22672155499458313,0.06733083724975586,0.11733301728963852
1789761542986312200,11.660312255859376,-0.21407447755336761,0.0338226780295372,0.023274961858987808
1789761542996360200,11.670360107421875,-0.03453720360994339,-0.11465360969305038,-0.14848613739013672
1789761543006408200,11.680408203125,0.042682748287916183,-0.11827044934034348,0.03705362603068352
1789761543016457200,11.690457275390624,-0.07228697836399078,-0.028234301134943962,0.21298789978027344
1789761543026505200,11.700505126953125,-0.12019378691911697,-0.014238856732845306,0.2048703283071518
1789761543036553200,11.71055322265625,-0.019409384578466415,0.0842275321483612,-0.031500935554504395
1789761543046601200,11.720601318359375,0.04259113594889641,-0.047273773699998856,-0.2056165337562561
1789761543056649200,11.730649169921875,0.04802132025361061,-0.07396264374256134,-0.34283164143562317
1789761543066697500,11.740697509765624,0.031616780906915665,-0.0331619493663311,-0.05835412070155144
1789761543076746200,11.750746337890625,0.028294488787651062,-0.10062647610902786,0.3564271032810211
1789761543086794500,11.76079443359375,0.09941207617521286,-0.13806092739105225,0.2776753008365631
1789761543096842200,11.77084228515625,0.05470585450530052,0.01992710307240486,-0.009896306321024895
1789761543106890200,11.78089013671875,-0.12782719731330872,0.11403762549161911,0.00737216230481863
1789761543116938200,11.790938232421874,-0.06630871444940567,0.060510214418172836,-0.25950559973716736
1789761543126986200,11.800986328125,0.13332876563072205,-0.12847408652305603,-0.30101415514945984
1789761543137035300,11.81103515625,0.11122745275497437,-0.2145352065563202,-0.05037448927760124
1789761543147083300,11.821083251953125,-0.006452306639403105,-0.1643764227628708,0.31040605902671814
1789761543157131300,11.83113134765625,-0.032824259251356125,0.06462746113538742,0.43117162585258484
1789761543167179300,11.84117919921875,-0.011745605617761612,0.11084875464439392,-0.036123648285865784
1789761543177227300,11.851227294921875,0.008784969337284565,-0.0813252180814743,-0.10268456488847733
1789761543187275300,11.861275146484376,0.10912062972784042,-0.12680774927139282,0.013605557382106781
1789761543197324300,11.87132421875,0.12448147684335709,0.0011294466676190495,0.07145766913890839
1789761543207372300,11.881372314453126,-0.0070613715797662735,0.12327878922224045,0.14849013090133667
1789761543217420300,11.891420166015624,-0.024029435589909554,0.11157099902629852,0.18012742698192596
1789761543227468300,11.90146826171875,0.12117090076208115,0.09949569404125214,-0.21470244228839874
1789761543237516300,11.911516357421876,0.11732982099056244,0.10856642574071884,-0.33637961745262146
1789761543247564300,11.921564208984375,0.027606060728430748,0.06404449790716171,-0.14624589681625366
1789761543257613000,11.931613037109376,0.08811547607183456,0.013946175575256348,0.23655927181243896
1789761543267661300,11.941661376953125,0.11440913379192352,0.08529838919639587,0.24736584722995758
1789761543277709300,11.951709228515625,-0.03827894479036331,0.11763395369052887,0.20923949778079987
1789761543287757000,11.961757080078126,-0.07277753204107285,0.13037505745887756,-0.05859007686376572
1789761543297805300,11.971805419921875,0.027298465371131897,0.1329125165939331,-0.2092514932155609
1789761543307854000,11.98185400390625,0.04929324612021446,-0.0705050602555275,-0.2640593349933624
1789761543317902300,11.99190234375,0.016979515552520752,-0.09666715562343597,-0.09218132495880127
1789761543327950300,12.001950439453125,-0.027097929269075394,-0.06338217109441757,0.4123963415622711
1789761543337998000,12.011998046875,-0.05758393555879593,0.07073462009429932,0.4589257836341858
1789761543348046300,12.02204638671875,-0.09477284550666809,0.04957287758588791,0.08669734746217728
1789761543358094300,12.03209423828125,-0.057195913046598434,-0.08382698893547058,-0.33027219772338867
1789761543368143400,12.042143310546875,0.02532453089952469,-0.06518592685461044,-0.40899762511253357
1789761543378191400,12.05219140625,-0.02347097173333168,0.018620556220412254,-0.36144447326660156
1789761543388239400,12.0622392578125,-0.1987389326095581,0.03910159692168236,0.20272967219352722
1789761543398287400,12.072287353515625,-0.1736985594034195,-0.0743783637881279,0.5228749513626099
1789761543408335400,12.08233544921875,-0.05901112034916878,-0.1067272424697876,0.45824506878852844
1789761543418383400,12.09238330078125,-0.07772169262170792,-0.2087915688753128,-0.2614068388938904
1789761543428432400,12.102432373046875,-0.15440821647644043,-0.21798266470432281,-0.46458950638771057
1789761543438480400,12.11248046875,-0.1117238700389862,-0.09830126911401749,-0.342130184173584
1789761543448528400,12.1225283203125,-0.11112172901630402,0.016628511250019073,0.0902009978890419
1789761543458576400,12.132576416015626,-0.23614062368869781,-0.12247824668884277,0.49167174100875854
1789761543468624400,12.142624267578125,-0.18575122952461243,-0.24602708220481873,0.19693729281425476
1789761543478672400,12.15267236328125,0.06343010812997818,-0.33506667613983154,-0.407990425825119
1789761543488721400,12.162721435546874,0.15144997835159302,-0.30556416511535645,-0.5226925015449524
1789761543498769400,12.172769287109375,-0.05438201501965523,-0.08756127208471298,-0.20067770779132843
1789761543508817400,12.1828173828125,-0.19645392894744873,0.01067847665399313,0.6034009456634521
1789761543518865400,12.192865478515625,-0.014659103937447071,0.13529284298419952,0.6171308755874634
1789761543528913400,12.202913330078125,0.14750583469867706,0.03854978829622269,0.0497497133910656
1789761543538961400,12.21296142578125,0.12463194131851196,-0.15256769955158234,-0.3363058567047119
1789761543549010200,12.22301025390625,0.1694665253162384,-0.06566289812326431,-0.49154549837112427
1789761543559058400,12.233058349609376,0.12581652402877808,0.16012628376483917,-0.0986727774143219
1789761543569106400,12.2431064453125,-0.049360889941453934,0.1999962031841278,0.21325421333312988
1789761543579154400,12.253154541015626,-0.06344369053840637,0.16881698369979858,0.37496456503868103
1789761543589202400,12.263202392578124,0.09744985401630402,0.07551952451467514,0.21213676035404205
1789761543599251200,12.273251220703125,0.20582880079746246,-0.09133896976709366,0.09439734369516373
1789761543609299500,12.283299560546874,0.22928085923194885,-0.13988865911960602,-0.012563196010887623
1789761543619347500,12.293347412109375,0.17983821034431458,-0.06969199329614639,-0.07253305613994598
1789761543629395500,12.3033955078125,0.13543398678302765,0.037036314606666565,-0.23616912961006165
1789761543639443500,12.313443359375,0.13026052713394165,0.12889966368675232,-0.2234855592250824
1789761543649491200,12.3234912109375,0.07603830844163895,0.15899896621704102,0.020676782354712486
1789761543659540500,12.33354052734375,0.06418431550264359,0.05633677542209625,0.3726702332496643
1789761543669588200,12.343588134765625,0.14071451127529144,0.056653957813978195,0.4980819523334503
