time,seconds_elapsed,z,y,x
1788957698720715800,0.0437158203125,-0.01092354507446289,-0.3100397626399994,-1.104534043931216
1788957698730765800,0.053765869140625,-0.09404314230978489,-0.41507980752140283,-1.4047569075644015
1788957698740815600,0.063815673828125,-0.025597382593154906,-0.33712679926902056,-1.1463625764876604
1788957698750866700,0.07386669921875,0.2545171973824501,0.039023558138310904,-0.47262850831169634
1788957698760916700,0.083916748046875,0.9556354219704866,-0.1027390744626522,-0.33165253257639704
1788957698770966800,0.093966796875,0.9635311436563729,-0.40827772629112,-0.15630656012967228
1788957698781016800,0.104016845703125,0.9805611889123916,-0.45077685158550734,0.16430333103723824
1788957698791067600,0.114067626953125,1.0023936660140753,-0.3229498053565621,0.490931167319417
1788957698801117700,0.12411767578125,0.9706354227036237,-0.23407822046577928,0.762648359697312
1788957698811167700,0.134167724609375,0.48496670595705504,-0.17914719136059284,1.2267723302423954
1788957698821217800,0.1442177734375,0.5793085389524698,-0.024664485657215116,1.5627467446058987
1788957698831268900,0.154268798828125,0.5026747966051102,-0.029351474429666995,1.3425237387523055
1788957698841318700,0.164318603515625,0.4996434660851955,-0.011250877332687377,1.4197117539815605
1788957698851368700,0.17436865234375,-0.011732523369789123,-0.036198563845455646,0.12135273564830422
1788957698861418800,0.184418701171875,-0.06161795952320098,-0.12374708343893288,-0.7296370475858449
1788957698871469800,0.1944697265625,0.22547639633715152,-0.09431669855415821,-1.0226558250591158
1788957698881519900,0.204519775390625,0.6129167940437793,-0.015612287412583827,-1.0271830201599745
1788957698891569700,0.214569580078125,0.6113958680868149,-0.055173605689406394,-0.989704572571814
1788957698901619700,0.22461962890625,0.5119815541327,-0.2150467722594738,-0.9419412431389093
1788957698911670800,0.2346708984375,0.5427069472640752,-0.6207067172676325,-1.2000982583284376
1788957698921720800,0.244720947265625,0.3361462637990713,-1.0387442055508493,-1.1276716853473334
1788957698931771000,0.25477099609375,0.1745820754021406,-1.2914853331714868,-0.8222421199165284
1788957698941820700,0.264820556640625,0.48736383022665974,-1.429954184924066,-0.7937253427453339
1788957698951871700,0.274871826171875,0.6733879216194153,-1.438548118007183,-0.7501952669680119
1788957698961921800,0.284921875,0.6495785914868116,-1.3991700473427773,-0.49797834588456896
1788957698971971800,0.294971923828125,0.3640671209037304,-1.4673320216819643,-0.26165059292633086
1788957698982022000,0.30502197265625,0.3622492578268051,-1.4620295313596725,-0.2301107416069135
1788957698992072700,0.31507275390625,-0.2407616437524557,-1.8143828335940837,-0.06896130802333354
1788957699002122800,0.325122802734375,-1.206973989316821,-1.4940607463926077,-0.003252024065889418
1788957699012172800,0.3351728515625,-1.8907102864712475,-0.3132663234710693,0.6447997597124427
1788957699022223600,0.3452236328125,-1.1291706186681985,0.28252573277056214,1.0793589784033595
1788957699032273700,0.355273681640625,-0.9706079501748085,0.13563655093610286,1.0583332876399159
1788957699042323700,0.36532373046875,-1.2091016489952802,-0.24912381390631197,1.0141298426456749
1788957699052373800,0.375373779296875,-1.000876247188449,-0.3842126678317785,0.947465486453101
1788957699062424600,0.385424560546875,-0.7285258714735507,-0.3782166422873735,0.8732165934156626
1788957699072474600,0.395474609375,-0.5169990900337695,-0.468140658840537,0.8199179147526622
1788957699082524700,0.405524658203125,-0.3500023551940918,-0.720295218744874,0.6950138432983308
1788957699092574700,0.41557470703125,-0.10746084228754042,-0.9701023387402296,0.6792529411952942
1788957699102625500,0.42562548828125,-0.09874094473719597,-1.046441482055187,0.9936690922886132
1788957699112675600,0.435675537109375,-0.2225011799186468,-0.9700386258542537,1.246882367465645
1788957699122725600,0.4457255859375,-0.1751788722515106,-0.9837766438275575,1.4570558346003293
1788957699132775700,0.455775634765625,-0.19880466251075266,-0.9212930073857307,1.621873325704783
1788957699142826800,0.46582666015625,-0.12398878324031828,-0.8522603876918554,1.9797043286979197
1788957699152876500,0.47587646484375,-0.06635492491722106,-0.6228665256500244,2.2423794058337805
1788957699162926600,0.485926513671875,-0.15535715045034884,-0.30166239491701125,2.1924439930588004
1788957699172976600,0.4959765625,-0.5029419231086969,0.06431552804410458,2.2151243191614745
1788957699183027700,0.50602783203125,-0.3744417999237776,0.44854280892312526,2.2386104086890817
1788957699193077800,0.516077880859375,0.14952771364450454,0.47570086496174335,2.6818139024108647
1788957699203127600,0.52612744140625,0.7824269730091095,0.69574062320292,3.1174437460079787
1788957699213177600,0.536177490234375,0.9337848246902227,1.1393477292895315,2.4782336960613724
1788957699223228700,0.546228759765625,0.3678647596210241,1.1399895343244075,1.7047431859627364
1788957699233278700,0.55627880859375,-0.12711655987203122,0.9542962823212147,1.623689289085567
1788957699243328800,0.566328857421875,0.02903495582640171,0.9096487468212843,1.3476358210690318
1788957699253378600,0.576378662109375,-0.32578678234815595,0.7629185549408197,0.7735904633417725
1788957699263429600,0.5864296875,-0.6297375804632902,0.5198696770340204,1.3120355153776704
1788957699273479700,0.596479736328125,-0.6338374169975519,0.832020148217678,2.571841954085231
1788957699283529700,0.60652978515625,-0.5226765511482954,1.837508273115754,2.610092482024431
1788957699293579800,0.616579833984375,-0.9807090729504823,2.769778601589799,2.4158476747751236
1788957699303630600,0.626630615234375,-0.8902665854811668,3.424165470141172,2.5782097355514764
1788957699313680600,0.6366806640625,-0.11847557277679442,4.040066248431802,2.199576913678646
1788957699323730700,0.646730712890625,-1.7744605730503797,3.873141409784555,1.4392016134798526
1788957699333780700,0.65678076171875,-2.5197908643305302,2.7057424750089645,1.0521826560556888
1788957699343831800,0.666831787109375,-2.657113176396489,2.758669763076305,0.8350181609898805
1788957699353881600,0.676881591796875,-2.0519331140846013,1.3664865058809519,-0.4623854563146829
1788957699363931600,0.686931640625,-1.7180536261737345,0.5729530324459076,-1.4173063002750277
1788957699373981700,0.696981689453125,-1.2775871562004089,-0.64303545345366,-1.9548332145527003
1788957699384032800,0.70703271484375,-1.0973983468323945,-1.5234551831811665,-2.3153236460134385
1788957699394082800,0.717082763671875,-0.8457382924467325,-2.8515339247345923,-1.9039739649310707
1788957699404132600,0.727132568359375,-1.210616145211458,-4.082129028135538,-2.3719606022536754
1788957699414182700,0.7371826171875,-1.315664665660262,-4.268772128209472,-2.693544087693095
1788957699424233700,0.747233642578125,1.2388608274430035,-4.632893025127053,-0.7396645206034183
1788957699434283800,0.75728369140625,1.6256459761112927,-4.956211371535063,-1.2347440397739409
1788957699444333800,0.767333740234375,3.775528007772565,-5.635424638307094,-1.3240689213901757
1788957699454383600,0.777383544921875,5.52720567112863,-5.955441020560264,-0.8437626084595918
1788957699464434700,0.7874345703125,4.764720246908069,-6.330158130294084,-1.084144897505641
1788957699474484700,0.797484619140625,4.230508156266808,-6.825195563888549,-1.1614835732519626
1788957699484534800,0.80753466796875,4.220481267771125,-6.802060187494755,-1.1762655473202466
1788957699494585900,0.8175859375,5.692044351151585,-6.754656631284952,-0.8712269539684057
1788957699504635400,0.827635498046875,7.819532764697074,-6.665688892543315,0.00801087249815464
1788957699514685400,0.837685546875,7.866099285560846,-6.836779034176469,-0.02245090126097202
1788957699524735500,0.847735595703125,12.033423548161982,-7.746494416493177,3.322241219192743
1788957699534786300,0.857786376953125,9.929947878366708,-8.233055113643408,2.6636399478167294
1788957699544836400,0.86783642578125,5.935863628908992,-7.329232881018519,0.16437515416443346
1788957699554886400,0.877886474609375,4.903648825126886,-5.303895512914657,-0.7452958044886588
1788957699564936400,0.8879365234375,4.826792964461445,-5.458251377367973,-0.8663426890581846
1788957699574987500,0.897987548828125,2.8543250167578456,-3.174243783855438,-1.9140695347487926
1788957699585037300,0.908037353515625,1.7955647358775138,-3.010150953763723,-2.0380717619925734
1788957699595087400,0.91808740234375,1.1639262902289629,-1.94226365583688,-2.0945015052229166
1788957699605137400,0.928137451171875,0.43801147803664203,-0.6427551752075552,-2.4012241061389443
1788957699615188500,0.9381884765625,0.25204408526718614,-0.30989494734182954,-2.741169177699089
1788957699625238500,0.948238525390625,0.6485895804494619,-0.988570600105822,-2.3974790743917227
1788957699635288300,0.958288330078125,0.7633516856610775,-1.5557972177289425,-1.22829267167747
1788957699645338400,0.96833837890625,1.113934471091628,-2.1043875239431857,-1.3924573979616164
1788957699655389200,0.97838916015625,2.9419121147960423,-1.6166569062307476,-2.023584971478581
1788957699665439500,0.988439453125,2.5446523338645695,-1.6946704124987124,-2.1816665784567593
1788957699675489500,0.998489501953125,1.0725348314717411,-9.046224430918693,3.123949766901135
1788957699685539300,1.008539306640625,2.9250410594940184,-4.403077722802758,4.74347521430552
1788957699695590100,1.018590087890625,1.6266840869873762,-1.4835023813687265,6.212552326089144
1788957699705640200,1.02864013671875,1.513299407608807,-1.7974644320189952,5.818738301697373
1788957699715690500,1.0386904296875,0.0015834697991609571,0.8045040725216269,4.525533305126428
1788957699725740500,1.048740478515625,-2.7216432239741084,1.4302169275134802,4.747739886012673
1788957699735791400,1.058791259765625,-3.3525498482167717,0.8217796900365502,5.881524720478057
1788957699745841200,1.068841064453125,-0.841551216020435,1.755649197335541,5.206109676945209
1788957699755891200,1.07889111328125,-0.6945172188878059,1.80884127381891,5.246150595432519
1788957699765941500,1.08894140625,-4.152143060082197,6.602662819787859,4.0101486645519735
1788957699775992300,1.098992431640625,-6.958488766568899,8.496228495690225,3.279163124966621
1788957699786042400,1.10904248046875,-3.2586835237786174,8.777516211098431,2.9927795477241275
1788957699796092200,1.119092041015625,-1.7396967181831597,9.519630462941526,1.1713982335448265
1788957699806143200,1.129143310546875,0.8905702446028589,9.588744915699959,0.36094694305658337
1788957699816193300,1.139193359375,4.108070401860774,9.27532603201568,0.12345511475503444
1788957699826243300,1.149243408203125,8.262465917044878,8.648529765701294,-0.022374913415312767
1788957699836293000,1.159293212890625,10.543881740498541,7.740913986012339,0.7486316709131002
1788957699846344200,1.16934423828125,8.513402333331108,7.641299181050062,0.8900544040352105
1788957699856394200,1.179394287109375,4.683367951606214,8.162666987687349,0.4546580769330263
1788957699866444300,1.1894443359375,4.575220588359237,7.848303516629338,0.3825888660222292
1788957699876494300,1.199494384765625,0.8977636632382869,8.097420316272974,2.7237656229555607
1788957699886545400,1.20954541015625,0.7245517071455717,8.352973286443948,2.1801514977186915
1788957699896595200,1.21959521484375,0.609308540418744,4.717749529157579,2.826166259244084
1788957699906645200,1.229645263671875,-0.8006006353422999,3.6854268810868263,2.9948055005937815
1788957699916695300,1.2396953125,-2.5165558279320597,3.1368717923164366,1.4844132126033305
1788957699926746400,1.249746337890625,-3.489387299375236,0.04116958459052257,0.35027357335090636
1788957699936796400,1.25979638671875,-4.158348636724055,-2.9555656693562864,-0.0810410373955965
1788957699946846200,1.26984619140625,-5.934066808620095,-4.660420498999953,-0.6757505590975285
1788957699956896300,1.279896240234375,-7.12359515761733,-5.99763531768918,-1.1705471696734429
1788957699966947300,1.289947265625,-7.9780381500452755,-6.823145645621419,-1.6606296112090349
1788957699976997400,1.299997314453125,-8.642900235381722,-7.38523826135695,-1.790880961975455
1788957699987047400,1.31004736328125,-8.297456566405296,-7.969512313762307,-2.843846877363324
1788957699997097200,1.32009716796875,-7.399849555033445,-8.631717162588238,-4.051275040188432
1788957700007148300,1.330148193359375,-7.414269125530123,-8.487944066947698,-4.0552229010313745
1788957700017198300,1.3401982421875,-4.876591306853294,-8.141229062861203,-5.0744876223474735
1788957700027248400,1.350248291015625,-3.2276509643942117,-7.179927870213985,-4.551766647535562
1788957700037298400,1.36029833984375,-1.5709551855027675,-6.134747201874852,-3.1567326770842072
1788957700047349500,1.370349609375,0.7286077045381069,-4.501268632441759,-1.9609207177728414
1788957700057399300,1.3803994140625,13.52847389011383,-1.788444820869714,0.06944587666988372
1788957700067449300,1.390449462890625,20.499000300478933,-5.3387832864224904,-0.07359247495532036
1788957700077499400,1.40049951171875,5.560979930436611,-3.7680963964670893,1.735289423134923
1788957700087550500,1.410550537109375,3.358006944578886,1.1597444744996726,0.348110842359066
1788957700097600300,1.420600341796875,6.809241038909554,1.779030219053477,-2.497067575868964
1788957700107650300,1.430650390625,4.015747215211391,0.6648619392059743,-4.081489561188221
1788957700117701400,1.440701416015625,3.7262379071637985,0.45100642255768175,-4.186815729534626
1788957700127751400,1.45075146484375,3.6979175293475386,1.1087763576760887,-4.2545992259502405
1788957700137801500,1.460801513671875,3.011820348280668,0.8040010914355517,-3.463864443323016
1788957700147851300,1.470851318359375,2.5908395000219344,-0.40661359247118234,-3.1625030771791933
1788957700157902300,1.48090234375,2.2029314848035573,-2.8459344972923395,-3.514725446510315
1788957700167952400,1.490952392578125,1.2612319414660333,-5.627644651955366,-3.903245456147194
1788957700178002400,1.50100244140625,0.8531590900972486,-11.764898868215083,-4.4368467214137315
1788957700188052500,1.511052490234375,-1.9822258099995553,-11.844243038564919,-3.9294361284583803
1788957700198103600,1.521103515625,1.6724645720399915,-1.5957552802383899,-1.080556517624855
1788957700208153300,1.5311533203125,0.9987608624696731,-3.8676834366396067,-1.083204986307025
1788957700218203400,1.541203369140625,-3.6345822445124387,-10.513231750690936,-4.025781702491641
1788957700228253400,1.55125341796875,-4.095361434674262,-2.057599761544168,-1.5833558173924684
1788957700238304300,1.56130419921875,-1.5314925052948296,2.219980527020991,1.1445201634913682
1788957700248354600,1.5713544921875,-1.0027046316593884,-1.3090081303805112,1.4078765008896588
1788957700258404400,1.581404296875,-2.53970961676538,-0.569151302075386,4.653614910638332
1788957700268454400,1.591454345703125,-0.9061357702642678,1.8090327047377823,5.695920315802097
1788957700278505200,1.601505126953125,-0.67349561977759,1.826272739482671,5.731772550427913
1788957700288555300,1.61155517578125,-0.15801146435141564,5.159675258028507,-1.1668155819296837
1788957700298605600,1.62160546875,1.047272818312794,3.0928976260334253,-2.6125667631834744
1788957700308655400,1.6316552734375,0.5324249149635434,3.4206305740132925,-0.37717970045506954
1788957700318706200,1.6417060546875,4.377674401476979,6.112331371927261,1.4277449844419956
1788957700328756200,1.651756103515625,4.215117987172305,4.7376679893314835,3.0541011546492576
1788957700338806300,1.66180615234375,4.741645953051745,3.2119828551411627,4.14305432921946
1788957700348857300,1.671857421875,4.934348499295115,3.144718706424534,4.205740210235119
1788957700358907100,1.6819072265625,3.7813194506555794,1.1507294664602725,5.852172369265556
1788957700368957200,1.691957275390625,2.3521873957693575,0.08451068626753985,6.46936961710751
1788957700379007200,1.70200732421875,0.832191705392301,1.525619667738676,5.15591970488727
1788957700389058300,1.712058349609375,-2.296308856680989,3.1712177140325304,3.003328998789191
1788957700399108400,1.7221083984375,-5.272846879178285,2.531683838959038,0.6627180590450763
1788957700409158100,1.732158203125,-11.354241845571995,4.978873285198212,-3.2402737146019933
1788957700419208200,1.742208251953125,-9.580697218322753,8.491119774374365,-5.631573808097839
1788957700429259300,1.75225927734375,-4.008937535196543,7.528922509670257,-3.1129829672068356
1788957700439309300,1.762309326171875,-1.4798258848130703,3.5742177921816705,-0.899294526067376
1788957700449359400,1.772359375,-0.6256690158501267,1.0482232509054243,-0.6068243223875761
1788957700459409200,1.7824091796875,0.6800228295892476,-0.44192426756620407,-1.2926912018299102
1788957700469460200,1.792460205078125,0.8581091137200594,-0.5854299444422125,-1.8493559472978114
1788957700479510300,1.80251025390625,0.4399111741781234,-1.3282298404619097,-1.9898533822685478
1788957700489560300,1.812560302734375,-0.16210253305733202,-2.398017419052124,-1.27033031693995
1788957700499610600,1.822610595703125,-3.114668143814802,-2.484366791988909,1.1077215879261493
1788957700509661700,1.83266162109375,-7.682678070142865,-2.1161929664187134,4.4795828703343865
1788957700519711700,1.842711669921875,-5.375432808905839,-4.645630341625213,1.6441951937586068
1788957700529761800,1.85276171875,0.6040031274870038,-1.9298207922406494,0.46666006489396095
1788957700539811600,1.8628115234375,2.8324223970294,-1.335383219347894,2.4631489396542308
1788957700549862700,1.872862548828125,6.370113124063611,-0.2245642499282956,2.2708564355164764
1788957700559912700,1.88291259765625,10.792819091922045,1.905276425831765,1.738916381460428
1788957700569962800,1.892962646484375,8.06335145793259,1.5474597436249256,0.7388380066514014
1788957700580013800,1.903013916015625,6.828922475457191,-1.0879729313611983,-1.331411100846529
1788957700590063900,1.91306396484375,5.955629821130633,-0.5943360122144222,-1.6787082887351512
1788957700600113700,1.92311376953125,4.871760525695979,-0.08940233076661824,-2.7521418226122853
1788957700610163700,1.933163818359375,-0.2792348745316267,-2.041782306948304,-4.743639464956522
1788957700620214800,1.94321484375,-1.1147099855087697,-0.43623599279671904,-6.305691797557473
1788957700630264800,1.953264892578125,0.5972150747820735,2.131332521753013,-6.479929589566588
1788957700640315000,1.96331494140625,0.7142649986699223,4.663171843534708,-7.064911497980356
1788957700650364700,1.97336474609375,0.7504314138114452,4.906004448342323,-6.94725951654613
1788957700660415700,1.983415771484375,-0.09473974627181887,4.368845782855153,-3.3784050049632786
1788957700670465800,1.9934658203125,-2.4881805050581693,3.9407925119921563,-2.726448578429222
1788957700680515800,2.003515869140625,-2.839333783853054,7.3780691003799435,-2.274775070264935
1788957700690566000,2.01356591796875,6.801703629142046,6.100851362013817,-1.261734338030219
1788957700700616700,2.02361669921875,4.413166278357804,4.287264647233486,-4.032863185185194
1788957700710666800,2.033666748046875,0.45000528269112106,13.449925838577746,-1.5595698681354522
1788957700720716800,2.043716796875,3.2876018674880263,15.1343753013134,-0.5209048653006554
1788957700730766800,2.053766845703125,3.3707752407371996,15.61373819591403,-0.03908580971956253
1788957700740817700,2.063817626953125,-0.5484063279494643,7.657893172976374,-3.9044787973344324
1788957700750867700,2.07386767578125,-1.7934943593442438,7.510994054269791,-2.232165762594342
1788957700760917800,2.083917724609375,5.096289119789004,6.5556082231462,4.064720797216892
1788957700770967800,2.0939677734375,7.109266772535443,0.5373369446635246,7.12245767802
1788957700781018600,2.1040185546875,6.353382354015111,-5.3819981587707995,6.847818899106979
1788957700791068700,2.114068603515625,5.298073090371489,-13.478034327208995,2.59279677156955
1788957700801118700,2.12411865234375,6.0157601724445815,-27.878439520168303,1.9904858349531889
1788957700811169500,2.13416943359375,2.1493945404052734,-18.23199761778116,4.52684467998594
1788957700821219600,2.144219482421875,2.4293004460662604,-15.638630645108222,0.750073686414957
1788957700831269600,2.15426953125,4.557251216426492,-9.33165056130588,1.122258062800765
1788957700841319700,2.164319580078125,4.339840637645125,-9.35772432923913,1.0278218295201658
1788957700851370800,2.174370849609375,-6.776894182056188,-1.549013987329602,2.685271641649306
1788957700861420500,2.184420654296875,0.09353457173313945,-2.267105558550358,-0.07906389210373163
1788957700871470600,2.194470703125,2.4482646742552516,-2.2422207081407306,-0.435055550840497
1788957700881520600,2.204520751953125,1.0991811385959387,-3.4453701707333324,0.35592473098039623
1788957700891571700,2.21457177734375,-1.8931132559597492,-5.107310280019044,-0.2982970101371407
1788957700901621800,2.224621826171875,-6.55553223530054,-3.4580034423351287,-0.982539210987091
1788957700911671600,2.234671630859375,-6.793778681361675,-2.2477286579072473,-2.2519471523851156
1788957700921721600,2.2447216796875,-5.782492683839798,-0.6012047289401292,-4.0637274022653695
1788957700931772700,2.254772705078125,-5.042288649532199,0.6249293033987283,-5.3638797337561845
1788957700941822700,2.26482275390625,-2.664937001889944,0.03007832739949226,-5.79675618699193
1788957700951872800,2.274872802734375,0.5367032864024862,-0.6361117916703224,-5.491480277752876
1788957700961922600,2.284922607421875,12.485345478129386,-2.5846137573748824,-4.6608892855554815
1788957700971973600,2.2949736328125,14.814343721491097,-2.713959683734178,-3.660016253237426
1788957700982023700,2.305023681640625,6.683598643243313,-0.9649965400338172,-1.6561080421313643
1788957700992073700,2.31507373046875,1.1505156045138836,-1.158204405450821,-0.7260293784826993
1788957701002123500,2.32512353515625,-0.2671745074469596,-1.267199033176899,-0.5944675296396017
1788957701012174600,2.335174560546875,0.7917244512517004,-0.2922714662373066,-1.2866682882785796
1788957701022224600,2.345224609375,0.3532943094115704,0.536877510458231,-0.8667512698590755
1788957701032274700,2.355274658203125,-0.33123686444759365,0.7858493486732244,0.6094304132327437
1788957701042325800,2.36532568359375,0.0029378070175647736,1.2396703902602195,0.7761711274847388
1788957701052375800,2.375375732421875,0.3356629372615367,1.401965815541148,-0.06370528719127178
1788957701062425600,2.385425537109375,0.5860767179131507,0.8428080842137337,-0.20792524981647728
1788957701072475600,2.3954755859375,0.2888240291971713,0.20723697529137133,-0.1402531048208475
1788957701082526700,2.405526611328125,0.27760237795896825,-0.34480127941966054,-0.10037146854847669
1788957701092576800,2.41557666015625,0.2579670455753803,-0.34486206969618793,-0.09687427408248185
1788957701102626800,2.425626708984375,0.3974011621635407,-0.7576835768967867,-0.23835487487167117
1788957701112676600,2.435676513671875,0.755220986175537,-0.47427813868224616,0.07591215007454157
1788957701122727700,2.445727783203125,0.9128256232917308,-0.31851416099667546,0.25167028351873155
1788957701132777700,2.45577783203125,0.671034636491537,-0.17083295200169085,0.3629734804481268
1788957701142827800,2.465827880859375,0.3166566965617239,0.0641658904403448,0.4351727474793792
1788957701152877800,2.4758779296875,-0.16869075234122574,0.08921616054475306,0.5471317779690027
1788957701162929000,2.485928955078125,-0.4660569113690406,-0.2505389414012432,0.8032584563747048
1788957701172978700,2.495978759765625,-0.41310602323040363,-0.4825836102128029,0.8761614877611398
1788957701183028700,2.50602880859375,0.17700009632930158,-0.5504536158680916,1.1863877128839493
1788957701193078800,2.516078857421875,0.22721549508944153,-0.25680560058057306,0.9159314803525805
1788957701203129900,2.5261298828125,0.4789608896709978,0.31282033326923847,0.5500272071495652
1788957701213180000,2.536179931640625,-0.3455238946057856,-0.04177285684645176,0.6771472741529345
1788957701223229700,2.546229736328125,-0.4686090070046484,-0.03577624678015709,1.110577561879158
1788957701233280800,2.55628076171875,0.1948259681381285,-0.322511706200242,1.2998238301888108
1788957701243330800,2.566330810546875,-0.05682721811532974,-0.2217377943307161,0.9456278226971626
1788957701253380900,2.576380859375,-0.608379735136032,-0.14915245059132576,0.5611658562794327
1788957701263430700,2.5864306640625,-0.3741794957257807,-0.0922211875796318,0.44846068359762425
1788957701273481700,2.596481689453125,-0.06619841918125748,0.5039478852808476,0.17619126416444778
1788957701283531800,2.60653173828125,-0.010176672229915857,1.119671553438902,-0.004905307698249817
1788957701293581800,2.616581787109375,0.010891834761947394,1.420920106858015,-0.2566261523604393
1788957701303632000,2.6266318359375,-0.08113602220267056,1.287875910502672,-0.28729367782473564
1788957701313682700,2.6366826171875,-0.4746025483310222,1.0058043512403965,-0.1566004285097122
1788957701323732700,2.646732666015625,-1.1661012961804866,0.8276865029275416,-0.09363339246511458
1788957701333782800,2.65678271484375,-1.1895952767536044,0.8145505425006151,-0.10975889009684324
1788957701343832800,2.666832763671875,-1.2132277890145777,0.6043260758310556,0.20236615438461303
1788957701353883600,2.676883544921875,-0.6217769768476485,0.2948632362961769,0.5977241933479904
1788957701363933700,2.68693359375,-0.2456337798334658,0.6465735644519328,0.20663959392011164
1788957701373983700,2.696983642578125,-0.015452128414809703,0.7443447873741388,0.14481354460418225
1788957701384033800,2.70703369140625,0.11511807904243468,0.6698977414160966,0.14171791667640207
1788957701394084600,2.717084716796875,0.10155410246178508,0.5573369456410407,0.5206491369739175
1788957701404134700,2.727134765625,-0.019934534525871277,0.44385318980216976,0.6607490970596671
1788957701414184700,2.737184814453125,0.13039163601994513,0.06979600528180599,0.41213352493643757
1788957701424235800,2.74723583984375,0.24360753470286725,-0.1913485012859106,0.7284890465945005
1788957701434285600,2.75728564453125,0.2949881778500974,-0.180638891223073,0.7279469025418162
1788957701444335600,2.767335693359375,0.730824065413326,-1.2606728462785481,0.08862140952199697
1788957701454385700,2.7773857421875,0.6829319950342178,-1.8631366353690624,-0.21335808852016924
1788957701464436700,2.787436767578125,0.18476050119772552,-2.217244672316313,-0.5972869709745049
1788957701474486800,2.79748681640625,-0.36267478976249695,-2.1610411390572786,-1.1111495165482164
1788957701484536600,2.80753662109375,-0.530364767563343,-2.0097084218174217,-1.3343492001250385
1788957701494586600,2.817586669921875,-0.6626504006363451,-1.501984525129199,-1.3233698332101105
1788957701504637400,2.827637451171875,0.00920490458831191,-0.4979004218101501,-1.3901041128337381
1788957701514687500,2.8376875,-0.13916063340902327,0.19796412003338335,-0.8272977958709001
1788957701524737500,2.847737548828125,-1.0114403113007544,0.6388251422822475,-0.44278088439553975
1788957701534787600,2.85778759765625,-0.3728359721623361,0.3533890750229359,-0.3884010594323277
1788957701544838700,2.867838623046875,0.6514179357431829,0.3025789252400398,-0.6796069422647356
1788957701554888400,2.877888427734375,1.1188378790937363,0.3967886562883854,-0.8134159855127334
1788957701564938500,2.8879384765625,0.8508405840218066,0.5523398680061101,-0.33569705872684713
1788957701574988500,2.897988525390625,0.6138182729281485,0.8726058411061763,-0.19496406143456696
1788957701585039600,2.90803955078125,0.7869431352593004,0.8793494701474904,-0.2961637975007295
1788957701595089700,2.918089599609375,1.1006325064480305,0.741308196157217,-0.4921329443246126
1788957701605139500,2.928139404296875,1.4558384216345845,0.65215516397655,-0.6819669493943452
1788957701615189500,2.938189453125,1.317874742925167,0.36998891216814517,-0.6558753535434604
1788957701625240600,2.948240478515625,1.0597266416944562,-0.07591828755438328,-0.5429799189865588
1788957701635290600,2.95829052734375,1.0246176997166125,-0.8623609259456395,-0.40628450664728877
1788957701645340700,2.968340576171875,1.023343515062332,-1.3284382225155829,-0.324887787681818
1788957701655391700,2.978391845703125,0.7785339841585606,-1.3064093460589647,-0.047400049078464505
1788957701665441500,2.988441650390625,0.8080418181937188,-1.3169418459892273,-0.07593903808146715
1788957701675491600,2.99849169921875,0.3767312260352075,-1.1145604940354823,-0.3227104436427355
1788957701685541600,3.008541748046875,-0.2429963440019637,-1.1533826843827961,-0.28177374535948035
1788957701695592700,3.0185927734375,-0.6453612660527229,-1.3019962057918308,-0.36775749985426665
1788957701705642800,3.028642822265625,-0.35410562579445537,-1.3005764021217823,-0.5788973278030752
1788957701715692500,3.038692626953125,0.09141681239418685,-1.0507353798568249,-0.7040493096038699
1788957701725742600,3.04874267578125,0.7514097573243081,-0.7194844868838787,-0.8531409699186682
1788957701735793700,3.058793701171875,1.3902806384444235,-0.46587855912744996,-0.92951898393929
1788957701745843700,3.06884375,1.7730337551176547,-0.4792471592664718,-1.019818848067522
1788957701755893500,3.0788935546875,1.9447487506508827,-0.42655192638933653,-1.0426108178511262
1788957701765943600,3.088943603515625,2.0598902105689048,-0.7697083612114191,-1.2234917011365294
1788957701775994600,3.09899462890625,1.7421511255979536,-0.9712754741728306,-1.2709154233515263
1788957701786044700,3.109044677734375,1.4616425778686999,-1.0292191290974617,-1.3211100715845823
1788957701796094700,3.1190947265625,1.4750117625296115,-0.9630085810869932,-1.368506029009819
1788957701806144500,3.12914453125,1.223039646520093,-0.7300526426494122,-1.450178057785332
1788957701816195600,3.139195556640625,0.8524690620064735,-0.5345820929974318,-1.4104860988661645
1788957701826245600,3.14924560546875,0.5816928037405014,-0.22987492355704306,-1.3406860019311309
1788957701836295700,3.159295654296875,0.6763841808259486,0.16311200236082077,-1.2832491274848579
1788957701846345700,3.169345703125,0.7438006705600768,0.44105742160379885,-1.14341658616364
1788957701856396800,3.179396728515625,0.5906639726381748,0.3464905476808548,-1.015555345404148
1788957701866446600,3.189446533203125,0.6119288789849728,0.3502811721354723,-1.0110264698028564
1788957701876496600,3.19949658203125,0.5579425103187561,0.13472177417874334,-0.5245063969239592
1788957701886547500,3.20954736328125,0.4775322451073676,0.1658072327941656,-0.3825660696685314
1788957701896597500,3.219597412109375,0.3667022186476737,0.08404021921157837,-0.11344810000360012
1788957701906647800,3.229647705078125,0.16325692725684493,-0.032119477838277816,-0.044833121199905866
1788957701916697600,3.239697509765625,-0.13253569884393362,0.035755788514018054,-0.15594021103531122
1788957701926748400,3.24974853515625,-0.2713000264117494,0.2230459543198347,-0.23758359823822975
1788957701936798500,3.259798583984375,-0.4280746059119701,0.4860118310958147,-0.15387860233038664
1788957701946848500,3.2698486328125,-0.46349897051453587,0.7674976994246244,-0.031074352699518203
1788957701956898800,3.27989892578125,-0.3197860806286335,0.9093021253407001,-0.04995294843167066
1788957701966949600,3.28994970703125,-0.24322306542992592,1.003214919269085,-0.16506225964576005
1788957701976999400,3.29999951171875,-0.2676420518934727,0.8306278170764446,-0.4247174044385552
1788957701987049500,3.310049560546875,-0.20134908629655837,0.26007892316281794,-0.4712836330413818
1788957701997099500,3.320099609375,-0.13378186298012731,-0.0873714094609022,-0.4864043375447392
1788957702007150600,3.330150634765625,-0.019313808811642227,-0.32555238907039163,-0.5735147579818963
1788957702017200400,3.340200439453125,0.20436638829112053,-0.6402893696159124,-0.5240431633263826
1788957702027250400,3.35025048828125,0.2615888162691146,-0.8398673545867205,-0.34901977389752864
1788957702037300500,3.360300537109375,0.2030173848349601,-1.0073217700660229,-0.18466624704301357
1788957702047351600,3.3703515625,0.2747604325313121,-1.1051070215135812,-0.08706570451259613
1788957702057401600,3.380401611328125,0.25410920110344887,-1.2827782951027153,-0.07679916204214096
1788957702067451400,3.390451416015625,0.1102163515407592,-1.4201824402332306,-0.20418284841775894
1788957702077502500,3.40050244140625,-0.2767337053656578,-1.6598276471763849,-0.2978653407216072
1788957702087552500,3.410552490234375,-0.5195896910488605,-1.5933055489987134,-0.3269645939558744
1788957702097602600,3.4206025390625,-0.6366284359555691,-1.4167290849089622,-0.2736202495202422
1788957702107652600,3.430652587890625,-0.7068705045044422,-1.139059559997916,-0.13405863409489394
1788957702117703700,3.44070361328125,-0.6940449252009392,-1.127480181363225,-0.10919015029817819
1788957702127753500,3.45075341796875,-0.36741292420029636,-0.6296738675773144,-0.09227759394198655
1788957702137803500,3.460803466796875,-0.14883450721595434,-0.22197160308659075,-0.16642302660495042
1788957702147853600,3.470853515625,-0.21086510266065597,0.19796295098960398,-0.27982378033548594
1788957702157904600,3.480904541015625,-0.4654279658157378,0.9025316082924604,-0.31693273702412844
1788957702167954700,3.49095458984375,-0.5424795682489871,1.4634592719018458,-0.4060045206621289
1788957702178004500,3.50100439453125,-0.4274316318333149,1.4514754041194915,-0.5429474780216813
1788957702188054500,3.511054443359375,-0.1297182668030262,1.2847341053456067,-0.6720645640611648
1788957702198105600,3.521105712890625,0.23378296384625136,1.108212586313486,-0.7498299407869577
1788957702208155600,3.53115576171875,0.19405191502571104,1.0878098497539759,-0.6264364930912852
1788957702218205700,3.541205810546875,0.12084047527723013,1.084306810069084,-0.44566491539925335
1788957702228255500,3.55125537109375,-0.05917469455692917,1.3364923496335743,-0.5842439495280385
1788957702238306600,3.561306640625,-0.3193417709272355,0.7739379616051912,-0.4138920590415597
1788957702248356600,3.571356689453125,-0.6604372546315193,0.16480419323146342,-0.06796703628897667
1788957702258406700,3.58140673828125,-0.4687632477182895,0.24412848983705043,-0.07336158880889415
1788957702268456700,3.591456787109375,-0.4144259467225522,-0.41874914368391036,-0.12920622562766074
1788957702278507500,3.601507568359375,-0.8075041311204433,-0.74639412111938,-0.3195081404700875
1788957702288557600,3.6115576171875,-1.4992986470460892,-1.3603180463790894,-0.4005336880356073
1788957702298607600,3.621607666015625,-1.68624511398077,-2.309763381537795,-0.43404198988378045
1788957702308658700,3.63165869140625,-1.3057844921588897,-3.0527099925518035,-0.5724664179727434
1788957702318708700,3.641708740234375,-1.1197405270218848,-3.427642206341028,-1.1086030469357966
1788957702328758500,3.651758544921875,-1.356144560086727,-4.193687953391671,-1.2598919250339269
1788957702338808600,3.66180859375,-0.4911175932696089,-2.891089690053463,-0.6107262982621788
1788957702348859600,3.671859619140625,0.6329273164153099,-0.22944529996812343,0.2668085236787796
1788957702358909700,3.68190966796875,0.9251999516963958,-0.1798328355371952,0.12908464507460593
1788957702368959700,3.691959716796875,0.6864262668907642,-0.985120459651947,0.07721578001901507
1788957702379009500,3.702009521484375,0.8573322841286659,-1.9428835413008927,0.42319414039403197
1788957702389060600,3.712060546875,1.1784265247464178,-2.4035090022057295,0.42376127275750036
1788957702399110700,3.722110595703125,1.1692553762972355,-2.3884505492836237,0.5018607037432492
1788957702409160700,3.73216064453125,1.553416021680832,0.6001192717909812,0.8992170769169926
1788957702419210800,3.742210693359375,1.2848387347638606,0.9924842664182185,1.2777962689064442
1788957702429261600,3.752261474609375,1.6202607759416103,2.661851895356178,1.7796788922205566
1788957702439311600,3.7623115234375,1.667448059052229,4.0082437077134845,2.0319145545370874
1788957702449361700,3.772361572265625,0.7953764709532261,4.730602873250842,2.3095697586618362
1788957702459411700,3.78241162109375,0.6657470514774322,5.700500629329681,2.4876819078862664
1788957702469462500,3.792462646484375,0.07837152592539787,3.9367087498098607,1.71457937419191
1788957702479512600,3.8025126953125,-0.11199443059656769,1.927183283343911,1.62080686551705
1788957702489562600,3.812562744140625,-0.1883084760028869,2.2460838133096694,1.7625477246776222
1788957702499613700,3.82261376953125,-0.14744330858588217,1.7242694319486618,1.3965207018777728
1788957702509663700,3.832663818359375,0.08851645131018013,1.2112789930343628,0.7039255370937287
1788957702519713800,3.8427138671875,0.2521323480725288,0.3276023073375225,0.09449643903523683
1788957702529763800,3.852763916015625,0.25521153632216154,-1.0980991885781288,-1.0143306259147822
1788957702539815000,3.86281494140625,0.0672375529706478,-2.1069448072105645,-2.185323201268166
1788957702549864700,3.87286474609375,-0.28238829706124957,-2.3205413806617257,-2.855544621680677
1788957702559914800,3.882914794921875,-0.7491606632232666,-1.679066600653529,-2.7258319078356026
1788957702569964800,3.89296484375,-0.717283177447319,-0.523887680503726,-2.079309342918545
1788957702580015900,3.903015869140625,-0.5057528888761997,0.2437017888575792,-1.5152403125435112
1788957702590065700,3.913065673828125,-0.40263029498867686,0.5084522109627724,-0.9073257107011974
1788957702600115700,3.92311572265625,-0.29790629378650335,0.8214537460178136,-0.1144910331852734
1788957702610165800,3.933165771484375,-0.07953242293093353,1.2125631876260041,0.7092825340822339
1788957702620216800,3.943216796875,0.2958335061004385,1.3243623513787983,1.1989492344237864
1788957702630267000,3.953266845703125,0.44287470015883446,1.0125158315777778,1.480949043624103
1788957702640316700,3.963316650390625,0.5826957702379674,0.6437427249401807,1.4857316017255187
1788957702650366700,3.97336669921875,0.5512601830106229,0.6430395451068878,1.4968290420621633
1788957702660417800,3.983417724609375,0.9007622605323791,-0.5465273823350668,0.9559822626467793
1788957702670467800,3.9934677734375,0.8695137203097343,-0.5470289021164179,0.9707542267777025
1788957702680518000,4.003517822265625,0.7231224780600518,-1.6962579739511012,0.4345713475201279
1788957702690567700,4.013567626953125,0.4222855011165142,-2.009346602767706,0.24336568877100942
1788957702700618800,4.02361865234375,0.3860754660289734,-2.144046749636531,0.08220511273890733
1788957702710668800,4.033668701171875,0.1297041652124375,-2.116298911011219,-0.10481354264914988
1788957702720718800,4.04371875,0.021248466668650507,-1.8716361681669949,-0.1743741317398846
1788957702730770000,4.05377001953125,0.06330364758782088,-1.2910124549627304,-0.028682269931212066
1788957702740820000,4.063820068359375,0.27108495888896283,-0.655460050740838,0.18841347074732184
1788957702750869800,4.073869873046875,0.48115145851783453,-0.14325345568060874,0.2716442002069205
1788957702760919800,4.083919921875,0.4964052148163318,0.0709627109736204,0.25666984537169335
1788957702770971000,4.093970947265625,0.5222668013036251,0.34304420661926266,0.25504969682395456
1788957702781021000,4.10402099609375,0.7428138514798134,0.6006646307140588,0.17404241556748748
1788957702791071000,4.114071044921875,0.6425685665942729,0.6365314783871173,0.1411892896924168
1788957702801120800,4.124120849609375,0.4759459257639944,0.7552642407953739,0.07685527614355087
1788957702811171800,4.134171875,0.41305955374017356,0.8749871832847594,-0.005722542365267872
1788957702821222000,4.144221923828125,0.4174398146510124,0.8249328203052282,-0.058378758406266565
1788957702831272000,4.15427197265625,0.5062964942336082,0.5758773954600095,-0.16757358487956225
1788957702841322000,4.164322021484375,0.48837856022715564,0.5746762029767036,-0.16020342143774033
1788957702851372800,4.174372802734375,0.06694763011336326,-0.0067763622671365735,-0.35399792763628063
1788957702861422800,4.1844228515625,0.14484920043945312,-0.049966100174188614,-0.274476208762452
1788957702871473000,4.194472900390625,-0.0833491682074964,-0.1310293494015932,-0.2330911821898073
1788957702881523000,4.20452294921875,-0.11642404707446694,-0.13392390179932118,-0.22268523124866185
1788957702891574000,4.214573974609375,-0.19903321056962012,-0.20287468842864034,0.18891396761536597
1788957702901623800,4.224623779296875,-0.31862755824327466,-0.049206806239485736,0.5478096041653305
1788957702911673900,4.234673828125,-0.07238952890634537,0.3510866432994604,0.7540705740313977
1788957702921724000,4.244723876953125,0.20796222082599997,0.5886819319754839,0.7464906402964144
1788957702931775000,4.25477490234375,0.2193875779427588,0.5709387700140476,0.7219870442893356
1788957702941825000,4.264824951171875,0.23205519020557402,0.500127450209856,0.6231228384986519
1788957702951874800,4.274874755859375,0.4222000147901475,0.6172995391726493,0.5166401205282658
1788957702961925600,4.284925537109375,0.533161266414076,0.6540986992597579,0.48822066625170407
1788957702971975700,4.2949755859375,0.42758842983022327,0.5896528228342532,0.46225196612812575
1788957702982026000,4.30502587890625,0.3093396515466273,0.4488496829152107,0.3467081359542906
1788957702992076000,4.315075927734375,0.3131692928373813,0.240369429564476,0.33884156729765236
1788957703002126800,4.325126953125,0.2840377447687089,0.2360211712270975,0.3459595826093107
1788957703012176600,4.3351767578125,0.35503611157760023,-0.1755243246883154,-0.3560450694244355
1788957703022226700,4.345226806640625,-0.35835765721574425,-1.055522614133358,0.12155541861355304
1788957703032277000,4.355277099609375,-0.8759810166276991,-0.3574830663383007,0.6792255417317151
1788957703042327800,4.365327880859375,-0.4654734854578972,-0.09443594101965427,0.2794401147801429
1788957703052377900,4.3753779296875,-0.5098644158482551,-0.8224404189676046,0.37091231062337754
1788957703062427600,4.385427734375,-0.6782547970034182,-0.4040899192124605,0.20439583358131347
1788957703072477700,4.395477783203125,-0.37762218352556226,-0.09970949750840663,0.24693850575648246
1788957703082528800,4.40552880859375,0.012072715109586714,-0.285916544252634,0.3516694116234779
1788957703092578800,4.415578857421875,-0.13348156485930085,-0.37545302279293535,0.3259943606842309
1788957703102628900,4.42562890625,-0.052287821120023725,-0.8309078030616045,0.6908866803657263
1788957703112678700,4.4356787109375,-0.20821458815187213,-0.8318757713109254,0.614472060661763
1788957703122729700,4.445729736328125,-0.23921923661604522,-1.044638232025504,0.9435915676292032
1788957703132779800,4.45577978515625,-0.26815613889545203,-1.0499883608818052,0.9529301085345446
1788957703142829800,4.465829833984375,-0.2664392519749701,-1.0943430509150027,1.7267019197925924
1788957703152881000,4.475880859375,0.11642243963927029,-0.5618617295891046,1.8026126085624097
1788957703162930700,4.4859306640625,0.04691708786711096,-0.33916824196875095,1.6621636889085172
1788957703172980700,4.495980712890625,0.06561228985637425,0.005769231051206588,1.659880692537874
1788957703183030800,4.50603076171875,0.34121801410540936,0.1866431000739336,1.6270838999599218
1788957703193081900,4.516081787109375,0.5225196070209145,0.3452607136249542,1.4471024497322738
1788957703203132000,4.5261318359375,0.3760837219119072,0.7140729832291602,1.1290809676233677
1788957703213181700,4.536181640625,-0.0014846855998039245,1.08987204298079,0.6241713246382773
1788957703223231700,4.546231689453125,-0.16591420029997825,1.3048480880916118,0.056512891469150776
1788957703233282800,4.55628271484375,-0.21210662715435027,1.241193069782853,-0.28653781795613464
1788957703243332900,4.566332763671875,-0.3633259471476078,0.9388245724231005,-0.45342985031232236
1788957703253383000,4.5763828125,-0.36405090042129157,0.6695137105345725,-0.6629431730378419
1788957703263432700,4.5864326171875,-0.28709157938137647,0.5096843831062317,-0.8826179704241454
1788957703273483800,4.59648388671875,-0.20492504508718848,0.3195101862967014,-0.9165040926087648
1788957703283533800,4.606533935546875,-0.0000656125821173191,0.03599836509823799,-0.8892631805922836
1788957703293584000,4.616583984375,0.241379337259382,-0.2625385912746191,-0.9388871893305331
1788957703303634000,4.626634033203125,0.481411205432564,-0.48400867457985874,-0.9239691677924246
1788957703313685000,4.63668505859375,0.8720752413608134,-0.5843722520828247,-0.6944234761897474
1788957703323734800,4.64673486328125,1.176734918397665,-0.6488456010371446,-0.3892865370299667
1788957703333784800,4.656784912109375,1.1831366021335123,-0.6501900013834238,-0.4165857551049441
1788957703343835000,4.6668349609375,1.3251041096568106,-0.7392278827518224,-0.16523725088648497
1788957703353886000,4.676885986328125,1.604783805346489,-0.6614607524603605,0.383385569357872
1788957703363936000,4.68693603515625,1.6014146211743354,-0.5537573335886001,0.6216531312722713
1788957703373985800,4.69698583984375,1.592880455454439,-0.8148439724892378,0.8530239194102585
1788957703384035800,4.707035888671875,1.5194868640720844,-0.9019593613624572,0.9187372584883123
1788957703394087000,4.7170869140625,1.4845312860250472,-1.156924887034297,0.8565167299620806
1788957703404137000,4.727136962890625,1.1662686155714095,-1.2242694075107574,0.7900435854926705
1788957703414186800,4.737186767578125,0.761130356349796,-1.126784600314498,0.6906867738794535
1788957703424237800,4.74723779296875,0.4520692294836044,-0.9058493545383215,0.4266870240110904
1788957703434287900,4.757287841796875,0.27860066828131674,-0.7658148609042167,0.19881679133996366
1788957703444338000,4.767337890625,0.3222575853087008,-0.6151023213893175,-0.08840776677131652
1788957703454388000,4.777387939453125,0.4535691126525402,-0.52410395360291,-0.36657961518131194
1788957703464439000,4.78743896484375,0.34737770577892657,-0.4296037151753902,-0.49713740154840047
1788957703474488800,4.79748876953125,0.20025690714567898,-0.15358429555892944,-0.620889234227687
1788957703484539000,4.807538818359375,0.20160364557951688,0.2122626944988966,-0.6711138392075896
1788957703494589000,4.8175888671875,0.3006887275792658,0.5117132585853338,-0.6963321593552827
1788957703504639700,4.8276396484375,0.3220740454353392,0.725422060239315,-0.8189587143316864
1788957703514690000,4.83768994140625,0.2650831611908972,0.9124521138042211,-0.8651195770040154
1788957703524740000,4.847739990234375,0.3536532789170742,1.0401929430544377,-0.8128088133998215
1788957703534790000,4.857789794921875,0.4577496132075786,0.981567735606432,-0.7894318833351135
1788957703544840700,4.8678408203125,0.4503400676034391,0.8482236795216799,-0.7691729391604661
1788957703554890800,4.877890869140625,0.4013106637574732,0.8465420100450515,-0.756709471167624
1788957703564941000,4.887941162109375,0.3398632384955883,0.8193442065179347,-0.7644190226316452
1788957703574991000,4.8979912109375,0.25652459168210623,0.7145002687305212,-0.8017289087198675
1788957703585041700,4.908041748046875,0.23701062065586445,0.6511515398919582,-0.8670818169876933
1788957703595091700,4.918091796875,0.131992056953907,0.5912836389064788,-0.9145698366105556
1788957703605141800,4.928141845703125,0.04393865657821298,0.44180736318826674,-0.8454726272478699
1788957703615192000,4.938192138671875,0.07298223410248755,0.3779477622181177,-0.6987811599425972
1788957703625243000,4.948242919921875,0.19707506223917007,0.4040221146732568,-0.46004634584262966
1788957703635292700,4.958292724609375,0.3658440674483776,0.5131792394846677,-0.22474968949779867
1788957703645342700,4.9683427734375,0.5182816771902143,0.5320902761816978,-0.01679609036967158
1788957703655393800,4.978393798828125,0.6351755337335169,0.42996319613754747,0.17878405713662504
1788957703665443800,4.98844384765625,0.6178044199548661,0.3100421007275581,0.3026744945690036
1788957703675494000,4.998493896484375,0.4398772719085216,0.1698240672200918,0.3956741922404617
1788957703685543700,5.008543701171875,0.2763267319999635,-0.03239595669209957,0.38830950869135555
1788957703695594800,5.0185947265625,0.2255870171047747,-0.1479302153199911,0.3129218208823353
1788957703705644800,5.028644775390625,0.12258476166129112,-0.3227595434814691,0.25525018783211706
1788957703715694800,5.03869482421875,0.007960019093751906,-0.40104982086420055,0.10847433017902075
1788957703725745000,5.048744873046875,-0.08844283808469772,-0.34969898833334445,0.01254281683936715
1788957703735796000,5.0587958984375,-0.10485971987843513,-0.31702947539687154,-0.08519771868363023
1788957703745845800,5.068845703125,0.0070760758660733695,-0.42087972597181794,-0.12986308210119604
1788957703755895800,5.078895751953125,-0.022160247751325367,-0.600572860777378,-0.16585903604663907
1788957703765945900,5.08894580078125,-0.1350900229692459,-0.7708651300311088,-0.18458762884885072
1788957703775997000,5.098996826171875,-0.0773955205000937,-0.8561147250324487,-0.33409919507615266
1788957703786047000,5.109046875,0.008570406077057122,-1.0136299302995204,-0.39021833798736333
1788957703796096800,5.1190966796875,-0.17901684297919274,-1.1627052240014075,-0.2838643974957987
1788957703806146800,5.129146728515625,-0.47008872416839,-1.2643787150591612,-0.06777198864091187
1788957703816198000,5.139197998046875,-0.7932137399613857,-1.268933309623599,0.134209769535996
1788957703826248000,5.149248046875,-1.3003554528474808,-1.1201847636580466,0.307018916981481
1788957703836298000,5.159298095703125,-1.9214144906841217,-0.775969175171852,0.5738219242349266
1788957703846347800,5.16934765625,-2.108358765661716,-0.2829202850461006,0.7744976413145661
1788957703856398800,5.17939892578125,-1.6229612670719622,0.22955226747393606,0.7270943773657083
1788957703866449000,5.189448974609375,-0.9156313283622264,0.7840332391619682,0.6135139562193304
1788957703876499000,5.1994990234375,-0.25407296074628827,1.3348603645175694,0.5482541330624372
1788957703886548700,5.209548828125,0.14758468981795012,1.6282184569478033,0.49552894343845544
1788957703896599800,5.219599853515625,0.17714973393306135,1.6308610804110764,0.501807621849142
1788957703906649900,5.22964990234375,0.9085152858119457,1.6454004778951405,0.2578776137262583
1788957703916700000,5.239699951171875,1.0340671536505222,1.3365566470414398,0.09691047790702431
1788957703926751000,5.2497509765625,0.8683866890411823,1.034121514186263,0.022382146873697637
1788957703936801000,5.259801025390625,0.5269160884141921,0.7777689180701971,-0.2062248025741428
1788957703946850800,5.269850830078125,0.18620763126611709,0.6569599339097738,-0.43058099924232807
1788957703956900900,5.27990087890625,0.006107011638209223,0.623480858156085,-0.28426990955676884
1788957703966952000,5.289951904296875,-0.03313070070743561,0.4644131627500057,-0.1531202217111364
1788957703977002000,5.300001953125,0.17332944499254227,0.2406780571222305,-0.1579545465324074
1788957703987052000,5.310052001953125,0.19504450625963507,0.03981996921300888,-0.1559583312138915
1788957703997101800,5.320101806640625,0.028868367087841032,-0.05363046790063381,-0.1351034304400906
1788957704007153000,5.33015283203125,-0.17982695378568023,-0.08095686624348163,-0.07502334800865501
1788957704017203000,5.340202880859375,-0.1164555016586557,-0.050798459345102305,0.050935712391324335
1788957704027253000,5.3502529296875,0.03125785604026168,0.030880875954031942,0.18613931527025995
1788957704037303000,5.360302978515625,0.11417696226742118,0.05032558113634586,0.3595150836225599
1788957704047353900,5.370353759765625,0.06823591635823249,0.06979132910668849,0.4908157973114401
1788957704057404000,5.38040380859375,0.046828386670351024,0.13640636626482008,0.5428945787906646
1788957704067454000,5.390453857421875,0.17608601369168608,0.21717793906927108,0.47585791868697846
1788957704077504000,5.40050390625,0.4662087774625048,0.37045126898288727,0.2640612342646345
1788957704087554800,5.410554931640625,0.6225169815599918,0.4743658169656992,0.049505789186060425
1788957704097604900,5.42060498046875,0.39192192703485484,0.5011193838566541,-0.04341989340111613
1788957704107655000,5.430655029296875,0.1341267308950424,0.6473989093601703,-0.13632438706979155
1788957704117705000,5.440705078125,0.3216191778073087,0.9389607660233974,-0.33022929484024643
1788957704127755800,5.450755859375,0.7085036586642265,1.1633885300904512,-0.49656398557461795
1788957704137805800,5.460805908203125,0.9510463406145572,1.066871106621623,-0.5795527229718863
1788957704147856000,5.47085595703125,1.0413678320527076,0.6103460667729378,-0.5689996186450124
1788957704157906000,5.480906005859375,0.9968833781599998,0.046264907568693156,-0.7057960802059621
1788957704167956700,5.490956787109375,1.079163017439842,-0.531664744246006,-0.7772046352509409
1788957704178006800,5.5010068359375,1.137472583067417,-1.0252882193893194,-0.7179216945465654
1788957704188056800,5.511056884765625,1.0606512091934681,-1.6092665037184952,-0.5768751743257046
1788957704198107000,5.52110693359375,0.8505635206460952,-2.408461071655154,-0.3742056530803442
1788957704208157700,5.53115771484375,0.41645551632139827,-3.1383044554680586,-0.09962167309448122
1788957704218207700,5.541207763671875,0.09298344065640121,-3.616242870223522,0.1083591063015163
1788957704228257800,5.5512578125,-0.2827507371654734,-3.765233992773294,0.3654607672192156
1788957704238307800,5.561307861328125,-0.44632104122042654,-3.3220150092214342,0.6486520512264221
1788957704248359000,5.57135888671875,-0.6098855000564828,-2.468369304651022,0.9294246567193418
1788957704258408700,5.58140869140625,-0.9134685973703861,-1.4570868142604827,1.1853810200594366
1788957704268458800,5.591458740234375,-1.1162953550040722,-0.3649836512267589,1.3931852738447486
1788957704278509800,5.601509765625,-0.9258873494386672,0.5361076951295137,1.4546025962293148
1788957704288559900,5.611559814453125,-0.3404115200281143,1.2376935372292994,1.2974153077423571
1788957704298610000,5.62160986328125,0.18038226784719152,1.9643612136155366,1.0107749061945825
1788957704308659700,5.63165966796875,0.4119838873326778,2.752847925055027,0.6885660553984344
1788957704318710800,5.641710693359375,0.7041700133740901,3.2185236550867558,0.3755602094944566
1788957704328760800,5.6517607421875,1.0041033925414085,3.404477019330859,0.09756481362991035
1788957704338811000,5.661810791015625,1.0039303740620613,3.4051544802010056,0.10618161613196134
1788957704348861000,5.67186083984375,1.0237047495901583,2.7381910386711357,-0.22138452391363678
1788957704358912000,5.681912109375,0.8352864565372466,2.2204402534872294,-0.21087796214222906
1788957704368961800,5.6919619140625,0.68031684409976,1.7861019110053777,-0.13818857350647448
1788957704379011800,5.70201171875,0.604661006873846,1.235561201375723,-0.08637070798575877
1788957704389062000,5.712061767578125,0.7498632585346698,0.6011591362327336,-0.0057427083704620595
1788957704399113000,5.722113037109375,0.8932090686738491,-0.036110008779168125,0.0977839362733066
1788957704409162800,5.732162841796875,0.6897194632172584,-0.5566887108653783,0.12350487218089401
1788957704419212800,5.742212890625,0.3493418454587459,-1.1064116743713617,0.0592687660485506
1788957704429262800,5.752262939453125,0.14885664598252624,-1.728576773753762,-0.037545704138092696
1788957704439314000,5.76231396484375,0.08001169434785843,-2.230545467916131,0.031177411215193566
1788957704449364000,5.772364013671875,0.3377624668240547,-2.4821891556888818,0.07730137594323605
1788957704459413800,5.782413818359375,0.5291698952229693,-2.556052264279127,0.14031338364072143
1788957704469463800,5.7924638671875,0.6460206067442894,-2.536693483814597,0.36107422269806266
1788957704479515000,5.802514892578125,0.5646808421304449,-2.3174779014378784,0.6910562647789716
1788957704489565000,5.81256494140625,0.22174999622516334,-1.9254741413384675,1.0282025724660604
1788957704499615000,5.822614990234375,0.17777875255160033,-1.6674398757457731,1.2327844301387667
1788957704509664300,5.832664306640625,0.3872271202821284,-1.4372393734961748,1.2365868911616504
1788957704519715300,5.84271533203125,0.43042898701839144,-1.1212158602714537,1.1956199438706039
1788957704529765000,5.85276513671875,0.3470820107679814,-0.5707949776291847,1.140904311081767
1788957704539815200,5.862815185546875,0.10950776487998663,0.26036124723553655,1.0430514012254775
1788957704549865200,5.872865234375,-0.15679456284232438,1.0195657500892876,1.030494994252175
1788957704559916300,5.882916259765625,-0.5528302818715572,1.646322853437066,1.1200164944190532
1788957704569966300,5.89296630859375,-0.868707153167203,1.930162006893754,1.1427779229339212
1788957704580016000,5.90301611328125,-0.8918436255395412,1.8689052818983791,1.0987132288232444
1788957704590067200,5.913067138671875,-0.756442636924982,1.7201894691586495,1.0090824961282312
1788957704600117200,5.9231171875,-0.6299649594783783,1.4695248555511236,1.0091549037773162
1788957704610167300,5.933167236328125,-0.41137839572019874,1.099478660237789,1.08344244832471
1788957704620217300,5.94321728515625,-0.08603453483395278,0.7108417462229728,1.1122194838672876
1788957704630268200,5.95326806640625,0.07997077781558036,0.14770283630490302,1.1706648047037422
1788957704640318200,5.963318115234375,0.12764555218219756,-0.5789823757380247,1.2482564322978258
1788957704650368300,5.9733681640625,0.16055311165824532,-1.2302274391323327,1.318038993576169
1788957704660418300,5.983418212890625,0.13814707245230673,-1.2331816127628088,1.3071880753464995
1788957704670469400,5.993469482421875,0.19859131202101707,-1.661013642090559,1.2605822453856468
1788957704680519200,6.003519287109375,-0.12897475495934485,-2.028700122535229,0.8645307442653923
1788957704690569200,6.0135693359375,-0.17248875638470051,-1.6312942111313342,0.2985474047016352
1788957704700619300,6.023619384765625,-0.24088263978362082,-1.0359908151894808,0.06453428536131978
1788957704710670300,6.03367041015625,-0.2127812384802848,-0.19806699588596818,-0.01941628280542791
1788957704720720400,6.043720458984375,-0.15533676524944603,0.701094843712449,-0.14385434418320656
1788957704730770200,6.053770263671875,-0.13859591219834982,1.4061895707160235,-0.29914580898620186
1788957704740820200,6.0638203125,-0.18891053354926407,1.8024533263474702,-0.28439094212055205
1788957704750871300,6.073871337890625,-0.16386493961997328,2.050074334475398,-0.18298326239213347
1788957704760921300,6.08392138671875,-0.06987381975837051,2.1200573867619035,-0.1510489318624139
1788957704770971400,6.093971435546875,0.19325338505916295,1.9466127909570932,-0.10002090154513717
1788957704781021200,6.104021240234375,0.3658440674483776,1.7098422626674175,-0.004746171613782644
1788957704791072300,6.114072265625,0.5408814123373479,1.5116197839587926,0.09382255836166441
1788957704801122300,6.124122314453125,0.8083703194957226,1.3541536785304547,0.189536775688827
1788957704811172400,6.13417236328125,0.9660066669244318,1.2197843710511922,0.2858799385692924
1788957704821222400,6.144222412109375,1.1456993633385748,1.2629039663314818,0.37559637678638097
1788957704831273200,6.154273193359375,1.3632418248713016,1.2821814982533455,0.4258210548315197
1788957704841323300,6.1643232421875,1.343290923732519,1.281074413794279,0.43334187879040836
1788957704851373300,6.174373291015625,1.6699124033391475,0.8691331965595483,0.5997554069146513
1788957704861423400,6.18442333984375,1.5500538517713547,0.508079870519042,0.6855749107584357
1788957704871474200,6.19447412109375,1.5717267543971538,0.12393734531402587,0.719016723241657
1788957704881524200,6.204524169921875,1.5379203463852404,-0.25716449702084065,0.7784567542038857
1788957704891574300,6.21457421875,1.4818974303901196,-0.6272317351222038,0.8358409486148506
1788957704901624300,6.224624267578125,1.2737129451155662,-1.1069997033923864,0.9496335512071847
1788957704911675100,6.234675048828125,1.2545640080094336,-1.107529864746332,0.9717042209789156
1788957704921725200,6.24472509765625,1.1165303328037262,-1.9491075303822756,1.3279498544767498
1788957704931775000,6.25477490234375,1.184664469287917,-1.943731682562828,1.0544147990219295
1788957704941825000,6.264824951171875,1.285472064231336,-2.637077519583702,0.8464390611272304
1788957704951876000,6.2748759765625,0.9841606016438453,-3.0353701506942508,0.6804045954484492
1788957704961926100,6.284926025390625,0.6031259062610567,-2.955872251087427,0.4961928872399032
1788957704971976200,6.29497607421875,0.3563537700474262,-2.4665455963552,0.4806578297819942
1788957704982026000,6.30502587890625,0.16174407500848173,-1.7895108426660298,0.6280309226758778
1788957704992077000,6.3150771484375,0.15164470579847691,-1.091573001679778,0.824051799686998
1788957705002127000,6.325127197265625,0.18461400539912282,-0.4799140987426042,1.094296289163828
1788957705012177200,6.33517724609375,0.1702291408896446,0.011737199544906615,1.3129026536010204
1788957705022227200,6.345227294921875,0.43129897478595375,0.5034779296815395,1.414616038277745
1788957705032278300,6.3552783203125,0.6256453427135944,0.9605115035742521,1.3359708099775016
1788957705042328000,6.365328125,0.6325870516102761,1.341537942585349,1.206560147818923
1788957705052378000,6.375378173828125,0.5764800375282764,1.5829752936422823,1.084086006925255
1788957705062428200,6.38542822265625,0.5018868610978127,1.6278157213658093,0.8851743769086897
1788957705072479200,6.395479248046875,0.4310803635992109,1.475585178503394,0.7812617286220193
1788957705082529300,6.405529296875,0.5724984205462038,1.3586281935960054,0.6434812244597822
1788957705092579000,6.4155791015625,0.6555658492028713,1.0534183353304862,0.6159509741079062
1788957705102629000,6.425629150390625,0.6113317168094218,0.7097276475012302,0.6790282655939459
1788957705112680200,6.43568017578125,0.5842809205375612,0.5998205811053514,0.7120134934160858
1788957705122730200,6.445730224609375,0.6664521310068666,0.4846200844764709,0.7311613345436752
1788957705132780300,6.4557802734375,0.6953858184158802,0.10454115544855594,0.7772746317472309
1788957705142831400,6.465831298828125,0.7025568790890276,-0.43624388384222984,0.746574373057112
1788957705152881200,6.475881103515625,0.7633025127571076,-0.9530804767906665,0.6174371210124343
1788957705162931200,6.48593115234375,0.5963572158437221,-1.3778747458577156,0.4963210801968351
1788957705172981200,6.495981201171875,0.46861112589649856,-1.6644056226164101,0.38417456431109454
1788957705183032300,6.5060322265625,0.36130591256208716,-1.649968516463041,0.2947941165827215
1788957705193082000,6.51608203125,0.05509703332185745,-1.2913456324398518,0.31122239655330775
1788957705203132200,6.526132080078125,-0.3064904726605862,-0.6770283239483833,0.4112964165251702
1788957705213182200,6.53618212890625,-0.2409258213382214,0.09914368031919002,0.6544658520717174
1788957705223233300,6.5462333984375,-0.07141688448190689,0.7524754868596791,1.021110860639438
1788957705233283300,6.556283447265625,-0.017285554387047885,1.106602813029289,1.2626473612219093
1788957705243333000,6.5663330078125,0.004235445612668991,1.4285019402891397,1.389952575533837
1788957705253383200,6.576383056640625,0.08234627477526664,1.6680723284304142,1.3359480136238038
1788957705263434200,6.586434326171875,0.28828626905865967,1.5943740550130605,1.2983192708447575
1788957705273484300,6.596484375,0.39099136818647384,1.2909037338912486,1.3255872169986367
1788957705283534300,6.606534423828125,0.4878571301689371,0.9617717327684163,1.2365097342722118
1788957705293584100,6.616584228515625,0.5846224274516105,0.682448595431447,1.0624570895716547
1788957705303635200,6.62663525390625,0.7438052736699581,0.4232172290086746,0.8962854073792695
1788957705313685200,6.636685302734375,0.8528384798407554,0.1970996121585369,0.7815166532311588
1788957705323735300,6.6467353515625,0.9152607414841651,0.04735270280539989,0.6740734196655452
1788957705333785300,6.656785400390625,0.7805939123630523,-0.014988894817233084,0.6536222408544272
1788957705343836400,6.66683642578125,0.8263853572010994,-0.014244213929772376,0.6591630699772387
1788957705353886200,6.67688623046875,0.7907026339232921,0.5441279199779033,1.0634610059171914
1788957705363936300,6.686936279296875,0.7271487379014492,0.6524030012577772,1.2112861534275114
1788957705373986300,6.696986328125,0.6965197908818721,0.6205161631315946,1.3988897690966724
1788957705384037400,6.707037353515625,0.7801438305079936,0.5317091679096222,1.525532720107585
1788957705394087400,6.71708740234375,0.7208312253177166,0.4322621207296848,1.5629434362217782
1788957705404137200,6.72713720703125,0.5987257716059684,0.3518617193251848,1.5576616964265704
1788957705414187300,6.737187255859375,0.6215080967783928,0.2553969028264284,1.687374264141172
1788957705424238000,6.747238037109375,1.0759002162516116,0.04439093039035797,1.675828933906555
1788957705434288400,6.757288330078125,1.5341455040216445,-0.41978082481920714,1.522779183615744
1788957705444338400,6.76733837890625,1.499548822414875,-0.9072001846253871,1.4497247610598802
1788957705454388200,6.77738818359375,1.2860416808128357,-1.2398568527430296,1.3925994367808103
1788957705464439000,6.78743896484375,0.9979822793126105,-1.591648429441452,1.211434037465602
1788957705474489000,6.797489013671875,0.727915630620718,-1.994202225127816,1.0025560169689356
1788957705484539400,6.807539306640625,0.5442600219249725,-2.3035703721165657,0.7468034325726329
1788957705494589200,6.817589111328125,0.7512626039385795,-2.5276281338274478,0.3240666440246627
1788957705504640800,6.827640869140625,0.9081143768608569,-2.5549340739041564,0.04178820054605603
1788957705514690600,6.837690673828125,0.5954746608555317,-2.2574597783267496,0.07320859020426869
1788957705524740600,6.84774072265625,0.3364098831713199,-1.8098370068579912,0.18510715921092777
1788957705534790700,6.857790771484375,0.07714633151199668,-1.444195183983445,0.3800024297256022
1788957705544841700,6.867841796875,0.014867898786067962,-1.1239730500251055,0.7157719691667705
1788957705554891800,6.877891845703125,0.24312603479623793,-0.6666559830158949,1.1671684870205818
1788957705564941600,6.887941650390625,0.7255214289605617,-0.05510989280343055,1.5131863026231527
1788957705574991600,6.89799169921875,1.1963596563220023,0.5804506947249174,1.6616620229966939
1788957705585042700,6.908042724609375,1.240486382818222,1.1338374414354562,1.6439043941184877
1788957705595092700,6.9180927734375,1.0296049135446548,1.5687041917055844,1.7088327933639287
1788957705605142500,6.928142578125,0.47520577492117877,2.0842741257190704,1.7230488041125236
1788957705615192600,6.938192626953125,0.09298104776991531,2.487351068496704,1.7887687921270727
1788957705625243600,6.94824365234375,0.11152677655220031,2.823312623378634,1.6601291143409906
1788957705635293700,6.958293701171875,0.6877016936540603,2.7366695281922815,1.399486127554625
1788957705645343700,6.96834375,0.9523381339907646,1.9561802452474832,1.133916059629619
1788957705655393500,6.9783935546875,0.877360342156887,1.0919073482006787,0.8281578467663377
1788957705665444600,6.988444580078125,0.8624725696265697,0.5554109460145235,0.5437248921349644
1788957705675494700,6.99849462890625,0.8332020514786243,0.5543254888653755,0.5452995941057801
1788957705685544700,7.008544677734375,0.4708416979601606,-0.26307868950068947,0.4653608553962782
1788957705695594800,7.0185947265625,0.39589543377570807,-0.6856494372993708,0.6392911523588002
1788957705705645800,7.028645751953125,0.8071545870304108,-1.2194652220994233,0.7129312658481299
1788957705715695600,7.038695556640625,1.2816554285526276,-1.7320429885596036,0.7039826010432094
1788957705725745700,7.04874560546875,1.5673065998673439,-2.061454975667596,0.7421944774724543
1788957705735795700,7.058795654296875,1.373947927802801,-1.9301520700216293,0.9106343968577683
1788957705745846800,7.0688466796875,0.8746108242530375,-1.4816846644222736,1.1119241541825233
1788957705755896800,7.078896728515625,0.4879109427154064,-0.9528905071765184,1.27025067583248
1788957705765946600,7.088946533203125,0.4402023391444236,-0.5419318712383508,1.496433905264735
1788957705775996700,7.09899658203125,0.5453297700483352,-0.20601240193247794,1.7594903829336166
1788957705786047700,7.1090478515625,0.5106091698009521,0.09826572844088077,1.8624939535513518
1788957705796097800,7.119097900390625,0.5225871192991733,0.1274170041233301,1.8560541297622024
1788957705806147800,7.12914794921875,0.5370703296165913,-0.017799860584735868,1.781308539249003
1788957705816197600,7.13919775390625,0.5733506534613668,-0.3610083178550005,1.7866265194013713
1788957705826248700,7.149248779296875,0.5873614239614456,-0.7766139028161764,1.7980290801644325
1788957705836298800,7.159298828125,0.6978618531405926,-1.1860901912420987,1.837884705212712
1788957705846348800,7.169348876953125,0.6852583921551704,-1.4017559721827506,1.8502362372636794
1788957705856398800,7.17939892578125,0.5855974099636078,-1.4448960257291792,1.8941396763980387
1788957705866449700,7.18944970703125,0.49867432879209517,-1.252659051170945,1.9231132574260235
1788957705876499700,7.199499755859375,0.25532500663399693,-1.19563660274446,1.8543549246288835
1788957705886549800,7.2095498046875,-0.0346597369056195,-1.10979021089375,1.8369591148003934
1788957705896599800,7.219599853515625,-0.3238601251345128,-0.8682558292031287,1.8887556452721357
1788957705906651000,7.22965087890625,-0.5351555820364505,-0.6266635798454284,1.9768398791775106
1788957705916700700,7.23970068359375,-0.8899825078427791,-0.4227870208978653,2.0472946406289934
1788957705926750700,7.249750732421875,-1.2002374476034194,-0.22083938418626783,2.0433426881328223
1788957705936800800,7.25980078125,-1.1784675143439323,-0.11896423307657242,2.123563056795299
1788957705946851800,7.269851806640625,-1.0139070667404682,0.1350163732111454,2.1033920831650494
1788957705956902000,7.27990185546875,-0.831190127134323,0.4539525590121746,1.8782029793366788
1788957705966951700,7.28995166015625,-0.40174657095670696,0.7430752058297395,1.4893268497385084
1788957705977001700,7.300001708984375,-0.011693944925069808,0.8702087168365716,1.1469688718177378
1788957705987052800,7.310052734375,0.2331365557014942,1.0251409198731183,1.0204539311006664
1788957705997102800,7.320102783203125,0.5278922399699688,1.5107283880770206,1.0695881104953586
1788957706007153000,7.33015283203125,0.536045078222081,1.5116531017065047,1.0356988465055823
1788957706017202700,7.34020263671875,1.1672048735082148,2.67087457524538,1.5483542082466184
1788957706027253500,7.35025341796875,0.9637854106783866,3.1752690352499484,1.8020828855998814
1788957706037303800,7.3603037109375,0.7931762574952095,3.5078771880507467,1.864451809620857
1788957706047353900,7.370353759765625,0.6862614317178726,3.6492823855161665,1.8062701081566512
1788957706057404000,7.38040380859375,0.8218320047456771,3.675935999163985,1.6550313528105616
1788957706067454700,7.390454833984375,1.446273159301281,3.448230236339569,1.3528962258152664
1788957706077504500,7.40050439453125,1.8948399336218833,2.8199796795636414,0.9345438263639807
1788957706087554800,7.410554931640625,1.7784218778967857,1.910441407379508,0.3200617557648569
1788957706097604900,7.42060498046875,1.7636264598250389,1.0030623590558767,-0.4577317487573251
1788957706107655700,7.43065576171875,2.012222450464964,0.30102935771048067,-1.0215417994026095
1788957706117705700,7.440705810546875,2.154011094290018,-0.9561422024488448,-1.2665117815651
1788957706127755500,7.450755615234375,2.354879703593254,-2.41796189045012,-1.0205197628784923
1788957706137805800,7.460805908203125,2.4639725309967995,-3.763475750929117,-0.8152343600463121
1788957706147856600,7.470856689453125,1.9794459700226783,-5.136316009750962,-0.6002679230140522
1788957706157906700,7.48090673828125,1.137196688735485,-6.303312208944559,-0.37249614574871953
1788957706167956500,7.49095654296875,0.9901450098156929,-6.857817146030068,-0.3706122682308778
1788957706178006500,7.501006591796875,1.0922048698425293,-6.534019491672516,-0.07890453682355582
1788957706188057600,7.5110576171875,0.7505753523267805,-5.681149447649717,0.518906750285998
1788957706198107600,7.521107666015625,0.6136044109817594,-4.444992033946514,0.88800390124619
1788957706208157700,7.53115771484375,0.3427145362734794,-3.1918209416002035,0.8512818980485201
1788957706218207500,7.54120751953125,-0.244794114138931,-2.287388468122482,1.1260213608570395
1788957706228258600,7.551258544921875,-0.379629431694746,-1.6344173115879297,1.7924537642501293
1788957706238308600,7.56130859375,-0.162823394677788,-1.0145862081110477,2.2895342479795215
1788957706248358700,7.571358642578125,-0.14660393515229225,-0.22659341766834257,2.5771169718787075
1788957706258408700,7.58140869140625,0.05728190308026969,0.7711018613964319,2.424249446287006
1788957706268459800,7.591459716796875,0.3751074242256582,1.5172165810525415,2.0772459806479513
1788957706278509600,7.601509521484375,0.4624514342229813,2.1108336313426492,1.7611042478710413
1788957706288559600,7.6115595703125,0.5588893627148122,2.7578444181680677,1.4645995279781518
1788957706298609700,7.621609619140625,1.0425543384235352,3.393257121658325,1.162363351761177
1788957706308660700,7.63166064453125,1.5662147129774093,3.8411546184152363,1.0079531998373568
1788957706318710800,7.641710693359375,1.7860627480387687,4.149817247483134,0.9587085458055138
1788957706328760600,7.651760498046875,1.5660276659727095,4.380170309945941,0.8180064551081508
1788957706338810600,7.661810546875,1.572977631241083,4.37759782910943,0.8577549665201455
1788957706348861700,7.67186181640625,0.21841602949686348,4.785171498784423,0.9113587656095623
1788957706358911700,7.681911865234375,0.47428449535779654,4.792358779940009,1.1487671534113586
1788957706368961800,7.6919619140625,1.1712999608021228,4.476842631715535,1.3198548108264803
1788957706379011600,7.702011474609375,1.5351321769714354,4.028692036980391,0.8364440290745347
1788957706389062700,7.712062744140625,1.2559984247267246,2.8845927292495963,0.6058296853270382
1788957706399112700,7.72211279296875,0.8860581009406596,1.5804542507320642,0.6133728672482073
1788957706409162800,7.732162841796875,0.7274398298025131,0.6828408096194267,0.4243689563270658
1788957706419212800,7.742212890625,0.5609773479700089,-0.0077735566109418865,0.3056886547584087
1788957706429263600,7.752263671875,0.7039922456543892,-0.6631032589703798,0.398590006621927
1788957706439313700,7.762313720703125,0.7150667435068637,-0.6669102500379085,0.44274113690704103
1788957706449363700,7.77236376953125,0.08194302773661911,-2.317471471697092,0.2613169405251741
1788957706459413800,7.782413818359375,-0.2788203754466027,-3.9570185473889112,0.33437428569048644
1788957706469464800,7.79246484375,0.34081714168693866,-5.371604775050282,0.15799867793507874
1788957706479514600,7.8025146484375,0.4890331882109865,-6.220227098500728,0.11387794278822838
1788957706489564700,7.812564697265625,0.47711014723777767,-5.156150006511807,0.45524574062786993
1788957706499614700,7.82261474609375,1.0106722495377063,-4.580588837394118,1.2605476124636827
1788957706509665300,7.832665283203125,1.9987702636957168,-4.5927012999922034,1.3706803043089806
1788957706519715300,7.84271533203125,2.5649159542143343,-3.6625522014558314,1.2992138815969227
1788957706529765400,7.852765380859375,2.1180793646872043,-3.4268566089212893,1.9338018247008322
1788957706539815400,7.8628154296875,1.0685608132742346,-2.655668238285184,2.1687954064458608
1788957706549866500,7.872866455078125,0.5539956723891198,-1.6615584164917467,2.144541401285678
1788957706559916300,7.882916259765625,0.16345694334097205,-0.7772779196828603,2.031754103278369
1788957706569966300,7.89296630859375,-0.2207552860993892,0.22710487432181833,2.080823254612833
1788957706580016400,7.903016357421875,-0.5137129810351878,1.0641869821041823,1.9868349112302064
1788957706590067500,7.9130673828125,-0.7807879736304283,1.8039076168090105,1.7483768682450056
1788957706600117500,7.923117431640625,-0.7956862675547599,2.6265911968827247,1.7534530024655162
1788957706610167300,7.933167236328125,-0.29534488233327866,3.3768536838680503,1.796291588847339
1788957706620217300,7.94321728515625,0.47055641474537546,4.012016211989522,1.7549600460276007
1788957706630268400,7.953268310546875,1.072028416319564,4.545549672716856,1.6295689947739243
1788957706640318500,7.963318359375,1.242916824835539,4.930916186758876,1.218467370168492
1788957706650368500,7.973368408203125,0.9326280558705329,4.905183779609203,0.5056817233361304
1788957706660418300,7.983418212890625,0.6884381912350654,3.7339468741059303,0.09827888018339871
1788957706670469400,7.993469482421875,0.2694693403858691,2.3368629853874445,-0.18925489000752568
1788957706680519400,8.00351953125,0.2706700944777578,0.9320797743380069,-0.31861309132650495
1788957706690569500,8.013569580078125,0.6238486685551703,-0.11865619004070758,-0.4921790484886616
1788957706700619300,8.023619384765626,0.9364916724961251,-0.9540858544409274,-0.8677955182150006
1788957706710670300,8.03367041015625,0.8698597572684288,-2.1157792710512875,-0.9272340878725052
1788957706720720400,8.043720458984374,0.3521219776965678,-2.965700986662507,-0.722497697225213
1788957706730770400,8.0537705078125,0.145900316927582,-2.788222605296969,-0.6238521026212722
1788957706740820500,8.063820556640625,0.47925665774717924,-2.351823238632083,-0.5427722675852478
1788957706750871300,8.073871337890624,0.7015324314121156,-1.8824831408739089,-0.16147914046198128
1788957706760921300,8.08392138671875,1.2526910537444054,-1.0156950461357832,0.27231230872683226
1788957706770971400,8.093971435546875,1.6933552382469177,-0.23857553188502786,0.627753055582568
1788957706781021400,8.104021484375,1.6888287007331848,0.24260288770496843,1.125249718897417
1788957706791072300,8.114072265625,1.5994298770979045,0.3502028462022543,1.6902093414366244
1788957706801122300,8.124122314453125,1.127441018396616,0.1344195763617754,2.152933235925436
1788957706811172400,8.13417236328125,0.8206547045946121,-0.27592121993899343,2.393323123756051
1788957706821222400,8.144222412109375,0.7080626368984579,-0.47081543100774287,2.305207033407688
1788957706831273200,8.154273193359375,0.4797463409602642,-0.7186503741472959,2.035189776815474
1788957706841323300,8.1643232421875,0.43594241667762396,-0.7261281626820564,2.0504056122563776
1788957706851373300,8.174373291015625,0.22931129832491276,-1.3971902717024087,1.381122933998704
1788957706861423400,8.18442333984375,0.41611777226701374,-1.296528003513813,1.016161494603753
1788957706871474200,8.19447412109375,0.8367509761318563,-0.8556950383156537,0.47699638466499744
1788957706881524200,8.204524169921875,0.7936977240860462,-0.3031979339212179,0.19433895180616526
1788957706891574300,8.21457421875,0.6524994473695754,0.06326572673022747,0.16366477740537375
1788957706901624300,8.224624267578125,0.4585737890720367,0.46499008585512636,0.18631492756549267
1788957706911675100,8.234675048828125,0.0756686967074871,0.5197796606630086,0.4382292855057865
1788957706921725200,8.24472509765625,-0.01976619222164154,0.5317307952195406,0.48669879044666886
1788957706931775200,8.254775146484375,-0.13815408671498297,0.17563947550058365,0.5697798823025078
1788957706941825300,8.2648251953125,-0.4302022655904293,-0.19734101969897747,0.862178408985585
1788957706951876400,8.27487646484375,-0.2336274079583585,-0.18939386008679865,0.9307179844655096
1788957706961926100,8.284926025390625,0.20334332885369658,-0.07086041964292526,0.7821767976403236
1788957706971976200,8.29497607421875,0.19382862766385078,-0.09793839618265628,0.5951643893299624
1788957706982026200,8.305026123046876,0.7999664290919899,0.18907120400369165,0.5545828976925462
1788957706992077300,8.315077392578125,1.4946281710170208,0.7817232086539267,0.534220018219389
1788957707002127400,8.32512744140625,1.2040833824418484,1.2924521323770284,0.624242636308819
1788957707012177200,8.33517724609375,0.25975772838443517,1.4071703984469175,0.9446985790230333
1788957707022227200,8.345227294921875,-0.3560413430973887,1.1923960133880376,1.0527294762834907
1788957707032278300,8.3552783203125,-0.45587768185585736,0.7031506071984768,1.1014285521965472
1788957707042328300,8.365328369140625,-0.4393912419572472,0.2748275794833898,1.1934095743447541
1788957707052378400,8.37537841796875,-0.08810703025907278,-0.07112286997139454,1.183881940608099
1788957707062428200,8.38542822265625,0.11549831053167581,-0.3104255470871925,0.9537292960882187
1788957707072479200,8.395479248046875,-0.2766333137311041,-0.37323943839669227,0.6461432832758873
1788957707082529300,8.405529296875,-0.6240367384731769,-0.12269114464521408,0.4937937536763027
1788957707092579300,8.415579345703126,-0.2942496344424784,0.4505412892639637,0.36930535035077483
1788957707102629400,8.42562939453125,0.14630699803233146,1.2582026567727327,0.12568163169808685
1788957707112680400,8.435680419921875,0.364283247872442,2.062235312390327,0.06209050893839448
1788957707122730200,8.445730224609376,0.07600655035972595,2.637621709463,0.13702168515156954
1788957707132780300,8.4557802734375,0.04271569065451622,2.9269512770295143,0.16554653603136538
1788957707142830300,8.465830322265624,0.29495354492813347,2.5264538293510674,0.2711326156892814
1788957707152881400,8.47588134765625,0.2390449029624462,1.7537293351888656,0.4083084867555648
1788957707162931500,8.485931396484375,0.2691195771001279,0.8223240991115569,0.3873827492352575
1788957707172981200,8.495981201171874,0.47173605298399923,-0.5513607938408851,0.3593322013363242
1788957707183031300,8.50603125,0.656194794756174,-1.7674340354144573,0.3899131444957107
1788957707193082400,8.516082275390625,0.6612342502281069,-2.6649001770108938,0.40918450240511445
1788957707203132400,8.52613232421875,0.7425633107848465,-3.199813109397888,0.4695668922513723
1788957707213182500,8.536182373046875,0.8155705331981181,-3.3487966331630945,0.5445314958101138
1788957707223232300,8.546232177734375,0.5003048526033759,-3.5659961995422838,0.6201734871737659
1788957707233282300,8.5562822265625,0.12890811946392058,-3.453401501497626,0.587686600795202
1788957707243333400,8.56633349609375,0.09243775293976068,-2.7461510577648878,0.2673073400463909
1788957707253383400,8.576383544921875,0.05220131188035011,-1.9820137746840714,0.42339517939146604
1788957707263433200,8.58643310546875,0.0974585037112236,-1.515593363764882,1.1265550293423234
1788957707273483300,8.596483154296875,0.21786285259351132,-0.7463222249269486,1.5641180329591036
1788957707283534300,8.606534423828125,0.2737948754347861,0.14796353306770324,1.7936483808621764
1788957707293584400,8.61658447265625,-0.13427271523699164,1.15456926381886,1.8222239024832845
1788957707303634400,8.626634521484375,-0.2809201972700655,1.9589298362165688,1.7457206546477972
1788957707313684200,8.636684326171874,-0.1133737195931375,2.5747417671799657,1.6343879393629728
1788957707323735300,8.6467353515625,0.1218460721231997,3.032430590111017,1.3728760607875883
1788957707333785300,8.656785400390625,0.5115583602845668,3.28145912694931,1.0178989859208465
1788957707343835400,8.66683544921875,0.5210673623859882,3.282508928263187,1.0380578307218848
1788957707353885400,8.676885498046875,1.085377361910045,2.660477684393525,0.33509901976846157
1788957707363936500,8.6869365234375,0.7733364885807037,2.0186925232619046,0.03168508674269542
1788957707373986300,8.696986328125,0.5542810652017593,1.3396657189726828,-0.07616594217251986
1788957707384036400,8.707036376953125,0.9885340674877167,0.6034165597707033,-0.06432148286085576
1788957707394086400,8.71708642578125,1.2259116217598318,-0.2191980467200279,0.16580642907656729
1788957707404137500,8.727137451171876,0.8959902238249778,-0.7662789712846279,0.5629965057726949
1788957707414187500,8.7371875,1.0480499401651322,-1.0433563755214215,1.1844479769930243
1788957707424237300,8.7472373046875,0.6820704097688197,-0.4881318919897079,1.1633237212259322
1788957707434287400,8.757287353515625,0.6291945596277714,-1.2651537910848856,1.1127088017541915
1788957707444338400,8.76733837890625,0.8674256619893014,-2.2040239562153814,1.1003116769958288
1788957707454388500,8.777388427734374,0.8614693839333951,-2.2054934442460534,1.1126697118528186
1788957707464438500,8.7874384765625,0.9696680389761925,-2.03621356690526,0.755413659203425
1788957707474488300,8.79748828125,0.868265619944781,-2.096604030460119,0.8127095908090471
1788957707484539400,8.807539306640624,0.16628128004670142,-2.164662252163887,1.0557752737201749
1788957707494589400,8.81758935546875,0.3673942194998264,-1.976033531230688,1.1684605726577342
1788957707504639700,8.8276396484375,0.848551596301794,-1.7860703468233345,1.0735964693538844
1788957707514689800,8.837689697265626,0.9509119005799292,-1.6155395926386118,1.1027044904164969
1788957707524740600,8.84774072265625,1.239499709868431,-1.4616297183871267,1.033595006094128
1788957707534790400,8.857790283203125,0.7493570625782012,-1.377583069434762,1.084755942076072
1788957707544840400,8.86784033203125,-0.08633651345521211,-1.291188396051526,1.323083709745109
1788957707554890800,8.877890869140625,0.16467486776337026,-1.0973545076906681,1.1890582472674547
1788957707564941600,8.887941650390625,0.6036215808235108,-1.4901345128595829,1.0048881131783127
1788957707574991600,8.89799169921875,0.529949903152138,-1.3241016546159983,1.1505246646031737
1788957707585041400,8.90804150390625,0.8523615099787711,-0.8840969569355249,1.013989849653095
1788957707595091500,8.918091552734374,0.27271803998351096,-0.5213023401856423,0.9082686906397343
1788957707605142500,8.928142578125,-0.4325147803165018,0.012237550282478332,1.0897877256982027
1788957707615192600,8.938192626953125,-0.5381131897330284,0.8380424772471189,1.2352636797338723
1788957707625242400,8.948242431640624,-0.5279669126413762,1.817763708204031,1.0745938828933983
1788957707635292400,8.95829248046875,-0.39833661638274787,2.573655725508928,1.184660962156579
1788957707645343500,8.968343505859375,-0.36483006810024377,2.922219572332501,1.569405910234153
1788957707655393500,8.9783935546875,-0.44844636281132694,3.579863981375098,1.3903402596771717
1788957707665443600,8.988443603515625,-0.2840345298983156,3.926650881654024,1.16559371198453
1788957707675493400,8.998493408203124,-0.2734558527387678,3.9265123499661683,1.188267096889764
1788957707685544400,9.00854443359375,-0.1749696134150028,3.7087305997848508,0.8369174187399446
1788957707695594500,9.018594482421875,-0.19335516493320465,2.821888143533468,0.8020471078235656
1788957707705644500,9.02864453125,-0.5320398611687124,1.561666548153758,0.8558123810850083
1788957707715694600,9.038694580078126,-0.5019628489434719,0.6337953314214945,0.8283207091778516
1788957707725745700,9.04874560546875,-0.08025617062821984,-0.18038871585428715,0.7669302748002111
1788957707735795500,9.05879541015625,0.15396321187391876,-0.9950479794263839,0.7358942082844674
1788957707745845500,9.068845458984375,0.21316227368712423,-1.5065858814448116,0.781362485582754
1788957707755895600,9.0788955078125,0.3731095284067094,-1.8983797981858253,0.8020353443205356
1788957707765946600,9.088946533203124,0.45760815891027445,-2.1085580876260996,0.7582404801271856
1788957707775996700,9.09899658203125,0.7598221963606774,-2.403604279273748,0.9688675362482666
1788957707786046500,9.10904638671875,0.6705820704184472,-1.9536118560642002,1.0445831408374011
1788957707796096500,9.119096435546876,1.0209877457164227,-1.3670201743662356,1.0079755577996372
1788957707806147600,9.129147705078125,1.5897722603060305,-1.4554010531306265,1.0861562373280524
1788957707816197600,9.13919775390625,1.416943896703422,-1.8417337818562984,1.4468711251944302
1788957707826247700,9.14924755859375,1.146049857276678,-1.9951877290338276,1.9124109538868068
1788957707836297500,9.15929736328125,1.3543148604415356,-1.563897083684802,1.7494646634817121
1788957707846347500,9.169347412109374,1.4164626890577374,-1.8738918381392955,1.65916538387537
1788957707856398600,9.179398681640626,0.7097181490205228,-1.7775211296647786,1.708501953974366
1788957707866448600,9.18944873046875,0.1308545773565769,-1.0622025302886962,1.687095301069319
1788957707876498700,9.199498779296874,-0.006128273621946573,-0.1775666441708803,1.6272899439260362
1788957707886548500,9.209548583984375,0.27624387602210043,0.6315706411093474,1.560306219585985
1788957707896599600,9.219599609375,0.8362567628741264,1.3996908563464878,1.5507383269041777
1788957707906649600,9.229649658203124,1.0544422715507447,2.2193489511191844,1.3913348236724734
1788957707916699600,9.23969970703125,0.93127678739205,2.822237103101611,1.0547395009316503
1788957707926749400,9.24974951171875,0.6785621093869209,2.896413515424728,0.8153565981864929
1788957707936800500,9.259800537109374,0.6302220029793679,2.2753274434506894,0.5866810404818504
1788957707946850600,9.2698505859375,0.32139570778235793,0.851388281032443,0.653404506450519
1788957707956900600,9.279900634765625,-0.28408465265035626,-0.08751052567064761,0.6403188879713416
1788957707966950700,9.28995068359375,0.13269377548247574,-0.7306143681854009,0.28035138440616425
1788957707977001700,9.300001708984375,0.51784693903476,-1.9402882641106842,0.14940825198329985
1788957707987051500,9.310051513671874,0.27391499468311664,-3.0391362252295013,0.5381703267477452
1788957707997101600,9.3201015625,-0.6459833434738218,-2.8235008394271133,0.7680603017434477
1788957708007151600,9.330151611328125,-0.6375697353936731,-2.8200480686247347,0.7501403219103813
1788957708017202700,9.34020263671875,-1.1913269228518009,-1.01747257720232,1.3937659963421523
1788957708027252700,9.350252685546875,-0.09556114565730095,0.07200725159049033,1.5414752623878418
1788957708037302500,9.360302490234375,0.5457645812690257,1.3980863437592983,1.7530206023976205
1788957708047352600,9.3703525390625,0.8757333254769444,2.8427526523858306,1.8198934137091038
1788957708057403600,9.380403564453125,1.2044015084803104,4.151883532363176,1.6159902590155601
1788957708067453700,9.39045361328125,1.5808242530882357,4.624230410721898,1.3773732260763645
1788957708077503700,9.400503662109376,0.7900105600059032,3.934440804877877,1.4029054344788192
1788957708087553500,9.410553466796875,-0.6817281722024082,2.4415771593153477,1.705097844619304
1788957708097604600,9.4206044921875,-0.682621906171739,1.4220049794852734,1.5836805193021892
1788957708107654700,9.430654541015626,-0.1295489015854895,0.6834802765667438,1.2033123980693519
1788957708117704700,9.44070458984375,0.34126594490036366,-0.8281587966144085,1.1570090581864119
1788957708127754800,9.450754638671874,0.767500329773128,-0.901678206333518,0.20653357626236973
1788957708137805800,9.460805908203126,0.9416771853752434,-2.046277280279994,0.0561227961730212
1788957708147855600,9.470855712890625,1.241247138057649,-2.531995681387186,-0.28657018585577604
1788957708157905700,9.48090576171875,1.289351243752241,-2.3412802173078058,-0.2946235092561692
1788957708167955700,9.490955810546875,1.5351811306796967,-2.0674311274677515,-0.1932419868823141
1788957708178005800,9.501005859375,1.96679808537364,-1.8353052101135252,0.08327581071034074
1788957708188056600,9.511056640625,1.8267349501669405,-1.7625363265007734,0.5385191401854157
1788957708198106600,9.521106689453125,1.193708265030384,-1.7781009753793477,1.2143731596574188
1788957708208156700,9.53115673828125,0.5346645105838775,-1.5137679019033907,2.005065564447641
1788957708218206700,9.541206787109376,0.5110632702440023,-1.5190613321363926,1.992424986322224
1788957708228257500,9.551257568359375,-0.07061813531965017,-1.4529939919888972,3.453797807338834
1788957708238307600,9.5613076171875,-0.12110007606148719,-0.47489831640720365,3.110022363835573
1788957708248357600,9.571357666015626,-0.1258224284082651,0.12092998019158839,2.6852383239015936
1788957708258407700,9.58140771484375,-0.4494479410693049,0.3733113345891237,2.334053188663721
1788957708268458500,9.59145849609375,-0.8827043335333467,0.6679582977861166,1.9984864783182739
1788957708278508500,9.601508544921876,-0.9665712420046328,1.1665192293316125,1.6593451243564485
1788957708288558600,9.61155859375,-0.4639689261138439,1.6384417447984219,1.453228239136189
1788957708298608600,9.621608642578124,-0.02110240926146507,1.9883868168473242,1.205758183786273
1788957708308659500,9.631659423828125,0.18361220794543623,2.3264637564480304,0.7898102151282131
1788957708318709500,9.64170947265625,0.30059841894730926,2.6010920139670373,0.5900835424017161
1788957708328759600,9.651759521484376,0.12742065738514066,2.3732132326632738,0.5020647018827498
1788957708338809600,9.6618095703125,0.03050605129227042,1.8197931682050228,0.5080966755233705
1788957708348860400,9.6718603515625,0.276860985007137,1.16986211001873,0.5813136682298035
1788957708358910500,9.681910400390626,0.6226069979310035,0.667679480844736,0.5157698404997587
1788957708368960500,9.69196044921875,0.891173617323488,0.4716922138422727,0.17073928236886857
1788957708379010600,9.702010498046874,1.182646772789955,0.0013005612045526504,-0.1038226319156587
1788957708389061600,9.7120615234375,1.242569618833065,-0.5475181469380855,-0.1968073512136936
1788957708399111400,9.722111328125,1.0336804924204945,-0.5887947447001933,-0.1700420208197087
1788957708409161500,9.732161376953124,0.6271452258825302,-0.5560825616657734,0.0292063668705523
1788957708419211500,9.74221142578125,0.6073088910341262,-1.1716817266613244,0.4359245156947523
1788957708429262600,9.7522626953125,0.7154545007154345,-1.7587328425645827,1.0237555299293248
1788957708439312600,9.762312744140624,0.6628980917870998,-2.322517649170756,1.5036054043293
1788957708449362400,9.772362548828125,0.33822307007312774,-2.6249796700328587,1.8463965129703281
1788957708459412500,9.78241259765625,-0.0840580471292138,-2.6499995449990035,2.2876713767170904
1788957708469463600,9.792463623046874,0.16627134317457676,-1.950658266955614,2.1149409205310046
1788957708479513600,9.802513671875,0.4534831879347562,-1.0861766955941914,1.9896663352638482
1788957708489563400,9.8125634765625,0.47646717315912246,-0.4842196869820356,2.1798200738072393
1788957708499613400,9.822613525390626,0.9738590609252452,0.0719347708761692,1.962120448951423
1788957708509664300,9.832664306640625,0.9154141784802079,0.21339199078977106,1.6896100603692232
1788957708519714300,9.84271435546875,-0.13171499357819558,0.11308511191010474,1.661669767911732
1788957708529764400,9.852764404296876,-0.5599722625806928,0.3677361648052931,1.6877794839411973
1788957708539814100,9.862814208984375,0.08083937734365462,0.8815238915771245,1.6148051408842206
1788957708549864200,9.8728642578125,1.0676257243812084,1.2299842780262231,1.2593559184610843
1788957708559915300,9.882915283203126,1.5466072184488175,1.3051508704304695,1.0792594635516404
1788957708569965300,9.89296533203125,1.776030306585133,1.4699468803554772,0.905619052913785
1788957708580015400,9.903015380859374,1.3461179638519882,1.0970961490154265,0.9100938602402806
1788957708590065200,9.913065185546875,0.7066156529605389,0.598898205563426,0.09681311847977339
1788957708600116200,9.9231162109375,0.23278233543634413,-0.024373393756151197,-0.04251388447210192
1788957708610166300,9.933166259765626,0.41791503094732757,-0.36344869674444197,0.3624035716056824
1788957708620216300,9.94321630859375,0.8987138035699724,-0.5761071125626563,0.4118617222577333
1788957708630266400,9.953266357421874,1.0815417292699216,-0.6113865157365799,0.6880357479140162
1788957708640317400,9.9633173828125,1.0700973751917482,-0.7117173600137233,0.8173361546311527
1788957708650367200,9.9733671875,0.4886103231564164,-0.7534434551090001,0.8541405754152684
1788957708660417300,9.983417236328124,-0.4749439091145992,-0.7233037529110908,1.2393705305308103
1788957708670467300,9.99346728515625,-0.36847061655968427,-0.16754034019708633,1.5480607782579958
1788957708680518400,10.003518310546875,0.988596903590858,0.7452852830946445,1.4651574541218577
1788957708690568400,10.013568359375,2.095183350007236,0.8669079217255115,1.3067578672356903
1788957708700618200,10.0236181640625,3.0029893915712833,0.593577302801609,1.5914812561810017
1788957708710668300,10.033668212890625,1.6359952284291386,0.9003589404284954,0.9501059179592877
1788957708720719400,10.04371923828125,2.1393159217223525,-0.2833288658469915,0.44447899355031545
1788957708730769400,10.053769287109375,2.099750804053247,-1.6297352912515402,0.46075792817808686
1788957708740819200,10.063819091796875,1.4577119604215025,-2.585912565013766,0.45338191951736806
1788957708750869200,10.073869140625,1.2077671855211258,-3.4097283639878033,0.2864423947576433
1788957708760920300,10.08392041015625,1.1325810116335748,-3.6108722831010818,0.5790774336103349
1788957708770970400,10.093970458984375,0.2927083963498473,-3.192468591853976,0.9966650592342019
1788957708781020400,10.1040205078125,-0.10065057775080204,-2.4417338111817837,1.5509513851329684
1788957708791070200,10.1140703125,0.06712620155066251,-1.0487690482199192,1.891785806748271
1788957708801121300,10.124121337890625,0.2998851561114192,-0.2705558935135603,2.0545178698807955
1788957708811171300,10.13417138671875,0.2514695002496242,0.44990182231664655,1.8778864607334136
1788957708821221400,10.144221435546875,-0.3097171065568924,1.0522282487630843,1.7425073916897176
1788957708831271400,10.154271484375,-0.7132572829321027,1.141478896099329,1.6205281947061418
1788957708841321200,10.1643212890625,-0.7106304415598511,1.1414970162779092,1.6291653824090957
1788957708851372300,10.174372314453125,-0.39311932012587786,1.5094313340038061,1.145371958015114
1788957708861422300,10.18442236328125,-0.5891688387095928,1.461379543018341,1.2007979310303927
1788957708871472400,10.194472412109375,-0.554887798923254,1.4685826062649487,1.2550447772637008
1788957708881522400,10.2045224609375,-0.456982428227365,1.6741723988711832,1.1797597461115568
1788957708891573500,10.214573486328124,-0.5712976664543151,1.6156307780534027,1.279525576917082
1788957708901623300,10.224623291015625,0.04681435814499855,1.49170629222095,1.1056048149678857
1788957708911673300,10.23467333984375,0.2229635367333889,1.2015455345273016,0.7663279980581253
1788957708921723400,10.244723388671876,0.05760930840373039,0.4671060550957918,0.7749176202923059
1788957708931774500,10.2547744140625,-0.1955225721001625,-0.046720834642648694,0.7866610303822904
1788957708941824500,10.264824462890624,-0.11659575037956237,-0.25813947953283783,0.4564011942733079
1788957708951874300,10.274874267578125,0.24563597179055213,-0.5363631311953068,0.30248255219347775
1788957708961924400,10.28492431640625,0.3307119637906551,-1.4022335265666246,0.5026568225570023
1788957708971975400,10.294975341796874,0.2530786890119314,-1.9899363843768834,0.6863748289644718
1788957708982025500,10.305025390625,0.28222938017249105,-1.9795184507369994,0.6736641082122922
1788957708992075500,10.315075439453125,-0.6985498354047537,-2.4392957703799008,1.4125202350422739
1788957709002125300,10.325125244140626,-1.356789872252941,-1.4787310753136873,2.014564045155048
1788957709012176400,10.33517626953125,-1.8005004387140273,-0.27584698565900323,2.6990152125805613
1788957709022226400,10.345226318359375,-2.200953462728858,0.8709370311111211,2.72522166698277
1788957709032276500,10.3552763671875,-1.974759858033061,2.0410241820573805,2.429797728063911
1788957709042326500,10.365326416015625,-1.47161072191447,2.92298704957366,2.243025887043774
1788957709052377300,10.37537744140625,-0.4861275664299726,3.4992005451202393,1.7367878449991345
1788957709062427400,10.385427490234376,0.9842784558698534,5.083996039927006,0.5167535908401012
1788957709072477400,10.3954775390625,2.37268920878917,5.234146269384026,-0.5606853062208742
1788957709082527500,10.405527587890624,2.292123679950833,3.4545033252596853,-0.9368808910094201
1788957709092578300,10.415578369140626,1.1773527580350638,0.960658803090453,-0.6794106890402734
1788957709102628400,10.42562841796875,1.1090917072355746,-0.689392130959034,-0.594511989835836
1788957709112678400,10.435678466796874,1.0368734432429074,-1.4951502951949833,-0.5811576008852571
1788957709122728400,10.445728515625,0.6827963859558105,-2.3398393708497283,-0.4849564037587493
1788957709132778500,10.455778564453125,0.7253481182202697,-3.152742730665207,-0.8988201865538954
1788957709142829300,10.465829345703124,0.6759758922860026,-3.756839673915505,-1.3912307787761091
1788957709152879400,10.47587939453125,0.5118509134903549,-3.6925305756121873,-1.3017018990203737
1788957709162929400,10.485929443359375,0.4906222475007176,-2.815236284428835,-0.9146480164133012
1788957709172979500,10.4959794921875,0.9506088259801267,-1.8062772685497999,-0.3198544696897268
1788957709183030300,10.5060302734375,1.3623375695079565,-1.071693996733427,0.3233976952545345
1788957709193080300,10.516080322265625,1.5024208707198499,-0.525659366351366,0.9244806975111365
1788957709203130400,10.52613037109375,1.9508099503859877,-0.1815145050138235,0.981229881954193
1788957709213180400,10.536180419921875,1.860014996217191,-0.4292331282973289,0.9314870691418647
1788957709223231200,10.546231201171874,1.2148600663915277,-0.9689975923687218,0.9965691976442933
1788957709233281300,10.55628125,1.223272213166952,-0.9673936643034219,1.0078734125994144
1788957709243331300,10.566331298828125,0.7268138068586587,-0.8256658107548952,0.9525970771878958
1788957709253381400,10.57638134765625,0.4806403671905398,-0.5927987196445464,0.961982672105357
1788957709263432200,10.58643212890625,0.493655916108191,-0.177880532425642,0.9561021626994013
1788957709273482200,10.596482177734375,0.884825855731964,0.33413200136721133,0.5690100669737905
1788957709283532300,10.6065322265625,1.001771150201559,0.38903906507492064,0.18264774682745336
1788957709293582300,10.616582275390625,0.6302072438016534,0.18488135109841822,0.09365450831837951
1788957709303633400,10.62663330078125,0.31230770757198334,0.2555938867032528,0.08105944983512163
1788957709313683200,10.63668310546875,0.40323096429556604,0.37868250623345373,0.005372121492400765
1788957709323733200,10.646733154296875,0.2841451506659388,0.33363281967341896,0.10830613400526344
1788957709333783300,10.656783203125,0.2122676629349589,0.4260100745975971,0.29259200342856345
1788957709343834400,10.66683447265625,0.18468582852631807,0.41677579778432844,0.2967687776565552
1788957709353884200,10.67688427734375,0.5125564314112067,0.9214987590909004,0.2896825457226485
1788957709363934200,10.686934326171874,0.2770759429320693,0.7132184122264384,0.6723094787329434
1788957709373984300,10.696984375,0.5192433618292213,0.8555249424457549,0.6563315728783607
1788957709384034300,10.707034423828125,0.5859279570922256,0.6444505809485912,0.600131327554956
1788957709394085400,10.71708544921875,-0.44112581066489215,-0.39004502724707124,0.678728844255954
1788957709404135200,10.72713525390625,-1.0603481345936656,-0.7521048999816179,0.4986076202314347
1788957709414185200,10.737185302734375,-1.0847560151413083,-0.7242530164599418,0.15916348393075166
1788957709424235300,10.7472353515625,-1.2974836968034504,-0.6662497403025627,0.2789006741411984
1788957709434286300,10.757286376953125,-1.1677552008673548,-0.5754407576084136,0.40095578590519726
1788957709444336400,10.76733642578125,-0.6702487468108534,-0.43628655394017696,0.580041967793554
1788957709454386200,10.77738623046875,-0.13392331727743148,-0.12931494669914245,0.9016182928398251
1788957709464436200,10.787436279296875,-0.1919952747568488,-0.12087620417773723,1.0372009216316043
1788957709474487300,10.7974873046875,-0.20181816511303186,-0.8236018639624119,1.2326041051357983
1788957709484537300,10.807537353515626,-0.5548752317026258,-1.1643056449353695,1.5605248307727277
1788957709494587400,10.81758740234375,-0.7292711368829011,-1.1440180591881275,1.457422037564218
1788957709504637200,10.82763720703125,-0.5319420998826623,-1.2419395042359829,1.1849709779538213
1788957709514688300,10.837688232421876,-0.535885284550488,-1.260910162165761,1.44980922447294
1788957709524738300,10.84773828125,-0.588263998824358,-1.1930372339010238,1.580249668070674
1788957709534788000,10.8577880859375,-0.5301248213276267,-0.9088310006976127,1.455970961973071
1788957709544838100,10.867838134765625,-0.34509237132072446,-0.5021563256889582,0.9404863681554794
1788957709554889200,10.87788916015625,0.12884966727495192,-0.2275993798404932,0.42541364307440815
1788957709564939300,10.887939208984376,0.40729602177739144,-0.040730654317140576,0.40186398679129776
1788957709574989300,10.8979892578125,0.9686983171612024,-0.41818741814792154,0.7106801989857107
1788957709585039000,10.9080390625,0.7199123569071293,-0.3177712336748838,0.4348245185635984
1788957709595089200,10.918089111328126,1.4238473924815653,-0.5725052886784077,0.23706571184396744
1788957709605140200,10.92814013671875,2.094733560413122,-1.1036521465301512,-0.007049918511509895
1788957709615190300,10.938190185546874,1.4159437797501682,-1.6841764910131691,-0.16708083292655646
1788957709625240300,10.948240234375,1.1988029578208923,-2.1079946085244416,-0.24251162922494113
1788957709635290000,10.9582900390625,1.0946586927354336,-2.6324481062173843,0.6107016022123396
1788957709645341200,10.968341064453124,1.0842989190235732,-2.6355139235287903,0.6068654581155628
1788957709655391200,10.97839111328125,0.7129393030241131,-2.138301483982801,1.0444502351727336
1788957709665441300,10.988441162109375,0.997403310380876,-1.692416496092081,0.7680280799742788
1788957709675491000,10.998490966796876,1.0223828533366321,-1.6860317634910345,0.7873551501262932
1788957709685542100,11.008542236328125,1.1740905413687228,-0.7869874127924442,0.24924912078641354
1788957709695592200,11.01859228515625,1.2163304312050343,-0.7792021657437086,0.3064828008107841
1788957709705642200,11.028642333984376,-0.3046715136051178,0.49650049188435075,1.3189111002355813
1788957709715692300,11.0386923828125,0.2795914328843355,1.4276795179903505,1.6751640402570367
1788957709725743400,11.048743408203125,0.7580065252408384,2.0511288119643925,1.9325318047650157
1788957709735793200,11.058793212890626,0.818170486563444,2.059024533650279,2.0085833633102474
1788957709745843200,11.06884326171875,0.9304185631275177,2.3059072906315325,1.9559157490924
1788957709755893200,11.078893310546874,1.094046406055987,1.7795973514169454,1.5514112577296792
1788957709765943300,11.088943359375,0.5030138193011283,1.3235212243795393,1.1904499938867985
1788957709775994400,11.098994384765625,0.5559589352861046,1.3290554776310919,1.24588458859995
1788957709786044200,11.109044189453124,0.2475437051080167,0.47075054907798763,0.8439595923364162
1788957709796094200,11.11909423828125,-0.57045858528167,-0.5249024105042219,0.4329603321269154
1788957709806144300,11.129144287109375,-1.4784157257542012,-1.4056909735441208,0.7467771290875971
1788957709816195300,11.1391953125,-3.177671127955615,-2.1748943078428504,0.2777577877163887
1788957709826245400,11.149245361328125,-3.015497867749631,-2.1777760007590055,0.4650383089110255
1788957709836295200,11.159295166015625,-3.1557915968418118,-3.279211640283465,0.6633196782000362
1788957709846345200,11.16934521484375,-3.149045045191049,-3.6903164066940546,-0.2113236600831151
1788957709856396300,11.179396240234375,-2.1915512820027767,-3.9025837773680685,-0.6205225928723812
1788957709866446300,11.1894462890625,-1.0912615976430475,-4.803678630855679,-0.9004881197661161
1788957709876496400,11.199496337890626,-0.7826934419255703,-4.787476853117346,-0.8674810454383491
1788957709886546200,11.209546142578125,-1.3130056755840778,-5.9548114904850715,-1.4895476528823375
1788957709896597200,11.21959716796875,-0.8222294065654278,-5.520658441442251,-1.8942299850299953
1788957709906647300,11.229647216796875,0.23262509904801845,-5.618380564525723,-2.015489635567367
1788957709916697300,11.239697265625,0.45479364947881545,-5.597583275690674,-2.115759397307038
1788957709926747400,11.249747314453124,-1.1095511414408683,-4.959148594030737,-2.9160382533490656
1788957709936798200,11.259798095703125,1.0238018532890827,-3.376844916039705,-3.943415553972125
1788957709946848300,11.26984814453125,2.6305782206922768,-0.8447592182815075,-3.3787650704473253
1788957709956898300,11.279898193359376,2.68700737940073,-0.1745510957419872,-2.5952383195027706
1788957709966948400,11.2899482421875,3.04941504265964,-0.19096330136060713,-2.914099394240975
1788957709976998100,11.299998046875,3.4318034176737067,0.23847265603244303,-3.6873695395871993
1788957709987049200,11.31004931640625,5.656877760702371,1.0117086068481207,-3.9029941117346283
1788957709997099300,11.320099365234375,3.9734322143122554,2.8943893161207437,-3.1352266554579136
1788957710007149300,11.3301494140625,4.874739833767712,3.0798201177954674,-4.308507634009421
1788957710017199400,11.340199462890626,5.071462137046456,2.9948090077251193,-4.6641544248312705
1788957710027250200,11.350250244140625,4.171292581710219,2.387004442128539,-3.4918107271298764
1788957710037300200,11.36030029296875,2.2934546362936494,2.694047945562005,-4.5488209494724865
1788957710047350300,11.370350341796875,2.228200950616598,1.5919067881166935,-6.29681933979392
1788957710057400300,11.380400390625,2.068476252606511,1.7559546100229024,-6.817947492456436
1788957710067451100,11.390451171875,2.1690666246026753,1.6091069292426108,-7.220733343333006
1788957710077501200,11.400501220703125,2.001354142709076,2.0350883622676132,-6.951247709399461
1788957710087551200,11.41055126953125,1.5568924656197427,2.9230975242108106,-6.351988269308209
1788957710097601300,11.420601318359376,-1.1157874054819346,5.718284123301506,-5.624976894050836
1788957710107652000,11.430652099609375,-0.34765637658983467,6.069360245206952,-4.994491125568747
1788957710117702100,11.4407021484375,-0.27450901505351066,5.853636012077331,-5.316655625766516
1788957710127752200,11.450752197265626,-0.5958008240699768,5.872500287023186,-4.527466026754677
1788957710137802200,11.46080224609375,-1.255946986800432,6.192540634673834,-2.546092888061702
1788957710147853000,11.47085302734375,-1.9444927300631998,6.096330669718981,-2.5395149709761142
1788957710157903000,11.480903076171876,-1.79352972291857,5.4915089193254705,-3.242688959050178
1788957710167953200,11.490953125,-1.7347303279474378,5.434733723658323,-3.267811125347018
1788957710178003200,11.501003173828124,-0.41933717270493504,4.9583729334831235,-3.5736341470748183
1788957710188053200,11.51105322265625,-2.0526380474835633,3.3151346020579338,-3.7530829517304896
1788957710198104000,11.52110400390625,-2.3506278913676737,2.2651041556000706,-3.548132626071572
1788957710208154000,11.531154052734376,-2.227809320950508,1.316362000274658,-3.575143674854934
1788957710218204200,11.5412041015625,-2.050980343404412,1.2971364908009766,-3.4028102551624175
1788957710228254200,11.551254150390625,-1.0801122809886932,0.361385918995738,-3.397179263538122
1788957710238305000,11.561304931640626,1.195097673562169,-0.10024784216880797,-3.708006377163529
1788957710248355000,11.57135498046875,1.1295716006845236,-0.016621464455127716,-3.1549823262855408
1788957710258405000,11.581405029296874,-0.04509177213609218,0.17031331204175948,-2.2823484281286595
1788957710268455200,11.591455078125,0.27257950829565525,0.00858604203760624,-2.003421304371953
1788957710278506200,11.60150634765625,-2.6212387299388644,1.0290180535674094,-2.218642848676443
1788957710288556000,11.61155615234375,-3.6200352482438087,3.739202894937992,-0.71111734829396
1788957710298606000,11.621606201171875,-4.064640133196115,3.479500988394022,-0.4656587788969278
1788957710308656000,11.63165625,-4.5252135716527695,3.11077405898571,-0.472587847507745
1788957710318707200,11.641707275390624,-4.290433924919366,2.8559646006584165,-0.24678426504284143
1788957710328757200,11.65175732421875,-4.456398394101858,3.1200013215363023,-0.4288005820989608
1788957710338807000,11.66180712890625,-2.671470203050971,4.288239922006428,0.06989172074124217
1788957710348857000,11.671857177734376,-2.5442501828044652,4.118267093965411,0.23768209017664194
1788957710358908200,11.681908203125,-2.4916812066555023,4.402325735391676,0.6549708059191703
1788957710368958200,11.691958251953125,-2.9876527062296865,3.827909352394938,1.5332798271030186
1788957710379008300,11.70200830078125,-2.7887673796981574,2.4760627817630767,2.2825185239985584
1788957710389058000,11.71205810546875,0.2451753685414791,0.1425403389751911,3.216875303357839
1788957710399109000,11.722109130859375,1.4721096113473175,-0.7009370228022337,3.3455446456298232
1788957710409159200,11.7321591796875,1.4879559997767209,-0.707288437655568,3.508629759983718
1788957710419209200,11.742209228515625,2.215306397730112,-1.0063052864998578,3.050011547248065
1788957710429259300,11.75225927734375,2.2162696898043155,-0.4781733925551176,2.4824998290732503
1788957710439309000,11.76230908203125,-1.1355302168279886,1.8890689490050077,2.230944111844897
1788957710449360100,11.772360107421875,-4.904995563560724,2.8208094083860513,2.734465588407218
1788957710459410200,11.78241015625,-4.885163904887437,2.76669875575304,2.8858886142790316
1788957710469460200,11.792460205078125,-7.0604323067396875,3.099524350696802,3.2755744528248902
1788957710479510300,11.80251025390625,-5.143511474213004,1.7654273717671631,2.5616575369402765
1788957710489561300,11.812561279296874,-2.5274141988158223,1.2187129424273968,2.79499136877954
1788957710499611100,11.822611083984375,0.8366542377591133,1.3616732603803277,3.5662814462244508
1788957710509661200,11.8326611328125,0.8435854983270168,1.338613579571247,3.6302523986145854
1788957710519711500,11.84271142578125,2.992019084745645,1.0227809127435088,3.9374762270510195
1788957710529762600,11.852762451171875,-6.9440832245975725,-0.34007308185398577,2.0632921279668808
1788957710539812600,11.8628125,-6.102313251259923,0.14039748172760008,1.0724517562981695
1788957710549862400,11.8728623046875,-0.9197907861292361,0.5012622994586825,0.812666190058738
1788957710559912400,11.882912353515625,-0.904731164163351,0.4750862401947379,0.7625720065254717
1788957710569963500,11.892963623046874,-0.10643675993680954,0.6934025356441735,1.035807932903245
1788957710580013600,11.903013671875,0.39803485695719715,0.9276832929447293,1.7123476696170865
1788957710590063600,11.913063720703125,0.4764677576810121,0.9538108368918299,1.8226935658216474
1788957710600113400,11.923113525390624,0.01342705232799053,0.92165804130584,1.5678354460470378
1788957710610164500,11.93316455078125,0.006616787791252136,0.9386977311730385,1.5617023501195013
1788957710620214500,11.943214599609375,-1.0881938806354998,1.2681509270742535,0.36802433409690855
1788957710630264600,11.9532646484375,-1.3247440441727638,1.3736910304322838,-0.07908438690248876
1788957710640314400,11.963314453125,-1.0840320847809315,1.5771709912776946,-0.3928544221119955
1788957710650365400,11.973365478515625,-0.9933119494140148,1.808238924011588,-0.4337985730493441
1788957710660415500,11.98341552734375,-1.1299912874013185,1.7851210832744835,-0.2946814865211025
1788957710670465500,11.993465576171875,-1.3298954355865715,1.7660539792329073,-0.21567009178958832
1788957710680515600,12.003515625,-1.6821914546757935,1.882896982371807,-0.2735653409952298
1788957710690566700,12.013566650390626,-2.1985499087184666,2.0379662557914853,-0.3427262267112732
1788957710700616400,12.023616455078125,-2.563075294783711,2.1481465861707925,-0.3333575098633766
1788957710710666500,12.03366650390625,-2.5914509099185463,2.261292488357425,-0.26886527354549616
1788957710720716500,12.043716552734375,-2.4963334163755175,2.467661448642611,-0.19759331395961344
1788957710730766600,12.0537666015625,-2.1091367642968892,2.63327637373507,-0.09329539268240332
1788957710740817700,12.063817626953124,-1.5321505308121441,2.6986802815377713,-0.0156769136140123
1788957710750867500,12.073867431640625,-1.5730027656823395,2.6310335632443427,0.0382208269206807
1788957710760917500,12.08391748046875,-1.5781728617966173,2.641473124194145,0.04382255591787398
1788957710770967600,12.093967529296876,-1.698451684603095,2.293107138030231,0.2730835488276556
1788957710781018400,12.104018310546875,-1.7644044584602117,2.5649068941250444,0.36289175698142495
1788957710791068700,12.114068603515625,-1.7639830181777476,2.562286482493579,0.37701391543410717
1788957710801118500,12.124118408203126,-1.6155623889923094,2.991749327893555,0.3603711889952421
1788957710811168500,12.13416845703125,-1.497168649280071,2.9851576745435593,0.4326015452845022
1788957710821219300,12.14421923828125,-1.4052233560323715,2.8756130117192864,0.5827247406041249
1788957710831269400,12.154269287109376,-1.1906506310254334,2.683630011922121,0.724866837509349
1788957710841319700,12.164319580078125,-1.212697627660632,2.733513109987974,0.6861940655700862
1788957710851369500,12.174369384765624,-0.46536476438641544,2.2733502981588245,0.9285117065928876
1788957710861420300,12.184420166015625,-0.23110066595971582,1.9550494876518845,1.0446075446262955
1788957710871470300,12.19447021484375,-0.15704758775532246,1.5783330207943915,1.1290981379538774
1788957710881520400,12.204520263671874,-0.27313246600329877,1.2726625592797993,1.142380009657517
1788957710891570700,12.21457080078125,-0.42192426658868787,1.0916215169966221,1.180871652876213
1788957710901621200,12.224621337890625,-0.3864005332648754,1.0662453759387134,1.337888187906146
1788957710911671300,12.23467138671875,-0.48895957498550413,1.217078619223833,1.5135557204574346
1788957710921721300,12.244721435546875,-0.7015133613854646,1.3531415788784622,1.6336759917013346
1788957710931771400,12.254771484375,-0.9898170930355786,1.389653154195845,1.7071311040125787
1788957710941822500,12.264822509765626,-0.9539730417162179,1.3160405132353306,1.6930113932453095
1788957710951872300,12.274872314453125,-1.345963942334056,1.2942103742212057,1.7718220412403345
1788957710961922300,12.28492236328125,-1.5260761793345212,1.3112404194772243,1.6512962579354642
1788957710971972400,12.294972412109376,-1.5495435641616582,1.234331951841712,1.4554558520577847
1788957710982023400,12.3050234375,-1.4908756866157054,1.1918880638659,1.255445174758136
1788957710992073500,12.315073486328124,-1.4622177474081515,1.1239312567099928,1.2733461576297878
1788957711002123300,12.325123291015625,-0.9090116179615259,1.1582178494542836,1.0630032522123307
1788957711012173300,12.33517333984375,-0.7741735239267349,1.0719953177675605,1.0630388349823654
1788957711022224400,12.345224365234374,-0.7698743654280901,1.06001349581182,1.0830472384620458
1788957711032274400,12.3552744140625,0.18159107738137245,1.0317559540987014,0.9659113167911767
1788957711042324500,12.365324462890625,0.6628641895174979,0.9737319274142384,1.0829824295975268
1788957711052374300,12.375374267578126,0.9163257403671741,0.9071569300055503,1.1047533127050846
1788957711062425300,12.38542529296875,0.8799275622963905,0.8962371843233704,0.9089424982480704
1788957711072475400,12.395475341796875,0.8676040872961283,0.717369102165103,0.706306221685186
1788957711082525400,12.405525390625,1.0048042342871426,0.6814335731700062,0.5563505649521947
1788957711092575500,12.415575439453125,0.7643442038297653,0.8630494927316904,0.40492516446020455
1788957711102625300,12.425625244140624,0.3580424537867307,1.1371750614255667,-0.020949775983020662
1788957711112676400,12.43567626953125,0.30737083569169044,1.0612149805560707,-0.2752869040908292
1788957711122726400,12.445726318359375,0.26402035426497455,0.8365592529520391,-0.10335965404640883
1788957711132776400,12.4557763671875,-0.32307284721434115,0.9669912209823727,0.25595307540446516
1788957711142826500,12.465826416015625,-1.074612514528632,1.2102777070373296,0.7226620209414512
1788957711152877600,12.475877685546875,-0.35298750848472116,1.5603390989422796,1.1361453530516474
1788957711162927400,12.48592724609375,-0.9571288753986358,1.988038441801071,0.9900582813803106
1788957711172977400,12.495977294921875,-1.2333517086327075,1.8662226186856625,0.5407113164674491
1788957711183027500,12.50602734375,-1.1742167980968952,1.5595660687431692,0.09403422835096717
1788957711193078500,12.51607861328125,-0.9684943190217018,1.3547358623325825,-0.1894615184955299
1788957711203128600,12.526128662109375,-0.5515992787718773,1.203592822445929,-0.2724025442935526
1788957711213178400,12.536178466796875,-0.47108138846755027,0.9993106053069233,-0.23556188315227627
1788957711223228400,12.546228515625,-0.37094460545778274,0.7311199796199798,-0.1167917113430798
1788957711233279500,12.556279541015625,-0.32256665125787254,0.6784849524974823,-0.1278187167920172
1788957711243329500,12.56632958984375,-0.8866250141084193,0.8501356506228447,-0.11808131276220082
1788957711253379300,12.57637939453125,-1.0149164629787206,0.9877151523202657,0.077717592061311
1788957711263429400,12.586429443359375,-0.955177741330862,1.0372644883871078,0.2228042545184493
1788957711273480400,12.59648046875,-1.26758832475543,1.277650284564495,0.18891338309347627
1788957711283530500,12.606530517578125,-1.4465817868590354,1.4721698171019553,0.35983079850822686
1788957711293580500,12.61658056640625,-1.4057786518275737,1.5875044615045188,0.8222004727318882
1788957711303630300,12.62663037109375,-1.3260744159936904,1.9517595061957835,0.8732799409754574
1788957711313681400,12.636681396484375,-1.292432258632779,2.074991918110847,0.892682268320769
1788957711323731500,12.6467314453125,-0.966429203185439,1.7822569260150194,0.8510464818574488
1788957711333781500,12.656781494140626,-0.6643436144202948,1.429980196148157,0.7023817417178303
1788957711343831600,12.66683154296875,-0.6946873147577047,1.486159764009714,0.7168170212402939
