time,seconds_elapsed,z,y,x
1788957698715690500,0.0386904296875,-0.9463653564453125,-0.365203857421875,-0.0260467529296875
1788957698725740500,0.048740478515625,-0.9267425537109375,-0.4090576171875,-0.08526611328125
1788957698735790800,0.058790771484375,-0.93109130859375,-0.429473876953125,-0.112396240234375
1788957698745841700,0.068841552734375,-0.918853759765625,-0.4332122802734375,-0.0791015625
1788957698755891700,0.0788916015625,-0.8841705322265625,-0.4076080322265625,-0.00054931640625
1788957698765941500,0.08894140625,-0.8060760498046875,-0.43499755859375,0.02471923828125
1788957698775991600,0.098991455078125,-0.7985687255859375,-0.4786529541015625,0.05279541015625
1788957698786042600,0.109042724609375,-0.7904205322265625,-0.4944610595703125,0.0943603515625
1788957698796092700,0.1190927734375,-0.7824554443359375,-0.491424560546875,0.1345672607421875
1788957698806142700,0.129142822265625,-0.780914306640625,-0.49072265625,0.1663055419921875
1788957698816192500,0.139192626953125,-0.826812744140625,-0.4917449951171875,0.21441650390625
1788957698826243600,0.14924365234375,-0.8145751953125,-0.4810791015625,0.2471923828125
1788957698836293600,0.159293701171875,-0.821044921875,-0.4848785400390625,0.2198028564453125
1788957698846343700,0.16934375,-0.841949462890625,-0.4846649169921875,0.1693572998046875
1788957698856393700,0.179393798828125,-0.873565673828125,-0.4881134033203125,0.0780029296875
1788957698866444800,0.18944482421875,-0.879486083984375,-0.4967193603515625,-0.018157958984375
1788957698876494600,0.19949462890625,-0.851226806640625,-0.4927520751953125,-0.05609130859375
1788957698886544600,0.209544677734375,-0.81256103515625,-0.4837493896484375,-0.062408447265625
1788957698896594700,0.2195947265625,-0.8131256103515625,-0.4873199462890625,-0.0619049072265625
1788957698906645800,0.229645751953125,-0.8231048583984375,-0.503997802734375,-0.058135986328125
1788957698916695600,0.239695556640625,-0.81915283203125,-0.5468292236328125,-0.084228515625
1788957698926745600,0.24974560546875,-0.8387603759765625,-0.592041015625,-0.0763397216796875
1788957698936795600,0.259795654296875,-0.8533172607421875,-0.621185302734375,-0.0444793701171875
1788957698946846700,0.2698466796875,-0.8193359375,-0.638946533203125,-0.0409088134765625
1788957698956896800,0.279896728515625,-0.798553466796875,-0.6430206298828125,-0.0366668701171875
1788957698966946600,0.289946533203125,-0.7997589111328125,-0.6412506103515625,-0.012420654296875
1788957698976996600,0.29999658203125,-0.8282470703125,-0.64947509765625,0.0091400146484375
1788957698987047700,0.310047607421875,-0.8723602294921875,-0.664093017578125,0.025909423828125
1788957698997097700,0.32009765625,-0.889801025390625,-0.685546875,0.0214385986328125
1788957699007147800,0.330147705078125,-0.9883270263671875,-0.6531524658203125,0.0229339599609375
1788957699017197600,0.340197509765625,-1.0576171875,-0.533660888671875,0.0849761962890625
1788957699027248600,0.35024853515625,-0.9786834716796875,-0.475189208984375,0.1269073486328125
1788957699037298700,0.360298583984375,-0.9600372314453125,-0.49444580078125,0.1229400634765625
1788957699047348700,0.3703486328125,-0.9806976318359375,-0.53985595703125,0.1174774169921875
1788957699057398800,0.380398681640625,-0.9549560546875,-0.5610504150390625,0.1114501953125
1788957699067449900,0.390449951171875,-0.922271728515625,-0.56829833984375,0.106658935546875
1788957699077499600,0.400499755859375,-0.8956451416015625,-0.585296630859375,0.1060943603515625
1788957699087549700,0.4105498046875,-0.873504638671875,-0.6186065673828125,0.1003875732421875
1788957699097599700,0.420599853515625,-0.84356689453125,-0.651458740234375,0.1075592041015625
1788957699107650800,0.43065087890625,-0.8372955322265625,-0.6665191650390625,0.14935302734375
1788957699117700900,0.440700927734375,-0.844390869140625,-0.6658477783203125,0.1854095458984375
1788957699127750700,0.450750732421875,-0.8340606689453125,-0.674041748046875,0.21685791015625
1788957699137800700,0.46080078125,-0.8312530517578125,-0.67388916015625,0.2426910400390625
1788957699147851800,0.470851806640625,-0.8189239501953125,-0.6723175048828125,0.2867584228515625
1788957699157901800,0.48090185546875,-0.80908203125,-0.653472900390625,0.319427490234375
1788957699167952000,0.490951904296875,-0.8150177001953125,-0.624298095703125,0.318603515625
1788957699178001700,0.501001708984375,-0.8480377197265625,-0.589630126953125,0.3246002197265625
1788957699188052700,0.511052734375,-0.83294677734375,-0.55242919921875,0.330963134765625
1788957699198102800,0.521102783203125,-0.777740478515625,-0.551361083984375,0.3798980712890625
1788957699208152800,0.53115283203125,-0.71173095703125,-0.5302276611328125,0.4278564453125
1788957699218202600,0.54120263671875,-0.69525146484375,-0.4857330322265625,0.3660888671875
1788957699228253700,0.551253662109375,-0.7524261474609375,-0.485565185546875,0.2913970947265625
1788957699238303700,0.5613037109375,-0.802886962890625,-0.503143310546875,0.2899627685546875
1788957699248353800,0.571353759765625,-0.787261962890625,-0.5049285888671875,0.27276611328125
1788957699258404600,0.581404541015625,-0.823699951171875,-0.51593017578125,0.2293243408203125
1788957699268455000,0.591454833984375,-0.854461669921875,-0.53594970703125,0.303009033203125
1788957699278504700,0.601504638671875,-0.8538970947265625,-0.4987640380859375,0.453216552734375
1788957699288554800,0.6115546875,-0.841033935546875,-0.3903045654296875,0.480072021484375
1788957699298605600,0.62160546875,-0.8856658935546875,-0.2891082763671875,0.4831390380859375
1788957699308655600,0.631655517578125,-0.8730621337890625,-0.2169189453125,0.5228729248046875
1788957699318706000,0.641705810546875,-0.7889251708984375,-0.1503753662109375,0.50762939453125
1788957699328755700,0.651755615234375,-0.9502105712890625,-0.1666412353515625,0.4514617919921875
1788957699338806500,0.661806640625,-1.0155487060546875,-0.2881927490234375,0.433349609375
1788957699348856600,0.671856689453125,-0.9296417236328125,-0.3873138427734375,0.4019622802734375
1788957699358906600,0.68190673828125,-0.936920166015625,-0.437469482421875,0.3240203857421875
1788957699368957000,0.69195703125,-0.883453369140625,-0.5260467529296875,0.25140380859375
1788957699379007700,0.7020078125,-0.8175506591796875,-0.6561126708984375,0.2236480712890625
1788957699389057500,0.7120576171875,-0.778228759765625,-0.7481231689453125,0.2162628173828125
1788957699399107600,0.722107666015625,-0.73394775390625,-0.8790740966796875,0.28997802734375
1788957699409157600,0.73215771484375,-0.756134033203125,-0.9924468994140625,0.275543212890625
1788957699419208700,0.742208740234375,-0.5918426513671875,-1.0029754638671875,0.4093475341796875
1788957699429258800,0.7522587890625,-0.4903411865234375,-1.005096435546875,0.50421142578125
1788957699439308500,0.76230859375,-0.4502716064453125,-1.0101470947265625,0.4788360595703125
1788957699449358600,0.772358642578125,-0.232635498046875,-1.0500335693359375,0.49151611328125
1788957699459409700,0.78240966796875,-0.0573883056640625,-1.0525360107421875,0.55902099609375
1788957699469459700,0.792459716796875,-0.1409759521484375,-1.0600128173828125,0.5491790771484375
1788957699479509500,0.802509521484375,-0.20281982421875,-1.079803466796875,0.5527191162109375
1788957699489559600,0.8125595703125,-0.2104949951171875,-1.049041748046875,0.5604705810546875
1788957699499610600,0.822610595703125,-0.0655517578125,-1.0197296142578125,0.5990447998046875
1788957699509660200,0.83266015625,0.1471405029296875,-0.9898223876953125,0.6943817138671875
1788957699519710200,0.842710205078125,0.3402862548828125,-0.982330322265625,0.8549041748046875
1788957699529760300,0.85276025390625,0.5679473876953125,-1.0690460205078125,1.0370941162109375
1788957699539811300,0.862811279296875,0.349609375,-1.10784912109375,0.9705352783203125
1788957699549861400,0.872861328125,-0.058685302734375,-1.00433349609375,0.7189788818359375
1788957699559911200,0.8829111328125,-0.1597747802734375,-0.7844390869140625,0.634857177734375
1788957699569961200,0.892961181640625,-0.2114105224609375,-0.6146087646484375,0.6024932861328125
1788957699580012300,0.90301220703125,-0.349945068359375,-0.53472900390625,0.5427703857421875
1788957699590062300,0.913062255859375,-0.442474365234375,-0.5025482177734375,0.54742431640625
1788957699600112400,0.9231123046875,-0.48529052734375,-0.3824462890625,0.561798095703125
1788957699610162200,0.933162109375,-0.5299835205078125,-0.24530029296875,0.553558349609375
1788957699620213200,0.943213134765625,-0.511444091796875,-0.214019775390625,0.54400634765625
1788957699630263300,0.95326318359375,-0.4262237548828125,-0.2915802001953125,0.6047515869140625
1788957699640313300,0.963313232421875,-0.3659515380859375,-0.3599090576171875,0.74798583984375
1788957699650363400,0.97336328125,-0.281158447265625,-0.424285888671875,0.7525482177734375
1788957699660414200,0.983414306640625,-0.0465240478515625,-0.3758544921875,0.7076568603515625
1788957699670464300,0.99346435546875,-0.064971923828125,-0.76190185546875,0.912353515625
1788957699680514300,1.003514404296875,-0.1693267822265625,-1.1091156005859375,1.2606201171875
1788957699690565400,1.0135654296875,0.0350341796875,-0.611846923828125,1.4345855712890625
1788957699700615400,1.023615478515625,-0.089874267578125,-0.28863525390625,1.5904388427734375
1788957699710665200,1.033665283203125,-0.096649169921875,-0.2995452880859375,1.5543365478515625
1788957699720715300,1.04371533203125,-0.2451171875,-0.021209716796875,1.4254150390625
1788957699730766300,1.053766357421875,-0.512298583984375,0.0458984375,1.4510345458984375
1788957699740816400,1.06381640625,-0.5633697509765625,-0.0187225341796875,1.5695037841796875
1788957699750866400,1.073866455078125,-0.3020782470703125,0.071319580078125,1.501251220703125
1788957699760916200,1.083916259765625,-0.6818084716796875,0.15045166015625,1.5316009521484375
1788957699770967300,1.09396728515625,-0.6847686767578125,0.5553436279296875,1.3669281005859375
1788957699781017300,1.104017333984375,-1.008941650390625,0.7413330078125,1.2802886962890625
1788957699791067400,1.1140673828125,-0.6698760986328125,0.760986328125,1.23687744140625
1788957699801117400,1.124117431640625,-0.54803466796875,0.8250274658203125,1.0367279052734375
1788957699811168500,1.13416845703125,-0.29962158203125,0.8184356689453125,0.94354248046875
1788957699821218300,1.14421826171875,0.0247344970703125,0.7752838134765625,0.9156646728515625
1788957699831268400,1.154268310546875,0.4571685791015625,0.70855712890625,0.904052734375
1788957699841318400,1.164318359375,0.70330810546875,0.62542724609375,0.9900360107421875
1788957699851369500,1.174369384765625,0.5091400146484375,0.6370391845703125,1.013214111328125
1788957699861419500,1.18441943359375,0.12982177734375,0.7198333740234375,0.9771728515625
1788957699871469300,1.19446923828125,-0.155670166015625,0.7058258056640625,1.084136962890625
1788957699881519400,1.204519287109375,-0.2359161376953125,0.7744903564453125,1.221221923828125
1788957699891570400,1.2145703125,-0.248504638671875,0.8231201171875,1.168487548828125
1788957699901620500,1.224620361328125,-0.2624053955078125,0.4674224853515625,1.2339630126953125
1788957699911670500,1.23467041015625,-0.4156646728515625,0.3717041015625,1.2479400634765625
1788957699921720300,1.24472021484375,-0.60595703125,0.320892333984375,1.0883636474609375
1788957699931771400,1.254771484375,-0.7219085693359375,0.0069427490234375,0.9662933349609375
1788957699941821400,1.264821533203125,-0.8075103759765625,-0.298858642578125,0.915283203125
1788957699951871500,1.27487158203125,-1.00347900390625,-0.4725341796875,0.8483123779296875
1788957699961922300,1.28492236328125,-1.1363525390625,-0.608154296875,0.7927398681640625
1788957699971972400,1.294972412109375,-1.23248291015625,-0.691558837890625,0.7386627197265625
1788957699982022400,1.3050224609375,-1.308380126953125,-0.7498321533203125,0.7216033935546875
1788957699992072400,1.315072509765625,-1.2799224853515625,-0.814300537109375,0.6110076904296875
1788957700002123300,1.325123291015625,-1.191925048828125,-0.8919525146484375,0.4860992431640625
1788957700012173300,1.33517333984375,-1.0118408203125,-0.917327880859375,0.4097442626953125
1788957700022223400,1.345223388671875,-0.92620849609375,-0.87445068359375,0.384796142578125
1788957700032273400,1.3552734375,-0.7461700439453125,-0.796234130859375,0.442474365234375
1788957700042324200,1.36532421875,-0.5634765625,-0.7107696533203125,0.589202880859375
1788957700052374300,1.375374267578125,-0.313995361328125,-0.5650634765625,0.7154541015625
1788957700062424300,1.38542431640625,1.0177154541015625,-0.30047607421875,0.93182373046875
1788957700072474400,1.395474365234375,1.7425689697265625,-0.6661224365234375,0.922149658203125
1788957700082525200,1.405525146484375,0.206878662109375,-0.5087432861328125,1.1014862060546875
1788957700092575200,1.4155751953125,-0.031402587890625,-0.0117340087890625,0.9538421630859375
1788957700102625300,1.425625244140625,0.311431884765625,0.039306640625,0.6581573486328125
1788957700112675300,1.43567529296875,0.0263671875,-0.09259033203125,0.49346923828125
1788957700122726400,1.445726318359375,0.00689697265625,-0.1345062255859375,0.4831390380859375
1788957700132776200,1.455776123046875,0.020416259765625,-0.085235595703125,0.479095458984375
1788957700142826200,1.465826171875,-0.0302276611328125,-0.132843017578125,0.563323974609375
1788957700152876300,1.475876220703125,-0.0513916015625,-0.2723236083984375,0.597900390625
1788957700162927400,1.48592724609375,-0.0671844482421875,-0.535369873046875,0.5661163330078125
1788957700172977400,1.495977294921875,-0.1369171142578125,-0.829620361328125,0.5315399169921875
1788957700183027200,1.506027099609375,-0.152008056640625,-1.457611083984375,0.48370361328125
1788957700193077200,1.5160771484375,-0.4173431396484375,-1.45294189453125,0.5446014404296875
1788957700203128300,1.52612841796875,-0.023712158203125,-0.3865203857421875,0.8448944091796875
1788957700213178400,1.536178466796875,-0.0793304443359375,-0.6008758544921875,0.85107421875
1788957700223228200,1.546228271484375,-0.541778564453125,-1.2601318359375,0.556610107421875
1788957700233278200,1.5562783203125,-0.575958251953125,-0.3735504150390625,0.812255859375
1788957700243329300,1.566329345703125,-0.3008270263671875,0.08197021484375,1.0955963134765625
1788957700253379300,1.57637939453125,-0.23486328125,-0.2670745849609375,1.1256866455078125
1788957700263429400,1.586429443359375,-0.383636474609375,-0.18658447265625,1.4583740234375
1788957700273480400,1.59648046875,-0.22222900390625,0.056427001953125,1.564056396484375
1788957700283530200,1.6065302734375,-0.1936187744140625,0.423614501953125,1.2957916259765625
1788957700293580300,1.616580322265625,-0.2023162841796875,0.394989013671875,0.854736328125
1788957700303630300,1.62663037109375,-0.113006591796875,0.1888580322265625,0.700897216796875
1788957700313681400,1.636681396484375,-0.19677734375,0.2360076904296875,0.92291259765625
1788957700323731500,1.6467314453125,0.1697235107421875,0.527130126953125,1.1017303466796875
1788957700333781200,1.65678125,0.1302032470703125,0.40167236328125,1.2620086669921875
1788957700343831300,1.666831298828125,0.163787841796875,0.2576141357421875,1.367401123046875
1788957700353882400,1.67688232421875,0.238372802734375,0.192718505859375,1.4352569580078125
1788957700363932400,1.686932373046875,0.0269622802734375,0.054534912109375,1.5281219482421875
1788957700373982500,1.696982421875,-0.1362457275390625,-0.06103515625,1.583648681640625
1788957700384032300,1.7070322265625,-0.308319091796875,0.0737762451171875,1.4415740966796875
1788957700394083300,1.717083251953125,-0.6482391357421875,0.228607177734375,1.2115478515625
1788957700404133400,1.72713330078125,-0.9742279052734375,0.1528472900390625,0.9610748291015625
1788957700414183400,1.737183349609375,-1.613555908203125,0.39373779296875,0.5523681640625
1788957700424233500,1.7472333984375,-1.443603515625,0.744384765625,0.3018035888671875
1788957700434284500,1.757284423828125,-0.87908935546875,0.6384735107421875,0.5555572509765625
1788957700444334300,1.767334228515625,-0.6220550537109375,0.22528076171875,0.779296875
1788957700454384400,1.77738427734375,-0.533843994140625,-0.043304443359375,0.807891845703125
1788957700464435500,1.787435546875,-0.3946533203125,-0.2054443359375,0.7393798828125
1788957700474485500,1.797485595703125,-0.3643035888671875,-0.2292633056640625,0.6872711181640625
1788957700484535300,1.807535400390625,-0.389251708984375,-0.3143463134765625,0.6800079345703125
1788957700494585300,1.81758544921875,-0.43194580078125,-0.43304443359375,0.760345458984375
1788957700504636700,1.82763671875,-0.71697998046875,-0.4512939453125,1.00811767578125
1788957700514686700,1.837686767578125,-1.158599853515625,-0.41961669921875,1.361053466796875
1788957700524736800,1.84773681640625,-0.883392333984375,-0.676300048828125,1.0877532958984375
1788957700534786800,1.857786865234375,-0.2288970947265625,-0.398529052734375,0.9829559326171875
1788957700544837600,1.867837646484375,0.0352325439453125,-0.3435821533203125,1.19598388671875
1788957700554887700,1.8778876953125,0.423736572265625,-0.2427215576171875,1.18060302734375
1788957700564937500,1.8879375,0.88922119140625,-0.0441741943359375,1.1251983642578125
1788957700574987800,1.89798779296875,0.6167449951171875,-0.1018218994140625,1.0189361572265625
1788957700585038600,1.90803857421875,0.4983978271484375,-0.38934326171875,0.8040771484375
1788957700595088600,1.918088623046875,0.4130096435546875,-0.3537445068359375,0.7649383544921875
1788957700605138700,1.928138671875,0.2982025146484375,-0.3159942626953125,0.6501617431640625
1788957700615188500,1.9381884765625,-0.2336883544921875,-0.53240966796875,0.4397430419921875
1788957700625239600,1.948239501953125,-0.324371337890625,-0.3884124755859375,0.2720489501953125
1788957700635289600,1.95828955078125,-0.1543426513671875,-0.14703369140625,0.245269775390625
1788957700645339600,1.968339599609375,-0.1468963623046875,0.0896759033203125,0.17559814453125
1788957700655389700,1.9783896484375,-0.278411865234375,0.1696319580078125,0.165679931640625
1788957700665440800,1.988440673828125,-0.2357330322265625,0.00787353515625,0.5257720947265625
1788957700675490600,1.998490478515625,-0.4788970947265625,-0.0613861083984375,0.579132080078125
1788957700685540600,2.00854052734375,-0.5062713623046875,0.261505126953125,0.6118927001953125
1788957700695591700,2.018591796875,0.48248291015625,0.09906005859375,0.69708251953125
1788957700705641700,2.028641845703125,0.2337493896484375,-0.1201019287109375,0.3904266357421875
1788957700715691800,2.03869189453125,-0.180694580078125,0.77508544921875,0.610992431640625
1788957700725741600,2.048741455078125,0.098785400390625,0.90118408203125,0.6761322021484375
1788957700735792600,2.058792724609375,0.1573028564453125,0.2365570068359375,0.5080413818359375
1788957700745842700,2.0688427734375,-0.302459716796875,0.0422821044921875,0.2292938232421875
1788957700755892700,2.078892822265625,-0.422576904296875,-0.0169525146484375,0.3465576171875
1788957700765942800,2.08894287109375,0.2895965576171875,-0.1539306640625,0.9347686767578125
1788957700775993900,2.098993896484375,0.5057220458984375,-0.8014373779296875,1.194061279296875
1788957700786043600,2.109043701171875,0.4429931640625,-1.431976318359375,1.1202392578125
1788957700796093700,2.11909375,0.3525848388671875,-2.2796630859375,0.6454925537109375
1788957700806143700,2.129143798828125,0.4513702392578125,-3.764617919921875,0.55511474609375
1788957700816194800,2.13919482421875,0.0940093994140625,-2.791473388671875,0.800872802734375
1788957700826244600,2.14924462890625,0.16204833984375,-2.5321044921875,0.4140167236328125
1788957700836294700,2.159294677734375,0.414276123046875,-1.8890838623046875,0.4586944580078125
1788957700846344700,2.1693447265625,-0.2489013671875,-1.1887054443359375,0.7256011962890625
1788957700856395800,2.179395751953125,-0.7133026123046875,-1.0897979736328125,0.6360015869140625
1788957700866445800,2.18944580078125,-0.0151519775390625,-1.1606292724609375,0.3600616455078125
1788957700876495600,2.19949560546875,0.2176666259765625,-1.1555633544921875,0.32952880859375
1788957700886545700,2.209545654296875,0.0736846923828125,-1.27618408203125,0.4146728515625
1788957700896596700,2.2195966796875,-0.234588623046875,-1.443511962890625,0.3528289794921875
1788957700906646800,2.229646728515625,-0.708465576171875,-1.272796630859375,0.2892608642578125
1788957700916696800,2.23969677734375,-0.7261199951171875,-1.14678955078125,0.16650390625
1788957700926748000,2.249747802734375,-0.61260986328125,-0.97625732421875,-0.011474609375
1788957700936797700,2.259797607421875,-0.5208740234375,-0.849578857421875,-0.139739990234375
1788957700946847700,2.26984765625,-0.2567901611328125,-0.909942626953125,-0.183441162109375
1788957700956897800,2.279897705078125,0.0951690673828125,-0.9785614013671875,-0.1555938720703125
1788957700966948900,2.289948974609375,1.3350372314453125,-1.178131103515625,-0.07562255859375
1788957700976999000,2.2999990234375,1.5778350830078125,-1.1922454833984375,0.0234527587890625
1788957700987048700,2.310048583984375,0.745880126953125,-1.0142822265625,0.227386474609375
1788957700997098800,2.3200986328125,0.1795806884765625,-1.033416748046875,0.3238677978515625
1788957701007149800,2.33014990234375,0.035614013671875,-1.0430450439453125,0.3405914306640625
1788957701017199900,2.340199951171875,0.1458587646484375,-0.9415435791015625,0.2743682861328125
1788957701027250000,2.35025,0.1034393310546875,-0.8550262451171875,0.3212127685546875
1788957701037299700,2.3602998046875,0.036041259765625,-0.828277587890625,0.4743499755859375
1788957701047350500,2.3703505859375,0.072296142578125,-0.78125,0.4926300048828125
1788957701057400600,2.380400634765625,0.10760498046875,-0.764556884765625,0.4070587158203125
1788957701067451000,2.390450927734375,0.133697509765625,-0.8218994140625,0.39154052734375
1788957701077501000,2.4005009765625,0.1035919189453125,-0.88720703125,0.397308349609375
1788957701087551500,2.410551513671875,0.103240966796875,-0.9438934326171875,0.400360107421875
1788957701097601500,2.4206015625,0.10955810546875,-0.9870758056640625,0.3839111328125
1788957701107651600,2.430651611328125,0.1208953857421875,-0.9857025146484375,0.3859100341796875
1788957701117702700,2.44070263671875,0.1621856689453125,-0.95635986328125,0.41796875
1788957701127752700,2.450752685546875,0.18408203125,-0.93988037109375,0.4359588623046875
1788957701137802500,2.460802490234375,0.1655426025390625,-0.924102783203125,0.4474945068359375
1788957701147852500,2.4708525390625,0.135284423828125,-0.8993072509765625,0.45526123046875
1788957701157903600,2.480903564453125,0.0913238525390625,-0.8958587646484375,0.46722412109375
1788957701167953700,2.49095361328125,0.0662689208984375,-0.9296112060546875,0.4938812255859375
1788957701178003700,2.501003662109375,0.0772857666015625,-0.9524383544921875,0.501556396484375
1788957701188053500,2.511053466796875,0.1435089111328125,-0.9583587646484375,0.5335845947265625
1788957701198104600,2.5211044921875,0.1546478271484375,-0.927001953125,0.5072174072265625
1788957701208154600,2.531154541015625,0.1866912841796875,-0.8671875,0.471588134765625
1788957701218204700,2.54120458984375,0.1097564697265625,-0.901397705078125,0.486328125
1788957701228254700,2.551254638671875,0.1050567626953125,-0.8986663818359375,0.5322723388671875
1788957701238305800,2.561305908203125,0.18035888671875,-0.9259033203125,0.552978515625
1788957701248355600,2.57135546875,0.1608428955078125,-0.913909912109375,0.5181121826171875
1788957701258405600,2.581405517578125,0.1095123291015625,-0.905059814453125,0.4799957275390625
1788957701268455700,2.59145556640625,0.1378173828125,-0.8978729248046875,0.4695892333984375
1788957701278506800,2.6015068359375,0.173431396484375,-0.8356781005859375,0.4429931640625
1788957701288556800,2.611556884765625,0.182891845703125,-0.7714385986328125,0.4259490966796875
1788957701298606600,2.621606689453125,0.1880340576171875,-0.7392730712890625,0.4019775390625
1788957701308656600,2.63165673828125,0.1808929443359375,-0.7515106201171875,0.400604248046875
1788957701318707700,2.641707763671875,0.1424102783203125,-0.779022216796875,0.415771484375
1788957701328757800,2.6517578125,0.0735321044921875,-0.7959136962890625,0.4240570068359375
1788957701338807800,2.661807861328125,0.0738983154296875,-0.81610107421875,0.4571533203125
1788957701348858600,2.671858642578125,0.1365814208984375,-0.84674072265625,0.49822998046875
1788957701358908700,2.68190869140625,0.14874267578125,-0.8383026123046875,0.4839630126953125
1788957701368958700,2.691958740234375,0.1769561767578125,-0.810150146484375,0.4588775634765625
1788957701379008800,2.7020087890625,0.2020111083984375,-0.799591064453125,0.4530181884765625
1788957701389059800,2.712059814453125,0.2159576416015625,-0.80682373046875,0.453125
1788957701399109600,2.722109619140625,0.2135467529296875,-0.818267822265625,0.4923095703125
1788957701409159700,2.73215966796875,0.1981048583984375,-0.8300933837890625,0.5074920654296875
1788957701419209700,2.742209716796875,0.208831787109375,-0.8688507080078125,0.4829864501953125
1788957701429260800,2.7522607421875,0.2150115966796875,-0.896392822265625,0.515777587890625
1788957701439310800,2.762310791015625,0.2241363525390625,-0.9295654296875,0.4930877685546875
1788957701449360600,2.772360595703125,0.2545318603515625,-1.007843017578125,0.4499969482421875
1788957701459410700,2.78241064453125,0.24462890625,-1.070709228515625,0.418365478515625
1788957701469461800,2.792461669921875,0.188720703125,-1.1082611083984375,0.378326416015625
1788957701479511800,2.80251171875,0.128082275390625,-1.1040191650390625,0.32476806640625
1788957701489561900,2.812561767578125,0.106658935546875,-1.09014892578125,0.3004608154296875
1788957701499611600,2.822611572265625,0.089569091796875,-1.0399169921875,0.2997589111328125
1788957701509662700,2.832662841796875,0.1551055908203125,-0.9390869140625,0.29083251953125
1788957701519712800,2.842712646484375,0.136810302734375,-0.8696136474609375,0.346282958984375
1788957701529762600,2.852762451171875,0.0446929931640625,-0.8260345458984375,0.3837432861328125
1788957701539813600,2.862813720703125,0.1072235107421875,-0.85650634765625,0.3873291015625
1788957701549863700,2.87286376953125,0.2094879150390625,-0.863006591796875,0.3556060791015625
1788957701559913700,2.882913818359375,0.2549591064453125,-0.8546142578125,0.3401336669921875
1788957701569963800,2.8929638671875,0.225067138671875,-0.8397674560546875,0.387542724609375
1788957701580014600,2.9030146484375,0.1978607177734375,-0.807891845703125,0.401214599609375
1788957701590064600,2.913064697265625,0.212066650390625,-0.8078155517578125,0.39068603515625
1788957701600114700,2.92311474609375,0.240234375,-0.8223114013671875,0.3709869384765625
1788957701610164700,2.933164794921875,0.27227783203125,-0.83160400390625,0.352447509765625
1788957701620215600,2.943215576171875,0.2537078857421875,-0.860321044921875,0.3565216064453125
1788957701630265600,2.953265625,0.222900390625,-0.9054412841796875,0.3700103759765625
1788957701640315600,2.963315673828125,0.215118408203125,-0.9849853515625,0.3864288330078125
1788957701650365700,2.97336572265625,0.21112060546875,-1.0315704345703125,0.397674560546875
1788957701660416500,2.98341650390625,0.182708740234375,-1.028228759765625,0.4290771484375
1788957701670466600,2.993466552734375,0.1550750732421875,-1.0132904052734375,0.4195404052734375
1788957701680516600,3.0035166015625,0.1361846923828125,-1.0066680908203125,0.4063720703125
1788957701690566700,3.013566650390625,0.0708160400390625,-1.0099334716796875,0.4124298095703125
1788957701700617500,3.023617431640625,0.0282440185546875,-1.0246124267578125,0.4049530029296875
1788957701710667500,3.03366748046875,0.0570220947265625,-1.0242156982421875,0.384124755859375
1788957701720717600,3.043717529296875,0.101898193359375,-0.9987030029296875,0.371551513671875
1788957701730768600,3.0537685546875,0.168914794921875,-0.965118408203125,0.35601806640625
1788957701740818400,3.063818359375,0.23388671875,-0.93963623046875,0.347503662109375
1788957701750868500,3.073868408203125,0.27252197265625,-0.94146728515625,0.337432861328125
1788957701760918500,3.08391845703125,0.2891082763671875,-0.9366455078125,0.3341827392578125
1788957701770969600,3.093969482421875,0.29931640625,-0.9722747802734375,0.31475830078125
1788957701781019600,3.10401953125,0.264923095703125,-0.9934234619140625,0.309112548828125
1788957701791069400,3.1140693359375,0.2342529296875,-0.99993896484375,0.30316162109375
1788957701801119500,3.124119384765625,0.23358154296875,-0.99383544921875,0.297393798828125
1788957701811170600,3.134170654296875,0.205718994140625,-0.9707489013671875,0.2881011962890625
1788957701821220600,3.144220703125,0.165374755859375,-0.9514312744140625,0.291351318359375
1788957701831270700,3.154270751953125,0.135009765625,-0.920806884765625,0.29803466796875
1788957701841320400,3.164320556640625,0.1420135498046875,-0.8809814453125,0.3038330078125
1788957701851371500,3.17437158203125,0.1464996337890625,-0.8527374267578125,0.3182830810546875
1788957701861421600,3.184421630859375,0.1287841796875,-0.86248779296875,0.3314361572265625
1788957701871471600,3.1944716796875,0.1207733154296875,-0.8878173828125,0.35491943359375
1788957701881521700,3.204521728515625,0.120758056640625,-0.885162353515625,0.3799896240234375
1788957701891572500,3.214572509765625,0.109619140625,-0.8829345703125,0.3929290771484375
1788957701901622500,3.22462255859375,0.0950775146484375,-0.89239501953125,0.4184722900390625
1788957701911672600,3.234672607421875,0.0709228515625,-0.90533447265625,0.423614501953125
1788957701921722600,3.24472265625,0.037353515625,-0.8993377685546875,0.4107513427734375
1788957701931773700,3.254773681640625,0.020111083984375,-0.880950927734375,0.401275634765625
1788957701941823500,3.264823486328125,0.0016632080078125,-0.8546600341796875,0.408966064453125
1788957701951873500,3.27487353515625,-0.0037841796875,-0.8263092041015625,0.420928955078125
1788957701961924600,3.284924560546875,0.0098114013671875,-0.8120269775390625,0.418731689453125
1788957701971974700,3.294974609375,0.017578125,-0.80242919921875,0.40704345703125
1788957701982024700,3.305024658203125,0.0160064697265625,-0.8199615478515625,0.380615234375
1788957701992074500,3.315074462890625,0.024444580078125,-0.878265380859375,0.37542724609375
1788957702002125600,3.32512548828125,0.0335235595703125,-0.9139404296875,0.3731231689453125
1788957702012175600,3.335175537109375,0.0475311279296875,-0.9385223388671875,0.36334228515625
1788957702022225700,3.3452255859375,0.07244873046875,-0.9709930419921875,0.3673248291015625
1788957702032275700,3.355275634765625,0.079864501953125,-0.991851806640625,0.383880615234375
1788957702042326800,3.365326904296875,0.07489013671875,-1.00958251953125,0.3990936279296875
1788957702052376600,3.37537646484375,0.082672119140625,-1.020355224609375,0.4072418212890625
1788957702062426600,3.385426513671875,0.08062744140625,-1.0394287109375,0.40618896484375
1788957702072476700,3.3954765625,0.0656890869140625,-1.054534912109375,0.3908233642578125
1788957702082527700,3.40552783203125,0.02545166015625,-1.08013916015625,0.3787841796875
1788957702092577800,3.415577880859375,-0.000518798828125,-1.0745086669921875,0.3733978271484375
1788957702102627600,3.425627685546875,-0.0137786865234375,-1.0576324462890625,0.37646484375
1788957702112677600,3.435677734375,-0.022247314453125,-1.0304718017578125,0.38824462890625
1788957702122728700,3.445728759765625,-0.0019989013671875,-1.004364013671875,0.3892364501953125
1788957702132778800,3.45577880859375,0.01007080078125,-0.9809417724609375,0.3872528076171875
1788957702142828500,3.46582861328125,0.0319061279296875,-0.940643310546875,0.3767852783203125
1788957702152878600,3.475878662109375,0.0257720947265625,-0.899200439453125,0.361968994140625
1788957702162929400,3.485929443359375,0.00042724609375,-0.8289337158203125,0.3543701171875
1788957702172979700,3.495979736328125,-0.006561279296875,-0.773406982421875,0.3411712646484375
1788957702183029800,3.50602978515625,0.00604248046875,-0.7762603759765625,0.3231353759765625
1788957702193080600,3.51608056640625,0.0370025634765625,-0.7947845458984375,0.30615234375
1788957702203130400,3.52613037109375,0.0741729736328125,-0.8142242431640625,0.2946319580078125
1788957702213180400,3.536180419921875,0.0695343017578125,-0.8177490234375,0.3036651611328125
1788957702223230700,3.546230712890625,0.0609283447265625,-0.8196258544921875,0.318389892578125
1788957702233281500,3.556281494140625,0.04156494140625,-0.795379638671875,0.3006134033203125
1788957702243331600,3.56633154296875,0.0146026611328125,-0.8541412353515625,0.3144073486328125
1788957702253381400,3.57638134765625,-0.020050048828125,-0.9178924560546875,0.3453521728515625
1788957702263431400,3.586431396484375,-0.000091552734375,-0.912200927734375,0.33831787109375
1788957702273482500,3.596482421875,0.00555419921875,-0.983367919921875,0.3227691650390625
1788957702283532500,3.606532470703125,-0.0352783203125,-1.021270751953125,0.290618896484375
1788957702293582600,3.61658251953125,-0.10736083984375,-1.08892822265625,0.2674102783203125
1788957702303632400,3.62663232421875,-0.1285858154296875,-1.19091796875,0.247894287109375
1788957702313683500,3.636683349609375,-0.092437744140625,-1.27142333984375,0.2181854248046875
1788957702323733500,3.6467333984375,-0.0765380859375,-1.3137969970703125,0.149169921875
1788957702333783600,3.656783447265625,-0.10382080078125,-1.395538330078125,0.1204833984375
1788957702343833600,3.66683349609375,-0.018768310546875,-1.26568603515625,0.1752471923828125
1788957702353884700,3.676884765625,0.09356689453125,-0.9966583251953125,0.25506591796875
1788957702363934500,3.6869345703125,0.122222900390625,-0.9936370849609375,0.2322845458984375
1788957702373984500,3.696984619140625,0.097747802734375,-1.077484130859375,0.2191619873046875
1788957702384034600,3.70703466796875,0.1158599853515625,-1.1766815185546875,0.24713134765625
1788957702394085600,3.717085693359375,0.1496429443359375,-1.225128173828125,0.2398223876953125
1788957702404135400,3.727135498046875,0.1490325927734375,-1.0947723388671875,0.2440032958984375
1788957702414185500,3.737185546875,0.1898345947265625,-0.9218902587890625,0.272125244140625
1788957702424236500,3.747236572265625,0.1634674072265625,-0.883270263671875,0.30279541015625
1788957702434286600,3.75728662109375,0.1989593505859375,-0.7141876220703125,0.3470458984375
1788957702444336600,3.767336669921875,0.2056427001953125,-0.577667236328125,0.3676910400390625
1788957702454386400,3.777386474609375,0.119232177734375,-0.5043182373046875,0.39349365234375
1788957702464437500,3.7874375,0.109283447265625,-0.4053802490234375,0.4110565185546875
1788957702474487600,3.797487548828125,0.0537567138671875,-0.585052490234375,0.3321685791015625
1788957702484537600,3.80753759765625,0.0388946533203125,-0.789947509765625,0.3213348388671875
1788957702494587600,3.817587646484375,0.035064697265625,-0.757659912109375,0.332977294921875
1788957702504638700,3.827638671875,0.0421600341796875,-0.81134033203125,0.29150390625
1788957702514688800,3.837688720703125,0.06793212890625,-0.86431884765625,0.2156982421875
1788957702524738800,3.84773876953125,0.0849761962890625,-0.9552459716796875,0.147674560546875
1788957702534788900,3.857788818359375,0.084625244140625,-1.101470947265625,0.028717041015625
1788957702544840000,3.86783984375,0.064483642578125,-1.2050933837890625,-0.095977783203125
1788957702554890000,3.877889892578125,0.02789306640625,-1.227447509765625,-0.1684417724609375
1788957702564939800,3.887939697265625,-0.02044677734375,-1.162384033203125,-0.15771484375
1788957702574989800,3.89798974609375,-0.0176849365234375,-1.04473876953125,-0.092803955078125
1788957702585041000,3.908041015625,0.0036468505859375,-0.96649169921875,-0.0353851318359375
1788957702595091000,3.918091064453125,0.0142364501953125,-0.939453125,0.02691650390625
1788957702605141000,3.92814111328125,0.0253753662109375,-0.9074554443359375,0.10821533203125
1788957702615192000,3.938192138671875,0.048492431640625,-0.8674774169921875,0.1926116943359375
1788957702625241900,3.948241943359375,0.08807373046875,-0.855987548828125,0.2426605224609375
1788957702635292000,3.9582919921875,0.1049957275390625,-0.8877105712890625,0.2711029052734375
1788957702645342000,3.968342041015625,0.1219024658203125,-0.9252471923828125,0.2707977294921875
1788957702655392800,3.978392822265625,0.1559295654296875,-0.97320556640625,0.24365234375
1788957702665442800,3.98844287109375,0.1609954833984375,-1.046478271484375,0.214263916015625
1788957702675492900,3.998492919921875,0.15594482421875,-1.114471435546875,0.1829376220703125
1788957702685543000,4.00854296875,0.1487274169921875,-1.1636505126953125,0.15802001953125
1788957702695593700,4.01859375,0.1200103759765625,-1.1956024169921875,0.1369781494140625
1788957702705643800,4.028643798828125,0.11810302734375,-1.2093505859375,0.1191864013671875
1788957702715693800,4.03869384765625,0.0939483642578125,-1.2064971923828125,0.0988922119140625
1788957702725743900,4.048743896484375,0.0852508544921875,-1.1814727783203125,0.0907135009765625
1788957702735794700,4.058794677734375,0.0921783447265625,-1.1221466064453125,0.1045989990234375
1788957702745844700,4.0688447265625,0.116119384765625,-1.05718994140625,0.1258697509765625
1788957702755894800,4.078894775390625,0.14019775390625,-1.00482177734375,0.133392333984375
1788957702765944800,4.08894482421875,0.1442108154296875,-0.982879638671875,0.1306304931640625
1788957702775995600,4.09899560546875,0.1490936279296875,-0.9550628662109375,0.1291046142578125
1788957702786045700,4.109045654296875,0.17340087890625,-0.9287567138671875,0.119476318359375
1788957702796095700,4.119095703125,0.164581298828125,-0.9250946044921875,0.11480712890625
1788957702806145800,4.129145751953125,0.1488037109375,-0.912994384765625,0.106964111328125
1788957702816196900,4.13919677734375,0.143707275390625,-0.9007720947265625,0.0973358154296875
1788957702826246700,4.14924658203125,0.145660400390625,-0.90582275390625,0.0909271240234375
1788957702836296700,4.159296630859375,0.1564178466796875,-0.931121826171875,0.0789642333984375
1788957702846347800,4.16934765625,0.1559600830078125,-0.9622039794921875,0.0659637451171875
1788957702856397800,4.179397705078125,0.115509033203125,-0.990264892578125,0.05841064453125
1788957702866448000,4.18944775390625,0.1258392333984375,-0.9944915771484375,0.0655975341796875
1788957702876497700,4.19949755859375,0.105316162109375,-1.0025482177734375,0.0687255859375
1788957702886548700,4.209548828125,0.10498046875,-1.0057373046875,0.076446533203125
1788957702896598800,4.219598876953125,0.101043701171875,-1.0091552734375,0.10986328125
1788957702906648800,4.22964892578125,0.0933990478515625,-0.9929656982421875,0.1459197998046875
1788957702916699000,4.239698974609375,0.123077392578125,-0.9515838623046875,0.1666259765625
1788957702926750000,4.24975,0.15618896484375,-0.9267730712890625,0.1655731201171875
1788957702936799700,4.2597998046875,0.161865234375,-0.9279937744140625,0.1626434326171875
1788957702946849800,4.269849853515625,0.167694091796875,-0.9346160888671875,0.1519622802734375
1788957702956899800,4.27989990234375,0.1917266845703125,-0.9220428466796875,0.140380859375
1788957702966951000,4.289950927734375,0.207794189453125,-0.917633056640625,0.1366729736328125
1788957702977001000,4.3000009765625,0.2016143798828125,-0.923553466796875,0.1331787109375
1788957702987050800,4.31005078125,0.19366455078125,-0.93731689453125,0.12054443359375
1788957702997100800,4.320100830078125,0.197601318359375,-0.9580535888671875,0.1189422607421875
1788957703007151900,4.33015185546875,0.1934051513671875,-0.975799560546875,0.1065521240234375
1788957703017202000,4.340201904296875,0.2074127197265625,-0.9996490478515625,0.046478271484375
1788957703027251700,4.350251708984375,0.1368865966796875,-1.0890655517578125,0.094329833984375
1788957703037301800,4.3603017578125,0.0861358642578125,-1.017608642578125,0.150177001953125
1788957703047352800,4.370352783203125,0.1292877197265625,-0.9906463623046875,0.1082763671875
1788957703057403000,4.38040283203125,0.125885009765625,-1.06475830078125,0.1166229248046875
1788957703067453000,4.390452880859375,0.11041259765625,-1.0218658447265625,0.0986785888671875
1788957703077504000,4.40050390625,0.143524169921875,-0.990478515625,0.1016998291015625
1788957703087553800,4.4105537109375,0.186309814453125,-1.009033203125,0.110595703125
1788957703097603800,4.420603759765625,0.1750335693359375,-1.0176544189453125,0.1056976318359375
1788957703107654000,4.43065380859375,0.1873016357421875,-1.063507080078125,0.140350341796875
1788957703117705000,4.440705078125,0.1753692626953125,-1.06298828125,0.1301116943359375
1788957703127755000,4.450755126953125,0.1757965087890625,-1.0840911865234375,0.16168212890625
1788957703137804800,4.4608046875,0.186126708984375,-1.0828399658203125,0.169891357421875
1788957703147854800,4.470854736328125,0.1778717041015625,-1.08819580078125,0.24090576171875
1788957703157906000,4.480906005859375,0.2174530029296875,-1.03369140625,0.250030517578125
1788957703167956000,4.4909560546875,0.2097930908203125,-1.010986328125,0.2374114990234375
1788957703178006000,4.501006103515625,0.210205078125,-0.97601318359375,0.23876953125
1788957703188055800,4.511055908203125,0.236236572265625,-0.9579010009765625,0.236785888671875
1788957703198107000,4.52110693359375,0.25238037109375,-0.9421234130859375,0.219573974609375
1788957703208157000,4.531156982421875,0.2349700927734375,-0.9049530029296875,0.1880035400390625
1788957703218207000,4.54120703125,0.1938323974609375,-0.86712646484375,0.1369476318359375
1788957703228257000,4.551257080078125,0.1741485595703125,-0.8457794189453125,0.0790557861328125
1788957703238307800,4.561307861328125,0.166107177734375,-0.852935791015625,0.043792724609375
1788957703248358000,4.57135791015625,0.1468353271484375,-0.884521484375,0.0264739990234375
1788957703258408000,4.581407958984375,0.1425018310546875,-0.91278076171875,0.0050048828125
1788957703268458800,4.591458740234375,0.146026611328125,-0.929840087890625,-0.017120361328125
1788957703278508800,4.6015087890625,0.150299072265625,-0.94989013671875,-0.019683837890625
1788957703288558800,4.611558837890625,0.167510986328125,-0.9793243408203125,-0.0154571533203125
1788957703298609000,4.62160888671875,0.189117431640625,-1.0101318359375,-0.0186614990234375
1788957703308659700,4.63165966796875,0.2113800048828125,-1.0329132080078125,-0.0149993896484375
1788957703318709800,4.641709716796875,0.2496795654296875,-1.0431976318359375,0.0108795166015625
1788957703328759800,4.651759765625,0.279693603515625,-1.049713134765625,0.0447235107421875
1788957703338809900,4.661809814453125,0.2938232421875,-1.05859375,0.07318115234375
1788957703348860700,4.671860595703125,0.3066253662109375,-1.06256103515625,0.100555419921875
1788957703358910700,4.68191064453125,0.3221435546875,-1.0504150390625,0.13214111328125
1788957703368960800,4.691960693359375,0.32159423828125,-1.0391693115234375,0.159515380859375
1788957703379010800,4.7020107421875,0.320281982421875,-1.0655670166015625,0.18609619140625
1788957703389062000,4.712061767578125,0.31201171875,-1.07427978515625,0.1956939697265625
1788957703399111700,4.722111572265625,0.3074798583984375,-1.100128173828125,0.1922454833984375
1788957703409161700,4.73216162109375,0.2738494873046875,-1.1068572998046875,0.1884613037109375
1788957703419211800,4.742211669921875,0.2309722900390625,-1.0968170166015625,0.181427001953125
1788957703429262800,4.752262939453125,0.197479248046875,-1.0742340087890625,0.15765380859375
1788957703439313000,4.76231298828125,0.177459716796875,-1.0599517822265625,0.1374664306640625
1788957703449362700,4.77236279296875,0.1793670654296875,-1.0446319580078125,0.1109466552734375
1788957703459412700,4.782412841796875,0.1899566650390625,-1.0354766845703125,0.084930419921875
1788957703469463800,4.7924638671875,0.175933837890625,-1.0260467529296875,0.0736541748046875
1788957703479513900,4.802513916015625,0.157470703125,-0.998138427734375,0.0630035400390625
1788957703489564000,4.81256396484375,0.1544189453125,-0.9610137939453125,0.05987548828125
1788957703499614700,4.82261474609375,0.1621856689453125,-0.9305419921875,0.0592193603515625
1788957703509664800,4.832664794921875,0.1631622314453125,-0.90869140625,0.0483551025390625
1788957703519714800,4.84271484375,0.1571197509765625,-0.8894805908203125,0.0449066162109375
1788957703529764900,4.852764892578125,0.16668701171875,-0.8762664794921875,0.0511016845703125
1788957703539816000,4.86281591796875,0.1783447265625,-0.882049560546875,0.05389404296875
1788957703549866000,4.872865966796875,0.17877197265625,-0.8954925537109375,0.0559234619140625
1788957703559915800,4.882915771484375,0.1746673583984375,-0.895599365234375,0.0567779541015625
1788957703569965800,4.8929658203125,0.168731689453125,-0.8984222412109375,0.0552978515625
1788957703580017000,4.903016845703125,0.15985107421875,-0.9092864990234375,0.05059814453125
1788957703590067000,4.91306689453125,0.156890869140625,-0.916015625,0.04290771484375
1788957703600117000,4.923116943359375,0.1448822021484375,-0.922454833984375,0.036865234375
1788957703610166800,4.933166748046875,0.134490966796875,-0.93804931640625,0.04266357421875
1788957703620217900,4.9432177734375,0.1362152099609375,-0.9448699951171875,0.0565032958984375
1788957703630268000,4.953267822265625,0.1481781005859375,-0.9424285888671875,0.079864501953125
1788957703640318000,4.96331787109375,0.16546630859375,-0.9314117431640625,0.1028900146484375
1788957703650368000,4.973367919921875,0.181915283203125,-0.92950439453125,0.1230010986328125
1788957703660419000,4.983419189453125,0.1954498291015625,-0.93988037109375,0.1415557861328125
1788957703670468900,4.99346875,0.19573974609375,-0.952056884765625,0.1523895263671875
1788957703680519000,5.003518798828125,0.1796417236328125,-0.9663543701171875,0.15960693359375
1788957703690569000,5.01356884765625,0.1645660400390625,-0.9870758056640625,0.1561737060546875
1788957703700620000,5.0236201171875,0.160400390625,-0.99908447265625,0.1453399658203125
1788957703710670000,5.033670166015625,0.15032958984375,-1.01727294921875,0.1357421875
1788957703720720000,5.043719970703125,0.138519287109375,-1.0257568359375,0.1163482666015625
1788957703730770000,5.05377001953125,0.1280364990234375,-1.0211334228515625,0.1015625
1788957703740821000,5.063821044921875,0.1252593994140625,-1.01849365234375,0.086151123046875
1788957703750871000,5.07387109375,0.1353607177734375,-1.0298004150390625,0.075836181640625
1788957703760920800,5.0839208984375,0.1309814453125,-1.048828125,0.0662689208984375
1788957703770971000,5.093970947265625,0.1177825927734375,-1.06689453125,0.058502197265625
1788957703781022000,5.10402197265625,0.1214447021484375,-1.0763092041015625,0.037567138671875
1788957703791072000,5.114072021484375,0.1273193359375,-1.0931243896484375,0.026397705078125
1788957703801122000,5.1241220703125,0.10443115234375,-1.109130859375,0.032073974609375
1788957703811172900,5.1341728515625,0.0700225830078125,-1.120361328125,0.049224853515625
1788957703821222700,5.14422265625,0.0319061279296875,-1.121673583984375,0.065277099609375
1788957703831273000,5.15427294921875,-0.0247802734375,-1.107269287109375,0.0786590576171875
1788957703841323000,5.164322998046875,-0.0928192138671875,-1.072845458984375,0.1020050048828125
1788957703851373800,5.174373779296875,-0.1165008544921875,-1.0231781005859375,0.119110107421875
1788957703861423900,5.184423828125,-0.071441650390625,-0.9714508056640625,0.1116943359375
1788957703871473700,5.1944736328125,-0.003326416015625,-0.91534423828125,0.098388671875
1788957703881524000,5.20452392578125,0.060638427734375,-0.859527587890625,0.090545654296875
1788957703891574800,5.21457470703125,0.0984954833984375,-0.8299102783203125,0.084228515625
1788957703901624800,5.224624755859375,0.13720703125,-0.82147216796875,0.0751800537109375
1788957703911675000,5.2346748046875,0.1700286865234375,-0.82867431640625,0.0591888427734375
1788957703921724700,5.244724609375,0.1798248291015625,-0.860382080078125,0.043212890625
1788957703931775700,5.254775634765625,0.1600341796875,-0.8914031982421875,0.0365142822265625
1788957703941825800,5.26482568359375,0.1222991943359375,-0.9177093505859375,0.0143280029296875
1788957703951875800,5.274875732421875,0.0844879150390625,-0.9301910400390625,-0.0073394775390625
1788957703961926000,5.28492578125,0.062713623046875,-0.93377685546875,0.008819580078125
1788957703971976700,5.294976806640625,0.05462646484375,-0.9501953125,0.0234375
1788957703982026800,5.30502685546875,0.071197509765625,-0.97320556640625,0.024322509765625
1788957703992076800,5.315076904296875,0.0692596435546875,-0.99383544921875,0.026123046875
1788957704002126800,5.325126953125,0.04888916015625,-1.003448486328125,0.0301055908203125
1788957704012178000,5.335177978515625,0.024993896484375,-1.006256103515625,0.038360595703125
1788957704022227700,5.345227783203125,0.0296478271484375,-1.003143310546875,0.053619384765625
1788957704032277800,5.35527783203125,0.0435638427734375,-0.9947357177734375,0.0699310302734375
1788957704042327800,5.365327880859375,0.0512542724609375,-0.9926605224609375,0.0899658203125
1788957704052379000,5.37537890625,0.04595947265625,-0.9905853271484375,0.1054534912109375
1788957704062429000,5.385428955078125,0.0430755615234375,-0.9837188720703125,0.112548828125
1788957704072478700,5.395478759765625,0.05523681640625,-0.975433349609375,0.1072235107421875
1788957704082528800,5.40552880859375,0.08331298828125,-0.95977783203125,0.0869903564453125
1788957704092579800,5.415579833984375,0.0971527099609375,-0.9491729736328125,0.0664520263671875
1788957704102630000,5.4256298828125,0.070953369140625,-0.946441650390625,0.0584259033203125
1788957704112680000,5.435679931640625,0.0415496826171875,-0.9315032958984375,0.0507354736328125
1788957704122731000,5.44573095703125,0.057586669921875,-0.9017181396484375,0.03302001953125
1788957704132780800,5.45578076171875,0.094482421875,-0.878753662109375,0.0181121826171875
1788957704142830800,5.465830810546875,0.117645263671875,-0.888519287109375,0.01123046875
1788957704152881000,5.475880859375,0.12664794921875,-0.9350128173828125,0.0131988525390625
1788957704162932000,5.485931884765625,0.123443603515625,-0.99249267578125,-0.000579833984375
1788957704172982000,5.49598193359375,0.134490966796875,-1.0513916015625,-0.0082550048828125
1788957704183031800,5.50603173828125,0.1439208984375,-1.1016845703125,-0.002899169921875
1788957704193081900,5.516081787109375,0.1398468017578125,-1.1611785888671875,0.0106658935546875
1788957704203133000,5.5261328125,0.1218109130859375,-1.24261474609375,0.030548095703125
1788957704213183000,5.536182861328125,0.07989501953125,-1.316986083984375,0.0580596923828125
1788957704223233000,5.54623291015625,0.047882080078125,-1.3656768798828125,0.0793914794921875
1788957704233282800,5.55628271484375,0.0091552734375,-1.380828857421875,0.1064300537109375
1788957704243334000,5.566333984375,-0.009368896484375,-1.3355865478515625,0.1369476318359375
1788957704253384000,5.576384033203125,-0.029144287109375,-1.2484893798828125,0.167755126953125
1788957704263434000,5.58643408203125,-0.064056396484375,-1.1453094482421875,0.1962890625
1788957704273484000,5.596484130859375,-0.08905029296875,-1.0338897705078125,0.2197265625
1788957704283534800,5.606534912109375,-0.07391357421875,-0.9419708251953125,0.2276458740234375
1788957704293585000,5.6165849609375,-0.018341064453125,-0.8704376220703125,0.21246337890625
1788957704303635000,5.626635009765625,0.0306549072265625,-0.79638671875,0.1833648681640625
1788957704313685000,5.63668505859375,0.05023193359375,-0.7160491943359375,0.15020751953125
1788957704323736000,5.646736083984375,0.07666015625,-0.6686248779296875,0.1177978515625
1788957704333785900,5.656785888671875,0.1053009033203125,-0.64971923828125,0.088836669921875
1788957704343836000,5.6668359375,0.1157379150390625,-0.6670379638671875,0.0682830810546875
1788957704353886000,5.676885986328125,0.109649658203125,-0.7178192138671875,0.054168701171875
1788957704363937000,5.68693701171875,0.0948944091796875,-0.7707061767578125,0.0536041259765625
1788957704373987000,5.696987060546875,0.0849609375,-0.8150634765625,0.059112548828125
1788957704384036900,5.707036865234375,0.08367919921875,-0.871246337890625,0.0621185302734375
1788957704394087700,5.717087646484375,0.1048736572265625,-0.9359588623046875,0.067718505859375
1788957704404137700,5.7271376953125,0.1254730224609375,-1.000946044921875,0.075408935546875
1788957704414188000,5.73718798828125,0.1099853515625,-1.05401611328125,0.0752105712890625
1788957704424238000,5.747238037109375,0.0796661376953125,-1.11004638671875,0.0660858154296875
1788957704434289000,5.757288818359375,0.0627288818359375,-1.1734619140625,0.053955078125
1788957704444338700,5.767338623046875,0.0583648681640625,-1.2246246337890625,0.0590972900390625
1788957704454388700,5.777388671875,0.08673095703125,-1.2502593994140625,0.0623321533203125
1788957704464439000,5.78743896484375,0.1082305908203125,-1.25775146484375,0.067535400390625
1788957704474489900,5.79748974609375,0.1224365234375,-1.255706787109375,0.0889739990234375
1788957704484540000,5.807539794921875,0.1171875,-1.23321533203125,0.121856689453125
1788957704494589700,5.817589599609375,0.0861358642578125,-1.193023681640625,0.1557769775390625
1788957704504639700,5.8276396484375,0.0862579345703125,-1.1664276123046875,0.176239013671875
1788957704514690000,5.83768994140625,0.1124420166015625,-1.14263916015625,0.17608642578125
1788957704524740000,5.847739990234375,0.121124267578125,-1.1101226806640625,0.1712799072265625
1788957704534790400,5.857790283203125,0.11541748046875,-1.0537872314453125,0.1654510498046875
1788957704544840200,5.867840087890625,0.0921173095703125,-0.96893310546875,0.155975341796875
1788957704554891000,5.87789111328125,0.0646514892578125,-0.8914794921875,0.155914306640625
1788957704564941000,5.887941162109375,0.023712158203125,-0.8275299072265625,0.1666412353515625
1788957704574991000,5.8979912109375,-0.0087432861328125,-0.79852294921875,0.1705169677734375
1788957704585041400,5.90804150390625,-0.0108795166015625,-0.8046722412109375,0.1674652099609375
1788957704595092200,5.91809228515625,0.0037841796875,-0.8196868896484375,0.159759521484375
1788957704605142000,5.92814208984375,0.01824951171875,-0.84503173828125,0.1612701416015625
1788957704615192000,5.938192138671875,0.0426483154296875,-0.8824920654296875,0.17047119140625
1788957704625242000,5.9482421875,0.0784912109375,-0.921783447265625,0.1751708984375
1788957704635293200,5.958293212890625,0.0987396240234375,-0.9788055419921875,0.18280029296875
1788957704645343200,5.96834326171875,0.1072540283203125,-1.0524749755859375,0.192138671875
1788957704655393000,5.97839306640625,0.1138916015625,-1.1184844970703125,0.20050048828125
1788957704665443000,5.988443115234375,0.1209716796875,-1.161956787109375,0.1966552734375
1788957704675494100,5.998494140625,0.1053466796875,-1.20257568359375,0.191925048828125
1788957704685544200,6.008544189453125,0.087005615234375,-1.1994476318359375,0.157135009765625
1788957704695594200,6.01859423828125,0.080780029296875,-1.159027099609375,0.100494384765625
1788957704705644000,6.02864404296875,0.071380615234375,-1.0984649658203125,0.077972412109375
1788957704715695000,6.038695068359375,0.071624755859375,-1.0131683349609375,0.0708160400390625
1788957704725745200,6.0487451171875,0.0748291015625,-0.921630859375,0.0594024658203125
1788957704735795200,6.058795166015625,0.073974609375,-0.849884033203125,0.0446014404296875
1788957704745845200,6.06884521484375,0.0663909912109375,-0.80963134765625,0.0468902587890625
1788957704755896000,6.07889599609375,0.06658935546875,-0.7845306396484375,0.057891845703125
1788957704765946000,6.088946044921875,0.0740509033203125,-0.77752685546875,0.06170654296875
1788957704775996200,6.09899609375,0.0992431640625,-0.795318603515625,0.0672607421875
1788957704786046200,6.109046142578125,0.1158599853515625,-0.8195343017578125,0.077056884765625
1788957704796097300,6.11909716796875,0.1333770751953125,-0.83978271484375,0.0869903564453125
1788957704806147000,6.12914697265625,0.1609649658203125,-0.8558349609375,0.09649658203125
1788957704816197000,6.139197021484375,0.1779632568359375,-0.8694915771484375,0.10595703125
1788957704826248200,6.149248291015625,0.1976470947265625,-0.865020751953125,0.1146392822265625
1788957704836298200,6.15929833984375,0.221527099609375,-0.8629608154296875,0.119171142578125
1788957704846348300,6.169348388671875,0.2499847412109375,-0.8781890869140625,0.1251983642578125
1788957704856398000,6.179398193359375,0.2572021484375,-0.90484619140625,0.1350250244140625
1788957704866449200,6.18944921875,0.247406005859375,-0.941558837890625,0.14227294921875
1788957704876499200,6.199499267578125,0.2520599365234375,-0.9806365966796875,0.143890380859375
1788957704886549200,6.20954931640625,0.2510833740234375,-1.0194091796875,0.147918701171875
1788957704896599300,6.219599365234375,0.2477569580078125,-1.05706787109375,0.1515350341796875
1788957704906650400,6.229650390625,0.228759765625,-1.105926513671875,0.1607666015625
1788957704916700200,6.2397001953125,0.2072296142578125,-1.16436767578125,0.183197021484375
1788957704926750200,6.249750244140625,0.2162628173828125,-1.191680908203125,0.1954803466796875
1788957704936800300,6.25980029296875,0.2246856689453125,-1.1910552978515625,0.16632080078125
1788957704946851300,6.269851318359375,0.236480712890625,-1.261688232421875,0.1435546875
1788957704956901400,6.2799013671875,0.2067718505859375,-1.30230712890625,0.1246337890625
1788957704966951200,6.289951171875,0.1680755615234375,-1.2943115234375,0.1035003662109375
1788957704977001200,6.300001220703125,0.142608642578125,-1.2445831298828125,0.0992889404296875
1788957704987052300,6.31005224609375,0.1226043701171875,-1.1757049560546875,0.1114044189453125
1788957704997102300,6.320102294921875,0.1219482421875,-1.104644775390625,0.128143310546875
1788957705007152400,6.33015234375,0.126190185546875,-1.042327880859375,0.152191162109375
1788957705017202200,6.3402021484375,0.125640869140625,-0.9922332763671875,0.1709136962890625
1788957705027253200,6.350253173828125,0.1529388427734375,-0.942138671875,0.177825927734375
1788957705037303300,6.36030322265625,0.1732635498046875,-0.8955841064453125,0.1665191650390625
1788957705047353300,6.370353271484375,0.17449951171875,-0.8567657470703125,0.1500701904296875
1788957705057403400,6.3804033203125,0.169342041015625,-0.8321685791015625,0.134246826171875
1788957705067454200,6.3904541015625,0.1621856689453125,-0.8276214599609375,0.1105499267578125
1788957705077504300,6.400504150390625,0.1551666259765625,-0.8431854248046875,0.0965728759765625
1788957705087554300,6.41055419921875,0.1695709228515625,-0.85516357421875,0.0792694091796875
1788957705097604400,6.420604248046875,0.1779327392578125,-0.8863372802734375,0.073272705078125
1788957705107655200,6.4306552734375,0.1732330322265625,-0.9214324951171875,0.0766448974609375
1788957705117705200,6.440705322265625,0.1701507568359375,-0.9326934814453125,0.07708740234375
1788957705127755300,6.45075537109375,0.1779022216796875,-0.94451904296875,0.076171875
1788957705137805300,6.460805419921875,0.17974853515625,-0.9833984375,0.0780029296875
1788957705147856100,6.470856201171875,0.1787109375,-1.038726806640625,0.071868896484375
1788957705157906200,6.48090625,0.1824188232421875,-1.0916748046875,0.0554351806640625
1788957705167956200,6.490956298828125,0.1620941162109375,-1.1352996826171875,0.03948974609375
1788957705178006300,6.50100634765625,0.1448822021484375,-1.164886474609375,0.0243377685546875
1788957705188057000,6.51105712890625,0.12908935546875,-1.163818359375,0.01177978515625
1788957705198107100,6.521107177734375,0.092681884765625,-1.127655029296875,0.010406494140625
1788957705208157200,6.5311572265625,0.050323486328125,-1.0654144287109375,0.01788330078125
1788957705218207200,6.541207275390625,0.0513916015625,-0.9866485595703125,0.04022216796875
1788957705228258000,6.551258056640625,0.0634307861328125,-0.92034912109375,0.0753021240234375
1788957705238308000,6.56130810546875,0.0643157958984375,-0.884490966796875,0.0977630615234375
1788957705248358100,6.571358154296875,0.0623931884765625,-0.85186767578125,0.1087799072265625
1788957705258408200,6.581408203125,0.06658935546875,-0.827606201171875,0.101531982421875
1788957705268459300,6.591459228515625,0.084014892578125,-0.83526611328125,0.0960845947265625
1788957705278509000,6.601509033203125,0.0908966064453125,-0.8663482666015625,0.0974273681640625
1788957705288559000,6.61155908203125,0.0969085693359375,-0.900054931640625,0.087158203125
1788957705298609200,6.621609130859375,0.102508544921875,-0.9286956787109375,0.0685272216796875
1788957705308660200,6.63166015625,0.1141357421875,-0.955291748046875,0.0509490966796875
1788957705318710300,6.641710205078125,0.1204071044921875,-0.9785003662109375,0.0386810302734375
1788957705328760000,6.651760009765625,0.1218719482421875,-0.993896484375,0.027099609375
1788957705338810000,6.66181005859375,0.10333251953125,-1.0003509521484375,0.0243377685546875
1788957705348861200,6.671861083984375,0.0908966064453125,-0.9824676513671875,0.0421600341796875
1788957705358911200,6.6819111328125,0.0956878662109375,-0.9434661865234375,0.065216064453125
1788957705368961000,6.6919609375,0.08648681640625,-0.9324493408203125,0.079986572265625
1788957705379011000,6.702010986328125,0.0821990966796875,-0.935699462890625,0.0987701416015625
1788957705389062100,6.712062255859375,0.091094970703125,-0.944732666015625,0.11126708984375
1788957705399112200,6.7221123046875,0.086639404296875,-0.954833984375,0.1146392822265625
1788957705409162200,6.732162353515625,0.0765228271484375,-0.962982177734375,0.1137237548828125
1788957705419212000,6.7422119140625,0.08135986328125,-0.9727630615234375,0.12664794921875
1788957705429263000,6.75226318359375,0.13006591796875,-0.9942169189453125,0.125091552734375
1788957705439313200,6.762313232421875,0.1789093017578125,-1.041473388671875,0.10882568359375
1788957705449363200,6.77236328125,0.176971435546875,-1.091094970703125,0.100433349609375
1788957705459413200,6.782413330078125,0.1561126708984375,-1.12493896484375,0.0934600830078125
1788957705469464300,6.79246435546875,0.12701416015625,-1.160736083984375,0.0735931396484375
1788957705479514000,6.80251416015625,0.0992279052734375,-1.2017059326171875,0.0506134033203125
1788957705489564200,6.812564208984375,0.079803466796875,-1.2331695556640625,0.0226287841796875
1788957705499615200,6.822615234375,0.0999298095703125,-1.2559356689453125,-0.02239990234375
1788957705509665800,6.832665771484375,0.1148681640625,-1.2586517333984375,-0.052825927734375
1788957705519715800,6.8427158203125,0.0819091796875,-1.2282867431640625,-0.050567626953125
1788957705529765600,6.852765625,0.0547943115234375,-1.182647705078125,-0.039306640625
1788957705539816700,6.862816650390625,0.0285491943359375,-1.1453857421875,-0.0189666748046875
1788957705549866800,6.87286669921875,0.0233306884765625,-1.112762451171875,0.0162200927734375
1788957705559916800,6.882916748046875,0.04833984375,-1.066162109375,0.06353759765625
1788957705569966800,6.892966796875,0.0992279052734375,-1.00384521484375,0.100372314453125
1788957705580018000,6.903017822265625,0.14837646484375,-0.9391021728515625,0.1173095703125
1788957705590067700,6.913067626953125,0.153228759765625,-0.8827667236328125,0.117523193359375
1788957705600117800,6.92311767578125,0.1314697265625,-0.838531494140625,0.126220703125
1788957705610167800,6.933167724609375,0.0742950439453125,-0.78607177734375,0.129730224609375
1788957705620219000,6.943218994140625,0.0347900390625,-0.7450714111328125,0.138397216796875
1788957705630269000,6.95326904296875,0.0365753173828125,-0.7108917236328125,0.127044677734375
1788957705640318700,6.963318603515625,0.0960845947265625,-0.719757080078125,0.101654052734375
1788957705650368800,6.97336865234375,0.124908447265625,-0.79931640625,0.0750885009765625
1788957705660419600,6.983419677734375,0.119873046875,-0.8873748779296875,0.0439910888671875
1788957705670470000,6.993469970703125,0.121307373046875,-0.941986083984375,0.0149383544921875
1788957705680520000,7.00352001953125,0.1154632568359375,-0.98626708984375,0.000701904296875
1788957705690569700,7.01356982421875,0.0872802734375,-1.02520751953125,0.0063018798828125
1788957705700620500,7.02362060546875,0.0823211669921875,-1.068145751953125,0.02301025390625
1788957705710670600,7.033670654296875,0.126739501953125,-1.122406005859375,0.0289764404296875
1788957705720720600,7.043720703125,0.1775054931640625,-1.1744842529296875,0.0262451171875
1788957705730771000,7.05377099609375,0.208984375,-1.2078857421875,0.02850341796875
1788957705740821500,7.063821533203125,0.1916046142578125,-1.1943359375,0.0447845458984375
1788957705750871600,7.07387158203125,0.142974853515625,-1.1484832763671875,0.0652923583984375
1788957705760921600,7.083921630859375,0.1058349609375,-1.0944671630859375,0.0821075439453125
1788957705770971600,7.0939716796875,0.1035003662109375,-1.052459716796875,0.106109619140625
1788957705781022700,7.104022705078125,0.11712646484375,-1.0180816650390625,0.1340484619140625
1788957705791072500,7.114072509765625,0.1167144775390625,-0.986907958984375,0.1457061767578125
1788957705801122600,7.12412255859375,0.121002197265625,-0.9837799072265625,0.146148681640625
1788957705811172600,7.134172607421875,0.1253662109375,-0.9984283447265625,0.1394805908203125
1788957705821223700,7.1442236328125,0.1318817138671875,-1.0332489013671875,0.140655517578125
1788957705831273700,7.154273681640625,0.13616943359375,-1.0754241943359375,0.142059326171875
1788957705841323500,7.164323486328125,0.150238037109375,-1.1169586181640625,0.1460723876953125
1788957705851373600,7.17437353515625,0.1515960693359375,-1.13873291015625,0.1472320556640625
1788957705861424600,7.184424560546875,0.14373779296875,-1.1429443359375,0.1518096923828125
1788957705871474700,7.194474609375,0.136749267578125,-1.123199462890625,0.1551971435546875
1788957705881524700,7.204524658203125,0.11334228515625,-1.1172943115234375,0.1489715576171875
1788957705891574500,7.214574462890625,0.0847015380859375,-1.1085052490234375,0.14837646484375
1788957705901625600,7.22462548828125,0.0555419921875,-1.0839080810546875,0.1552734375
1788957705911675600,7.234675537109375,0.0337371826171875,-1.0593719482421875,0.166351318359375
1788957705921725700,7.2447255859375,-0.0032806396484375,-1.0387420654296875,0.176055908203125
1788957705931775700,7.254775634765625,-0.036285400390625,-1.0183563232421875,0.1784515380859375
1788957705941826800,7.264826904296875,-0.035552978515625,-1.0081787109375,0.189544677734375
1788957705951876600,7.274876708984375,-0.019866943359375,-0.982452392578125,0.1906280517578125
1788957705961926700,7.2849267578125,-0.0019073486328125,-0.9500579833984375,0.1708831787109375
1788957705971976700,7.294976806640625,0.0416412353515625,-0.920654296875,0.13427734375
1788957705982027800,7.30502783203125,0.0814666748046875,-0.9077301025390625,0.1020660400390625
1788957705992077800,7.315077880859375,0.1064300537109375,-0.8919677734375,0.091827392578125
1788957706002127600,7.325127685546875,0.1361236572265625,-0.8425140380859375,0.0998382568359375
1788957706012177700,7.335177734375,0.1764373779296875,-0.781585693359375,0.1219635009765625
1788957706022228700,7.345228759765625,0.1995697021484375,-0.724395751953125,0.1560821533203125
1788957706032278800,7.35527880859375,0.17828369140625,-0.673004150390625,0.1862030029296875
1788957706042328600,7.36532861328125,0.1612701416015625,-0.6390380859375,0.196685791015625
1788957706052378600,7.375378662109375,0.1520538330078125,-0.62445068359375,0.19439697265625
1788957706062429700,7.3854296875,0.168365478515625,-0.621490478515625,0.1819000244140625
1788957706072479700,7.395479736328125,0.234649658203125,-0.6444549560546875,0.1532135009765625
1788957706082529800,7.40552978515625,0.282989501953125,-0.7082672119140625,0.111846923828125
1788957706092579600,7.41557958984375,0.2739105224609375,-0.800750732421875,0.049652099609375
1788957706102630700,7.425630615234375,0.275482177734375,-0.8929901123046875,-0.029876708984375
1788957706112680700,7.4356806640625,0.304046630859375,-0.9642791748046875,-0.0883331298828125
1788957706122730800,7.445730712890625,0.321441650390625,-1.0922088623046875,-0.115325927734375
1788957706132780800,7.45578076171875,0.344207763671875,-1.2410736083984375,-0.0932159423828125
1788957706142831900,7.465831787109375,0.35650634765625,-1.3781890869140625,-0.076171875
1788957706152881700,7.475881591796875,0.306793212890625,-1.5182342529296875,-0.059112548828125
1788957706162931700,7.485931640625,0.2191009521484375,-1.637420654296875,-0.0412445068359375
1788957706172981800,7.495981689453125,0.20196533203125,-1.69415283203125,-0.0463104248046875
1788957706183032800,7.50603271484375,0.2115020751953125,-1.661163330078125,-0.0218505859375
1788957706193083000,7.516082763671875,0.1770172119140625,-1.574066162109375,0.0335235595703125
1788957706203132700,7.526132568359375,0.16339111328125,-1.4478607177734375,0.0658416748046875
1788957706213182700,7.5361826171875,0.1357574462890625,-1.3199462890625,0.057403564453125
1788957706223233800,7.54623388671875,0.075531005859375,-1.2276153564453125,0.08111572265625
1788957706233283800,7.556283935546875,0.0608367919921875,-1.160980224609375,0.14501953125
1788957706243334000,7.566333984375,0.08111572265625,-1.097808837890625,0.1920013427734375
1788957706253383700,7.5763837890625,0.0799102783203125,-1.0175933837890625,0.218109130859375
1788957706263434800,7.586434814453125,0.096954345703125,-0.91607666015625,0.19970703125
1788957706273484800,7.59648486328125,0.125213623046875,-0.8402252197265625,0.161468505859375
1788957706283534800,7.606534912109375,0.12982177734375,-0.7798919677734375,0.1260223388671875
1788957706293585000,7.6165849609375,0.1351318359375,-0.714080810546875,0.092193603515625
1788957706303635700,7.6266357421875,0.179962158203125,-0.6493988037109375,0.0574951171875
1788957706313685800,7.636685791015625,0.2294921875,-0.6037445068359375,0.0376434326171875
1788957706323735800,7.64673583984375,0.2490997314453125,-0.572174072265625,0.028350830078125
1788957706333785900,7.656785888671875,0.2250823974609375,-0.5484771728515625,0.0096588134765625
1788957706343836700,7.666836669921875,0.1468353271484375,-0.5348968505859375,0.0133514404296875
1788957706353886700,7.67688671875,0.0865631103515625,-0.5066680908203125,0.0117034912109375
1788957706363936800,7.686936767578125,0.1122589111328125,-0.505767822265625,0.0335845947265625
1788957706373986800,7.69698681640625,0.1829986572265625,-0.537872314453125,0.049957275390625
1788957706384037600,7.70703759765625,0.220062255859375,-0.5835113525390625,-0.00006103515625
1788957706394087700,7.717087646484375,0.19189453125,-0.7000274658203125,-0.02508544921875
1788957706404137700,7.7271376953125,0.154449462890625,-0.832794189453125,-0.026580810546875
1788957706414187800,7.737187744140625,0.13836669921875,-0.924072265625,-0.0485687255859375
1788957706424238600,7.747238525390625,0.121185302734375,-0.99420166015625,-0.063934326171875
1788957706434288600,7.75728857421875,0.135040283203125,-1.0606842041015625,-0.058441162109375
1788957706444338700,7.767338623046875,0.141204833984375,-1.1311492919921875,-0.0723419189453125
1788957706454388700,7.777388671875,0.0695037841796875,-1.2285308837890625,-0.08184814453125
1788957706464439600,7.787439453125,0.032012939453125,-1.39520263671875,-0.0793914794921875
1788957706474489600,7.797489501953125,0.095306396484375,-1.5389556884765625,-0.1015625
1788957706484539600,7.80753955078125,0.1116790771484375,-1.6251220703125,-0.108489990234375
1788957706494589700,7.817589599609375,0.1122283935546875,-1.5164337158203125,-0.0742645263671875
1788957706504640800,7.827640869140625,0.1678314208984375,-1.4577178955078125,0.0082855224609375
1788957706514690300,7.837690185546875,0.2695159912109375,-1.4591217041015625,0.02142333984375
1788957706524740000,7.847739990234375,0.328887939453125,-1.3644256591796875,0.016357421875
1788957706534790400,7.857790283203125,0.2857513427734375,-1.3404541015625,0.0830535888671875
1788957706544841200,7.86784130859375,0.180816650390625,-1.26190185546875,0.1090850830078125
1788957706554891300,7.877891357421875,0.1297149658203125,-1.1606903076171875,0.1089324951171875
1788957706564941300,7.88794140625,0.091064453125,-1.0706634521484375,0.09954833984375
1788957706574991000,7.8979912109375,0.0530548095703125,-0.96832275390625,0.1060943603515625
1788957706585042200,7.908042236328125,0.0242767333984375,-0.88299560546875,0.09759521484375
1788957706595092200,7.91809228515625,-0.001983642578125,-0.8076171875,0.074493408203125
1788957706605142300,7.928142333984375,-0.0029296875,-0.7238922119140625,0.0770416259765625
1788957706615192300,7.9381923828125,0.04803466796875,-0.6477203369140625,0.0846710205078125
1788957706625243400,7.948243408203125,0.1255340576171875,-0.5834503173828125,0.085113525390625
1788957706635293200,7.958293212890625,0.1858673095703125,-0.5296630859375,0.0782318115234375
1788957706645343200,7.96834326171875,0.2024688720703125,-0.490966796875,0.0426025390625
1788957706655393300,7.978393310546875,0.1711883544921875,-0.4940032958984375,-0.0245361328125
1788957706665444400,7.9884443359375,0.1488800048828125,-0.613525390625,-0.0621795654296875
1788957706675494400,7.998494384765625,0.11126708984375,-0.7557220458984375,-0.089385986328125
1788957706685544200,8.008544189453126,0.1181640625,-0.8984222412109375,-0.1019134521484375
1788957706695594200,8.01859423828125,0.1614227294921875,-1.0048675537109375,-0.1197967529296875
1788957706705645300,8.028645263671875,0.1998748779296875,-1.089324951171875,-0.15899658203125
1788957706715695400,8.0386953125,0.1981353759765625,-1.2071380615234375,-0.166473388671875
1788957706725745400,8.048745361328125,0.1485137939453125,-1.293365478515625,-0.146759033203125
1788957706735795200,8.058795166015624,0.1293792724609375,-1.275054931640625,-0.1366424560546875
1788957706745846300,8.06884619140625,0.1651763916015625,-1.230438232421875,-0.1270904541015625
1788957706755896300,8.078896240234375,0.189971923828125,-1.1824798583984375,-0.0860595703125
1788957706765946400,8.0889462890625,0.248443603515625,-1.0940093994140625,-0.0390472412109375
1788957706775996400,8.098996337890625,0.2957916259765625,-1.014678955078125,0.000396728515625
1788957706786047200,8.109047119140625,0.298095703125,-0.9654693603515625,0.0543975830078125
1788957706796097300,8.11909716796875,0.2922515869140625,-0.9542388916015625,0.11474609375
1788957706806147300,8.129147216796875,0.247894287109375,-0.9758453369140625,0.1637115478515625
1788957706816197400,8.139197265625,0.2208709716796875,-1.01715087890625,0.1890106201171875
1788957706826248400,8.14924853515625,0.21405029296875,-1.0363616943359375,0.179931640625
1788957706836298200,8.15929833984375,0.1954498291015625,-1.0608978271484375,0.151458740234375
1788957706846348300,8.169348388671875,0.1797332763671875,-1.0991363525390625,0.1145477294921875
1788957706856398300,8.1793984375,0.1786346435546875,-1.128570556640625,0.0815887451171875
1788957706866448400,8.189448486328125,0.20159912109375,-1.11761474609375,0.04327392578125
1788957706876499500,8.19949951171875,0.24810791015625,-1.0720367431640625,-0.01226806640625
1788957706886549200,8.20954931640625,0.246917724609375,-1.0151519775390625,-0.0412750244140625
1788957706896599300,8.219599365234375,0.235015869140625,-0.9773712158203125,-0.0442047119140625
1788957706906649300,8.2296494140625,0.2170562744140625,-0.936126708984375,-0.0413665771484375
1788957706916700400,8.239700439453125,0.17938232421875,-0.9303436279296875,-0.014984130859375
1788957706926750500,8.24975048828125,0.1711883544921875,-0.92889404296875,-0.0093994140625
1788957706936800300,8.25980029296875,0.1613922119140625,-0.964813232421875,-0.000732421875
1788957706946850300,8.269850341796875,0.1342315673828125,-1.0023651123046875,0.0289154052734375
1788957706956901400,8.2799013671875,0.156524658203125,-1.0011444091796875,0.0359039306640625
1788957706966951400,8.289951416015626,0.203277587890625,-0.988677978515625,0.0211944580078125
1788957706977001500,8.30000146484375,0.2050628662109375,-0.990966796875,0.00286865234375
1788957706987051300,8.31005126953125,0.270416259765625,-0.9610748291015625,-0.000396728515625
1788957706997102300,8.320102294921876,0.3456573486328125,-0.89984130859375,-0.0014495849609375
1788957707007152400,8.33015234375,0.3207855224609375,-0.8468780517578125,0.0089111328125
1788957707017202400,8.340202392578124,0.2285919189453125,-0.8344268798828125,0.0431365966796875
1788957707027252500,8.35025244140625,0.1688079833984375,-0.855804443359375,0.05609130859375
1788957707037303600,8.360303466796875,0.160980224609375,-0.905303955078125,0.063140869140625
1788957707047353300,8.370353271484374,0.1646270751953125,-0.9486541748046875,0.07440185546875
1788957707057403400,8.3804033203125,0.2019500732421875,-0.9836883544921875,0.0751190185546875
1788957707067453400,8.390453369140625,0.2239532470703125,-1.007904052734375,0.0534515380859375
1788957707077504500,8.40050439453125,0.184967041015625,-1.0141754150390625,0.0240020751953125
1788957707087554300,8.41055419921875,0.14990234375,-0.9886322021484375,0.0104827880859375
1788957707097604400,8.420604248046875,0.18304443359375,-0.9303741455078125,0.000030517578125
1788957707107654400,8.430654296875,0.22711181640625,-0.848297119140625,-0.0222625732421875
1788957707117705500,8.44070556640625,0.2484130859375,-0.7666015625,-0.0260772705078125
1788957707127755500,8.450755615234375,0.2179718017578125,-0.7082366943359375,-0.015838623046875
1788957707137805300,8.460805419921876,0.213592529296875,-0.67901611328125,-0.0104827880859375
1788957707147855400,8.47085546875,0.239044189453125,-0.719970703125,0.0024261474609375
1788957707157906200,8.48090625,0.2340850830078125,-0.79864501953125,0.0178985595703125
1788957707167956500,8.49095654296875,0.23876953125,-0.893280029296875,0.0160369873046875
1788957707178006500,8.501006591796875,0.26129150390625,-1.032928466796875,0.0121917724609375
1788957707188056300,8.511056396484374,0.2812042236328125,-1.156646728515625,0.0135650634765625
1788957707198107100,8.521107177734375,0.281585693359375,-1.248138427734375,0.01361083984375
1788957707208157200,8.5311572265625,0.288787841796875,-1.3028717041015625,0.018035888671875
1788957707218207200,8.541207275390626,0.29437255859375,-1.31842041015625,0.024169921875
1788957707228257500,8.551257568359375,0.2594146728515625,-1.3411407470703125,0.0309295654296875
1788957707238308400,8.561308349609375,0.2179718017578125,-1.330413818359375,0.027618408203125
1788957707248358100,8.571358154296876,0.2103118896484375,-1.2591400146484375,-0.0041656494140625
1788957707258408200,8.581408203125,0.20233154296875,-1.1820526123046875,0.0131988525390625
1788957707268458200,8.591458251953124,0.203155517578125,-1.1352996826171875,0.08673095703125
1788957707278509300,8.60150927734375,0.2114105224609375,-1.0576934814453125,0.1332855224609375
1788957707288559400,8.611559326171875,0.2126007080078125,-0.9674072265625,0.1584930419921875
1788957707298609200,8.621609130859374,0.165985107421875,-0.86572265625,0.16278076171875
1788957707308659200,8.6316591796875,0.1459197998046875,-0.784637451171875,0.15570068359375
1788957707318710300,8.641710205078125,0.1584320068359375,-0.7226409912109375,0.1443023681640625
1788957707328760300,8.65176025390625,0.1788482666015625,-0.6765594482421875,0.116790771484375
1788957707338810400,8.661810302734375,0.21624755859375,-0.651519775390625,0.0790252685546875
1788957707348860200,8.671860107421875,0.255950927734375,-0.6639251708984375,0.0429840087890625
1788957707358911200,8.6819111328125,0.274444580078125,-0.71478271484375,0.005279541015625
1788957707368961300,8.691961181640625,0.2446746826171875,-0.7798309326171875,-0.0274200439453125
1788957707379011300,8.70201123046875,0.224822998046875,-0.8486175537109375,-0.0394744873046875
1788957707389061400,8.712061279296876,0.2714996337890625,-0.92327880859375,-0.038360595703125
1788957707399112200,8.7221123046875,0.298248291015625,-1.006744384765625,-0.014068603515625
1788957707409162200,8.732162353515625,0.267242431640625,-1.062103271484375,0.0277252197265625
1788957707419212300,8.74221240234375,0.285064697265625,-1.0899658203125,0.091949462890625
1788957707429262300,8.752262451171875,0.2491912841796875,-1.0330963134765625,0.0901641845703125
1788957707439313400,8.7623134765625,0.2442626953125,-1.11224365234375,0.084930419921875
1788957707449363200,8.77236328125,0.268890380859375,-1.2079010009765625,0.0830078125
1788957707459413200,8.782413330078125,0.2609405517578125,-1.2142486572265625,0.0605926513671875
1788957707469463300,8.79246337890625,0.2806243896484375,-1.190460205078125,0.045013427734375
1788957707479514400,8.802514404296875,0.27069091796875,-1.1964874267578125,0.0491943359375
1788957707489564400,8.812564453125,0.19873046875,-1.2034454345703125,0.0724945068359375
1788957707499614200,8.8226142578125,0.21795654296875,-1.1844024658203125,0.082763671875
1788957707509664300,8.832664306640625,0.2653961181640625,-1.165283203125,0.0718841552734375
1788957707519715600,8.842715576171875,0.27386474609375,-1.148193359375,0.073394775390625
1788957707529765600,8.852765625,0.3008880615234375,-1.1328582763671875,0.0646209716796875
1788957707539815700,8.862815673828125,0.2481689453125,-1.1246795654296875,0.067718505859375
1788957707549865500,8.872865478515624,0.1595458984375,-1.1163482666015625,0.089569091796875
1788957707559916500,8.88291650390625,0.1821136474609375,-1.0969696044921875,0.0732421875
1788957707569966600,8.892966552734375,0.2256317138671875,-1.1370697021484375,0.0512847900390625
1788957707580016600,8.9030166015625,0.2183837890625,-1.1199188232421875,0.0628509521484375
1788957707590066700,8.913066650390626,0.252349853515625,-1.0746917724609375,0.0458221435546875
1788957707600116500,8.923116455078125,0.1947021484375,-1.0372772216796875,0.0321502685546875
1788957707610167600,8.93316748046875,0.1238250732421875,-0.982513427734375,0.0477752685546875
1788957707620217600,8.943217529296875,0.113250732421875,-0.8980712890625,0.0595703125
1788957707630267600,8.953267578125,0.1138153076171875,-0.7980194091796875,0.039886474609375
1788957707640317700,8.963317626953126,0.1263885498046875,-0.7208099365234375,0.0478057861328125
1788957707650368800,8.97336865234375,0.12908935546875,-0.685150146484375,0.0839080810546875
1788957707660418600,8.98341845703125,0.1195526123046875,-0.6180572509765625,0.063079833984375
1788957707670468600,8.993468505859376,0.1350860595703125,-0.58270263671875,0.0377197265625
1788957707680518700,9.0035185546875,0.1334075927734375,-0.581939697265625,0.017242431640625
1788957707690569700,9.01356982421875,0.1446685791015625,-0.60479736328125,-0.00030517578125
1788957707700619800,9.023619873046876,0.1431121826171875,-0.694976806640625,-0.006134033203125
1788957707710669600,9.033669677734375,0.1090545654296875,-0.823211669921875,-0.002777099609375
1788957707720719600,9.0437197265625,0.1119232177734375,-0.917694091796875,-0.00738525390625
1788957707730770700,9.053770751953126,0.153961181640625,-1.000732421875,-0.0151824951171875
1788957707740820700,9.06382080078125,0.176361083984375,-1.08392333984375,-0.0196533203125
1788957707750870500,9.07387060546875,0.180419921875,-1.1363067626953125,-0.01605224609375
1788957707760920600,9.083920654296875,0.194549560546875,-1.1765289306640625,-0.0147552490234375
1788957707770971600,9.0939716796875,0.20135498046875,-1.19818115234375,-0.0198974609375
1788957707781021700,9.104021728515624,0.2310638427734375,-1.2283782958984375,0.000946044921875
1788957707791071700,9.11407177734375,0.2215423583984375,-1.182525634765625,0.0083465576171875
1788957707801121500,9.12412158203125,0.2578582763671875,-1.12255859375,0.0040130615234375
1788957707811172600,9.134172607421876,0.318115234375,-1.131103515625,0.0108795166015625
1788957707821222700,9.14422265625,0.3043212890625,-1.169708251953125,0.04595947265625
1788957707831272700,9.154272705078125,0.2809906005859375,-1.184478759765625,0.0918121337890625
1788957707841322800,9.16432275390625,0.306427001953125,-1.1396484375,0.073883056640625
1788957707851373600,9.17437353515625,0.31695556640625,-1.1703948974609375,0.06341552734375
1788957707861423600,9.184423583984374,0.2483978271484375,-1.1598358154296875,0.0674591064453125
1788957707871473700,9.1944736328125,0.1915283203125,-1.086456298828125,0.064849853515625
1788957707881523700,9.204523681640625,0.1785125732421875,-0.9961090087890625,0.0590667724609375
1788957707891574500,9.214574462890624,0.2078094482421875,-0.9136199951171875,0.0532684326171875
1788957707901624600,9.22462451171875,0.2655487060546875,-0.8353424072265625,0.0538330078125
1788957707911674600,9.234674560546875,0.28863525390625,-0.7517852783203125,0.039276123046875
1788957707921724700,9.244724609375,0.2772216796875,-0.69024658203125,0.00640869140625
1788957707931775500,9.254775390625,0.2530059814453125,-0.6824951171875,-0.016998291015625
1788957707941825500,9.264825439453125,0.250213623046875,-0.7454681396484375,-0.039886474609375
1788957707951875600,9.27487548828125,0.221405029296875,-0.89013671875,-0.03326416015625
1788957707961925600,9.284925537109375,0.161956787109375,-0.98541259765625,-0.0347900390625
1788957707971976400,9.2949765625,0.205963134765625,-1.050689697265625,-0.0715484619140625
1788957707982026500,9.305026611328126,0.2463836669921875,-1.173828125,-0.08477783203125
1788957707992076500,9.31507666015625,0.222076416015625,-1.28582763671875,-0.0445404052734375
1788957708002126600,9.325126708984374,0.1280517578125,-1.264007568359375,-0.019866943359375
1788957708012176600,9.3351767578125,0.037017822265625,-1.167694091796875,0.0077056884765625
1788957708022227500,9.3452275390625,0.0706634521484375,-1.0806121826171875,0.0481719970703125
1788957708032277500,9.355277587890624,0.1824493408203125,-0.9697723388671875,0.0660400390625
1788957708042327600,9.36532763671875,0.2494049072265625,-0.834503173828125,0.0904541015625
1788957708052377600,9.375377685546875,0.28558349609375,-0.6869354248046875,0.1001129150390625
1788957708062428400,9.385428466796874,0.32208251953125,-0.5530548095703125,0.08184814453125
1788957708072478500,9.395478515625,0.364105224609375,-0.5042877197265625,0.0592803955078125
1788957708082528500,9.405528564453125,0.287841796875,-0.5737762451171875,0.0627288818359375
1788957708092578600,9.41557861328125,0.14251708984375,-0.7249755859375,0.09344482421875
1788957708102629600,9.425629638671875,0.14703369140625,-0.827880859375,0.0804901123046875
1788957708112679400,9.435679443359374,0.2073822021484375,-0.9022064208984375,0.0405731201171875
1788957708122729500,9.4457294921875,0.258453369140625,-1.0554656982421875,0.03369140625
1788957708132779500,9.455779541015625,0.304168701171875,-1.062164306640625,-0.0663604736328125
1788957708142830600,9.46583056640625,0.3236083984375,-1.1782073974609375,-0.0847625732421875
1788957708152880600,9.475880615234376,0.3563232421875,-1.2270050048828125,-0.122039794921875
1788957708162930400,9.485930419921875,0.3648681640625,-1.206573486328125,-0.1240386962890625
1788957708172980500,9.49598046875,0.39495849609375,-1.1774139404296875,-0.113800048828125
1788957708183031600,9.506031494140625,0.4450531005859375,-1.15228271484375,-0.084991455078125
1788957708193081600,9.51608154296875,0.437530517578125,-1.1432037353515625,-0.037750244140625
1788957708203131600,9.526131591796876,0.379425048828125,-1.143157958984375,0.0319061279296875
1788957708213181400,9.536181396484375,0.3170928955078125,-1.1149749755859375,0.1134796142578125
1788957708223232500,9.546232421875,0.2818145751953125,-1.134124755859375,0.2028656005859375
1788957708233282600,9.556282470703126,0.2575836181640625,-1.1084747314453125,0.2644805908203125
1788957708243332600,9.56633251953125,0.2506561279296875,-1.0094146728515625,0.2315216064453125
1788957708253382700,9.576382568359374,0.2481536865234375,-0.9493408203125,0.1897125244140625
1788957708263433700,9.586433837890626,0.2135162353515625,-0.9241180419921875,0.1547088623046875
1788957708273483500,9.5964833984375,0.1678924560546875,-0.894500732421875,0.1209564208984375
1788957708283533600,9.606533447265624,0.1575775146484375,-0.84417724609375,0.0868988037109375
1788957708293583600,9.61658349609375,0.206451416015625,-0.7967529296875,0.0666961669921875
1788957708303634700,9.626634765625,0.248626708984375,-0.7619476318359375,0.042633056640625
1788957708313684700,9.636684814453124,0.26629638671875,-0.7284088134765625,0.00152587890625
1788957708323734500,9.646734619140625,0.2756195068359375,-0.7011566162109375,-0.01776123046875
1788957708333784600,9.65678466796875,0.2565460205078125,-0.7248077392578125,-0.026031494140625
1788957708343835600,9.666835693359374,0.2464752197265625,-0.78131103515625,-0.0251312255859375
1788957708353885700,9.6768857421875,0.272430419921875,-0.8473663330078125,-0.0177764892578125
1788957708363935500,9.686935546875,0.309326171875,-0.89813232421875,-0.0247955322265625
1788957708373985500,9.696985595703126,0.33880615234375,-0.91754150390625,-0.06048583984375
1788957708384035600,9.70703564453125,0.3709259033203125,-0.9648284912109375,-0.0892333984375
1788957708394086700,9.717086669921875,0.3795623779296875,-1.0200653076171875,-0.09954833984375
1788957708404136700,9.72713671875,0.36065673828125,-1.0235595703125,-0.0978240966796875
1788957708414186500,9.7371865234375,0.321258544921875,-1.0195770263671875,-0.0786895751953125
1788957708424236500,9.747236572265624,0.32061767578125,-1.081878662109375,-0.0384063720703125
1788957708434287600,9.75728759765625,0.3323211669921875,-1.1414794921875,0.0206146240234375
1788957708444337700,9.767337646484375,0.3272705078125,-1.1988372802734375,0.0689849853515625
1788957708454387700,9.7773876953125,0.294189453125,-1.229644775390625,0.1036224365234375
1788957708464437500,9.7874375,0.2505645751953125,-1.2323455810546875,0.148590087890625
1788957708474488600,9.797488525390625,0.2754058837890625,-1.1612548828125,0.13140869140625
1788957708484538600,9.80753857421875,0.3049468994140625,-1.0731048583984375,0.11944580078125
1788957708494588700,9.817588623046875,0.308197021484375,-1.0115509033203125,0.139678955078125
1788957708504638700,9.827638671875,0.359771728515625,-0.95465087890625,0.11798095703125
1788957708514689500,9.837689453125,0.3545074462890625,-0.9400482177734375,0.0903167724609375
1788957708524739300,9.8477392578125,0.2478485107421875,-0.950225830078125,0.087249755859375
1788957708534789400,9.857789306640624,0.2032928466796875,-0.9244537353515625,0.089385986328125
1788957708544839400,9.86783935546875,0.26690673828125,-0.8724822998046875,0.0814056396484375
1788957708554890500,9.877890380859375,0.365936279296875,-0.83734130859375,0.0447540283203125
1788957708564940500,9.8879404296875,0.4142303466796875,-0.829803466796875,0.0261688232421875
1788957708574990300,9.897990234375,0.43841552734375,-0.8127899169921875,0.00848388671875
1788957708585040400,9.908040283203125,0.39697265625,-0.85015869140625,0.00885009765625
1788957708595091500,9.918091552734374,0.33538818359375,-0.899932861328125,-0.074554443359375
1788957708605141500,9.9281416015625,0.2912445068359375,-0.9622802734375,-0.089385986328125
1788957708615191300,9.93819140625,0.314697265625,-0.995513916015625,-0.0487213134765625
1788957708625241300,9.948241455078126,0.3683624267578125,-1.01580810546875,-0.04437255859375
1788957708635292400,9.95829248046875,0.3907012939453125,-1.018280029296875,-0.016754150390625
1788957708645342500,9.968342529296875,0.3917999267578125,-1.0278167724609375,-0.0038604736328125
1788957708655392500,9.978392578125,0.333526611328125,-1.0317840576171875,0.00006103515625
1788957708665442300,9.9884423828125,0.2353363037109375,-1.028778076171875,0.0402984619140625
1788957708675493000,9.9984931640625,0.2458648681640625,-0.9723358154296875,0.0732574462890625
1788957708685543400,10.00854345703125,0.38446044921875,-0.879302978515625,0.0660858154296875
1788957708695593500,10.018593505859375,0.4989471435546875,-0.866455078125,0.050445556640625
1788957708705643500,10.0286435546875,0.594512939453125,-0.8934326171875,0.0795440673828125
1788957708715693300,10.038693359375,0.458770751953125,-0.8609771728515625,0.0134429931640625
1788957708725744000,10.048744140625,0.5144195556640625,-0.9801788330078125,-0.03997802734375
1788957708735794400,10.05879443359375,0.5152587890625,-1.1157989501953125,-0.0399017333984375
1788957708745844500,10.068844482421875,0.45391845703125,-1.2119140625,-0.0413970947265625
1788957708755894500,10.07889453125,0.4305419921875,-1.2952117919921875,-0.0587005615234375
1788957708765945300,10.0889453125,0.422882080078125,-1.3157196044921875,-0.02886962890625
1788957708775995100,10.0989951171875,0.336151123046875,-1.273406982421875,0.0137176513671875
1788957708786045400,10.10904541015625,0.2944488525390625,-1.197357177734375,0.0701446533203125
1788957708796095500,10.119095458984376,0.31024169921875,-1.05572509765625,0.1047821044921875
1788957708806146300,10.129146240234375,0.333099365234375,-0.9766387939453125,0.1212615966796875
1788957708816196400,10.1391962890625,0.3276824951171875,-0.9033203125,0.1031951904296875
1788957708826246100,10.14924609375,0.27044677734375,-0.8418731689453125,0.0890655517578125
1788957708836296200,10.159296142578125,0.229248046875,-0.8327178955078125,0.0758819580078125
1788957708846347300,10.16934716796875,0.272247314453125,-0.803802490234375,0.0453948974609375
1788957708856397300,10.179397216796875,0.261322021484375,-0.79522705078125,0.0258331298828125
1788957708866447400,10.189447265625,0.2407073974609375,-0.800262451171875,0.0308380126953125
1788957708876497200,10.1994970703125,0.2429046630859375,-0.799896240234375,0.0359344482421875
1788957708886548200,10.20954833984375,0.251495361328125,-0.7793731689453125,0.028289794921875
1788957708896598300,10.219598388671875,0.238983154296875,-0.7856597900390625,0.038970947265625
1788957708906648300,10.2296484375,0.302093505859375,-0.7983551025390625,0.0221099853515625
1788957708916698000,10.239697998046875,0.3213348388671875,-0.82763671875,-0.0114898681640625
1788957708926749200,10.249749267578125,0.3062744140625,-0.902069091796875,-0.00946044921875
1788957708936799200,10.25979931640625,0.2822418212890625,-0.9540557861328125,-0.0065765380859375
1788957708946849300,10.269849365234375,0.29205322265625,-0.9752349853515625,-0.0382232666015625
1788957708956899300,10.2798994140625,0.330841064453125,-1.003173828125,-0.0520782470703125
1788957708966950400,10.289950439453126,0.3405609130859375,-1.09124755859375,-0.0303192138671875
1788957708977000200,10.300000244140625,0.3316802978515625,-1.151580810546875,-0.010498046875
1788957708987050200,10.31005029296875,0.304656982421875,-1.19110107421875,0.0157012939453125
1788957708997100300,10.320100341796875,0.2274322509765625,-1.199981689453125,0.066986083984375
1788957709007150300,10.330150390625,0.155364990234375,-1.1038055419921875,0.13134765625
1788957709017201400,10.340201416015624,0.1047210693359375,-0.9830322265625,0.2042999267578125
1788957709027251200,10.350251220703125,0.0588226318359375,-0.8678131103515625,0.209808349609375
1788957709037301200,10.36030126953125,0.078033447265625,-0.749786376953125,0.181915283203125
1788957709047351300,10.370351318359376,0.1264190673828125,-0.6608123779296875,0.16455078125
1788957709057402400,10.38040234375,0.224212646484375,-0.60296630859375,0.115020751953125
1788957709067452400,10.390452392578124,0.3719635009765625,-0.4421539306640625,-0.0066986083984375
1788957709077502200,10.400502197265626,0.512725830078125,-0.42718505859375,-0.1147308349609375
1788957709087552300,10.41055224609375,0.5055694580078125,-0.6083526611328125,-0.1531982421875
1788957709097603300,10.420603271484374,0.39453125,-0.861785888671875,-0.128875732421875
1788957709107653400,10.4306533203125,0.390869140625,-1.0289306640625,-0.122802734375
1788957709117703400,10.440703369140625,0.3868560791015625,-1.109954833984375,-0.1239013671875
1788957709127753200,10.450753173828126,0.3531341552734375,-1.1952362060546875,-0.11627197265625
1788957709137804300,10.46080419921875,0.35833740234375,-1.2777252197265625,-0.160552978515625
1788957709147854300,10.470854248046875,0.35333251953125,-1.3391571044921875,-0.21295166015625
1788957709157904400,10.480904296875,0.3367156982421875,-1.332427978515625,-0.20562744140625
1788957709167954400,10.490954345703125,0.3353118896484375,-1.24267578125,-0.167022705078125
1788957709178005200,10.501005126953125,0.383453369140625,-1.139404296875,-0.1065826416015625
1788957709188055300,10.51105517578125,0.4267578125,-1.0640869140625,-0.041168212890625
1788957709198105300,10.521105224609375,0.44195556640625,-1.008087158203125,0.019561767578125
1788957709208155400,10.5311552734375,0.4882049560546875,-0.972747802734375,0.0242462158203125
1788957709218205400,10.541205322265625,0.479339599609375,-0.9977569580078125,0.0175323486328125
1788957709228256300,10.55125634765625,0.4134368896484375,-1.0526885986328125,0.0224151611328125
1788957709238306300,10.561306396484374,0.3673858642578125,-1.06451416015625,0.02703857421875
1788957709248356400,10.5713564453125,0.3618621826171875,-1.038482666015625,0.01629638671875
1788957709258406400,10.581406494140625,0.3361358642578125,-1.014892578125,0.016876220703125
1788957709268457500,10.59145751953125,0.337127685546875,-0.9726409912109375,0.015777587890625
1788957709278507300,10.60150732421875,0.37744140625,-0.920257568359375,-0.0242156982421875
1788957709288557300,10.611557373046875,0.3912200927734375,-0.9140472412109375,-0.064208984375
1788957709298607400,10.621607421875,0.356109619140625,-0.9339599609375,-0.0739593505859375
1788957709308658400,10.631658447265625,0.3265533447265625,-0.9258270263671875,-0.075714111328125
1788957709318708500,10.64170849609375,0.3387298583984375,-0.912353515625,-0.0836334228515625
1788957709328758300,10.65175830078125,0.3295745849609375,-0.9160003662109375,-0.073211669921875
1788957709338808300,10.661808349609375,0.3250274658203125,-0.9056854248046875,-0.054534912109375
1788957709348859400,10.671859375,0.3554840087890625,-0.8668060302734375,-0.059783935546875
1788957709358909400,10.681909423828126,0.3618011474609375,-0.853057861328125,-0.05609130859375
1788957709368959500,10.69195947265625,0.3414306640625,-0.8730010986328125,-0.0181427001953125
1788957709379009300,10.70200927734375,0.3698272705078125,-0.8571624755859375,-0.020782470703125
1788957709389060400,10.712060302734375,0.380126953125,-0.8773651123046875,-0.0279998779296875
1788957709399110400,10.7221103515625,0.2776336669921875,-0.98193359375,-0.021636962890625
1788957709409160400,10.732160400390624,0.214813232421875,-1.018646240234375,-0.0410003662109375
1788957709419210500,10.74221044921875,0.211181640625,-1.0162200927734375,-0.07537841796875
1788957709429261600,10.752261474609375,0.1877899169921875,-1.0110015869140625,-0.06195068359375
1788957709439311400,10.762311279296876,0.19940185546875,-1.00244140625,-0.0478973388671875
1788957709449361400,10.772361328125,0.248504638671875,-0.9889984130859375,-0.027496337890625
1788957709459411500,10.782411376953124,0.3016204833984375,-0.95849609375,0.008331298828125
1788957709469461500,10.79246142578125,0.2943878173828125,-0.9583740234375,0.0256500244140625
1788957709479512300,10.80251220703125,0.2919769287109375,-1.0307769775390625,0.0489349365234375
1788957709489562400,10.812562255859374,0.25390625,-1.0664520263671875,0.0855560302734375
1788957709499612400,10.8226123046875,0.2332305908203125,-1.065521240234375,0.077606201171875
1788957709509662500,10.832662353515625,0.25,-1.0767059326171875,0.0514373779296875
1788957709519713300,10.84271337890625,0.246337890625,-1.0797271728515625,0.0791168212890625
1788957709529763300,10.852763427734375,0.2381439208984375,-1.073699951171875,0.0923614501953125
1788957709539813400,10.8628134765625,0.2417755126953125,-1.0453948974609375,0.079132080078125
1788957709549863200,10.87286328125,0.259063720703125,-1.0043487548828125,0.025665283203125
1788957709559914200,10.882914306640625,0.306854248046875,-0.976409912109375,-0.0283050537109375
1788957709569964300,10.89296435546875,0.3356475830078125,-0.9570770263671875,-0.0327301025390625
1788957709580014300,10.903014404296876,0.3941192626953125,-0.9949951171875,-0.003692626953125
1788957709590064400,10.913064453125,0.370513916015625,-0.9840087890625,-0.0342559814453125
1788957709600115200,10.923115234375,0.4443817138671875,-1.0091094970703125,-0.0570526123046875
1788957709610165000,10.9331650390625,0.515533447265625,-1.062225341796875,-0.084014892578125
1788957709620215300,10.94321533203125,0.4497222900390625,-1.1202239990234375,-0.1015625
1788957709630265300,10.953265380859374,0.4308013916015625,-1.162353515625,-0.1097564697265625
1788957709640316200,10.963316162109376,0.4225616455078125,-1.215057373046875,-0.0227203369140625
1788957709650366200,10.9733662109375,0.4016876220703125,-1.2154541015625,0.0441741943359375
1788957709660416000,10.983416015625,0.384246826171875,-1.164520263671875,0.0220947265625
1788957709670466300,10.99346630859375,0.411590576171875,-1.1195526123046875,-0.0066070556640625
1788957709680516400,11.003516357421875,0.407562255859375,-1.065643310546875,-0.049713134765625
1788957709690567200,11.013567138671876,0.4236602783203125,-1.0286102294921875,-0.065338134765625
1788957709700617200,11.0236171875,0.3111724853515625,-0.94720458984375,-0.0506134033203125
1788957709710667000,11.0336669921875,0.263946533203125,-0.899169921875,0.03033447265625
1788957709720717300,11.04371728515625,0.3185577392578125,-0.8048248291015625,0.0585784912109375
1788957709730768100,11.05376806640625,0.3618927001953125,-0.741943359375,0.0770111083984375
1788957709740818200,11.063818115234374,0.366943359375,-0.717620849609375,0.064422607421875
1788957709750868200,11.0738681640625,0.39434814453125,-0.723236083984375,0.0374755859375
1788957709760918000,11.08391796875,0.3772430419921875,-0.7721710205078125,0.0168304443359375
1788957709770969000,11.093968994140624,0.310699462890625,-0.819549560546875,-0.025634765625
1788957709781019100,11.10401904296875,0.2747344970703125,-0.907257080078125,-0.072784423828125
1788957709791069200,11.114069091796875,0.1858062744140625,-1.008880615234375,-0.12249755859375
1788957709801119200,11.124119140625,0.208526611328125,-1.0630035400390625,-0.0768890380859375
1788957709811170000,11.134170166015625,0.085540771484375,-1.098663330078125,-0.1013946533203125
1788957709821220000,11.14422021484375,-0.0989532470703125,-1.1768341064453125,-0.1645660400390625
1788957709831270100,11.154270263671876,-0.1356353759765625,-1.2891082763671875,-0.1644134521484375
1788957709841320200,11.1643203125,-0.162384033203125,-1.3313751220703125,-0.2718505859375
1788957709851371300,11.174371337890625,-0.095611572265625,-1.3537445068359375,-0.32806396484375
1788957709861421000,11.184421142578126,-0.0361175537109375,-1.3822784423828125,-0.308929443359375
1788957709871471000,11.19447119140625,-0.0157623291015625,-1.446807861328125,-0.3658447265625
1788957709881521200,11.204521240234374,-0.098724365234375,-1.5679473876953125,-0.427154541015625
1788957709891571200,11.2145712890625,-0.2024078369140625,-1.642974853515625,-0.425628662109375
1788957709901622300,11.224622314453125,-0.07464599609375,-1.52593994140625,-0.4625396728515625
1788957709911672000,11.234672119140624,0.00958251953125,-1.53790283203125,-0.467437744140625
1788957709921722000,11.24472216796875,-0.1750335693359375,-1.475341796875,-0.5338897705078125
1788957709931772200,11.254772216796875,0.014190673828125,-1.31634521484375,-0.61907958984375
1788957709941823200,11.2648232421875,0.1665802001953125,-1.1239776611328125,-0.6039886474609375
1788957709951873300,11.274873291015625,0.146087646484375,-1.0595855712890625,-0.53814697265625
1788957709961923000,11.284923095703125,0.11669921875,-0.991302490234375,-0.4306182861328125
1788957709971973000,11.29497314453125,0.1195068359375,-0.9439697265625,-0.4725341796875
1788957709982024200,11.305024169921875,0.31292724609375,-0.8597412109375,-0.4542083740234375
1788957709992074200,11.31507421875,0.2042083740234375,-0.799774169921875,-0.3505401611328125
1788957710002124300,11.325124267578126,0.111907958984375,-0.6607818603515625,-0.3336944580078125
1788957710012174000,11.335174072265625,0.179229736328125,-0.63372802734375,-0.413330078125
1788957710022225200,11.34522509765625,0.0711669921875,-0.6867523193359375,-0.25933837890625
1788957710032275200,11.355275146484376,-0.1338348388671875,-0.645965576171875,-0.3329315185546875
1788957710042325200,11.3653251953125,-0.1560211181640625,-0.713165283203125,-0.4341278076171875
1788957710052375300,11.375375244140624,-0.152435302734375,-0.7476654052734375,-0.475433349609375
1788957710062426000,11.385426025390625,-0.1795806884765625,-0.7183990478515625,-0.4901123046875
1788957710072476200,11.39547607421875,-0.20697021484375,-0.6571197509765625,-0.41998291015625
1788957710082526200,11.405526123046876,-0.2627105712890625,-0.54595947265625,-0.31610107421875
1788957710092576300,11.415576171875,-0.4799346923828125,-0.365478515625,-0.2697906494140625
1788957710102626300,11.425626220703125,-0.544891357421875,-0.2386016845703125,-0.200836181640625
1788957710112677000,11.435677001953126,-0.4752044677734375,-0.1799468994140625,-0.0988616943359375
1788957710122727200,11.44572705078125,-0.5135498046875,-0.1581268310546875,0.009490966796875
1788957710132777200,11.455777099609374,-0.5453643798828125,-0.1330108642578125,0.135009765625
1788957710142827300,11.4658271484375,-0.58489990234375,-0.1085662841796875,0.2339935302734375
1788957710152878300,11.47587841796875,-0.6584320068359375,-0.10498046875,0.2512054443359375
1788957710162928000,11.48592822265625,-0.646759033203125,-0.1571502685546875,0.189483642578125
1788957710172978200,11.495978271484375,-0.5222320556640625,-0.2031402587890625,0.1530609130859375
1788957710183028200,11.5060283203125,-0.5732269287109375,-0.2695159912109375,0.1401214599609375
1788957710193079300,11.516079345703124,-0.701171875,-0.3702239990234375,0.1236724853515625
1788957710203129300,11.52612939453125,-0.74591064453125,-0.4775238037109375,0.1298980712890625
1788957710213179100,11.53617919921875,-0.749481201171875,-0.5739288330078125,0.1105194091796875
1788957710223229200,11.546229248046876,-0.6706695556640625,-0.6651458740234375,0.0929107666015625
1788957710233280300,11.5562802734375,-0.559906005859375,-0.7116851806640625,0.0557708740234375
1788957710243330300,11.566330322265625,-0.461578369140625,-0.7056121826171875,0.04144287109375
1788957710253380400,11.57638037109375,-0.4939117431640625,-0.688201904296875,0.075408935546875
1788957710263430100,11.58643017578125,-0.641876220703125,-0.6575927734375,0.13916015625
1788957710273481200,11.596481201171875,-0.97039794921875,-0.5326385498046875,0.0886383056640625
1788957710283531300,11.60653125,-1.16265869140625,-0.332366943359375,0.1349639892578125
1788957710293581300,11.616581298828125,-1.1047210693359375,-0.2325286865234375,0.2140960693359375
1788957710303631400,11.62663134765625,-1.1811065673828125,-0.2331085205078125,0.2106475830078125
1788957710313681200,11.63668115234375,-1.2560577392578125,-0.244049072265625,0.1832733154296875
1788957710323732200,11.646732177734375,-1.2924957275390625,-0.1934967041015625,0.1456298828125
1788957710333782300,11.6567822265625,-1.1946563720703125,-0.12103271484375,0.1519317626953125
1788957710343832300,11.666832275390625,-1.1263275146484375,-0.0538177490234375,0.1793365478515625
1788957710353882400,11.67688232421875,-1.131256103515625,-0.0111236572265625,0.204376220703125
1788957710363933400,11.686933349609374,-1.18939208984375,-0.0596771240234375,0.2777099609375
1788957710373983200,11.696983154296875,-1.174285888671875,-0.190948486328125,0.339630126953125
1788957710384033300,11.707033203125,-1.033203125,-0.3224029541015625,0.3888702392578125
1788957710394083300,11.717083251953126,-0.868316650390625,-0.4251556396484375,0.4210662841796875
1788957710404134400,11.727134521484375,-0.7454833984375,-0.5093841552734375,0.419525146484375
1788957710414184200,11.73718408203125,-0.6726837158203125,-0.5393524169921875,0.3535614013671875
1788957710424234200,11.747234130859376,-0.67401123046875,-0.4841461181640625,0.2737579345703125
1788957710434284300,11.7572841796875,-0.759765625,-0.3781280517578125,0.226531982421875
1788957710444335000,11.767335205078124,-1.01727294921875,-0.24017333984375,0.224029541015625
1788957710454385400,11.777385498046876,-1.4032135009765625,-0.14111328125,0.2527313232421875
1788957710464435200,11.787435302734375,-1.627777099609375,-0.1005859375,0.286285400390625
1788957710474485200,11.7974853515625,-1.5819854736328125,-0.120025634765625,0.2831878662109375
1788957710484536000,11.8075361328125,-1.4354400634765625,-0.229827880859375,0.21435546875
1788957710494586000,11.817586181640625,-1.1714935302734375,-0.279693603515625,0.242156982421875
1788957710504636200,11.82763623046875,-0.830413818359375,-0.260833740234375,0.3225250244140625
1788957710514686500,11.8376865234375,-0.610504150390625,-0.292816162109375,0.3385009765625
1788957710524737300,11.8477373046875,-0.9228668212890625,-0.3726959228515625,0.2574462890625
1788957710534787300,11.857787353515626,-1.6224517822265625,-0.43218994140625,0.13330078125
1788957710544837400,11.86783740234375,-1.5372161865234375,-0.3814239501953125,0.030303955078125
1788957710554887400,11.877887451171874,-1.010528564453125,-0.3414764404296875,0.0089263916015625
1788957710564937500,11.8879375,-0.930145263671875,-0.3174591064453125,0.04058837890625
1788957710574988300,11.89798828125,-0.936370849609375,-0.2978515625,0.076263427734375
1788957710585038300,11.908038330078124,-0.8792572021484375,-0.292694091796875,0.11224365234375
1788957710595088400,11.91808837890625,-0.871337890625,-0.2900390625,0.124725341796875
1788957710605138400,11.928138427734375,-0.9181976318359375,-0.2942352294921875,0.09918212890625
1788957710615189500,11.938189453125,-0.9705657958984375,-0.288330078125,0.0434417724609375
1788957710625239300,11.9482392578125,-1.0289764404296875,-0.2628936767578125,-0.0210113525390625
1788957710635289300,11.958289306640625,-1.052154541015625,-0.2547149658203125,-0.06396484375
1788957710645339400,11.96833935546875,-1.0266265869140625,-0.2366180419921875,-0.09320068359375
1788957710655390500,11.978390380859375,-1.0164337158203125,-0.2154388427734375,-0.095703125
1788957710665440500,11.9884404296875,-1.0295257568359375,-0.2197418212890625,-0.081390380859375
1788957710675490300,11.998490234375,-1.0491180419921875,-0.2233428955078125,-0.074432373046875
1788957710685540400,12.008540283203125,-1.0841827392578125,-0.2131500244140625,-0.082000732421875
1788957710695591400,12.01859130859375,-1.135833740234375,-0.1994171142578125,-0.09033203125
1788957710705641500,12.028641357421876,-1.1719818115234375,-0.1904449462890625,-0.0895233154296875
1788957710715691500,12.03869140625,-1.17388916015625,-0.181243896484375,-0.081817626953125
1788957710725741300,12.0487412109375,-1.1631622314453125,-0.1627349853515625,-0.0724334716796875
1788957710735792400,12.05879248046875,-1.12255859375,-0.1486053466796875,-0.05926513671875
1788957710745842400,12.068842529296875,-1.06256103515625,-0.1446685791015625,-0.04949951171875
1788957710755892500,12.078892578125,-1.06573486328125,-0.15374755859375,-0.0435943603515625
1788957710765942500,12.088942626953125,-1.0935821533203125,-0.1796875,-0.0394287109375
1788957710775993300,12.098993408203125,-1.0779571533203125,-0.189239501953125,-0.0212860107421875
1788957710786043400,12.10904345703125,-1.0848236083984375,-0.161041259765625,-0.0136566162109375
1788957710796093400,12.119093505859375,-1.0866241455078125,-0.13043212890625,-0.0118865966796875
1788957710806143500,12.1291435546875,-1.0694122314453125,-0.1177215576171875,-0.0163116455078125
1788957710816194600,12.139194580078126,-1.056610107421875,-0.11993408203125,-0.0090789794921875
1788957710826244400,12.149244384765625,-1.045928955078125,-0.134033203125,0.0075225830078125
1788957710836294400,12.15929443359375,-1.0222015380859375,-0.1578369140625,0.0249786376953125
1788957710846344400,12.169344482421875,-0.9811859130859375,-0.180633544921875,0.037689208984375
1788957710856395500,12.1793955078125,-0.9435882568359375,-0.2100677490234375,0.053680419921875
1788957710866445600,12.189445556640624,-0.9174041748046875,-0.2474365234375,0.068756103515625
1788957710876495400,12.199495361328125,-0.9079742431640625,-0.2897796630859375,0.0797119140625
1788957710886545400,12.20954541015625,-0.9186248779296875,-0.32342529296875,0.0828399658203125
1788957710896595500,12.219595458984376,-0.93353271484375,-0.3425445556640625,0.08868408203125
1788957710906646500,12.229646484375,-0.9306793212890625,-0.343780517578125,0.1070709228515625
1788957710916696600,12.239696533203125,-0.9428558349609375,-0.325164794921875,0.1276397705078125
1788957710926746400,12.249746337890626,-0.9670257568359375,-0.3064422607421875,0.1424560546875
1788957710936796400,12.25979638671875,-0.99957275390625,-0.2964324951171875,0.1521148681640625
1788957710946847500,12.269847412109375,-1.02069091796875,-0.2982330322265625,0.162261962890625
1788957710956897500,12.2798974609375,-1.04345703125,-0.2903900146484375,0.16070556640625
1788957710966947600,12.289947509765625,-1.0657806396484375,-0.2800445556640625,0.148162841796875
1788957710976997400,12.299997314453124,-1.0720062255859375,-0.2793121337890625,0.12744140625
1788957710987048400,12.31004833984375,-1.0695343017578125,-0.2755584716796875,0.1057891845703125
1788957710997098500,12.320098388671875,-1.0464019775390625,-0.2673797607421875,0.0865631103515625
1788957711007148500,12.3301484375,-1.015228271484375,-0.26690673828125,0.08203125
1788957711017198600,12.340198486328125,-1.0027008056640625,-0.2725830078125,0.079620361328125
1788957711027249700,12.350249755859375,-0.9713592529296875,-0.277374267578125,0.0692596435546875
1788957711037299500,12.360299560546874,-0.90545654296875,-0.275848388671875,0.065826416015625
1788957711047349500,12.370349609375,-0.8555755615234375,-0.28350830078125,0.075469970703125
1788957711057399600,12.380399658203125,-0.8283843994140625,-0.293243408203125,0.07470703125
1788957711067450600,12.39045068359375,-0.83038330078125,-0.2980499267578125,0.0510711669921875
1788957711077500400,12.40050048828125,-0.829864501953125,-0.320037841796875,0.026611328125
1788957711087550500,12.410550537109375,-0.8141937255859375,-0.32720947265625,0.00799560546875
1788957711097600500,12.4206005859375,-0.83721923828125,-0.311767578125,-0.0102996826171875
1788957711107651600,12.430651611328125,-0.8774566650390625,-0.2862548828125,-0.055877685546875
1788957711117701600,12.44070166015625,-0.881683349609375,-0.295867919921875,-0.0837554931640625
1788957711127751400,12.45075146484375,-0.885284423828125,-0.3201904296875,-0.0692901611328125
1788957711137801500,12.460801513671875,-0.9442596435546875,-0.3080596923828125,-0.03814697265625
1788957711147852500,12.4708525390625,-1.0198822021484375,-0.2842559814453125,0.00189208984375
1788957711157902600,12.480902587890625,-0.94464111328125,-0.250335693359375,0.033905029296875
1788957711167952600,12.49095263671875,-1.00341796875,-0.2103424072265625,0.00677490234375
1788957711178002400,12.50100244140625,-1.0276336669921875,-0.2285308837890625,-0.0507659912109375
1788957711188053200,12.51105322265625,-1.0169525146484375,-0.267242431640625,-0.105712890625
1788957711198103600,12.521103515625,-0.9911956787109375,-0.296295166015625,-0.14105224609375
1788957711208153600,12.531153564453126,-0.9443206787109375,-0.3194732666015625,-0.1533966064453125
1788957711218203600,12.54120361328125,-0.9326934814453125,-0.34637451171875,-0.1522064208984375
1788957711228254500,12.55125439453125,-0.9204254150390625,-0.377166748046875,-0.1421661376953125
1788957711238304300,12.56130419921875,-0.9147796630859375,-0.3833160400390625,-0.1453857421875
1788957711248354600,12.5713544921875,-0.9728546142578125,-0.3641204833984375,-0.1464385986328125
1788957711258404600,12.581404541015624,-0.9876861572265625,-0.34619140625,-0.12799072265625
1788957711268455400,12.591455322265626,-0.9840545654296875,-0.3359527587890625,-0.1141204833984375
1788957711278505500,12.60150537109375,-1.018524169921875,-0.306182861328125,-0.11749267578125
1788957711288555300,12.61155517578125,-1.0391082763671875,-0.2821197509765625,-0.098297119140625
1788957711298605600,12.62160546875,-1.03643798828125,-0.268280029296875,-0.0478973388671875
1788957711308655600,12.631655517578125,-1.028533935546875,-0.2317352294921875,-0.0391693115234375
1788957711318706400,12.64170654296875,-1.02410888671875,-0.2220001220703125,-0.0345458984375
1788957711328756500,12.651756591796875,-0.988861083984375,-0.2563018798828125,-0.037567138671875
1788957711338806300,12.66180615234375,-0.955322265625,-0.29766845703125,-0.052978515625
1788957711348856600,12.671856689453126,-0.9152374267578125,-0.3206634521484375,-0.081634521484375
1788957711358907400,12.681907470703125,-0.898162841796875,-0.350921630859375,-0.1142120361328125
1788957711368957400,12.69195751953125,-0.929290771484375,-0.4007110595703125,-0.1307525634765625
1788957711379007200,12.70200732421875,-0.94158935546875,-0.4415283203125,-0.12548828125
1788957711389057300,12.712057373046875,-0.9613800048828125,-0.4278106689453125,-0.114532470703125
1788957711399108400,12.7221083984375,-0.9817657470703125,-0.3697052001953125,-0.099945068359375
1788957711409158400,12.732158447265626,-0.9838714599609375,-0.32379150390625,-0.082763671875
1788957711419208400,12.74220849609375,-0.992279052734375,-0.303497314453125,-0.068603515625
1788957711429258200,12.75225830078125,-0.979888916015625,-0.296905517578125,-0.055816650390625
1788957711439309300,12.762309326171875,-0.946868896484375,-0.3070068359375,-0.041168212890625
1788957711449359400,12.772359375,-0.923431396484375,-0.324676513671875,-0.0347137451171875
1788957711459409400,12.782409423828126,-0.8917236328125,-0.3404541015625,-0.0461883544921875
1788957711469459500,12.79245947265625,-0.8714599609375,-0.34698486328125,-0.06365966796875
1788957711479510500,12.802510498046875,-0.8689727783203125,-0.34979248046875,-0.0811614990234375
1788957711489560300,12.812560302734376,-0.8870391845703125,-0.3547821044921875,-0.1243438720703125
1788957711499610400,12.8226103515625,-0.8979339599609375,-0.3740997314453125,-0.168792724609375
1788957711509660400,12.832660400390624,-0.8895111083984375,-0.3834075927734375,-0.1929168701171875
1788957711519711700,12.842711669921876,-0.907867431640625,-0.387237548828125,-0.1876373291015625
1788957711529761800,12.85276171875,-0.9753570556640625,-0.44580078125,-0.08367919921875
1788957711539811600,12.8628115234375,-0.8682098388671875,-0.4596099853515625,0.0500030517578125
1788957711549861600,12.872861572265625,-0.8659515380859375,-0.407196044921875,0.1007537841796875
1788957711559912700,12.88291259765625,-0.9247283935546875,-0.380615234375,0.1184234619140625
1788957711569962800,12.892962646484374,-0.9640350341796875,-0.365447998046875,0.0968017578125
