time,seconds_elapsed,z,y,x
1788957698715690500,0.0386904296875,0.06954126060009003,0.061944060027599335,0.7539994716644287
1788957698725740500,0.048740478515625,-0.16046424210071564,0.30705395340919495,1.064346194267273
1788957698735790800,0.058790771484375,-0.3281714916229248,0.6231040358543396,1.2910698652267456
1788957698745841700,0.068841552734375,-0.42803096771240234,0.9012550115585327,1.4239243268966675
1788957698755891700,0.0788916015625,-0.4465322196483612,1.0015368461608887,1.4577590227127075
1788957698765941500,0.08894140625,-0.411131352186203,0.9360590577125549,1.4233424663543701
1788957698775991600,0.098991455078125,-0.3439541757106781,0.8229522109031677,1.3174258470535278
1788957698786042600,0.109042724609375,-0.23973029851913452,0.6593462228775024,1.1514278650283813
1788957698796092700,0.1190927734375,-0.09297095239162445,0.4138890504837036,0.9614898562431335
1788957698806142700,0.129142822265625,0.09198079258203506,0.1041189432144165,0.7419667840003967
1788957698816192500,0.139192626953125,0.1582687348127365,-0.06284686923027039,0.576221227645874
1788957698826243600,0.14924365234375,0.2334580272436142,-0.4387986660003662,0.3606681823730469
1788957698836293600,0.159293701171875,0.3307161331176758,-0.7222655415534973,0.18688519299030304
1788957698846343700,0.16934375,0.4654715657234192,-0.8244488835334778,0.04878538101911545
1788957698856393700,0.179393798828125,0.6302892565727234,-0.7286272644996643,-0.07509874552488327
1788957698866444800,0.18944482421875,0.7636545300483704,-0.499262273311615,-0.15264733135700226
1788957698876494600,0.19949462890625,0.8081932067871094,-0.2222338616847992,-0.1485665738582611
1788957698886544600,0.209544677734375,0.7645549178123474,0.0495997779071331,-0.08216757327318192
1788957698896594700,0.2195947265625,0.6881128549575806,0.25992506742477417,0.019115371629595757
1788957698906645800,0.229645751953125,0.6335947513580322,0.3862009644508362,0.14704856276512146
1788957698916695600,0.239695556640625,0.6267853379249573,0.4047568142414093,0.2772334814071655
1788957698926745600,0.24974560546875,0.6249054074287415,0.43431124091148376,0.3679189085960388
1788957698936795600,0.259795654296875,0.6176291108131409,0.431008905172348,0.4026326835155487
1788957698946846700,0.2698466796875,0.6130452752113342,0.33116835355758667,0.35047438740730286
1788957698956896800,0.279896728515625,0.5814689993858337,0.1657458245754242,0.23948661983013153
1788957698966946600,0.289946533203125,0.5037299990653992,-0.0035065840929746628,0.13115589320659637
1788957698976996600,0.29999658203125,0.36048173904418945,-0.1580258458852768,0.05519933998584747
1788957698987047700,0.310047607421875,0.1447071135044098,-0.3798905909061432,0.015022891573607922
1788957698997097700,0.32009765625,-0.13385872542858124,-0.6981660723686218,0.04084303602576256
1788957699007147800,0.330147705078125,-0.398467481136322,-0.6951396465301514,0.11750958859920502
1788957699017197600,0.340197509765625,-0.5845939517021179,-0.6011875867843628,0.27771443128585815
1788957699027248600,0.35024853515625,-0.6985551118850708,-0.6220073699951172,0.5159485936164856
1788957699037298700,0.360298583984375,-0.7467191815376282,-0.5601125955581665,0.7403057813644409
1788957699047348700,0.3703486328125,-0.7431063652038574,-0.3602801561355591,0.8897847533226013
1788957699057398800,0.380398681640625,-0.6994688510894775,-0.10494319349527359,0.9436924457550049
1788957699067449900,0.390449951171875,-0.643616795539856,0.16807769238948822,0.9464112520217896
1788957699077499600,0.400499755859375,-0.5912979245185852,0.4556407630443573,0.9252389073371887
1788957699087549700,0.4105498046875,-0.5530672073364258,0.6911377310752869,0.9083818793296814
1788957699097599700,0.420599853515625,-0.5185816287994385,0.8236022591590881,0.9089067578315735
1788957699107650800,0.43065087890625,-0.4737694263458252,0.9204164147377014,0.8986386656761169
1788957699117700900,0.440700927734375,-0.3984874486923218,0.9472848176956177,0.8665337562561035
1788957699127750700,0.450750732421875,-0.3069615364074707,0.8916055560112,0.7976276874542236
1788957699137800700,0.46080078125,-0.23438534140586853,0.7671421766281128,0.7067113518714905
1788957699147851800,0.470851806640625,-0.2177238017320633,0.571430504322052,0.5950886607170105
1788957699157901800,0.48090185546875,-0.2423521876335144,0.34294483065605164,0.48083001375198364
1788957699167952000,0.490951904296875,-0.25642725825309753,0.25807228684425354,0.3687777817249298
1788957699178001700,0.501001708984375,-0.19470849633216858,0.3603118360042572,0.27583691477775574
1788957699188052700,0.511052734375,-0.09923391044139862,0.3890683948993683,0.2384895384311676
1788957699198102800,0.521102783203125,-0.0890132263302803,0.37878406047821045,0.18548251688480377
1788957699208152800,0.53115283203125,-0.105929896235466,0.3419964909553528,0.11822464317083359
1788957699218202600,0.54120263671875,-0.1521671712398529,0.3954858183860779,0.02165229804813862
1788957699228253700,0.551253662109375,-0.31953805685043335,0.6050177216529846,-0.11309593170881271
1788957699238303700,0.5613037109375,-0.6571227312088013,0.8809608817100525,-0.23466923832893372
1788957699248353800,0.571353759765625,-1.085282325744629,1.081072449684143,-0.2981017231941223
1788957699258404600,0.581404541015625,-1.5271633863449097,1.2304145097732544,-0.2864384055137634
1788957699268455000,0.591454833984375,-2.0072073936462402,1.267423391342163,-0.20880673825740814
1788957699278504700,0.601504638671875,-2.4889280796051025,1.0666569471359253,-0.10304409265518188
1788957699288554800,0.6115546875,-2.843622922897339,0.813664436340332,0.03928269073367119
1788957699298605600,0.62160546875,-3.0612847805023193,0.7200532555580139,0.27634236216545105
1788957699308655600,0.631655517578125,-3.2004427909851074,0.7017962336540222,0.633827269077301
1788957699318706000,0.641705810546875,-3.2455344200134277,0.3552100360393524,1.1460628509521484
1788957699328755700,0.651755615234375,-3.2969295978546143,0.357674777507782,1.6954843997955322
1788957699338806500,0.661806640625,-3.3530430793762207,0.404366135597229,2.2327334880828857
1788957699348856600,0.671856689453125,-3.4146430492401123,0.4345357418060303,2.677187204360962
1788957699358906600,0.68190673828125,-3.5378284454345703,0.567699134349823,2.9738762378692627
1788957699368957000,0.69195703125,-3.7601943016052246,0.6900402307510376,3.0973007678985596
1788957699379007700,0.7020078125,-4.0749192237854,0.748449444770813,3.0098888874053955
1788957699389057500,0.7120576171875,-4.643991470336914,0.6558740139007568,2.642002582550049
1788957699399107600,0.722107666015625,-5.115958213806152,0.5260424613952637,2.1211278438568115
1788957699409157600,0.73215771484375,-5.428348064422607,0.3273080885410309,1.5969136953353882
1788957699419208700,0.742208740234375,-5.603133201599121,-0.19699722528457642,1.1742851734161377
1788957699429258800,0.7522587890625,-5.498899936676025,-0.5879859924316406,0.7680484652519226
1788957699439308500,0.76230859375,-5.101913928985596,-0.5461235046386719,0.36722061038017273
1788957699449358600,0.772358642578125,-4.65811014175415,-0.4772863984107971,-0.04604791849851608
1788957699459409700,0.78240966796875,-4.344241619110107,-0.65580153465271,-0.3507537543773651
1788957699469459700,0.792459716796875,-4.08558988571167,-0.7944933772087097,-0.552987813949585
1788957699479509500,0.802509521484375,-3.7220587730407715,-0.697256863117218,-0.49881085753440857
1788957699489559600,0.8125595703125,-3.1590285301208496,-0.5260280966758728,-0.40965142846107483
1788957699499610600,0.822610595703125,-2.479207754135132,-0.32333916425704956,-0.5453368425369263
1788957699509660200,0.83266015625,-1.5459767580032349,-0.2780931293964386,-1.0136603116989136
1788957699519710200,0.842710205078125,-0.2650923728942871,0.14964941143989563,-1.7503128051757812
1788957699529760300,0.85276025390625,0.7276256680488586,0.3428782522678375,-2.337308406829834
1788957699539811300,0.862811279296875,0.6619129776954651,0.7287545800209045,-2.383176803588867
1788957699549861400,0.872861328125,0.12740536034107208,1.3747512102127075,-2.131864070892334
1788957699559911200,0.8829111328125,-0.5875260829925537,1.6699870824813843,-1.7505525350570679
1788957699569961200,0.892961181640625,-1.2178905010223389,1.855383038520813,-1.2313042879104614
1788957699580012300,0.90301220703125,-1.641308307647705,2.189138889312744,-0.5188687443733215
1788957699590062300,0.913062255859375,-1.8413641452789307,2.6781094074249268,0.44988781213760376
1788957699600112400,0.9231123046875,-1.768193244934082,3.3507087230682373,1.5651354789733887
1788957699610162200,0.933162109375,-1.4588836431503296,4.01434850692749,2.618223190307617
1788957699620213200,0.943213134765625,-1.0995973348617554,4.578316688537598,3.419081926345825
1788957699630263300,0.95326318359375,-0.8391798734664917,4.757851600646973,3.8044543266296387
1788957699640313300,0.963313232421875,-0.7764946818351746,4.644111156463623,3.6998074054718018
1788957699650363400,0.97336328125,-1.097310185432434,4.638334274291992,3.0846190452575684
1788957699660414200,0.983414306640625,-1.4787276983261108,4.0119452476501465,1.7702361345291138
1788957699670464300,0.99346435546875,-1.8248653411865234,2.81679368019104,0.2655744254589081
1788957699680514300,1.003514404296875,-2.3701603412628174,1.7036563158035278,-0.6618751287460327
1788957699690565400,1.0135654296875,-2.3722259998321533,0.9292647838592529,-1.2327176332473755
1788957699700615400,1.023615478515625,-1.8292536735534668,0.6683892607688904,-1.423601508140564
1788957699710665200,1.033665283203125,-0.975581169128418,0.7279458045959473,-1.5286173820495605
1788957699720715300,1.04371533203125,0.16795171797275543,1.2880034446716309,-1.9071128368377686
1788957699730766300,1.053766357421875,0.8522624373435974,1.6820757389068604,-2.4068665504455566
1788957699740816400,1.06381640625,1.1766489744186401,1.0729823112487793,-2.8306870460510254
1788957699750866400,1.073866455078125,1.0983304977416992,-1.3516056537628174,-2.26007080078125
1788957699760916200,1.083916259765625,0.8026626110076904,-3.0030508041381836,-1.3367321491241455
1788957699770967300,1.09396728515625,0.8090488910675049,-3.9920294284820557,-0.15734274685382843
1788957699781017300,1.104017333984375,0.5600513219833374,-4.242622375488281,1.157907247543335
1788957699791067400,1.1140673828125,0.2653680145740509,-4.013891696929932,2.589940309524536
1788957699801117400,1.124117431640625,-0.08968780934810638,-2.8138792514801025,3.8528478145599365
1788957699811168500,1.13416845703125,-0.6680153608322144,-1.199519157409668,4.4664435386657715
1788957699821218300,1.14421826171875,-1.4773486852645874,0.2385454624891281,4.196414470672607
1788957699831268400,1.154268310546875,-2.3401482105255127,0.9202502369880676,3.169174909591675
1788957699841318400,1.164318359375,-3.0823974609375,1.1149557828903198,1.737922191619873
1788957699851369500,1.174369384765625,-3.496833324432373,1.0880144834518433,0.7423705458641052
1788957699861419500,1.18441943359375,-3.558835506439209,1.1633601188659668,0.30648431181907654
1788957699871469300,1.19446923828125,-3.18290376663208,0.9836776852607727,0.1866913139820099
1788957699881519400,1.204519287109375,-2.4121642112731934,0.5566136837005615,0.09627780318260193
1788957699891570400,1.2145703125,-1.4569560289382935,-0.2228780835866928,-0.26939472556114197
1788957699901620500,1.224620361328125,-0.678138792514801,-0.9707996845245361,-0.9564146399497986
1788957699911670500,1.23467041015625,0.04120948910713196,-1.6845686435699463,-1.564357876777649
1788957699921720300,1.24472021484375,0.5899719595909119,-1.7708444595336914,-1.9968775510787964
1788957699931771400,1.254771484375,0.8987641334533691,-1.909708023071289,-2.1005868911743164
1788957699941821400,1.264821533203125,0.8947105407714844,-1.6110012531280518,-2.14833927154541
1788957699951871500,1.27487158203125,0.8110683560371399,-1.2654122114181519,-2.009103775024414
1788957699961922300,1.28492236328125,0.6578044891357422,-0.9659210443496704,-1.6544395685195923
1788957699971972400,1.294972412109375,0.5872328877449036,-0.9005473852157593,-1.0537651777267456
1788957699982022400,1.3050224609375,0.6776970028877258,-0.7493014335632324,-0.312538743019104
1788957699992072400,1.315072509765625,0.8833537697792053,-0.39919719099998474,0.5063071250915527
1788957700002123300,1.325123291015625,1.064794659614563,0.14483468234539032,1.1680275201797485
1788957700012173300,1.33517333984375,1.131877064704895,0.7024745345115662,1.7740380764007568
1788957700022223400,1.345223388671875,1.1382664442062378,1.2013453245162964,2.237485885620117
1788957700032273400,1.3552734375,1.1369454860687256,1.3160585165023804,2.622541904449463
1788957700042324200,1.36532421875,1.130555272102356,1.1856555938720703,2.8212544918060303
1788957700052374300,1.375374267578125,1.34022057056427,3.1480839252471924,-0.14232012629508972
1788957700062424300,1.38542431640625,1.7091262340545654,2.090282678604126,-3.6360785961151123
1788957700072474400,1.395474365234375,1.795556664466858,-1.1126985549926758,-3.9360787868499756
1788957700082525200,1.405525146484375,1.9135669469833374,-0.9714961051940918,-3.4017865657806396
1788957700092575200,1.4155751953125,2.2102811336517334,-0.7181597352027893,-2.1376967430114746
1788957700102625300,1.425625244140625,2.3665409088134766,0.10913021862506866,-0.7914914488792419
1788957700112675300,1.43567529296875,2.0542337894439697,1.0437053442001343,0.45027342438697815
1788957700122726400,1.445726318359375,1.3596444129943848,1.524601697921753,1.4127510786056519
1788957700132776200,1.455776123046875,1.063812255859375,1.670765995979309,1.9261043071746826
1788957700142826200,1.465826171875,0.9504337310791016,1.8241798877716064,2.242471933364868
1788957700152876300,1.475876220703125,0.7016335129737854,1.8849952220916748,2.5852832794189453
1788957700162927400,1.48592724609375,0.33518117666244507,2.078037977218628,2.759866237640381
1788957700172977400,1.495977294921875,-0.3851897716522217,2.1926157474517822,2.4155590534210205
1788957700183027200,1.506027099609375,-1.9242819547653198,1.8893415927886963,2.0823256969451904
1788957700193077200,1.5160771484375,-2.703214168548584,1.8457690477371216,1.633104920387268
1788957700203128300,1.52612841796875,-1.9141329526901245,1.1105996370315552,0.9626919627189636
1788957700213178400,1.536178466796875,-1.9557336568832397,0.8378981351852417,0.6293814182281494
1788957700223228200,1.546228271484375,-2.768911838531494,1.172669768333435,0.898619532585144
1788957700233278200,1.5562783203125,-2.1693782806396484,1.224460482597351,1.2492012977600098
1788957700243329300,1.566329345703125,-1.2206130027770996,1.0788785219192505,1.0700451135635376
1788957700253379300,1.57637939453125,-0.5390176773071289,0.8376491069793701,0.2512790858745575
1788957700263429400,1.586429443359375,0.029169868677854538,-0.40455707907676697,-0.6955995559692383
1788957700273480400,1.59648046875,0.38386350870132446,-2.3051857948303223,-1.3528584241867065
1788957700283530200,1.6065302734375,0.44576123356819153,-3.153146982192993,-1.5817639827728271
1788957700293580300,1.616580322265625,-0.10177962481975555,-3.222454786300659,-1.6332892179489136
1788957700303630300,1.62663037109375,-1.0357904434204102,-3.0643889904022217,-1.7816725969314575
1788957700313681400,1.636681396484375,-1.3080904483795166,-2.4263482093811035,-1.6605440378189087
1788957700323731500,1.6467314453125,-1.1084818840026855,-2.27400541305542,-1.4279433488845825
1788957700333781200,1.65678125,-0.7820079326629639,-1.9886183738708496,-1.3370658159255981
1788957700343831300,1.666831298828125,-0.24957041442394257,-1.9731557369232178,-1.4023338556289673
1788957700353882400,1.67688232421875,0.6764681935310364,-1.9418716430664062,-1.893173336982727
1788957700363932400,1.686932373046875,1.8748501539230347,-1.6906356811523438,-2.846827507019043
1788957700373982500,1.696982421875,3.1297194957733154,-1.4362062215805054,-4.2716827392578125
1788957700384032300,1.7070322265625,4.0046000480651855,-1.7573448419570923,-5.79311466217041
1788957700394083300,1.717083251953125,4.398601531982422,-1.7303324937820435,-6.84686803817749
1788957700404133400,1.72713330078125,4.2733659744262695,-1.3577580451965332,-6.545139312744141
1788957700414183400,1.737183349609375,3.2725350856781006,-0.5873996019363403,-4.598151206970215
1788957700424233500,1.7472333984375,2.682976484298706,0.10631711781024933,-3.3708863258361816
1788957700434284500,1.757284423828125,2.6075422763824463,0.33165809512138367,-2.716221809387207
1788957700444334300,1.767334228515625,2.525423288345337,0.48499226570129395,-2.3030521869659424
1788957700454384400,1.77738427734375,2.2649595737457275,1.0539201498031616,-2.035830497741699
1788957700464435500,1.787435546875,1.8953176736831665,1.7047163248062134,-1.6311746835708618
1788957700474485500,1.797485595703125,1.6325331926345825,2.271428346633911,-1.1433250904083252
1788957700484535300,1.807535400390625,1.501661777496338,2.3249564170837402,-0.8903954029083252
1788957700494585300,1.81758544921875,1.435685157775879,1.9273117780685425,-0.7994820475578308
1788957700504636700,1.82763671875,0.84304279088974,2.717773675918579,-0.26814010739326477
1788957700514686700,1.837686767578125,-0.24036094546318054,4.360627174377441,0.10319642722606659
1788957700524736800,1.84773681640625,-0.21738478541374207,4.867359161376953,0.2046561986207962
1788957700534786800,1.857786865234375,0.3799411952495575,3.7269551753997803,0.7794556021690369
1788957700544837600,1.867837646484375,1.0790050029754639,2.780966281890869,0.875761091709137
1788957700554887700,1.8778876953125,1.7921463251113892,1.275438666343689,0.8357404470443726
1788957700564937500,1.8879375,2.1789121627807617,0.4491061568260193,0.40107524394989014
1788957700574987800,1.89798779296875,2.0296618938446045,0.949354887008667,-0.21556317806243896
1788957700585038600,1.90803857421875,1.8075499534606934,0.8054970502853394,-1.2176380157470703
1788957700595088600,1.918088623046875,1.877341866493225,0.2367667406797409,-2.147634267807007
1788957700605138700,1.928138671875,2.3502979278564453,0.012122975662350655,-2.1769826412200928
1788957700615188500,1.9381884765625,2.6214027404785156,0.17968854308128357,-2.1030755043029785
1788957700625239600,1.948239501953125,2.712700366973877,0.32226672768592834,-2.063140869140625
1788957700635289600,1.95828955078125,2.8579134941101074,0.37370461225509644,-2.114823818206787
1788957700645339600,1.968339599609375,3.284487009048462,0.5041691660881042,-2.0468873977661133
1788957700655389700,1.9783896484375,3.557504653930664,0.5475243330001831,-1.8248376846313477
1788957700665440800,1.988440673828125,3.2405474185943604,0.718629777431488,-1.2538577318191528
1788957700675490600,1.998490478515625,3.389636278152466,1.535827398300171,-0.7648119330406189
1788957700685540600,2.00854052734375,3.8057427406311035,0.5415942668914795,0.292928010225296
1788957700695591700,2.018591796875,3.841338634490967,-1.4701277017593384,1.2110460996627808
1788957700705641700,2.028641845703125,4.4279866218566895,-2.6830761432647705,1.8294161558151245
1788957700715691800,2.03869189453125,5.500709056854248,-2.812525749206543,1.8602757453918457
1788957700725741600,2.048741455078125,6.207791805267334,-3.276792287826538,2.1530301570892334
1788957700735792600,2.058792724609375,6.241732120513916,-3.2242376804351807,2.708462953567505
1788957700745842700,2.0688427734375,6.290519714355469,-2.1147537231445312,2.6412315368652344
1788957700755892700,2.078892822265625,6.176407337188721,-1.7364542484283447,2.395693302154541
1788957700765942800,2.08894287109375,5.579347133636475,-2.6556925773620605,2.8153929710388184
1788957700775993900,2.098993896484375,4.390774726867676,-3.286613941192627,3.357987880706787
1788957700786043600,2.109043701171875,3.697260856628418,-4.100529670715332,3.695600748062134
1788957700796093700,2.11909375,2.2123019695281982,-5.009526252746582,4.764219284057617
1788957700806143700,2.129143798828125,0.5009880065917969,-5.3220930099487305,6.03875732421875
1788957700816194800,2.13919482421875,-0.3815167248249054,-4.9150710105896,6.02227258682251
1788957700826244600,2.14924462890625,-1.085271954536438,-4.697842597961426,5.477872848510742
1788957700836294700,2.159294677734375,-1.2326054573059082,-4.61784553527832,4.1158552169799805
1788957700846344700,2.1693447265625,-0.9605478644371033,-2.5132827758789062,1.5417382717132568
1788957700856395800,2.179395751953125,-0.6203775405883789,-0.9516994953155518,0.12735742330551147
1788957700866445800,2.18944580078125,-0.6710092425346375,-0.86514812707901,-0.487045019865036
1788957700876495600,2.19949560546875,-0.498141348361969,-0.7668913006782532,-0.3853290379047394
1788957700886545700,2.209545654296875,-0.5402541756629944,-0.3908388614654541,-0.18468382954597473
1788957700896596700,2.2195966796875,-0.6482949256896973,0.566884458065033,-0.06438831239938736
1788957700906646800,2.229646728515625,-0.649600625038147,1.8112763166427612,-0.028427647426724434
1788957700916696800,2.23969677734375,-0.681337296962738,2.523301601409912,0.011751730926334858
1788957700926748000,2.249747802734375,-0.4221235513687134,2.9805736541748047,0.4757787883281708
1788957700936797700,2.259797607421875,-0.06193394213914871,2.9697065353393555,1.0517501831054688
1788957700946847700,2.26984765625,0.2890869379043579,2.906252861022949,1.5197839736938477
1788957700956897800,2.279897705078125,0.40568065643310547,2.2990336418151855,1.4666509628295898
1788957700966948900,2.289948974609375,0.2837824523448944,0.5869817137718201,0.2443532794713974
1788957700976999000,2.2999990234375,0.02755972184240818,0.18534162640571594,-0.4373752176761627
1788957700987048700,2.310048583984375,-0.2153964638710022,0.5758870244026184,-0.4699035882949829
1788957700997098800,2.3200986328125,-0.4423510432243347,1.1252387762069702,-0.4057336449623108
1788957701007149800,2.33014990234375,-0.5767884850502014,1.2777197360992432,-0.289975643157959
1788957701017199900,2.340199951171875,-0.5062674283981323,0.8067524433135986,-0.10964740067720413
1788957701027250000,2.35025,-0.3266875743865967,0.6025481820106506,0.001541171339340508
1788957701037299700,2.3602998046875,-0.17947974801063538,0.5306918621063232,0.011166367679834366
1788957701047350500,2.3703505859375,-0.04044649377465248,0.39873167872428894,-0.021694643422961235
1788957701057400600,2.380400634765625,0.07255169749259949,0.2573215365409851,-0.04927300661802292
1788957701067451000,2.390450927734375,0.11481260508298874,0.12715235352516174,-0.03460884466767311
1788957701077501000,2.4005009765625,0.10634241998195648,0.13751472532749176,0.029218604788184166
1788957701087551500,2.410551513671875,0.025260882452130318,0.11780546605587006,0.1738082766532898
1788957701097601500,2.4206015625,-0.011948006227612495,0.117156982421875,0.3321305513381958
1788957701107651600,2.430651611328125,-0.01737898960709572,0.1792086362838745,0.45565274357795715
1788957701117702700,2.44070263671875,-0.03093660995364189,0.23259596526622772,0.5466452240943909
1788957701127752700,2.450752685546875,-0.04983972758054733,0.2730773389339447,0.558965265750885
1788957701137802500,2.460802490234375,-0.08605285733938217,0.3413517475128174,0.4998423159122467
1788957701147852500,2.4708525390625,-0.10776374489068985,0.3960868716239929,0.436612993478775
1788957701157903600,2.480903564453125,-0.11908324807882309,0.46781647205352783,0.37005501985549927
1788957701167953700,2.49095361328125,-0.10352292656898499,0.635164201259613,0.3365396559238434
1788957701178003700,2.501003662109375,-0.13964924216270447,0.7409417629241943,0.34157729148864746
1788957701188053500,2.511053466796875,-0.25100213289260864,0.8026373386383057,0.30147701501846313
1788957701198104600,2.5211044921875,-0.3290753662586212,0.9401099681854248,0.27996668219566345
1788957701208154600,2.531154541015625,-0.3620394468307495,1.0543633699417114,0.31274300813674927
1788957701218204700,2.54120458984375,-0.3932170569896698,1.1654256582260132,0.3417314887046814
1788957701228254700,2.551254638671875,-0.34855371713638306,1.1112087965011597,0.35177934169769287
1788957701238305800,2.561305908203125,-0.27090126276016235,0.7188774347305298,0.35211464762687683
1788957701248355600,2.57135546875,-0.19118061661720276,0.3714979290962219,0.37620559334754944
1788957701258405600,2.581405517578125,-0.16173617541790009,0.19740654528141022,0.40669506788253784
1788957701268455700,2.59145556640625,-0.15496428310871124,0.12655767798423767,0.4222598969936371
1788957701278506800,2.6015068359375,-0.1752527803182602,0.07453522086143494,0.39521655440330505
1788957701288556800,2.611556884765625,-0.19982630014419556,0.028845496475696564,0.3306809961795807
1788957701298606600,2.621606689453125,-0.19240699708461761,-0.020790498703718185,0.2706831693649292
1788957701308656600,2.63165673828125,-0.18953929841518402,-0.08401181548833847,0.22863557934761047
1788957701318707700,2.641707763671875,-0.19478680193424225,-0.0833476185798645,0.22812744975090027
1788957701328757800,2.6517578125,-0.18922264873981476,0.014390923082828522,0.27772483229637146
1788957701338807800,2.661807861328125,-0.13693228363990784,-0.04862399399280548,0.3517338037490845
1788957701348858600,2.671858642578125,-0.018153969198465347,-0.28777584433555603,0.4185940623283386
1788957701358908700,2.68190869140625,0.042210571467876434,-0.4442962408065796,0.4580541253089905
1788957701368958700,2.691958740234375,0.06215578317642212,-0.487943559885025,0.43549981713294983
1788957701379008800,2.7020087890625,0.06502453982830048,-0.4837741255760193,0.3265482783317566
1788957701389059800,2.712059814453125,0.056958358734846115,-0.49817755818367004,0.1462474912405014
1788957701399109600,2.722109619140625,0.05024159699678421,-0.6816374063491821,-0.0003043993201572448
1788957701409159700,2.73215966796875,0.06829357147216797,-0.728278398513794,-0.15296104550361633
1788957701419209700,2.742209716796875,0.08574633300304413,-0.6675814986228943,-0.2717726528644562
1788957701429260800,2.7522607421875,0.08542755246162415,-0.442587286233902,-0.362488716840744
1788957701439310800,2.762310791015625,0.12564074993133545,-0.267671138048172,-0.41270795464515686
1788957701449360600,2.772360595703125,0.15372776985168457,-0.2858791649341583,-0.41608643531799316
1788957701459410700,2.78241064453125,0.17397285997867584,-0.3892532289028168,-0.37774595618247986
1788957701469461800,2.792461669921875,0.20054109394550323,-0.37555310130119324,-0.3473699390888214
1788957701479511800,2.80251171875,0.23337334394454956,-0.3126116991043091,-0.3236696720123291
1788957701489561900,2.812561767578125,0.2459796816110611,-0.24562999606132507,-0.2759951055049896
1788957701499611600,2.822611572265625,0.2790164649486542,-0.20792897045612335,-0.21374450623989105
1788957701509662700,2.832662841796875,0.2868730425834656,-0.40877872705459595,-0.14855246245861053
1788957701519712800,2.842712646484375,0.26703277230262756,-0.448080837726593,-0.13555249571800232
1788957701529762600,2.852762451171875,0.2648431062698364,-0.27637115120887756,-0.1459963470697403
1788957701539813600,2.862813720703125,0.2583774924278259,-0.19511036574840546,-0.1379520148038864
1788957701549863700,2.87286376953125,0.24348855018615723,-0.225459486246109,-0.12580719590187073
1788957701559913700,2.882913818359375,0.18909668922424316,-0.27851977944374084,-0.14396142959594727
1788957701569963800,2.8929638671875,0.1144924908876419,-0.27643799781799316,-0.19923241436481476
1788957701580014600,2.9030146484375,0.059339489787817,-0.2413729429244995,-0.2600877583026886
1788957701590064600,2.913064697265625,-0.005844040773808956,-0.18540288507938385,-0.3285911977291107
1788957701600114700,2.92311474609375,-0.07269391417503357,-0.12754836678504944,-0.3951379954814911
1788957701610164700,2.933164794921875,-0.14623311161994934,-0.08263948559761047,-0.4542306065559387
1788957701620215600,2.943215576171875,-0.22333215177059174,0.017552096396684647,-0.49791285395622253
1788957701630265600,2.953265625,-0.2898067831993103,0.11171294748783112,-0.5115285515785217
1788957701640315600,2.963315673828125,-0.3493281602859497,0.1511056274175644,-0.49478283524513245
1788957701650365700,2.97336572265625,-0.366603821516037,0.15022332966327667,-0.44682568311691284
1788957701660416500,2.98341650390625,-0.3385000228881836,0.12117542326450348,-0.3837151825428009
1788957701670466600,2.993466552734375,-0.28193235397338867,0.04844742640852928,-0.2972750961780548
1788957701680516600,3.0035166015625,-0.20476992428302765,-0.05342700704932213,-0.21087707579135895
1788957701690566700,3.013566650390625,-0.1429813951253891,-0.0033957967534661293,-0.16021230816841125
1788957701700617500,3.023617431640625,-0.08661399036645889,0.08516842126846313,-0.13429628312587738
1788957701710667500,3.03366748046875,-0.034634143114089966,0.11684512346982956,-0.11134596168994904
1788957701720717600,3.043717529296875,0.028386900201439857,0.08558440953493118,-0.06443944573402405
1788957701730768600,3.0537685546875,0.08072493970394135,0.008561530150473118,-0.011906460858881474
1788957701740818400,3.063818359375,0.10585080087184906,-0.09629350900650024,0.014931279234588146
1788957701750868500,3.073868408203125,0.12017460912466049,-0.1860218048095703,-0.002626675646752119
1788957701760918500,3.08391845703125,0.1349727362394333,-0.23216666281223297,-0.04844209924340248
1788957701770969600,3.093969482421875,0.11807577311992645,-0.32103314995765686,-0.06000101938843727
1788957701781019600,3.10401953125,0.12960033118724823,-0.3959566652774811,-0.02887825295329094
1788957701791069400,3.1140693359375,0.14863981306552887,-0.4823932647705078,0.01872255466878414
1788957701801119500,3.124119384765625,0.16038860380649567,-0.5636529922485352,0.04620691016316414
1788957701811170600,3.134170654296875,0.14439472556114197,-0.6170293688774109,0.02143285423517227
1788957701821220600,3.144220703125,0.09813348948955536,-0.6168892979621887,0.00014993596414569765
1788957701831270700,3.154270751953125,0.0541367381811142,-0.5955494046211243,0.0014833806781098247
1788957701841320400,3.164320556640625,0.021382519975304604,-0.5722925662994385,0.020240023732185364
1788957701851371500,3.17437158203125,0.02455461211502552,-0.5516626238822937,0.04561861604452133
1788957701861421600,3.184421630859375,0.09292647987604141,-0.5382714867591858,0.032459672540426254
1788957701871471600,3.1944716796875,0.15626896917819977,-0.5368450880050659,-0.0128159299492836
1788957701881521700,3.204521728515625,0.2073337435722351,-0.5410107970237732,-0.0587482675909996
1788957701891572500,3.214572509765625,0.24520815908908844,-0.5115687251091003,-0.10488300770521164
1788957701901622500,3.22462255859375,0.23496271669864655,-0.4699680209159851,-0.145252525806427
1788957701911672600,3.234672607421875,0.19192789494991302,-0.40443429350852966,-0.17770501971244812
1788957701921722600,3.24472265625,0.14200320839881897,-0.3258225619792938,-0.18115167319774628
1788957701931773700,3.254773681640625,0.10485264658927917,-0.2417772114276886,-0.14805710315704346
1788957701941823500,3.264823486328125,0.06916815042495728,-0.17061728239059448,-0.11558971554040909
1788957701951873500,3.27487353515625,0.03502056747674942,-0.10750994831323624,-0.05974988266825676
1788957701961924600,3.284924560546875,-0.005860019475221634,-0.027477163821458817,0.0170250553637743
1788957701971974700,3.294974609375,-0.014091051183640957,0.06294700503349304,0.0800841823220253
1788957701982024700,3.305024658203125,0.042702190577983856,0.14664749801158905,0.12568548321723938
1788957701992074500,3.315074462890625,0.07447689771652222,0.1925974190235138,0.16187651455402374
1788957702002125600,3.32512548828125,0.08681771904230118,0.19220539927482605,0.17791301012039185
1788957702012175600,3.335175537109375,0.10700447857379913,0.1498430222272873,0.1730538010597229
1788957702022225700,3.3452255859375,0.13594186305999756,0.07432004064321518,0.1482885330915451
1788957702032275700,3.355275634765625,0.16854427754878998,0.009041964076459408,0.11336091160774231
1788957702042326800,3.365326904296875,0.1977684646844864,-0.05218943580985069,0.0824541300535202
1788957702052376600,3.37537646484375,0.23242631554603577,-0.1112612783908844,0.06499737501144409
1788957702062426600,3.385426513671875,0.2665390074253082,-0.1478445827960968,0.04809828847646713
1788957702072476700,3.3954765625,0.2815113067626953,-0.1752045750617981,0.0008958873804658651
1788957702082527700,3.40552783203125,0.27314499020576477,-0.16958637535572052,-0.0491478368639946
1788957702092577800,3.415577880859375,0.26437920331954956,-0.1514609009027481,-0.0697668269276619
1788957702102627600,3.425627685546875,0.2720656096935272,-0.10109439492225647,-0.08819510787725449
1788957702112677600,3.435677734375,0.2763306498527527,-0.04098871350288391,-0.11789148300886154
1788957702122728700,3.445728759765625,0.2938302755355835,0.005558816250413656,-0.10262810438871384
1788957702132778800,3.45577880859375,0.3110979497432709,0.044673994183540344,-0.06105909124016762
1788957702142828500,3.46582861328125,0.34581226110458374,0.036196086555719376,0.016443688422441483
1788957702152878600,3.475878662109375,0.4132554829120636,0.04825754463672638,0.055145010352134705
1788957702162929400,3.485929443359375,0.4428514540195465,0.07635096460580826,0.07236447930335999
1788957702172979700,3.495979736328125,0.43576478958129883,0.0941038653254509,0.06589725613594055
1788957702183029800,3.50602978515625,0.40667295455932617,0.09142445772886276,0.03639049828052521
1788957702193080600,3.51608056640625,0.3787071108818054,0.06776946038007736,-0.006595318205654621
1788957702203130400,3.52613037109375,0.3777395784854889,0.029086247086524963,-0.06825628876686096
1788957702213180400,3.536180419921875,0.40141719579696655,-0.00503896689042449,-0.12069765478372574
1788957702223230700,3.546230712890625,0.38885295391082764,0.019572369754314423,-0.10959386825561523
1788957702233281500,3.556281494140625,0.37239834666252136,0.044329382479190826,-0.054003313183784485
1788957702243331600,3.56633154296875,0.44625258445739746,0.07793474197387695,-0.007625695317983627
1788957702253381400,3.57638134765625,0.6676957607269287,0.14839772880077362,-0.0000953411654336378
1788957702263431400,3.586431396484375,1.0416011810302734,0.12555845081806183,-0.02214205451309681
1788957702273482500,3.596482421875,1.3428905010223389,0.05975041538476944,-0.09657580405473709
1788957702283532500,3.606532470703125,1.5699007511138916,0.08455456793308258,-0.18411311507225037
1788957702293582600,3.61658251953125,1.6850781440734863,0.17362985014915466,-0.27270451188087463
1788957702303632400,3.62663232421875,1.6126617193222046,0.21138787269592285,-0.32963383197784424
1788957702313683500,3.636683349609375,1.4707032442092896,0.16107463836669922,-0.3611896336078644
1788957702323733500,3.6467333984375,1.3645206689834595,0.24518418312072754,-0.3852619230747223
1788957702333783600,3.656783447265625,1.1555207967758179,0.3306434452533722,-0.41314923763275146
1788957702343833600,3.66683349609375,0.9729076027870178,0.3161156177520752,-0.3037137985229492
1788957702353884700,3.676884765625,0.8904196619987488,0.12222684174776077,-0.13661962747573853
1788957702363934500,3.6869345703125,0.7957562804222107,-0.1512925773859024,0.028536302968859673
1788957702373984500,3.696984619140625,0.7563590407371521,-0.2860240340232849,0.14135579764842987
1788957702384034600,3.70703466796875,0.752780020236969,-0.3695620596408844,0.19469492137432098
1788957702394085600,3.717085693359375,0.8180184364318848,-0.2599141299724579,0.15085555613040924
1788957702404135400,3.727135498046875,0.8395857810974121,-0.20707063376903534,0.15216930210590363
1788957702414185500,3.737185546875,0.8192498683929443,-0.34617871046066284,0.17045003175735474
1788957702424236500,3.747236572265625,0.7220223546028137,-0.5423269271850586,0.23010031878948212
1788957702434286600,3.75728662109375,0.5460561513900757,-0.7489895224571228,0.3195934295654297
1788957702444336600,3.767336669921875,0.27737167477607727,-0.8303597569465637,0.3957904875278473
1788957702454386400,3.777386474609375,0.08430928736925125,-0.6444770097732544,0.4297164976596832
1788957702464437500,3.7874375,0.013510748744010925,-0.5392685532569885,0.5426275730133057
1788957702474487600,3.797487548828125,0.14396968483924866,-0.35577303171157837,0.5272736549377441
1788957702484537600,3.80753759765625,0.2943274974822998,-0.17759476602077484,0.4364052712917328
1788957702494587600,3.817587646484375,0.416469931602478,0.06646131724119186,0.2932385206222534
1788957702504639000,3.827638916015625,0.5080429911613464,0.246718168258667,0.14444373548030853
1788957702514688800,3.837688720703125,0.5786452293395996,0.2771197557449341,0.002623746171593666
1788957702524738800,3.84773876953125,0.5860978364944458,0.17647303640842438,-0.08917754888534546
1788957702534788900,3.857788818359375,0.5337241291999817,0.004315119702368975,-0.09248092770576477
1788957702544840000,3.86783984375,0.42469242215156555,-0.1555568426847458,-0.06740008294582367
1788957702554890000,3.877889892578125,0.2658979892730713,-0.27373167872428894,-0.03358432650566101
1788957702564939800,3.887939697265625,0.1149473562836647,-0.31364527344703674,-0.0032208270858973265
1788957702574989800,3.89798974609375,0.024398550391197205,-0.3332546651363373,0.024080568924546242
1788957702585041000,3.908041015625,-0.016629043966531754,-0.3056957423686981,0.05128129571676254
1788957702595091000,3.918091064453125,-0.031927041709423065,-0.2730661630630493,0.08737751841545105
1788957702605141000,3.92814111328125,-0.029316343367099762,-0.2328455001115799,0.12062974274158478
1788957702615192000,3.938192138671875,-0.0029561088886111975,-0.18482017517089844,0.1594596952199936
1788957702625241900,3.948241943359375,0.039077628403902054,-0.1523708999156952,0.2187509834766388
1788957702635292000,3.9582919921875,0.08805608749389648,-0.12705861032009125,0.2902320921421051
1788957702645342000,3.968342041015625,0.12361514568328857,-0.14725735783576965,0.3509042263031006
1788957702655392800,3.978392822265625,0.1537829041481018,-0.22358329594135284,0.38206401467323303
1788957702665442800,3.98844287109375,0.17402692139148712,-0.3094278872013092,0.36623844504356384
1788957702675492900,3.998492919921875,0.18676163256168365,-0.41270527243614197,0.3235018849372864
1788957702685543000,4.00854296875,0.1960936039686203,-0.5099013447761536,0.25725921988487244
1788957702695593700,4.01859375,0.1782810539007187,-0.5532128810882568,0.24727477133274078
1788957702705643800,4.028643798828125,0.16853894293308258,-0.5682882070541382,0.26860880851745605
1788957702715693800,4.03869384765625,0.1487543284893036,-0.48688122630119324,0.29953691363334656
1788957702725743900,4.048743896484375,0.12929514050483704,-0.35806572437286377,0.3129933178424835
1788957702735794700,4.058794677734375,0.1053386703133583,-0.22541581094264984,0.31013521552085876
1788957702745844700,4.0688447265625,0.1053280234336853,-0.12232165038585663,0.2886866629123688
1788957702755894800,4.078894775390625,0.1293204426765442,-0.03816496208310127,0.258116751909256
1788957702765944800,4.08894482421875,0.13439349830150604,0.025184981524944305,0.23302792012691498
1788957702775995600,4.09899560546875,0.1339482069015503,0.03502429649233818,0.18671448528766632
1788957702786045700,4.109045654296875,0.13206163048744202,-0.0019036275334656239,0.14733432233333588
1788957702796095700,4.119095703125,0.13006478548049927,-0.015979498624801636,0.1285494565963745
1788957702806145800,4.129145751953125,0.12340076267719269,-0.023021163418889046,0.14218802750110626
1788957702816196900,4.13919677734375,0.10993316024541855,-0.05678418651223183,0.1641940027475357
1788957702826246700,4.14924658203125,0.09266947954893112,-0.1048305407166481,0.18869082629680634
1788957702836296700,4.159296630859375,0.09065186977386475,-0.14720329642295837,0.20557498931884766
1788957702846347800,4.16934765625,0.08774476498365402,-0.08603368699550629,0.22162559628486633
1788957702856397800,4.179397705078125,0.0904713124036789,0.0167922955006361,0.24757464230060577
1788957702866448000,4.18944775390625,0.09918703883886337,0.10379590094089508,0.27169302105903625
1788957702876497700,4.19949755859375,0.08491489291191101,0.20485754311084747,0.3277544379234314
1788957702886548700,4.209548828125,0.05626407265663147,0.23049792647361755,0.40503057837486267
1788957702896598800,4.219598876953125,0.026025742292404175,0.21471256017684937,0.4494662284851074
1788957702906648800,4.22964892578125,0.009913084097206593,0.1657319813966751,0.4536082446575165
1788957702916699000,4.239698974609375,0.011288341134786606,0.10569953173398972,0.4540444612503052
1788957702926750000,4.24975,0.03302612528204918,0.07028348743915558,0.4566631615161896
1788957702936799700,4.2597998046875,0.04728442430496216,0.09161433577537537,0.45714226365089417
1788957702946849800,4.269849853515625,0.05032309144735336,0.150573268532753,0.4623074531555176
1788957702956899800,4.27989990234375,0.050214700400829315,0.20683600008487701,0.47053900361061096
1788957702966951000,4.289950927734375,0.03893781080842018,0.2955959737300873,0.44686219096183777
1788957702977001000,4.3000009765625,0.017053551971912384,0.4174872636795044,0.38699111342430115
1788957702987050800,4.31005078125,-0.001520665013231337,0.4993552267551422,0.3243202865123749
1788957702997100800,4.320100830078125,-0.013862285763025284,0.5076680183410645,0.26487720012664795
1788957703007151900,4.33015185546875,0.0039017973467707634,0.4884924590587616,0.2275141179561615
1788957703017202000,4.340201904296875,0.01859259232878685,0.34900352358818054,0.19627949595451355
1788957703027251700,4.350251708984375,0.004742557182908058,0.5660396814346313,0.1741720587015152
1788957703037301800,4.3603017578125,0.014506504870951176,0.5722635388374329,0.08578068763017654
1788957703047352800,4.370352783203125,0.003691940102726221,0.5264819264411926,0.073867566883564
1788957703057403000,4.38040283203125,-0.0032256206031888723,0.5416792631149292,0.13582095503807068
1788957703067453000,4.390452880859375,0.02375832572579384,0.5896055102348328,0.21176019310951233
1788957703077504000,4.40050390625,0.07269684225320816,0.579426109790802,0.27226242423057556
1788957703087553800,4.4105537109375,0.13343475759029388,0.5153070092201233,0.33032357692718506
1788957703097603800,4.420603759765625,0.17456302046775818,0.4559915065765381,0.3840797543525696
1788957703107654000,4.43065380859375,0.18567772209644318,0.3275808095932007,0.39009156823158264
1788957703117705000,4.440705078125,0.1669357270002365,0.2010452300310135,0.3602769672870636
1788957703127755000,4.450755126953125,0.07914169132709503,0.08341872692108154,0.3053726851940155
1788957703137804800,4.4608046875,-0.0280353631824255,-0.023909593001008034,0.20293819904327393
1788957703147854800,4.470854736328125,-0.13287149369716644,-0.05475272610783577,0.06369748711585999
1788957703157906000,4.480906005859375,-0.1687336266040802,-0.04535336792469025,-0.048120658844709396
1788957703167956000,4.4909560546875,-0.1727970689535141,0.04818670451641083,-0.15019668638706207
1788957703178006000,4.501006103515625,-0.16983377933502197,0.1494067907333374,-0.21583110094070435
1788957703188055800,4.511055908203125,-0.16473062336444855,0.23510891199111938,-0.24855148792266846
1788957703198107000,4.52110693359375,-0.15105050802230835,0.3064105212688446,-0.2669707238674164
1788957703208157000,4.531156982421875,-0.12488947063684464,0.40476346015930176,-0.29045847058296204
1788957703218207000,4.54120703125,-0.09813908487558365,0.5085705518722534,-0.3264092803001404
1788957703228257000,4.551257080078125,-0.07901838421821594,0.5617642402648926,-0.37244492769241333
1788957703238307800,4.561307861328125,-0.07583457976579666,0.5589091181755066,-0.4262186884880066
1788957703248358000,4.57135791015625,-0.0869295746088028,0.5287591814994812,-0.46658527851104736
1788957703258408000,4.581407958984375,-0.11232893913984299,0.48167023062705994,-0.467803418636322
1788957703268458800,4.591458740234375,-0.16723719239234924,0.43290480971336365,-0.4413350522518158
1788957703278508800,4.6015087890625,-0.21372054517269135,0.3892880976200104,-0.39640194177627563
1788957703288558800,4.611558837890625,-0.25022822618484497,0.3627411723136902,-0.3269171416759491
1788957703298609000,4.62160888671875,-0.279737651348114,0.38232845067977905,-0.24559564888477325
1788957703308659700,4.63165966796875,-0.31772708892822266,0.40200096368789673,-0.17942622303962708
1788957703318709800,4.641709716796875,-0.3426055610179901,0.39584559202194214,-0.13216815888881683
1788957703328759800,4.651759765625,-0.34411635994911194,0.37947356700897217,-0.08937887847423553
1788957703338809900,4.661809814453125,-0.341536283493042,0.347287654876709,-0.05712507292628288
1788957703348860700,4.671860595703125,-0.34845998883247375,0.2592267692089081,-0.03735030069947243
1788957703358910700,4.68191064453125,-0.3405575752258301,0.1598075032234192,-0.026381006464362144
1788957703368960800,4.691960693359375,-0.3147081434726715,0.07866791635751724,-0.043471310287714005
1788957703379010800,4.7020107421875,-0.2989126741886139,0.047684963792562485,-0.07816164940595627
1788957703389062000,4.712061767578125,-0.29890546202659607,0.0325467586517334,-0.09287534654140472
1788957703399111700,4.722111572265625,-0.31282714009284973,0.0578095018863678,-0.11597400903701782
1788957703409161700,4.73216162109375,-0.3311566114425659,0.10683830082416534,-0.1632714867591858
1788957703419211800,4.742211669921875,-0.34083375334739685,0.13284406065940857,-0.20833376049995422
1788957703429262800,4.752262939453125,-0.33158060908317566,0.13684573769569397,-0.24556688964366913
1788957703439313000,4.76231298828125,-0.3046427369117737,0.1532777100801468,-0.2685089409351349
1788957703449362700,4.77236279296875,-0.26147153973579407,0.1697259247303009,-0.29587799310684204
1788957703459412700,4.782412841796875,-0.23083268105983734,0.1833336055278778,-0.33958420157432556
1788957703469463800,4.7924638671875,-0.2266688346862793,0.1920171082019806,-0.37106889486312866
1788957703479513900,4.802513916015625,-0.2263636291027069,0.1700068861246109,-0.34023427963256836
1788957703489564000,4.81256396484375,-0.21464039385318756,0.143101766705513,-0.2490638792514801
1788957703499614700,4.82261474609375,-0.18431711196899414,0.13172553479671478,-0.12903787195682526
1788957703509664800,4.832664794921875,-0.1466970294713974,0.14460459351539612,-0.03411855548620224
1788957703519714800,4.84271484375,-0.11019521206617355,0.1611127257347107,0.04187075048685074
1788957703529764900,4.852764892578125,-0.06185777485370636,0.14813247323036194,0.09566447138786316
1788957703539816000,4.86281591796875,-0.010075537487864494,0.10380948334932327,0.11718414723873138
1788957703549866000,4.872865966796875,0.037036582827568054,0.04237808287143707,0.09369373321533203
1788957703559915800,4.882915771484375,0.07363667339086533,-0.020364927127957344,0.04502180218696594
1788957703569965800,4.8929658203125,0.1034126728773117,-0.08209194242954254,-0.021079186350107193
1788957703580017000,4.903016845703125,0.1226433590054512,-0.15080416202545166,-0.07286408543586731
1788957703590067000,4.91306689453125,0.14769412577152252,-0.19579720497131348,-0.09870047867298126
1788957703600117000,4.923116943359375,0.15469317138195038,-0.20312754809856415,-0.11005166918039322
1788957703610166800,4.933166748046875,0.137797549366951,-0.18823914229869843,-0.09586820751428604
1788957703620217900,4.9432177734375,0.1191391721367836,-0.1641300767660141,-0.04176102951169014
1788957703630268000,4.953267822265625,0.11524882912635803,-0.14253930747509003,0.03332946076989174
1788957703640318000,4.96331787109375,0.12339836359024048,-0.11176328361034393,0.11440566927194595
1788957703650368000,4.973367919921875,0.14945393800735474,-0.0760020911693573,0.18201294541358948
1788957703660419000,4.983419189453125,0.18469740450382233,-0.030159499496221542,0.22308580577373505
1788957703670468900,4.99346875,0.22736550867557526,0.015212775208055973,0.21564680337905884
1788957703680519000,5.003518798828125,0.26386919617652893,0.04657522588968277,0.16523928940296173
1788957703690569000,5.01356884765625,0.30916503071784973,0.05511917918920517,0.103286974132061
1788957703700620000,5.0236201171875,0.3660906255245209,0.04970071092247963,0.04528998211026192
1788957703710670000,5.033670166015625,0.4389137029647827,0.06680459529161453,-0.01266679260879755
1788957703720720000,5.043719970703125,0.49153459072113037,0.09898730367422104,-0.06899584829807281
1788957703730770000,5.05377001953125,0.5303133726119995,0.138618603348732,-0.1202627643942833
1788957703740821000,5.063821044921875,0.5593171119689941,0.16075240075588226,-0.1420207917690277
1788957703750871000,5.07387109375,0.5708805322647095,0.1777082085609436,-0.14734230935573578
1788957703760920800,5.0839208984375,0.5622918605804443,0.2092251181602478,-0.17741605639457703
1788957703770971000,5.093970947265625,0.5384541749954224,0.25177258253097534,-0.234501451253891
1788957703781022000,5.10402197265625,0.5144076943397522,0.2510322332382202,-0.2997848391532898
1788957703791072000,5.114072021484375,0.4924357831478119,0.2079731673002243,-0.3821156620979309
1788957703801122000,5.1241220703125,0.474006712436676,0.13838423788547516,-0.47929975390434265
1788957703811172900,5.1341728515625,0.4484960436820984,0.05373832955956459,-0.5181928277015686
1788957703821222700,5.14422265625,0.4261065721511841,-0.0088776471093297,-0.49034494161605835
1788957703831273000,5.15427294921875,0.38870832324028015,-0.02629099227488041,-0.4605976939201355
1788957703841323000,5.164322998046875,0.33638253808021545,0.009732522070407867,-0.45516031980514526
1788957703851373800,5.174373779296875,0.2521936297416687,0.0643686056137085,-0.44102028012275696
1788957703861423900,5.184423828125,0.16169755160808563,0.08747552335262299,-0.39721205830574036
1788957703871473700,5.1944736328125,0.1053416058421135,0.11372443288564682,-0.3451531231403351
1788957703881524000,5.20452392578125,0.08072227984666824,0.15096288919448853,-0.30473726987838745
1788957703891574800,5.21457470703125,0.0484897717833519,0.20031099021434784,-0.2980942726135254
1788957703901624800,5.224624755859375,-0.0012253203894942999,0.22510848939418793,-0.306266725063324
1788957703911675000,5.2346748046875,-0.06156083196401596,0.21043552458286285,-0.3003190755844116
1788957703921724700,5.244724609375,-0.10416129231452942,0.15667963027954102,-0.28523334860801697
1788957703931775700,5.254775634765625,-0.12214960902929306,0.09956201165914536,-0.2862892746925354
1788957703941825800,5.26482568359375,-0.12633317708969116,0.06860888749361038,-0.3009406626224518
1788957703951875800,5.274875732421875,-0.12473367899656296,0.006293049547821283,-0.3295813500881195
1788957703961926000,5.28492578125,-0.11704832315444946,-0.11403549462556839,-0.3979108929634094
1788957703971976700,5.294976806640625,-0.12377813458442688,-0.26450541615486145,-0.43403321504592896
1788957703982026800,5.30502685546875,-0.1376097947359085,-0.42650896310806274,-0.3913978636264801
1788957703992076800,5.315076904296875,-0.1597883254289627,-0.5409433841705322,-0.3117690682411194
1788957704002126800,5.325126953125,-0.18543297052383423,-0.6003870368003845,-0.22650450468063354
1788957704012178000,5.335177978515625,-0.21603216230869293,-0.6036957502365112,-0.1434788703918457
1788957704022227700,5.345227783203125,-0.22917033731937408,-0.6045159697532654,-0.07491285353899002
1788957704032277800,5.35527783203125,-0.21166777610778809,-0.5970879197120667,-0.03705895319581032
1788957704042327800,5.365327880859375,-0.18844714760780334,-0.5729449987411499,-0.02069089747965336
1788957704052379000,5.37537890625,-0.15886501967906952,-0.522948145866394,-0.031899344176054
1788957704062429000,5.385428955078125,-0.1335383504629135,-0.4736117720603943,-0.06613507866859436
1788957704072478700,5.395478759765625,-0.11964384466409683,-0.4561733901500702,-0.11530528962612152
1788957704082528800,5.40552880859375,-0.11749813705682755,-0.4582969844341278,-0.1743054836988449
1788957704092579800,5.415579833984375,-0.12878088653087616,-0.4361133873462677,-0.23348385095596313
1788957704102630000,5.4256298828125,-0.16907158493995667,-0.35366910696029663,-0.28392520546913147
1788957704112680000,5.435679931640625,-0.20045693218708038,-0.24872513115406036,-0.28669995069503784
1788957704122731000,5.44573095703125,-0.20441998541355133,-0.20162712037563324,-0.2376013696193695
1788957704132780800,5.45578076171875,-0.15448836982250214,-0.19131456315517426,-0.13859276473522186
1788957704142830800,5.465830810546875,-0.08682890236377716,-0.18545986711978912,-0.002281796419993043
1788957704152881000,5.475880859375,-0.01363325398415327,-0.16379079222679138,0.15253575146198273
1788957704162932000,5.485931884765625,0.04358769208192825,-0.15432165563106537,0.2866373658180237
1788957704172982000,5.49598193359375,0.07252693176269531,-0.1810680478811264,0.37064942717552185
1788957704183031800,5.50603173828125,0.08861055970191956,-0.2125580757856369,0.40152105689048767
1788957704193081900,5.516081787109375,0.08722171932458878,-0.24659407138824463,0.3674589693546295
1788957704203133000,5.5261328125,0.062015432864427567,-0.2999124228954315,0.2653999924659729
1788957704213183000,5.536182861328125,0.00044767739018425345,-0.35047200322151184,0.12803946435451508
1788957704223233000,5.54623291015625,-0.06672549992799759,-0.37251338362693787,-0.007089600898325443
1788957704233282800,5.55628271484375,-0.1540904939174652,-0.3605573773384094,-0.1520095020532608
1788957704243334000,5.566333984375,-0.20612066984176636,-0.3464199900627136,-0.2783123254776001
1788957704253384000,5.576384033203125,-0.23548975586891174,-0.3572145998477936,-0.36380138993263245
1788957704263434000,5.58643408203125,-0.21636931598186493,-0.3708350658416748,-0.3966948986053467
1788957704273484000,5.596484130859375,-0.15927940607070923,-0.3682219684123993,-0.39056429266929626
1788957704283534800,5.606534912109375,-0.07765457779169083,-0.37296584248542786,-0.3724244236946106
1788957704293585000,5.6165849609375,-0.005535646807402372,-0.4034214913845062,-0.3704606294631958
1788957704303635000,5.626635009765625,0.03507942333817482,-0.41710349917411804,-0.36693140864372253
1788957704313685000,5.63668505859375,0.05163682997226715,-0.37588921189308167,-0.30337265133857727
1788957704323736000,5.646736083984375,0.06113472580909729,-0.30550533533096313,-0.16602759063243866
1788957704333785900,5.656785888671875,0.0870712548494339,-0.20669512450695038,0.023926904425024986
1788957704343836000,5.6668359375,0.12488707154989243,-0.08039204776287079,0.24596555531024933
1788957704353886000,5.676885986328125,0.1638595014810562,0.06308895349502563,0.451962411403656
1788957704363937000,5.68693701171875,0.1862524300813675,0.1675005853176117,0.5862376689910889
1788957704373987000,5.696987060546875,0.22448956966400146,0.22029241919517517,0.6378316283226013
1788957704384036900,5.707036865234375,0.2556125819683075,0.21759304404258728,0.630988359451294
1788957704394087700,5.717087646484375,0.2821504771709442,0.165967658162117,0.5945083498954773
1788957704404137700,5.7271376953125,0.2792961001396179,0.09947652369737625,0.5267311930656433
1788957704414188000,5.73718798828125,0.2523518204689026,0.1043732762336731,0.4380364716053009
1788957704424238000,5.747238037109375,0.2179938554763794,0.17380960285663605,0.3457891047000885
1788957704434289000,5.757288818359375,0.17360295355319977,0.25061091780662537,0.25633299350738525
1788957704444338700,5.767338623046875,0.12930819392204285,0.29859521985054016,0.1954379379749298
1788957704454388700,5.777388671875,0.10498979687690735,0.29133784770965576,0.18742981553077698
1788957704464439000,5.78743896484375,0.09286416321992874,0.27136147022247314,0.2186117023229599
1788957704474489900,5.79748974609375,0.06402532011270523,0.20846186578273773,0.3002261221408844
1788957704484540000,5.807539794921875,0.0323675274848938,0.18319325149059296,0.389841228723526
1788957704494589700,5.817589599609375,0.024391891434788704,0.2129327803850174,0.4598453640937805
1788957704504639700,5.8276396484375,0.0368749275803566,0.24443770945072174,0.48190513253211975
1788957704514690000,5.83768994140625,0.046067092567682266,0.27282753586769104,0.427941232919693
1788957704524740000,5.847739990234375,0.00464588450267911,0.289527952671051,0.275188684463501
1788957704534790400,5.857790283203125,-0.07436664402484894,0.286840558052063,0.0809347927570343
1788957704544840200,5.867840087890625,-0.14636759459972382,0.2686692774295807,-0.0433136522769928
1788957704554891000,5.87789111328125,-0.1844199150800705,0.25453242659568787,-0.06407245993614197
1788957704564941000,5.887941162109375,-0.1793157011270523,0.2882933020591736,-0.032774992287158966
1788957704574991000,5.8979912109375,-0.17054004967212677,0.3411317467689514,0.009530654177069664
1788957704585041400,5.90804150390625,-0.1741715371608734,0.37954652309417725,0.0706762969493866
1788957704595092200,5.91809228515625,-0.18426917493343353,0.42007529735565186,0.14204369485378265
1788957704605142000,5.92814208984375,-0.2029659003019333,0.4860559105873108,0.18923357129096985
1788957704615192000,5.938192138671875,-0.22690558433532715,0.5492244958877563,0.2398482859134674
1788957704625242000,5.9482421875,-0.22317104041576385,0.6188022494316101,0.30280888080596924
1788957704635293200,5.958293212890625,-0.20616035163402557,0.6839982867240906,0.3341068625450134
1788957704645343200,5.96834326171875,-0.1931936889886856,0.7197408676147461,0.2932574450969696
1788957704655393000,5.97839306640625,-0.18249018490314484,0.7034137845039368,0.19389250874519348
1788957704665443000,5.988443115234375,-0.15440262854099274,0.6463593244552612,0.05648857727646828
1788957704675494100,5.998494140625,-0.14205807447433472,0.5715255737304688,-0.09059274941682816
1788957704685544200,6.008544189453125,-0.1556425839662552,0.4795934855937958,-0.20871379971504211
1788957704695594200,6.01859423828125,-0.17358218133449554,0.387633740901947,-0.26590144634246826
1788957704705644000,6.02864404296875,-0.17343410849571228,0.3250337541103363,-0.27901726961135864
1788957704715695000,6.038695068359375,-0.15206463634967804,0.2546032667160034,-0.27806970477104187
1788957704725745200,6.0487451171875,-0.12085770815610886,0.2022756040096283,-0.26423537731170654
1788957704735795200,6.058795166015625,-0.0926271378993988,0.17758063971996307,-0.25079840421676636
1788957704745845200,6.06884521484375,-0.08230739086866379,0.19658122956752777,-0.24415381252765656
1788957704755896000,6.07889599609375,-0.07634563744068146,0.24557220935821533,-0.22533778846263885
1788957704765946000,6.088946044921875,-0.059609267860651016,0.30343446135520935,-0.18123877048492432
1788957704775996200,6.09899609375,-0.034504182636737823,0.33908405900001526,-0.1171812191605568
1788957704786046200,6.109046142578125,-0.017531055957078934,0.3676600456237793,-0.05385177955031395
1788957704796097300,6.11909716796875,-0.002642654813826084,0.3584494888782501,0.010047308169305325
1788957704806147000,6.12914697265625,0.009765544906258583,0.3328453302383423,0.07514641433954239
1788957704816197000,6.139197021484375,0.021029384806752205,0.3044893145561218,0.12096450477838516
1788957704826248200,6.149248291015625,0.037211284041404724,0.27309224009513855,0.15623940527439117
1788957704836298200,6.15929833984375,0.05356575548648834,0.2671605944633484,0.19213908910751343
1788957704846348300,6.169348388671875,0.08804570138454437,0.2668612599372864,0.2245662659406662
1788957704856398000,6.179398193359375,0.12278211116790771,0.318183571100235,0.22678200900554657
1788957704866449200,6.18944921875,0.14521658420562744,0.3770029544830322,0.22488157451152802
1788957704876499200,6.199499267578125,0.16339318454265594,0.42743736505508423,0.22508904337882996
1788957704886549200,6.20954931640625,0.1783612221479416,0.46792832016944885,0.21443293988704681
1788957704896599300,6.219599365234375,0.18785272538661957,0.5133216381072998,0.1970805823802948
1788957704906650400,6.229650390625,0.1749715507030487,0.5431402325630188,0.1711730808019638
1788957704916700200,6.2397001953125,0.10850942879915237,0.5017938613891602,0.13092073798179626
1788957704926750200,6.249750244140625,0.08025436103343964,0.40931400656700134,0.12941046059131622
1788957704936800300,6.25980029296875,0.11836179345846176,0.34513261914253235,0.14320030808448792
1788957704946851300,6.269851318359375,0.16744358837604523,0.30267730355262756,0.09567566215991974
1788957704956901400,6.2799013671875,0.2040008008480072,0.29383403062820435,0.004519917070865631
1788957704966951200,6.289951171875,0.2296568900346756,0.30693304538726807,-0.0424068458378315
1788957704977001200,6.300001220703125,0.2542565166950226,0.33896127343177795,-0.028259867802262306
1788957704987052300,6.31005224609375,0.284413605928421,0.38767796754837036,0.0265413299202919
1788957704997102300,6.320102294921875,0.30587950348854065,0.43242865800857544,0.08087141066789627
1788957705007152400,6.33015234375,0.30602702498435974,0.47834765911102295,0.08264880627393723
1788957705017202200,6.3402021484375,0.29382389783859253,0.48851802945137024,0.05825105682015419
1788957705027253200,6.350253173828125,0.2768973708152771,0.4593406915664673,0.04103531688451767
1788957705037303300,6.36030322265625,0.2771533131599426,0.43425583839416504,0.04664180427789688
1788957705047353300,6.370353271484375,0.2850394546985626,0.44206875562667847,0.05377907678484917
1788957705057403400,6.3804033203125,0.2908443510532379,0.4645165503025055,0.04355733096599579
1788957705067454200,6.3904541015625,0.2846357226371765,0.5002945065498352,0.017307084053754807
1788957705077504300,6.400504150390625,0.2672836482524872,0.524590790271759,-0.003939347807317972
1788957705087554300,6.41055419921875,0.2609434425830841,0.5370895266532898,-0.009587646462023258
1788957705097604400,6.420604248046875,0.24342064559459686,0.5604662299156189,-0.01679975353181362
1788957705107655200,6.4306552734375,0.2248552143573761,0.5941706895828247,-0.027187412604689598
1788957705117705200,6.440705322265625,0.22182586789131165,0.594452440738678,-0.0566297248005867
1788957705127755300,6.45075537109375,0.22633247077465057,0.5490236878395081,-0.10157801955938339
1788957705137805300,6.460805419921875,0.24708914756774902,0.4850899875164032,-0.1686534583568573
1788957705147856100,6.470856201171875,0.2819203734397888,0.41470691561698914,-0.2385164350271225
1788957705157906200,6.48090625,0.32588621973991394,0.3427858352661133,-0.31955161690711975
1788957705167956200,6.490956298828125,0.34617525339126587,0.2888994514942169,-0.4094567596912384
1788957705178006300,6.50100634765625,0.3238811194896698,0.2171000987291336,-0.47667279839515686
1788957705188057000,6.51105712890625,0.2888355255126953,0.1625862568616867,-0.5067851543426514
1788957705198107100,6.521107177734375,0.2585870921611786,0.15998487174510956,-0.5375012755393982
1788957705208157200,6.5311572265625,0.2288331836462021,0.19017793238162994,-0.5521388053894043
1788957705218207200,6.541207275390625,0.21647079288959503,0.1789412498474121,-0.5123932361602783
1788957705228258000,6.551258056640625,0.2056029587984085,0.1476467102766037,-0.44965025782585144
1788957705238308000,6.56130810546875,0.18884767591953278,0.11995010823011398,-0.3983827829360962
1788957705248358100,6.571358154296875,0.16518789529800415,0.13258680701255798,-0.3635507822036743
1788957705258408200,6.581408203125,0.15079110860824585,0.1750652939081192,-0.34199434518814087
1788957705268459300,6.591459228515625,0.13195723295211792,0.2232232242822647,-0.3409234881401062
1788957705278509000,6.601509033203125,0.10500098764896393,0.2817608416080475,-0.3669292628765106
1788957705288559000,6.61155908203125,0.07323932647705078,0.33058270812034607,-0.40562471747398376
1788957705298609200,6.621609130859375,0.04777471348643303,0.3540225327014923,-0.4378519058227539
1788957705308660200,6.63166015625,0.04238127917051315,0.35261955857276917,-0.4628550112247467
1788957705318710300,6.641710205078125,0.05173137038946152,0.3328858017921448,-0.4679592251777649
1788957705328760000,6.651760009765625,0.06043218448758125,0.3065735101699829,-0.4589689075946808
1788957705338810000,6.66181005859375,0.051667720079422,0.27996188402175903,-0.44809070229530334
1788957705348861200,6.671861083984375,0.03014485351741314,0.2294108271598816,-0.3883517384529114
1788957705358911200,6.6819111328125,0.028076108545064926,0.15402711927890778,-0.25809624791145325
1788957705368961000,6.6919609375,0.033376600593328476,0.0975092425942421,-0.10486942529678345
1788957705379011000,6.702010986328125,0.041548240929841995,0.06427139788866043,0.04902559891343117
1788957705389062100,6.712062255859375,0.04393550008535385,0.05913202837109566,0.17173926532268524
1788957705399112200,6.7221123046875,0.035658929497003555,0.09704052656888962,0.24742630124092102
1788957705409162200,6.732162353515625,0.026436667889356613,0.17683762311935425,0.2670348882675171
1788957705419212000,6.7422119140625,0.030892934650182724,0.28998255729675293,0.2564741373062134
1788957705429263000,6.75226318359375,0.05834666267037392,0.35547980666160583,0.23654596507549286
1788957705439313200,6.762313232421875,0.08515723794698715,0.3964264392852783,0.18495173752307892
1788957705449363200,6.77236328125,0.10332212597131729,0.455740362405777,0.11914343386888504
1788957705459413200,6.782413330078125,0.12678883969783783,0.5090523362159729,0.058402854949235916
1788957705469464300,6.79246435546875,0.15423697233200073,0.5423815250396729,0.009289904497563839
1788957705479514000,6.80251416015625,0.17776121199131012,0.561942458152771,-0.033914290368556976
1788957705489564200,6.812564208984375,0.1802171766757965,0.5686626434326172,-0.06154565140604973
1788957705499615200,6.822615234375,0.1560484617948532,0.5051110982894897,-0.06878918409347534
1788957705509665800,6.832665771484375,0.08571570366621017,0.40565454959869385,-0.07953104376792908
1788957705519715800,6.8427158203125,0.006376939360052347,0.3285331428050995,-0.046359773725271225
1788957705529765600,6.852765625,-0.05248504504561424,0.2609700858592987,0.042162634432315826
1788957705539816700,6.862816650390625,-0.10036814957857132,0.23544767498970032,0.13593652844429016
1788957705549866800,6.87286669921875,-0.13409362733364105,0.24557806551456451,0.198728546500206
1788957705559916800,6.882916748046875,-0.16106878221035004,0.24460361897945404,0.19328637421131134
1788957705569966800,6.892966796875,-0.18280257284641266,0.19726699590682983,0.13311997056007385
1788957705580018000,6.903017822265625,-0.20744560658931732,0.13191968202590942,0.045949116349220276
1788957705590067700,6.913067626953125,-0.21057161688804626,0.14692579209804535,-0.010403105989098549
1788957705600117800,6.92311767578125,-0.21060863137245178,0.18935954570770264,-0.05190953612327576
1788957705610167800,6.933167724609375,-0.2033400684595108,0.301183819770813,-0.032950226217508316
1788957705620219000,6.943218994140625,-0.1880687028169632,0.3845452666282654,0.009906427003443241
1788957705630269000,6.95326904296875,-0.12971006333827972,0.4288584291934967,0.09800805896520615
1788957705640318700,6.963318603515625,-0.06030701473355293,0.3930455446243286,0.20814627408981323
1788957705650368800,6.97336865234375,-0.015926236286759377,0.3661864995956421,0.2842128276824951
1788957705660419600,6.983419677734375,-0.007072290405631065,0.376953125,0.3179398775100708
1788957705670470000,6.993469970703125,0.00016165387933142483,0.3759011924266815,0.32172876596450806
1788957705680520000,7.00352001953125,0.03332173824310303,0.3856358528137207,0.31271183490753174
1788957705690569700,7.01356982421875,0.08451808243989944,0.44066688418388367,0.2920025587081909
1788957705700620500,7.02362060546875,0.1341514140367508,0.508378267288208,0.2752787172794342
1788957705710670600,7.033670654296875,0.16109222173690796,0.521162748336792,0.2677187919616699
1788957705720720600,7.043720703125,0.1438373327255249,0.497763991355896,0.26449769735336304
1788957705730771000,7.05377099609375,0.06740061193704605,0.45061323046684265,0.26185983419418335
1788957705740821500,7.063821533203125,-0.022430473938584328,0.44062453508377075,0.2571204900741577
1788957705750871600,7.07387158203125,-0.09549775719642639,0.4766616225242615,0.25735005736351013
1788957705760921600,7.083921630859375,-0.1226140633225441,0.5442907214164734,0.28442853689193726
1788957705770971600,7.0939716796875,-0.1481442004442215,0.5783538818359375,0.3254270851612091
1788957705781022700,7.104022705078125,-0.15278396010398865,0.6061306595802307,0.34906479716300964
1788957705791072500,7.114072509765625,-0.15191496908664703,0.6360899209976196,0.3417972922325134
1788957705801122600,7.12412255859375,-0.14325302839279175,0.6627609133720398,0.322216659784317
1788957705811172600,7.134172607421875,-0.11384241282939911,0.6920170783996582,0.31518006324768066
1788957705821223700,7.1442236328125,-0.07693339884281158,0.7111295461654663,0.3231801986694336
1788957705831273700,7.154273681640625,-0.04651210829615593,0.6942663788795471,0.31617555022239685
1788957705841323500,7.164323486328125,-0.038246989250183105,0.6151449084281921,0.2989467680454254
1788957705851373600,7.17437353515625,-0.05091431364417076,0.5105221271514893,0.2587665915489197
1788957705861424600,7.184424560546875,-0.07814939320087433,0.427312970161438,0.2120046615600586
1788957705871474700,7.194474609375,-0.11441366374492645,0.41492900252342224,0.16408774256706238
1788957705881524700,7.204524658203125,-0.1571163833141327,0.4536425769329071,0.11903690546751022
1788957705891574500,7.214574462890625,-0.20373262465000153,0.48762187361717224,0.058517903089523315
1788957705901625600,7.22462548828125,-0.25411510467529297,0.49865826964378357,-0.0007028082036413252
1788957705911675600,7.234675537109375,-0.2969807982444763,0.5055260062217712,-0.05855518952012062
1788957705921725700,7.2447255859375,-0.32499727606773376,0.5099721550941467,-0.11574523895978928
1788957705931775700,7.254775634765625,-0.3335404098033905,0.524664044380188,-0.13136841356754303
1788957705941826800,7.264826904296875,-0.35782870650291443,0.48698562383651733,-0.08908939361572266
1788957705951876600,7.274876708984375,-0.35910144448280334,0.44414976239204407,-0.050936684012413025
1788957705961926700,7.2849267578125,-0.3404289484024048,0.4219192862510681,-0.007470699492841959
1788957705971976700,7.294976806640625,-0.3004873991012573,0.41140511631965637,0.0215364508330822
1788957705982027800,7.30502783203125,-0.2982253134250641,0.4248162806034088,0.014628743752837181
1788957705992077800,7.315077880859375,-0.3391469120979309,0.48877981305122375,-0.02209571562707424
1788957706002127600,7.325127685546875,-0.38943058252334595,0.5565266013145447,-0.07203371077775955
1788957706012177700,7.335177734375,-0.4449700117111206,0.5955800414085388,-0.08628349006175995
1788957706022228700,7.345228759765625,-0.4802930951118469,0.6561483144760132,-0.050812315195798874
1788957706032278800,7.35527880859375,-0.47479528188705444,0.7652462720870972,0.03746534883975983
1788957706042328600,7.36532861328125,-0.4344119131565094,0.858053982257843,0.17081807553768158
1788957706052378600,7.375378662109375,-0.3684227764606476,0.9157271385192871,0.2485980987548828
1788957706062429700,7.3854296875,-0.2917221188545227,0.9281385540962219,0.25373372435569763
1788957706072479700,7.395479736328125,-0.20867465436458588,0.915884792804718,0.24837572872638702
1788957706082529800,7.40552978515625,-0.13394369184970856,0.9786150455474854,0.26758989691734314
1788957706092579600,7.41557958984375,-0.08422672748565674,1.1247283220291138,0.29475095868110657
1788957706102630700,7.425630615234375,-0.029873743653297424,1.27199387550354,0.3081754148006439
1788957706112680700,7.4356806640625,0.06536835432052612,1.3671795129776,0.2794143259525299
1788957706122730800,7.445730712890625,0.1496712565422058,1.4461885690689087,0.21933580935001373
1788957706132780800,7.45578076171875,0.23346468806266785,1.4718122482299805,0.11121919751167297
1788957706142831900,7.465831787109375,0.3456745743751526,1.3738774061203003,-0.02979198470711708
1788957706152881700,7.475881591796875,0.418456107378006,1.1711082458496094,-0.18219217658042908
1788957706162931700,7.485931640625,0.4277758300304413,0.9483221173286438,-0.21497249603271484
1788957706172981800,7.495981689453125,0.44932612776756287,0.7654662728309631,-0.07094927132129669
1788957706183032800,7.50603271484375,0.5012913346290588,0.6208097338676453,0.06278615444898605
1788957706193083000,7.516082763671875,0.482002317905426,0.5193949937820435,0.053354568779468536
1788957706203132700,7.526132568359375,0.423641562461853,0.4325309097766876,0.0169153343886137
1788957706213182700,7.5361826171875,0.3839806914329529,0.45423221588134766,-0.007164702285081148
1788957706223233800,7.54623388671875,0.3485744893550873,0.5752713084220886,-0.06505782902240753
1788957706233283800,7.556283935546875,0.3064954876899719,0.6539490818977356,-0.1481572389602661
1788957706243334000,7.566333984375,0.25795671343803406,0.6596303582191467,-0.25035393238067627
1788957706253383700,7.5763837890625,0.21658343076705933,0.6573659181594849,-0.3401951193809509
1788957706263434800,7.586434814453125,0.2244807779788971,0.659754753112793,-0.37677523493766785
1788957706273484800,7.59648486328125,0.2634095251560211,0.6791334748268127,-0.38563451170921326
1788957706283534800,7.606534912109375,0.30024266242980957,0.7413734197616577,-0.40573710203170776
1788957706293585000,7.6165849609375,0.3266713321208954,0.8060278296470642,-0.3976019620895386
1788957706303635700,7.6266357421875,0.3521263599395752,0.8253522515296936,-0.32971692085266113
1788957706313685800,7.636685791015625,0.3750170171260834,0.7627144455909729,-0.22322988510131836
1788957706323735800,7.64673583984375,0.3904998302459717,0.7048676013946533,-0.09722694754600525
1788957706333785900,7.656785888671875,0.36357128620147705,0.672154426574707,-0.00589543953537941
1788957706343836700,7.666836669921875,0.30317986011505127,0.7146092057228088,0.02430214360356331
1788957706353886700,7.67688671875,0.18887270987033844,0.7087814211845398,0.02576288767158985
1788957706363936800,7.686936767578125,0.0619930624961853,0.5959917306900024,0.02130608819425106
1788957706373986800,7.69698681640625,0.03557823225855827,0.4153708219528198,0.03597211465239525
1788957706384037600,7.70703759765625,0.13213859498500824,0.3236513137817383,0.0656604990363121
1788957706394087700,7.717087646484375,0.20842909812927246,0.33778098225593567,0.062063105404376984
1788957706404137700,7.7271376953125,0.248678520321846,0.3645223081111908,0.04743542522192001
1788957706414187800,7.737187744140625,0.3027244508266449,0.36237791180610657,0.01932709291577339
1788957706424238600,7.747238525390625,0.3823881149291992,0.29588064551353455,-0.042205777019262314
1788957706434288600,7.75728857421875,0.43844154477119446,0.16271141171455383,-0.09099781513214111
1788957706444338700,7.767338623046875,0.489883691072464,0.09452996402978897,-0.08928406983613968
1788957706454388700,7.777388671875,0.4963676929473877,0.18192718923091888,-0.04734035208821297
1788957706464439600,7.787439453125,0.4121001958847046,0.2216130793094635,0.03813406825065613
1788957706474489600,7.797489501953125,0.2392602562904358,0.16060832142829895,0.15534670650959015
1788957706484539600,7.80753955078125,0.044746432453393936,0.08755248785018921,0.20630337297916412
1788957706494589700,7.817589599609375,-0.037456028163433075,0.07468808442354202,0.13038703799247742
1788957706504640800,7.827640869140625,-0.21082301437854767,0.06175337731838226,0.09941553324460983
1788957706514690300,7.837690185546875,-0.22157366573810577,-0.0201587975025177,0.1683778315782547
1788957706524740000,7.847739990234375,-0.18807509541511536,-0.12794971466064453,0.24541322886943817
1788957706534790400,7.857790283203125,-0.19312791526317596,-0.18366357684135437,0.19787313044071198
1788957706544841200,7.86784130859375,-0.22111506760120392,-0.2245153933763504,0.11472658067941666
1788957706554891300,7.877891357421875,-0.19576896727085114,-0.25992026925086975,0.09593238681554794
1788957706564941300,7.88794140625,-0.13455301523208618,-0.2613884508609772,0.0973782166838646
1788957706574991000,7.8979912109375,-0.0884784683585167,-0.2033536583185196,0.09506739675998688
1788957706585042200,7.908042236328125,-0.10717279464006424,-0.11628932505846024,0.09479735046625137
1788957706595092200,7.91809228515625,-0.19667018949985504,-0.06406527012586594,0.060456421226263046
1788957706605142300,7.928142333984375,-0.3214978575706482,-0.05474899709224701,-0.004967061802744865
1788957706615192300,7.9381923828125,-0.45676007866859436,-0.10974700003862381,-0.06339921057224274
1788957706625243400,7.948243408203125,-0.580039381980896,-0.22161121666431427,-0.11688853800296783
1788957706635293200,7.958293212890625,-0.6124730110168457,-0.32904818654060364,-0.11167806386947632
1788957706645343200,7.96834326171875,-0.5376767516136169,-0.3285842835903168,0.007731689140200615
1788957706655393300,7.978393310546875,-0.3722364008426666,-0.22387944161891937,0.24643240869045258
1788957706665444400,7.9884443359375,-0.20207133889198303,-0.08594366908073425,0.5178223848342896
1788957706675494400,7.998494384765625,-0.06705094128847122,0.07060519605875015,0.69607013463974
1788957706685544200,8.008544189453126,0.00041199102997779846,0.1954379379749298,0.7518572211265564
1788957706695594200,8.01859423828125,0.06708822399377823,0.2381763458251953,0.6864031553268433
1788957706705645300,8.028645263671875,0.12392061203718185,0.2181302011013031,0.5313765406608582
1788957706715695400,8.0386953125,0.1125454530119896,0.1214127168059349,0.32932543754577637
1788957706725745400,8.048745361328125,-0.009637180715799332,0.020171048119664192,0.18866711854934692
1788957706735795200,8.058795166015624,-0.12368518859148026,-0.06888159364461899,0.17935989797115326
1788957706745846300,8.06884619140625,-0.19675220549106598,-0.17359869182109833,0.20985949039459229
1788957706755896300,8.078896240234375,-0.24897120893001556,-0.2500990629196167,0.2178764045238495
1788957706765946400,8.0889462890625,-0.28337153792381287,-0.3128308653831482,0.22646190226078033
1788957706775996400,8.098996337890625,-0.29259857535362244,-0.3162599503993988,0.2630481421947479
1788957706786047200,8.109047119140625,-0.24655412137508392,-0.23559094965457916,0.3214174509048462
1788957706796097300,8.11909716796875,-0.16508749127388,-0.10249947756528854,0.3794839382171631
1788957706806147300,8.129147216796875,-0.08860550075769424,0.08646644651889801,0.4393691122531891
1788957706816197400,8.139197265625,-0.022904783487319946,0.23087076842784882,0.49203020334243774
1788957706826248400,8.14924853515625,0.04518985003232956,0.34880244731903076,0.4979653060436249
1788957706836298200,8.15929833984375,0.0993870422244072,0.3983740210533142,0.4810640811920166
1788957706846348300,8.169348388671875,0.11627867072820663,0.3547796607017517,0.45526498556137085
1788957706856398300,8.1793984375,0.06971436738967896,0.2550314962863922,0.416626513004303
1788957706866448400,8.189448486328125,0.032275114208459854,0.14600913226604462,0.3810432255268097
1788957706876499500,8.19949951171875,0.008012652397155762,0.0709759071469307,0.336603045463562
1788957706886549200,8.20954931640625,-0.039386555552482605,0.12787380814552307,0.26679521799087524
1788957706896599300,8.219599365234375,-0.09884055703878403,0.25749120116233826,0.20466472208499908
1788957706906649300,8.2296494140625,-0.1302751749753952,0.3398135006427765,0.1618506908416748
1788957706916700400,8.239700439453125,-0.13197720050811768,0.3745538890361786,0.1797119677066803
1788957706926750500,8.24975048828125,-0.08898366987705231,0.39232784509658813,0.2636321783065796
1788957706936800300,8.25980029296875,-0.055511727929115295,0.4292088747024536,0.30492955446243286
1788957706946850300,8.269850341796875,-0.07287260890007019,0.4149588346481323,0.25638172030448914
1788957706956901400,8.2799013671875,-0.09377309679985046,0.2634875774383545,0.2408112734556198
1788957706966951400,8.289951416015626,-0.10479432344436646,0.1526169776916504,0.2945168614387512
1788957706977001500,8.30000146484375,-0.1207602396607399,0.17479097843170166,0.3752252757549286
1788957706987051300,8.31005126953125,-0.14814339578151703,0.22283786535263062,0.4703584611415863
1788957706997102300,8.320102294921876,-0.167925626039505,0.2540266811847687,0.5118694305419922
1788957707007152400,8.33015234375,-0.21728011965751648,0.29406410455703735,0.44267356395721436
1788957707017202400,8.340202392578124,-0.2718863785266876,0.3575029969215393,0.3282817304134369
1788957707027252500,8.35025244140625,-0.30106744170188904,0.4154893457889557,0.2647070288658142
1788957707037303600,8.360303466796875,-0.28752845525741577,0.45316082239151,0.2302055060863495
1788957707047353300,8.370353271484374,-0.2693808674812317,0.47151851654052734,0.17981557548046112
1788957707057403400,8.3804033203125,-0.26936355233192444,0.3986959755420685,0.15061640739440918
1788957707067453400,8.390453369140625,-0.26185929775238037,0.31001484394073486,0.12460637837648392
1788957707077504500,8.40050439453125,-0.26142922043800354,0.26401007175445557,0.05633677542209625
1788957707087554300,8.41055419921875,-0.2724115550518036,0.21282438933849335,-0.039078958332538605
1788957707097604400,8.420604248046875,-0.2827504873275757,0.1068689227104187,-0.07821810245513916
1788957707107654400,8.430654296875,-0.2716118097305298,0.0016594156622886658,-0.08764596283435822
1788957707117705500,8.44070556640625,-0.24856534600257874,-0.0688115581870079,-0.10308457165956497
1788957707127755500,8.450755615234375,-0.23858514428138733,-0.047568053007125854,-0.1009465903043747
1788957707137805300,8.460805419921876,-0.22314412891864777,0.020738568156957626,-0.02299639582633972
1788957707147855400,8.47085546875,-0.1790325939655304,0.11407250910997391,0.08427466452121735
1788957707157906200,8.48090625,-0.0863061249256134,0.27471891045570374,0.180070698261261
1788957707167956500,8.49095654296875,0.004826446995139122,0.45711588859558105,0.21287418901920319
1788957707178006500,8.501006591796875,0.06507620215415955,0.5270246863365173,0.13607367873191833
1788957707188056300,8.511056396484374,0.09625116735696793,0.462127685546875,0.00355878216214478
1788957707198107100,8.521107177734375,0.09777157008647919,0.37050801515579224,-0.09624451398849487
1788957707208157200,8.5311572265625,0.10046429187059402,0.2689627707004547,-0.17336033284664154
1788957707218207200,8.541207275390626,0.07359166443347931,0.12356801331043243,-0.2781354784965515
1788957707228257500,8.551257568359375,-0.004332430195063353,0.01858753338456154,-0.35813578963279724
1788957707238308400,8.561308349609375,-0.08332924544811249,-0.04098311811685562,-0.4003625810146332
1788957707248358100,8.571358154296876,-0.12297599017620087,-0.11634205281734467,-0.3917411267757416
1788957707258408200,8.581408203125,-0.16282567381858826,-0.12419465184211731,-0.37948182225227356
1788957707268458200,8.591458251953124,-0.1765931397676468,-0.10611312091350555,-0.40179723501205444
1788957707278509300,8.60150927734375,-0.16247466206550598,-0.11377157270908356,-0.45214003324508667
1788957707288559400,8.611559326171875,-0.11614178866147995,-0.1280439794063568,-0.5052322745323181
1788957707298609200,8.621609130859374,-0.0615730844438076,-0.06678062677383423,-0.5166508555412292
1788957707308659200,8.6316591796875,0.002353169023990631,0.014307833276689053,-0.4577087163925171
1788957707318710300,8.641710205078125,0.06918120384216309,0.09830473363399506,-0.35178840160369873
1788957707328760300,8.65176025390625,0.13084590435028076,0.17464451491832733,-0.22609971463680267
1788957707338810400,8.661810302734375,0.17221757769584656,0.23254242539405823,-0.08489571511745453
1788957707348860200,8.671860107421875,0.1692361682653427,0.25755029916763306,0.0754537433385849
1788957707358911200,8.6819111328125,0.12361088395118713,0.3444069027900696,0.23021084070205688
1788957707368961300,8.691961181640625,0.03254995495080948,0.45272141695022583,0.2753934860229492
1788957707379011300,8.70201123046875,-0.07983118295669556,0.530793309211731,0.26261085271835327
1788957707389061400,8.712061279296876,-0.17345035076141357,0.5069215297698975,0.27977919578552246
1788957707399112200,8.7221123046875,-0.22396118938922882,0.4966758191585541,0.29020705819129944
1788957707409162200,8.732162353515625,-0.18652859330177307,0.586761474609375,0.2599676549434662
1788957707419212300,8.74221240234375,-0.13043470680713654,0.5082374215126038,0.1688886135816574
1788957707429262300,8.752262451171875,-0.08087221533060074,0.48040735721588135,0.060327522456645966
1788957707439313400,8.7623134765625,-0.008746620267629623,0.4114503860473633,0.04923412576317787
1788957707449363200,8.77236328125,0.06335233896970749,0.3599326014518738,0.0830855667591095
1788957707459413200,8.782413330078125,0.09529110044240952,0.35625743865966797,0.08695700019598007
1788957707469463300,8.79246337890625,0.11007137596607208,0.33171534538269043,0.061650846153497696
1788957707479514400,8.802514404296875,0.09020206332206726,0.33482539653778076,-0.01888474076986313
1788957707489564400,8.812564453125,0.055267516523599625,0.36693885922431946,-0.11552739143371582
1788957707499614200,8.8226142578125,0.05693492293357849,0.348519891500473,-0.1437039077281952
1788957707509664500,8.83266455078125,0.0929832011461258,0.3083820641040802,-0.17901235818862915
1788957707519715600,8.842715576171875,0.12710362672805786,0.2625064551830292,-0.22845740616321564
1788957707529765600,8.852765625,0.18242865800857544,0.18706363439559937,-0.2557542622089386
1788957707539815700,8.862815673828125,0.21693630516529083,0.19644515216350555,-0.33564192056655884
1788957707549865500,8.872865478515624,0.22449621558189392,0.23499946296215057,-0.300099641084671
1788957707559916500,8.88291650390625,0.27526965737342834,0.30930671095848083,-0.09979024529457092
1788957707569966600,8.892966552734375,0.28184208273887634,0.3076068162918091,0.05486245080828667
1788957707580016600,8.9030166015625,0.2679148018360138,0.28139492869377136,0.13545210659503937
1788957707590066700,8.913066650390626,0.2598065435886383,0.18228831887245178,0.17268654704093933
1788957707600116500,8.923116455078125,0.2665390074253082,0.14524374902248383,0.12361754477024078
1788957707610167600,8.93316748046875,0.28331318497657776,0.11920016258955002,0.0346948616206646
1788957707620217600,8.943217529296875,0.32825616002082825,0.056537844240665436,-0.04072319343686104
1788957707630267600,8.953267578125,0.33561500906944275,-0.0005909554311074317,-0.059185825288295746
1788957707640317700,8.963317626953126,0.33099469542503357,-0.02305631712079048,-0.06465516239404678
1788957707650368800,8.97336865234375,0.2515624463558197,0.007308512926101685,-0.09592599421739578
1788957707660418600,8.98341845703125,0.22809335589408875,0.1256982684135437,-0.11009827256202698
1788957707670468600,8.993468505859376,0.19546882808208466,0.23742960393428802,-0.08253402262926102
1788957707680518700,9.0035185546875,0.17022553086280823,0.30814239382743835,-0.018505508080124855
1788957707690569700,9.01356982421875,0.17742379009723663,0.3379942774772644,0.07341349869966507
1788957707700619800,9.023619873046876,0.15856780111789703,0.3557026982307434,0.09290517121553421
1788957707710669600,9.033669677734375,0.11958684772253036,0.3823060989379883,0.021095165982842445
1788957707720719600,9.0437197265625,0.09368574619293213,0.3809095323085785,-0.05817488953471184
1788957707730770700,9.053770751953126,0.07843222469091415,0.32914674282073975,-0.112673819065094
1788957707740820700,9.06382080078125,0.06369215995073318,0.2541220188140869,-0.1723981350660324
1788957707750870500,9.07387060546875,0.0570630207657814,0.1751105636358261,-0.20131953060626984
1788957707760920600,9.083920654296875,0.04549131914973259,0.14340776205062866,-0.16521798074245453
1788957707770971600,9.0939716796875,0.04832438752055168,0.15920589864253998,-0.09080367535352707
1788957707781021700,9.104021728515624,0.005583050660789013,0.1261366307735443,-0.02725079655647278
1788957707791071700,9.11407177734375,0.030902255326509476,0.2024710774421692,0.08062320947647095
1788957707801121500,9.12412158203125,0.07025019079446793,0.25632739067077637,0.26088327169418335
1788957707811172600,9.134172607421876,0.13165363669395447,0.3034568130970001,0.4340941905975342
1788957707821222700,9.14422265625,0.10850037634372711,0.35018303990364075,0.4824659824371338
1788957707831272700,9.154272705078125,0.0667278990149498,0.3795718252658844,0.47015151381492615
1788957707841322800,9.16432275390625,0.06609566509723663,0.3740846514701843,0.4771338105201721
1788957707851373600,9.17437353515625,0.042204976081848145,0.3478463888168335,0.4059472382068634
1788957707861423600,9.184423583984374,-0.017549432814121246,0.3485310971736908,0.2633139193058014
1788957707871473700,9.1944736328125,-0.09205535799264908,0.3346562683582306,0.13387657701969147
1788957707881523700,9.204523681640625,-0.16291195154190063,0.3207141160964966,0.08998075872659683
1788957707891574500,9.214574462890624,-0.21044431626796722,0.2791789174079895,0.10155671834945679
1788957707901624600,9.22462451171875,-0.21291306614875793,0.19025781750679016,0.10841542482376099
1788957707911674600,9.234674560546875,-0.190492182970047,0.21654562652111053,0.14487862586975098
1788957707921724700,9.244724609375,-0.1637905240058899,0.33378809690475464,0.1974901705980301
1788957707931775500,9.254775390625,-0.13640710711479187,0.47099176049232483,0.27038514614105225
1788957707941825500,9.264825439453125,-0.07683353126049042,0.5337145328521729,0.34190434217453003
1788957707951875600,9.27487548828125,-0.09233126044273376,0.5806540846824646,0.3021755814552307
1788957707961925600,9.284925537109375,-0.12017487734556198,0.6429776549339294,0.2213590145111084
1788957707971976400,9.2949765625,-0.13384941220283508,0.6307939291000366,0.19230712950229645
1788957707982026500,9.305026611328126,-0.15458185970783234,0.47971174120903015,0.11521819978952408
1788957707992076500,9.31507666015625,-0.18798480927944183,0.32025817036628723,0.014743260107934475
1788957708002126600,9.325126708984374,-0.24205097556114197,0.2732435166835785,-0.053828343749046326
1788957708012176600,9.3351767578125,-0.29967567324638367,0.2881023585796356,-0.06972502171993256
1788957708022227500,9.3452275390625,-0.3307321071624756,0.2122235745191574,0.027696343138813972
1788957708032277500,9.355277587890624,-0.3021782338619232,0.07204649597406387,0.17645971477031708
1788957708042327600,9.36532763671875,-0.2828657925128937,-0.035963062196969986,0.2644529640674591
1788957708052377600,9.375377685546875,-0.25883743166923523,-0.008642223663628101,0.30638203024864197
1788957708062428400,9.385428466796874,-0.20271582901477814,0.12584634125232697,0.387783408164978
1788957708072478500,9.395478515625,-0.13610777258872986,0.23805837333202362,0.47529861330986023
1788957708082528500,9.405528564453125,-0.09115813672542572,0.5064602494239807,0.5362985730171204
1788957708092578600,9.41557861328125,-0.11418808996677399,0.7871150970458984,0.5453437566757202
1788957708102629600,9.425629638671875,-0.0797044187784195,0.8632687330245972,0.4845118224620819
1788957708112679400,9.435679443359374,0.03489513322710991,0.8163954615592957,0.3868672847747803
1788957708122729500,9.4457294921875,0.20806212723255157,0.5368866324424744,0.28331106901168823
1788957708132779500,9.455779541015625,0.21848280727863312,0.4290371239185333,0.20961660146713257
1788957708142830600,9.46583056640625,0.16709445416927338,0.3316524922847748,0.2516420781612396
1788957708152880600,9.475880615234376,0.05570827051997185,0.2807043790817261,0.4079779088497162
1788957708162930400,9.485930419921875,-0.07513789087533951,0.34809938073158264,0.5580340027809143
1788957708172980500,9.49598046875,-0.17962542176246643,0.4615958631038666,0.6798973083496094
1788957708183031600,9.506031494140625,-0.24061793088912964,0.6005523800849915,0.7681999802589417
1788957708193081600,9.51608154296875,-0.2635869085788727,0.7290827035903931,0.7517445683479309
1788957708203131600,9.526131591796876,-0.3087131083011627,0.7830476760864258,0.5898339748382568
1788957708213181400,9.536181396484375,-0.32939600944519043,0.7311692833900452,0.32931557297706604
1788957708223232500,9.546232421875,-0.37371766567230225,0.5968011021614075,0.0306394025683403
1788957708233282600,9.556282470703126,-0.35893553495407104,0.5001592040061951,-0.14231666922569275
1788957708243332600,9.56633251953125,-0.2892161011695862,0.4874040186405182,-0.16326935589313507
1788957708253382700,9.576382568359374,-0.22035208344459534,0.5231638550758362,-0.11588239669799805
1788957708263433700,9.586433837890626,-0.20176906883716583,0.5896901488304138,-0.08883186429738998
1788957708273483500,9.5964833984375,-0.22324959933757782,0.6417281031608582,-0.11865741014480591
1788957708283533600,9.606533447265624,-0.25528448820114136,0.6478368043899536,-0.18369951844215393
1788957708293583600,9.61658349609375,-0.2717023491859436,0.5762305855751038,-0.2559196650981903
1788957708303634700,9.626634765625,-0.2671041488647461,0.5061513185501099,-0.288971871137619
1788957708313684700,9.636684814453124,-0.23155413568019867,0.47170495986938477,-0.2271929383277893
1788957708323734500,9.646734619140625,-0.20366470515727997,0.5279352068901062,-0.09642720222473145
1788957708333784600,9.65678466796875,-0.17896948754787445,0.6058294773101807,0.03627731278538704
1788957708343835600,9.666835693359374,-0.1612410843372345,0.6917438507080078,0.14672686159610748
1788957708353885700,9.6768857421875,-0.14875538647174835,0.729763925075531,0.23496884107589722
1788957708363935500,9.686935546875,-0.13789048790931702,0.7479360103607178,0.2814173102378845
1788957708373985500,9.696985595703126,-0.11586881428956985,0.7602217197418213,0.3144277036190033
1788957708384035600,9.70703564453125,-0.1072380393743515,0.7368199825286865,0.3270127475261688
1788957708394086700,9.717086669921875,-0.09080633521080017,0.7361262440681458,0.3146972358226776
1788957708404136700,9.72713671875,-0.0798620730638504,0.7578014135360718,0.28597158193588257
1788957708414186500,9.7371865234375,-0.08188634365797043,0.7752981185913086,0.21550166606903076
1788957708424236500,9.747236572265624,-0.05618630722165108,0.5691114068031311,0.12200020998716354
1788957708434287600,9.75728759765625,-0.038186799734830856,0.3579680025577545,0.06776653230190277
1788957708444337700,9.767337646484375,-0.014576279558241367,0.18019001185894012,0.027580494061112404
1788957708454387700,9.7773876953125,-0.005184642039239407,0.039623308926820755,-0.05138968676328659
1788957708464437500,9.7874375,-0.0394802987575531,-0.020474648103117943,-0.07649530470371246
1788957708474488600,9.797488525390625,-0.07929482311010361,-0.02327922359108925,0.03379924222826958
1788957708484538600,9.80753857421875,-0.09662480652332306,0.024278441444039345,0.10903754085302353
1788957708494588700,9.817588623046875,-0.08268715441226959,0.11695218831300735,0.10371840745210648
1788957708504638700,9.827638671875,-0.05300595983862877,0.15537600219249725,0.09402450174093246
1788957708514689500,9.837689453125,-0.034218158572912216,0.2137109488248825,0.03925685957074165
1788957708524739300,9.8477392578125,-0.04055728018283844,0.36200881004333496,-0.05464806407690048
1788957708534789400,9.857789306640624,-0.06829490512609482,0.4656156301498413,-0.13980689644813538
1788957708544839400,9.86783935546875,-0.07553017884492874,0.44316092133522034,-0.12762826681137085
1788957708554890500,9.877890380859375,-0.0725431740283966,0.3684462010860443,-0.01865411177277565
1788957708564940500,9.8879404296875,-0.09866558760404587,0.3567133843898773,0.11591408401727676
1788957708574990300,9.897990234375,-0.13030047714710236,0.515175461769104,0.30143389105796814
1788957708585040400,9.908040283203125,-0.1490563303232193,0.7489381432533264,0.45277920365333557
1788957708595091500,9.918091552734374,-0.1678537130355835,0.8550674915313721,0.5125958919525146
1788957708605141500,9.9281416015625,-0.20112085342407227,0.9425041675567627,0.5657829642295837
1788957708615191300,9.93819140625,-0.19434285163879395,0.941520094871521,0.5811893343925476
1788957708625241300,9.948241455078126,-0.1722354143857956,0.792824387550354,0.4645974934101105
1788957708635292400,9.95829248046875,-0.16393060982227325,0.6654390096664429,0.2996000349521637
1788957708645342500,9.968342529296875,-0.17308630049228668,0.5369827747344971,0.16022588312625885
1788957708655392500,9.978392578125,-0.22113318741321564,0.41083386540412903,0.04614299535751343
1788957708665442300,9.9884423828125,-0.26403483748435974,0.3514419198036194,-0.0029529130551964045
1788957708675493000,9.9984931640625,-0.2158990055322647,0.2642116844654083,0.04411473125219345
1788957708685543400,10.00854345703125,-0.08001494407653809,0.09040340036153793,0.18806204199790955
1788957708695593500,10.018593505859375,0.05233777314424515,-0.19341686367988586,0.30949634313583374
1788957708705643500,10.0286435546875,0.17041248083114624,-0.32344570755958557,0.35679033398628235
1788957708715693300,10.038693359375,0.2499704211950302,-0.13486887514591217,0.4456706941127777
1788957708725744000,10.048744140625,0.18458901345729828,-0.042039062827825546,0.5219864845275879
1788957708735794400,10.05879443359375,0.05594875290989876,0.06416460126638412,0.45287346839904785
1788957708745844500,10.068844482421875,-0.027718447148799896,0.17901982367038727,0.24564091861248016
1788957708755894500,10.07889453125,-0.08468692749738693,0.26310938596725464,0.019775835797190666
1788957708765945300,10.0889453125,-0.10497169196605682,0.31974151730537415,-0.08003091812133789
1788957708775995100,10.0989951171875,-0.13397963345050812,0.44903984665870667,-0.12569721043109894
1788957708786045400,10.10904541015625,-0.15284547209739685,0.5233686566352844,-0.082395538687706
1788957708796095500,10.119095458984376,-0.1383855789899826,0.47691434621810913,-0.04048138111829758
1788957708806146300,10.129146240234375,-0.11924969404935837,0.38215216994285583,-0.009432117454707623
1788957708816196400,10.1391962890625,-0.0695982500910759,0.3308037519454956,0.04301005229353905
1788957708826246100,10.14924609375,-0.0377684161067009,0.3793124258518219,0.03726401552557945
1788957708836296200,10.159296142578125,-0.02280624583363533,0.3689359724521637,0.013908091932535172
1788957708846347300,10.16934716796875,-0.02046825736761093,0.30119580030441284,0.0019502328941598535
1788957708856397300,10.179397216796875,-0.03008839301764965,0.31418243050575256,-0.024293888360261917
1788957708866447400,10.189447265625,-0.06425728648900986,0.36022689938545227,-0.09962992370128632
1788957708876497200,10.1994970703125,-0.10211225599050522,0.31746211647987366,-0.11209378391504288
1788957708886548200,10.20954833984375,-0.13705426454544067,0.26913851499557495,-0.058812182396650314
1788957708896598300,10.219598388671875,-0.15866154432296753,0.2113892138004303,0.030648456886410713
1788957708906648300,10.2296484375,-0.14956499636173248,0.15107020735740662,0.1609763652086258
1788957708916698000,10.239697998046875,-0.1755976527929306,0.18978671729564667,0.21591179072856903
1788957708926749200,10.249749267578125,-0.2639589309692383,0.2691560983657837,0.2177506983280182
1788957708936799200,10.25979931640625,-0.35029008984565735,0.42103803157806396,0.2263425886631012
1788957708946849300,10.269849365234375,-0.3623526394367218,0.5180178284645081,0.25072595477104187
1788957708956899300,10.2798994140625,-0.31395766139030457,0.5457900762557983,0.17275765538215637
1788957708966950400,10.289950439453126,-0.28776708245277405,0.5473943948745728,-0.04968766123056412
1788957708977000200,10.300000244140625,-0.30736926198005676,0.5522882342338562,-0.2612534463405609
1788957708987050200,10.31005029296875,-0.3904726803302765,0.5403407216072083,-0.399626761674881
1788957708997100300,10.320100341796875,-0.46533334255218506,0.4843592345714569,-0.4711962938308716
1788957709007150300,10.330150390625,-0.4355112612247467,0.3433208763599396,-0.5355566143989563
1788957709017201400,10.340201416015624,-0.35251516103744507,0.18844953179359436,-0.5138769149780273
1788957709027251200,10.350251220703125,-0.24750007688999176,0.05710989236831665,-0.38846251368522644
1788957709037301200,10.36030126953125,-0.14655321836471558,-0.0652807354927063,-0.2950795888900757
1788957709047351300,10.370351318359376,-0.17152568697929382,-0.14329829812049866,-0.2853803336620331
1788957709057402400,10.38040234375,-0.2390461415052414,-0.1652882993221283,-0.23892389237880707
1788957709067452400,10.390452392578124,-0.1635604351758957,-0.12309316545724869,-0.08806966990232468
1788957709077502200,10.400502197265626,0.0254017636179924,-0.051415253430604935,0.11481260508298874
1788957709087552300,10.41055224609375,0.16071218252182007,0.185674786567688,0.2965339422225952
1788957709097603300,10.420603271484374,0.15093785524368286,0.42875534296035767,0.37632623314857483
1788957709107653400,10.4306533203125,0.12721893191337585,0.4492257237434387,0.3911922574043274
1788957709117703400,10.440703369140625,0.11170176416635513,0.39431774616241455,0.284821093082428
1788957709127753200,10.450753173828126,0.12222817540168762,0.31457656621932983,0.11145888268947601
1788957709137804300,10.46080419921875,0.1544060856103897,0.26341512799263,0.021893847733736038
1788957709147854300,10.470854248046875,0.1181921511888504,0.25301840901374817,0.03247671574354172
1788957709157904400,10.480904296875,0.006060022860765457,0.27596208453178406,0.10889292508363724
1788957709167954400,10.490954345703125,-0.08838073164224625,0.3554891347885132,0.1648709774017334
1788957709178005200,10.501005126953125,-0.1086077019572258,0.41710400581359863,0.18025365471839905
1788957709188055300,10.51105517578125,-0.07841917127370834,0.45824772119522095,0.13677595555782318
1788957709198105300,10.521105224609375,-0.023601733148097992,0.4597526788711548,0.09338907152414322
1788957709208155400,10.5311552734375,0.04540929198265076,0.42604586482048035,0.08491621911525726
1788957709218205400,10.541205322265625,0.06354328989982605,0.4120836853981018,0.030410369858145714
1788957709228256300,10.55125634765625,-0.009851032868027687,0.42757079005241394,-0.05084080994129181
1788957709238306300,10.561306396484374,-0.08076968044042587,0.4244394302368164,-0.06301704794168472
1788957709248356400,10.5713564453125,-0.08453911542892456,0.4103129506111145,-0.022302908822894096
1788957709258406400,10.581406494140625,-0.056182846426963806,0.3679274320602417,-0.0011345066595822573
1788957709268457500,10.59145751953125,-0.028667597100138664,0.2764022946357727,0.06717850267887115
1788957709278507300,10.60150732421875,0.014770690351724625,0.15717417001724243,0.21769849956035614
1788957709288557300,10.611557373046875,0.05281767621636391,0.07026644051074982,0.30959248542785645
1788957709298607400,10.621607421875,0.037706367671489716,0.03984648361802101,0.30795544385910034
1788957709308658400,10.631658447265625,0.011582354083657265,0.03033420443534851,0.31245988607406616
1788957709318708500,10.64170849609375,0.002377936616539955,0.018805645406246185,0.3244079053401947
1788957709328758300,10.65175830078125,-0.003093527862802148,0.04325452819466591,0.29917311668395996
1788957709338808300,10.661808349609375,0.02040114626288414,0.07323160022497177,0.3063684403896332
1788957709348859400,10.671859375,0.05772161856293678,0.1028912290930748,0.36642032861709595
1788957709358909400,10.681909423828126,0.05921964719891548,0.17530684173107147,0.4068247377872467
1788957709368959500,10.69195947265625,-0.0015523566398769617,0.30353617668151855,0.42515823245048523
1788957709379009300,10.70200927734375,0.03928162530064583,0.3657521605491638,0.42005160450935364
1788957709389060400,10.712060302734375,0.04261164367198944,0.4056393802165985,0.28545305132865906
1788957709399110400,10.7221103515625,-0.05559242144227028,0.4895939230918884,0.08414576947689056
1788957709409160400,10.732160400390624,-0.20787250995635986,0.5245652198791504,-0.06961449980735779
1788957709419210500,10.74221044921875,-0.3236273229122162,0.5589650273323059,-0.12452568113803864
1788957709429261600,10.752261474609375,-0.37359195947647095,0.6131736636161804,-0.1033940315246582
1788957709439311400,10.762311279296876,-0.409379243850708,0.562774121761322,-0.11421525478363037
1788957709449361400,10.772361328125,-0.44646909832954407,0.37071922421455383,-0.12776941061019897
1788957709459411500,10.782411376953124,-0.43591418862342834,0.1890479475259781,-0.11109402775764465
1788957709469461500,10.79246142578125,-0.3794775605201721,0.0882989689707756,-0.13069942593574524
1788957709479512300,10.80251220703125,-0.32627344131469727,-0.0362810418009758,-0.2116456776857376
1788957709489562400,10.812562255859374,-0.24930037558078766,-0.06335899978876114,-0.3035883903503418
1788957709499612400,10.8226123046875,-0.14372973144054413,-0.07363933324813843,-0.35464251041412354
1788957709509662500,10.832662353515625,-0.03550419956445694,-0.10380442440509796,-0.34480905532836914
1788957709519713300,10.84271337890625,0.0482194609940052,-0.1330944001674652,-0.30351755023002625
1788957709529763300,10.852763427734375,0.0980522632598877,-0.1158648207783699,-0.24240465462207794
1788957709539813400,10.8628134765625,0.1219426840543747,-0.09401890635490417,-0.1694827675819397
1788957709549863200,10.87286328125,0.17188388109207153,-0.06037412956357002,-0.05216386914253235
1788957709559914200,10.882914306640625,0.22299686074256897,-0.034327346831560135,0.04640664532780647
1788957709569964300,10.89296435546875,0.2821006774902344,-0.06880755722522736,0.13557833433151245
1788957709580014300,10.903014404296876,0.322966068983078,-0.2601969540119171,0.17363330721855164
1788957709590064400,10.913064453125,0.3460860252380371,-0.19903507828712463,0.2040969431400299
1788957709600115200,10.923115234375,0.3040373921394348,-0.2710304260253906,0.26857686042785645
1788957709610165000,10.9331650390625,0.21630939841270447,-0.2746722996234894,0.34767886996269226
1788957709620215300,10.94321533203125,0.1055421382188797,-0.16511066257953644,0.3334820866584778
1788957709630265300,10.953265380859374,0.007940215058624744,-0.028599953278899193,0.2569290101528168
1788957709640316200,10.963316162109376,-0.09633692353963852,0.15309154987335205,0.13462679088115692
1788957709650366200,10.9733662109375,-0.13470907509326935,0.34735316038131714,-0.013667874969542027
1788957709660416000,10.983416015625,-0.10725028812885284,0.4727667570114136,-0.12838460505008698
1788957709670466300,10.99346630859375,0.008580705150961876,0.6008176803588867,-0.20431265234947205
1788957709680516400,11.003516357421875,0.19275987148284912,0.6716550588607788,-0.287995308637619
1788957709690567200,11.013567138671876,0.39437153935432434,0.6680001616477966,-0.37900030612945557
1788957709700617200,11.0236171875,0.5607855319976807,0.7658790349960327,-0.38940128684043884
1788957709710667000,11.0336669921875,0.5946260690689087,0.8573650121688843,-0.4182848632335663
1788957709720717300,11.04371728515625,0.5749785900115967,0.7974289655685425,-0.4626142382621765
1788957709730768100,11.05376806640625,0.5900095105171204,0.7701118588447571,-0.5371260046958923
1788957709740818200,11.063818115234374,0.5414230227470398,0.7443551421165466,-0.562690794467926
1788957709750868200,11.0738681640625,0.42753082513809204,0.8378056883811951,-0.5413583517074585
1788957709760918000,11.08391796875,0.301708459854126,1.0175837278366089,-0.4961967170238495
1788957709770969000,11.093968994140624,0.3037566840648651,1.0541499853134155,-0.39196616411209106
1788957709781019100,11.10401904296875,0.374261736869812,0.9938440322875977,-0.28633880615234375
1788957709791069200,11.114069091796875,0.5675805807113647,0.9188616871833801,-0.40452536940574646
1788957709801119200,11.124119140625,0.9501873850822449,0.6988558173179626,-0.6623614430427551
1788957709811170000,11.134170166015625,1.4379551410675049,0.692563533782959,-1.0158729553222656
1788957709821220000,11.14422021484375,1.8198679685592651,0.8408092260360718,-1.5348191261291504
1788957709831270100,11.154270263671876,1.8768784999847412,1.1231852769851685,-2.0694613456726074
1788957709841320200,11.1643203125,1.6439735889434814,1.48462975025177,-2.488410472869873
1788957709851371300,11.174371337890625,1.235464096069336,1.8870861530303955,-2.7116832733154297
1788957709861421000,11.184421142578126,0.6990829706192017,2.2819249629974365,-2.733243465423584
1788957709871471000,11.19447119140625,0.13690832257270813,2.49760103225708,-2.5505552291870117
1788957709881521200,11.204521240234374,-0.3563690483570099,2.584244728088379,-2.243382215499878
1788957709891571200,11.2145712890625,-0.6857224106788635,2.6235644817352295,-1.92390775680542
1788957709901622300,11.224622314453125,-0.7519131898880005,2.333165407180786,-1.744428277015686
1788957709911672000,11.234672119140624,-0.9709365963935852,2.31376314163208,-1.6889128684997559
1788957709921722000,11.24472216796875,-1.4338892698287964,2.7123546600341797,-1.8918616771697998
1788957709931772200,11.254772216796875,-1.7940603494644165,2.7917494773864746,-2.2387661933898926
1788957709941823200,11.2648232421875,-2.0672571659088135,2.922807455062866,-2.6423263549804688
1788957709951873300,11.274873291015625,-2.377577066421509,3.057845115661621,-3.023958444595337
1788957709961923000,11.284923095703125,-2.72491717338562,3.381901979446411,-3.271881580352783
1788957709971973000,11.29497314453125,-3.0437827110290527,3.424211025238037,-3.3047842979431152
1788957709982024200,11.305024169921875,-3.333775281906128,3.215705633163452,-3.1953976154327393
1788957709992074200,11.31507421875,-3.4883029460906982,3.2191226482391357,-2.925795078277588
1788957710002124300,11.325124267578126,-3.2116940021514893,3.0269548892974854,-2.5829999446868896
1788957710012174000,11.335174072265625,-2.85210919380188,2.7614433765411377,-2.232927083969116
1788957710022225200,11.34522509765625,-2.721975564956665,2.5765440464019775,-1.9395381212234497
1788957710032275200,11.355275146484376,-2.6621553897857666,2.5653340816497803,-1.7524840831756592
1788957710042325200,11.3653251953125,-2.917013168334961,2.345017910003662,-1.674720048904419
1788957710052375300,11.375375244140624,-3.3301010131835938,2.1182689666748047,-1.6180123090744019
1788957710062426000,11.385426025390625,-3.7840945720672607,1.834019660949707,-1.5965442657470703
1788957710072476200,11.39547607421875,-4.199376106262207,1.4425616264343262,-1.603737711906433
1788957710082526200,11.405526123046876,-4.502579212188721,1.012279987335205,-1.5826390981674194
1788957710092576300,11.415576171875,-4.51213264465332,0.8120564222335815,-1.4915885925292969
1788957710102626300,11.425626220703125,-4.34536075592041,0.5546525716781616,-1.3216676712036133
1788957710112677000,11.435677001953126,-4.017155170440674,0.2326313853263855,-1.0688767433166504
1788957710122727200,11.44572705078125,-3.5972414016723633,0.05067729204893112,-0.74344402551651
1788957710132777200,11.455777099609374,-3.1082887649536133,-0.18836724758148193,-0.4045669138431549
1788957710142827300,11.4658271484375,-2.5524919033050537,-0.4733603596687317,-0.10895498096942902
1788957710152878300,11.47587841796875,-1.9132492542266846,-0.8234148025512695,0.0978245660662651
1788957710162928000,11.48592822265625,-1.2645149230957031,-1.3757221698760986,0.19624274969100952
1788957710172978200,11.495978271484375,-0.6535665988922119,-2.1069273948669434,0.19427333772182465
1788957710183028200,11.5060283203125,-0.1775132715702057,-2.5577731132507324,0.10115058720111847
1788957710193079300,11.516079345703124,0.10059744864702225,-2.7988474369049072,-0.03875085711479187
1788957710203129300,11.52612939453125,0.16464461386203766,-2.9965858459472656,-0.21011781692504883
1788957710213179100,11.53617919921875,0.030043652281165123,-3.256490468978882,-0.37662771344184875
1788957710223229200,11.546229248046876,-0.27803853154182434,-3.6280152797698975,-0.5315645337104797
1788957710233280300,11.5562802734375,-0.6750612854957581,-4.248652458190918,-0.6558465361595154
1788957710243330300,11.566330322265625,-1.0918523073196411,-5.009617328643799,-0.7360151410102844
1788957710253380400,11.57638037109375,-1.5777381658554077,-5.761876583099365,-0.8548528552055359
1788957710263430100,11.58643017578125,-2.0323381423950195,-6.475530624389648,-1.408129096031189
1788957710273481200,11.596481201171875,-2.1259443759918213,-6.126908779144287,-2.027737855911255
1788957710283531300,11.60653125,-1.9276995658874512,-5.581409454345703,-2.5049993991851807
1788957710293581300,11.616581298828125,-1.5391243696212769,-5.018165588378906,-2.8867430686950684
1788957710303631400,11.62663134765625,-1.0877190828323364,-4.2075629234313965,-3.0698511600494385
1788957710313681200,11.63668115234375,-0.6456215977668762,-3.278127670288086,-3.0340514183044434
1788957710323732200,11.646732177734375,-0.22787870466709137,-2.410737991333008,-2.7856967449188232
1788957710333782300,11.6567822265625,0.1605720967054367,-1.9117845296859741,-2.4571776390075684
1788957710343832300,11.666832275390625,0.5212615728378296,-1.6722664833068848,-2.0954418182373047
1788957710353882400,11.67688232421875,0.8055516481399536,-1.5814063549041748,-1.6991246938705444
1788957710363933400,11.686933349609374,0.8592292666435242,-1.3933789730072021,-1.2519546747207642
1788957710373983200,11.696983154296875,0.6401224732398987,-1.290648341178894,-0.8110787272453308
1788957710384033300,11.707033203125,0.19530372321605682,-1.4400193691253662,-0.4338715374469757
1788957710394083300,11.717083251953126,-0.32009464502334595,-1.77736496925354,-0.1576615273952484
1788957710404134400,11.727134521484375,-0.7801448106765747,-2.219316005706787,0.0059811933897435665
1788957710414184200,11.73718408203125,-1.12368643283844,-2.674321413040161,0.0195529293268919
1788957710424234200,11.747234130859376,-1.296438217163086,-3.054173231124878,-0.09605436027050018
1788957710434284300,11.7572841796875,-1.2777864933013916,-3.30499267578125,-0.2737383246421814
1788957710444335000,11.767335205078124,-1.1063287258148193,-3.073969841003418,-0.4619700312614441
1788957710454385400,11.777385498046876,-0.9012086391448975,-2.1363115310668945,-0.6363160014152527
1788957710464435200,11.787435302734375,-0.6961116790771484,-0.9848947525024414,-0.7602041363716125
1788957710474485200,11.7974853515625,-0.5106794834136963,-0.11176274716854095,-0.776765763759613
1788957710484536000,11.8075361328125,-0.4209040701389313,0.2876320481300354,-0.6598676443099976
1788957710494586000,11.817586181640625,-0.3977327048778534,0.05840818211436272,-0.47895488142967224
1788957710504636200,11.82763623046875,-0.4371962249279022,-0.888232946395874,-0.2694714069366455
1788957710514686500,11.8376865234375,-0.5745344161987305,-1.9860351085662842,-0.042324285954236984
1788957710524737300,11.8477373046875,-0.8177483677864075,-1.9952871799468994,0.011818043887615204
1788957710534787300,11.857787353515626,-1.0538983345031738,-0.6078675985336304,-0.28983181715011597
1788957710544837400,11.86783740234375,-1.1692718267440796,0.10317565500736237,-0.44705232977867126
1788957710554887400,11.877887451171874,-1.192337155342102,0.05327200889587402,-0.374930202960968
1788957710564937500,11.8879375,-1.1578737497329712,-0.08269860595464706,-0.26677656173706055
1788957710574988300,11.89798828125,-1.0931674242019653,-0.16923722624778748,-0.16395831108093262
1788957710585038300,11.908038330078124,-1.010480523109436,-0.2976852059364319,-0.05909740924835205
1788957710595088400,11.91808837890625,-0.9036906957626343,-0.33933013677597046,0.04601409658789635
1788957710605138400,11.928138427734375,-0.7760472893714905,-0.262441486120224,0.14918336272239685
1788957710615189500,11.938189453125,-0.609402596950531,-0.09962698817253113,0.2105950564146042
1788957710625239300,11.9482392578125,-0.42235392332077026,0.11384880542755127,0.26343297958374023
1788957710635289300,11.958289306640625,-0.24519138038158417,0.20200848579406738,0.2835614085197449
1788957710645339400,11.96833935546875,-0.09823069721460342,0.14350682497024536,0.2626795470714569
1788957710655390500,11.978390380859375,-0.04802904278039932,-0.010497115552425385,0.21518927812576294
1788957710665440500,11.9884404296875,-0.11669386178255081,-0.17501336336135864,0.1794011890888214
1788957710675490300,11.998490234375,-0.2306249588727951,-0.2895415425300598,0.17886002361774445
1788957710685540400,12.008540283203125,-0.3003041744232178,-0.27723026275634766,0.2186729609966278
1788957710695591400,12.01859130859375,-0.30330848693847656,-0.15244919061660767,0.23743972182273865
1788957710705641500,12.028641357421876,-0.26952043175697327,0.0049039446748793125,0.24600337445735931
1788957710715691500,12.03869140625,-0.23042069375514984,0.13063737750053406,0.27114787697792053
1788957710725741300,12.0487412109375,-0.20435073971748352,0.19260592758655548,0.29930734634399414
1788957710735792400,12.05879248046875,-0.1721387356519699,0.13093671202659607,0.30114731192588806
1788957710745842400,12.068842529296875,-0.1461838334798813,-0.026706179603934288,0.24420946836471558
1788957710755892500,12.078892578125,-0.12814359366893768,-0.12321540713310242,0.11950855702161789
1788957710765942500,12.088942626953125,-0.1427270621061325,-0.18458342552185059,-0.009219863452017307
1788957710775993300,12.098993408203125,-0.19725394248962402,-0.2646673321723938,-0.06031261011958122
1788957710786043400,12.10904345703125,-0.2578994631767273,-0.2778262794017792,-0.03936418518424034
1788957710796093400,12.119093505859375,-0.30521050095558167,-0.25121891498565674,0.04079749807715416
1788957710806143500,12.1291435546875,-0.33537933230400085,-0.1749105602502823,0.15485136210918427
1788957710816194600,12.139194580078126,-0.35570192337036133,-0.026820162311196327,0.3110944926738739
1788957710826244400,12.149244384765625,-0.3396254777908325,0.17191077768802643,0.4584101736545563
1788957710836294400,12.15929443359375,-0.26158979535102844,0.3181675970554352,0.5630817413330078
1788957710846344400,12.169344482421875,-0.13577114045619965,0.3815723955631256,0.5943475365638733
1788957710856395500,12.1793955078125,-0.009014800190925598,0.3567296266555786,0.5579063892364502
1788957710866445600,12.189445556640624,0.07148430496454239,0.29508304595947266,0.4521477520465851
1788957710876495400,12.199495361328125,0.09454115480184555,0.24014654755592346,0.291136234998703
1788957710886545400,12.20954541015625,0.08283522725105286,0.25583285093307495,0.08646617829799652
1788957710896595500,12.219595458984376,0.06541229784488678,0.30005890130996704,-0.1420506089925766
1788957710906646500,12.229646484375,0.05109461024403572,0.3262031376361847,-0.35259613394737244
1788957710916696600,12.239696533203125,0.07249310612678528,0.3247376084327698,-0.5293509364128113
1788957710926746400,12.249746337890626,0.13003523647785187,0.30678096413612366,-0.6866385340690613
1788957710936796400,12.25979638671875,0.20601707696914673,0.2618553042411804,-0.8198530673980713
1788957710946847500,12.269847412109375,0.27219662070274353,0.18794433772563934,-0.8986400365829468
1788957710956897500,12.2798974609375,0.331710547208786,0.12229155749082565,-0.9300661087036133
1788957710966947600,12.289947509765625,0.3678070306777954,0.08441901206970215,-0.9213575720787048
1788957710976997400,12.299997314453124,0.38766276836395264,0.03416728973388672,-0.8647305369377136
1788957710987048400,12.31004833984375,0.38675037026405334,-0.029462818056344986,-0.7364335656166077
1788957710997098500,12.320098388671875,0.36361628770828247,-0.10030663013458252,-0.5407492518424988
1788957711007148500,12.3301484375,0.3134726881980896,-0.13321851193904877,-0.316541463136673
1788957711017198600,12.340198486328125,0.2557348310947418,-0.11025326699018478,-0.11220403760671616
1788957711027249700,12.350249755859375,0.20411105453968048,-0.11178325861692429,0.058339204639196396
1788957711037299500,12.360299560546874,0.13995018601417542,-0.18747961521148682,0.20208145678043365
1788957711047349500,12.370349609375,0.05800977349281311,-0.2962641417980194,0.33250364661216736
1788957711057399600,12.380399658203125,0.018306834623217583,-0.3918604552745819,0.4149910807609558
1788957711067450600,12.39045068359375,0.007035539019852877,-0.41221633553504944,0.4162653982639313
1788957711077500400,12.40050048828125,-0.0113988621160388,-0.3638930022716522,0.3896249830722809
1788957711087550500,12.410550537109375,-0.017723869532346725,-0.3229562044143677,0.34331876039505005
1788957711097600500,12.4206005859375,0.0057098171673715115,-0.22732104361057281,0.2733668386936188
1788957711107651600,12.430651611328125,0.04717869684100151,-0.18137431144714355,0.21394823491573334
1788957711117701600,12.44070166015625,0.06896175444126129,-0.2923509180545807,0.1684310883283615
1788957711127751400,12.45075146484375,0.08641105145215988,-0.566952645778656,0.14529114961624146
1788957711137801500,12.460801513671875,0.15074104070663452,-0.7477410435676575,0.11858443915843964
1788957711147852500,12.4708525390625,0.18719439208507538,-1.030882716178894,0.2122613936662674
