time,seconds_elapsed,z,y,x
1789316120839538700,0.04753857421875,-0.9274139404296875,-0.4482269287109375,0.018157958984375
1789316120849506600,0.057506591796875,-0.90789794921875,-0.450408935546875,0.013671875
1789316120859474400,0.067474365234375,-0.8921356201171875,-0.450775146484375,0.01275634765625
1789316120869441500,0.077441650390625,-0.8822479248046875,-0.45953369140625,0.00750732421875
1789316120879409700,0.08740966796875,-0.8838043212890625,-0.4611053466796875,0.008575439453125
1789316120889377500,0.09737744140625,-0.8905029296875,-0.456146240234375,0.0126953125
1789316120899345400,0.107345458984375,-0.8777008056640625,-0.4476470947265625,0.0237884521484375
1789316120909312500,0.1173125,-0.8564300537109375,-0.445220947265625,0.02825927734375
1789316120919280600,0.12728076171875,-0.858917236328125,-0.459564208984375,0.0212554931640625
1789316120929248500,0.13724853515625,-0.8603515625,-0.4647216796875,0.0175323486328125
1789316120939216600,0.147216552734375,-0.8619232177734375,-0.4605865478515625,0.015655517578125
1789316120949184500,0.1571845703125,-0.8751068115234375,-0.4613494873046875,0.0188446044921875
1789316120959151600,0.167151611328125,-0.8902130126953125,-0.4546051025390625,0.0166778564453125
1789316120969119500,0.177119384765625,-0.8801422119140625,-0.45208740234375,0.013946533203125
1789316120979087600,0.187087646484375,-0.8758697509765625,-0.456024169921875,0.01409912109375
1789316120989055500,0.197055419921875,-0.8896484375,-0.4666748046875,0.0044708251953125
1789316120999023400,0.2070234375,-0.8957366943359375,-0.4743194580078125,-0.00531005859375
1789316121008990500,0.216990478515625,-0.8944091796875,-0.4752960205078125,-0.007843017578125
1789316121018958600,0.22695849609375,-0.903228759765625,-0.4741973876953125,-0.0015869140625
1789316121028926700,0.2369267578125,-0.9099884033203125,-0.4711151123046875,0.0053558349609375
1789316121038894300,0.246894287109375,-0.9139404296875,-0.469085693359375,0.01202392578125
1789316121048861400,0.256861328125,-0.90313720703125,-0.466156005859375,0.007476806640625
1789316121058829600,0.26682958984375,-0.8808135986328125,-0.465240478515625,-0.0004425048828125
1789316121068797700,0.276797607421875,-0.8657379150390625,-0.4720001220703125,0.0005950927734375
1789316121078765600,0.286765625,-0.8564453125,-0.4730377197265625,0.0059356689453125
1789316121088733400,0.2967333984375,-0.854583740234375,-0.4702911376953125,0.013275146484375
1789316121098699500,0.306699462890625,-0.8485260009765625,-0.47308349609375,0.011627197265625
1789316121108667600,0.316667724609375,-0.8460693359375,-0.474517822265625,0.0106201171875
1789316121118635800,0.3266357421875,-0.8470001220703125,-0.4725799560546875,0.009124755859375
1789316121128603600,0.336603759765625,-0.84088134765625,-0.4674072265625,0.0043792724609375
1789316121138571500,0.346571533203125,-0.8619842529296875,-0.4709625244140625,0.0010223388671875
1789316121148538600,0.35653857421875,-0.8737945556640625,-0.472015380859375,0.0042877197265625
1789316121158506800,0.3665068359375,-0.88714599609375,-0.4746856689453125,-0.0017242431640625
1789316121168474600,0.376474609375,-0.9033355712890625,-0.4786376953125,-0.0119171142578125
1789316121178442500,0.3864423828125,-0.9007110595703125,-0.4733123779296875,-0.010498046875
1789316121188409600,0.39640966796875,-0.9133453369140625,-0.4706268310546875,-0.006072998046875
1789316121198377700,0.406377685546875,-0.9197235107421875,-0.465484619140625,-0.00323486328125
1789316121208345600,0.416345703125,-0.91351318359375,-0.465545654296875,0.002471923828125
1789316121218313700,0.426313720703125,-0.906341552734375,-0.469573974609375,0.0077972412109375
1789316121228281600,0.436281494140625,-0.910186767578125,-0.46978759765625,0.0083770751953125
1789316121238248700,0.446248779296875,-0.9087982177734375,-0.4710693359375,0.0081787109375
1789316121248216600,0.456216552734375,-0.8907012939453125,-0.47271728515625,0.00872802734375
1789316121258184700,0.466184814453125,-0.873687744140625,-0.4746246337890625,0.00689697265625
1789316121268152800,0.47615283203125,-0.86962890625,-0.4696502685546875,0.004241943359375
1789316121278120400,0.486120361328125,-0.870361328125,-0.467254638671875,0.0035552978515625
1789316121288087600,0.496087646484375,-0.8590545654296875,-0.4695587158203125,0.00689697265625
1789316121298055700,0.5060556640625,-0.8529510498046875,-0.47027587890625,0.0106201171875
1789316121308023800,0.51602392578125,-0.8560333251953125,-0.469512939453125,0.0116729736328125
1789316121317991400,0.525991455078125,-0.8612518310546875,-0.473846435546875,0.009521484375
1789316121327959600,0.53595947265625,-0.8807525634765625,-0.4763946533203125,0.0098876953125
1789316121337926700,0.5459267578125,-0.8905792236328125,-0.4725189208984375,0.008880615234375
1789316121347894800,0.555894775390625,-0.8784637451171875,-0.4703826904296875,0.0057830810546875
1789316121357862700,0.565862548828125,-0.870208740234375,-0.4720306396484375,0.003448486328125
1789316121367830500,0.57583056640625,-0.869110107421875,-0.46905517578125,0.0038604736328125
1789316121377797600,0.585797607421875,-0.8753814697265625,-0.467010498046875,0.0083770751953125
1789316121387765800,0.595765869140625,-0.8824005126953125,-0.468170166015625,0.010406494140625
1789316121397733600,0.605733642578125,-0.8891754150390625,-0.47052001953125,0.00958251953125
1789316121407701500,0.615701416015625,-0.8995208740234375,-0.4707183837890625,0.007293701171875
1789316121417669600,0.625669677734375,-0.9030914306640625,-0.4742279052734375,-0.00341796875
1789316121427636700,0.63563671875,-0.8949432373046875,-0.4767608642578125,-0.0009765625
1789316121437604600,0.6456044921875,-0.886016845703125,-0.4796142578125,-0.0002288818359375
1789316121447572700,0.65557275390625,-0.879913330078125,-0.4750213623046875,-0.005340576171875
1789316121457540600,0.66554052734375,-0.8804931640625,-0.4750518798828125,-0.0078277587890625
1789316121467508500,0.675508544921875,-0.8811492919921875,-0.478912353515625,-0.008392333984375
1789316121477475600,0.6854755859375,-0.8718414306640625,-0.4809112548828125,-0.00567626953125
1789316121487443700,0.695443603515625,-0.8639373779296875,-0.480072021484375,0.002288818359375
1789316121497411600,0.70541162109375,-0.8513946533203125,-0.47393798828125,0.0171661376953125
1789316121507379500,0.71537939453125,-0.8527984619140625,-0.4666595458984375,0.0262908935546875
1789316121517346600,0.7253466796875,-0.8760833740234375,-0.4687347412109375,0.0265350341796875
1789316121527314700,0.735314697265625,-0.898040771484375,-0.4674224853515625,0.0240936279296875
1789316121537282800,0.74528271484375,-0.9105224609375,-0.459228515625,0.0241546630859375
1789316121547250400,0.75525048828125,-0.9229888916015625,-0.4658050537109375,0.0193634033203125
1789316121557218600,0.765218505859375,-0.9267120361328125,-0.4716949462890625,0.016937255859375
1789316121567185700,0.775185546875,-0.9086761474609375,-0.4700775146484375,0.0157928466796875
1789316121577153800,0.78515380859375,-0.8876190185546875,-0.4743804931640625,0.0176239013671875
1789316121587121400,0.795121337890625,-0.8717193603515625,-0.4805450439453125,0.0186767578125
1789316121597089500,0.805089599609375,-0.8641510009765625,-0.4825897216796875,0.0081939697265625
1789316121607057700,0.8150576171875,-0.86541748046875,-0.481597900390625,0.0045166015625
1789316121617024800,0.825024658203125,-0.8573150634765625,-0.4771881103515625,0.014495849609375
1789316121626992600,0.83499267578125,-0.8495330810546875,-0.4757080078125,0.0138702392578125
1789316121636960500,0.84496044921875,-0.8374786376953125,-0.4755096435546875,0.017730712890625
1789316121646928600,0.8549287109375,-0.83380126953125,-0.4769744873046875,0.0171051025390625
1789316121656896500,0.864896484375,-0.83447265625,-0.4774627685546875,0.0124359130859375
1789316121666863600,0.874863525390625,-0.8467254638671875,-0.4777679443359375,0.012237548828125
1789316121676831500,0.88483154296875,-0.86566162109375,-0.478424072265625,0.0073089599609375
1789316121686799600,0.894799560546875,-0.87945556640625,-0.478179931640625,0.0078887939453125
1789316121696767500,0.904767578125,-0.8925628662109375,-0.4769744873046875,0.0118408203125
1789316121706735600,0.914735595703125,-0.9060821533203125,-0.4821319580078125,0.009979248046875
1789316121716702700,0.92470263671875,-0.9044036865234375,-0.483428955078125,0.0046234130859375
1789316121726670600,0.934670654296875,-0.896636962890625,-0.483184814453125,0.00311279296875
1789316121736638500,0.944638427734375,-0.890228271484375,-0.484039306640625,0.0051116943359375
1789316121746606600,0.954606689453125,-0.888580322265625,-0.4855804443359375,0.007904052734375
1789316121756573700,0.96457373046875,-0.8825531005859375,-0.483428955078125,0.0062713623046875
1789316121766541600,0.97454150390625,-0.87371826171875,-0.4808807373046875,0.00677490234375
1789316121776509400,0.984509521484375,-0.8673248291015625,-0.482330322265625,0.0126190185546875
1789316121786477600,0.9944775390625,-0.857269287109375,-0.4798736572265625,0.015228271484375
1789316121796445700,1.00444580078125,-0.851348876953125,-0.477752685546875,0.0153350830078125
1789316121806412800,1.014412841796875,-0.8569488525390625,-0.478668212890625,0.015380859375
1789316121816380400,1.02438037109375,-0.8706207275390625,-0.4811859130859375,0.0157928466796875
1789316121826348500,1.0343486328125,-0.87884521484375,-0.480682373046875,0.014617919921875
1789316121836316700,1.044316650390625,-0.8744964599609375,-0.4826507568359375,0.0151824951171875
1789316121846284500,1.054284423828125,-0.881011962890625,-0.48675537109375,0.0136260986328125
1789316121856251400,1.06425146484375,-0.88201904296875,-0.483642578125,0.0123748779296875
1789316121866219500,1.074219482421875,-0.8792877197265625,-0.4832305908203125,0.00970458984375
1789316121876187600,1.084187744140625,-0.880279541015625,-0.4827880859375,0.0089874267578125
1789316121886155500,1.094155517578125,-0.8745269775390625,-0.4829559326171875,0.01123046875
1789316121896123600,1.10412353515625,-0.8745574951171875,-0.4864501953125,0.0080108642578125
1789316121906090500,1.114090576171875,-0.876190185546875,-0.48736572265625,0.00714111328125
1789316121916058600,1.12405859375,-0.8736419677734375,-0.4849090576171875,0.0085601806640625
1789316121926026500,1.134026611328125,-0.87017822265625,-0.4824676513671875,0.0109405517578125
1789316121935994600,1.14399462890625,-0.86041259765625,-0.4860992431640625,0.0077056884765625
1789316121945962800,1.153962646484375,-0.863006591796875,-0.485687255859375,0.0075531005859375
1789316121955929600,1.1639296875,-0.870269775390625,-0.4825286865234375,0.009674072265625
1789316121965897500,1.1738974609375,-0.8704833984375,-0.4844970703125,0.0120086669921875
1789316121975865600,1.183865478515625,-0.8694305419921875,-0.484405517578125,0.016448974609375
1789316121985833700,1.193833740234375,-0.8649139404296875,-0.485504150390625,0.0149383544921875
1789316121995801600,1.203801513671875,-0.8622589111328125,-0.4868011474609375,0.010528564453125
1789316122005768400,1.2137685546875,-0.8662567138671875,-0.4873504638671875,0.00445556640625
1789316122015736600,1.223736572265625,-0.870391845703125,-0.4858245849609375,0.003143310546875
1789316122025704700,1.23370458984375,-0.87762451171875,-0.484527587890625,0.0047607421875
1789316122035672600,1.243672607421875,-0.879669189453125,-0.4871826171875,0.007720947265625
1789316122045639400,1.253639404296875,-0.8794708251953125,-0.4872589111328125,0.0095977783203125
1789316122055607600,1.263607666015625,-0.8768310546875,-0.487823486328125,0.0091705322265625
1789316122065575700,1.27357568359375,-0.8719635009765625,-0.48834228515625,0.0117950439453125
1789316122075543600,1.28354345703125,-0.8734130859375,-0.4888763427734375,0.0096893310546875
1789316122085511700,1.29351171875,-0.877349853515625,-0.490631103515625,0.0088348388671875
1789316122095480300,1.303480224609375,-0.872955322265625,-0.4876556396484375,0.011749267578125
1789316122105448200,1.3134482421875,-0.8696746826171875,-0.4876556396484375,0.0118865966796875
1789316122115416300,1.323416259765625,-0.8643798828125,-0.487274169921875,0.008941650390625
1789316122125384400,1.333384521484375,-0.863677978515625,-0.4878997802734375,0.0062255859375
1789316122135352300,1.343352294921875,-0.8703765869140625,-0.48822021484375,0.0048370361328125
1789316122145319200,1.353319091796875,-0.8701171875,-0.488677978515625,0.00347900390625
1789316122155287300,1.363287353515625,-0.868255615234375,-0.4906005859375,0.0048370361328125
1789316122165255400,1.37325537109375,-0.8621368408203125,-0.4914093017578125,0.0041656494140625
1789316122175223300,1.383223388671875,-0.8655853271484375,-0.4929046630859375,0.006622314453125
1789316122185191200,1.393191162109375,-0.8744354248046875,-0.4933929443359375,0.0107269287109375
1789316122195158300,1.403158203125,-0.876129150390625,-0.490234375,0.0134735107421875
1789316122205126400,1.41312646484375,-0.88128662109375,-0.4907073974609375,0.011688232421875
1789316122215094300,1.42309423828125,-0.8802032470703125,-0.4892120361328125,0.01251220703125
1789316122225062400,1.4330625,-0.8725738525390625,-0.4885101318359375,0.013397216796875
1789316122235030300,1.4430302734375,-0.8693695068359375,-0.489227294921875,0.0148773193359375
1789316122244997400,1.452997314453125,-0.8669586181640625,-0.489593505859375,0.0122528076171875
1789316122254965200,1.46296533203125,-0.8641357421875,-0.4868927001953125,0.0118560791015625
1789316122264933400,1.472933349609375,-0.866485595703125,-0.485107421875,0.01043701171875
1789316122274901200,1.4829013671875,-0.86773681640625,-0.485595703125,0.014190673828125
1789316122284868400,1.492868408203125,-0.86614990234375,-0.482757568359375,0.017181396484375
1789316122294836200,1.502836181640625,-0.870758056640625,-0.483001708984375,0.01483154296875
1789316122304804400,1.512804443359375,-0.8703155517578125,-0.4867095947265625,0.01544189453125
1789316122314772500,1.5227724609375,-0.868255615234375,-0.4893951416015625,0.012725830078125
1789316122324740000,1.532739990234375,-0.8695068359375,-0.489593505859375,0.016204833984375
1789316122334707200,1.542707275390625,-0.8671875,-0.492889404296875,0.0143585205078125
1789316122344675300,1.55267529296875,-0.8534393310546875,-0.4953460693359375,0.00982666015625
1789316122354643500,1.5626435546875,-0.85736083984375,-0.4971771240234375,0.0060272216796875
1789316122364611000,1.572611083984375,-0.867156982421875,-0.4940338134765625,0.0008392333984375
1789316122374579200,1.5825791015625,-0.864715576171875,-0.489013671875,0.001953125
1789316122384546300,1.59254638671875,-0.862213134765625,-0.490386962890625,0.0057220458984375
1789316122394514400,1.602514404296875,-0.8631591796875,-0.4911956787109375,0.004241943359375
1789316122404482300,1.612482421875,-0.8625946044921875,-0.4878997802734375,0.0069427490234375
1789316122414450200,1.6224501953125,-0.874603271484375,-0.4884490966796875,0.0108795166015625
1789316122424418300,1.632418212890625,-0.88153076171875,-0.4935760498046875,0.009124755859375
1789316122434385400,1.642385498046875,-0.88128662109375,-0.496307373046875,0.001983642578125
1789316122444353300,1.652353271484375,-0.8851318359375,-0.49810791015625,-0.003753662109375
1789316122454321200,1.662321044921875,-0.8797607421875,-0.49908447265625,-0.0023193359375
1789316122464289300,1.672289306640625,-0.8712615966796875,-0.49957275390625,0.00030517578125
1789316122474257200,1.682257080078125,-0.8630523681640625,-0.4953765869140625,0.0087432861328125
1789316122484224300,1.692224365234375,-0.8529052734375,-0.494049072265625,0.01129150390625
1789316122494192400,1.7021923828125,-0.8542938232421875,-0.4925689697265625,0.006134033203125
1789316122504160300,1.71216015625,-0.86102294921875,-0.4873046875,0.0059356689453125
1789316122514128100,1.722128173828125,-0.8648529052734375,-0.4844970703125,0.01263427734375
1789316122524096300,1.73209619140625,-0.883270263671875,-0.48333740234375,0.0182342529296875
1789316122534063400,1.7420634765625,-0.8950042724609375,-0.4829254150390625,0.01995849609375
1789316122544031200,1.75203125,-0.8928985595703125,-0.4822998046875,0.025054931640625
1789316122553999000,1.7619990234375,-0.8790283203125,-0.4869384765625,0.0296173095703125
1789316122563967200,1.77196728515625,-0.8641510009765625,-0.4836883544921875,0.0342254638671875
1789316122573934300,1.781934326171875,-0.857666015625,-0.487548828125,0.027557373046875
1789316122583902500,1.79190234375,-0.852264404296875,-0.4889678955078125,0.02105712890625
1789316122593870000,1.8018701171875,-0.8496246337890625,-0.4884033203125,0.01495361328125
1789316122603838200,1.811838134765625,-0.8502960205078125,-0.494354248046875,0.0047760009765625
1789316122613806300,1.821806396484375,-0.85894775390625,-0.4981536865234375,-0.0035400390625
1789316122623773400,1.8317734375,-0.868865966796875,-0.496063232421875,-0.007080078125
1789316122633741300,1.8417412109375,-0.87335205078125,-0.4932861328125,-0.0025482177734375
1789316122643709200,1.851709228515625,-0.868377685546875,-0.4936981201171875,-0.0008697509765625
1789316122653677300,1.86167724609375,-0.86962890625,-0.49566650390625,-0.0017852783203125
1789316122663645200,1.871645263671875,-0.8723907470703125,-0.4911041259765625,0.0039825439453125
1789316122673612300,1.8816123046875,-0.87109375,-0.489776611328125,0.0126800537109375
1789316122683580200,1.891580078125,-0.8770599365234375,-0.490447998046875,0.0157623291015625
1789316122693548300,1.90154833984375,-0.8759002685546875,-0.488433837890625,0.0165863037109375
1789316122703516200,1.91151611328125,-0.875885009765625,-0.4901275634765625,0.01580810546875
1789316122713484300,1.921484375,-0.8775482177734375,-0.49102783203125,0.0145721435546875
1789316122723451400,1.931451416015625,-0.870513916015625,-0.49407958984375,0.009490966796875
1789316122733419300,1.941419189453125,-0.8667755126953125,-0.4941253662109375,0.007537841796875
1789316122743387100,1.95138720703125,-0.8592071533203125,-0.4912109375,0.0072021484375
1789316122753355300,1.961355224609375,-0.860198974609375,-0.48956298828125,0.004913330078125
1789316122763323400,1.971323486328125,-0.8597412109375,-0.4918975830078125,0.0064849853515625
1789316122773290200,1.981290283203125,-0.8602294921875,-0.4910736083984375,0.0102081298828125
1789316122783258000,1.991258056640625,-0.859375,-0.4875030517578125,0.0133819580078125
1789316122793226200,2.001226318359375,-0.8654022216796875,-0.485992431640625,0.0131072998046875
1789316122803194400,2.0111943359375,-0.8746185302734375,-0.4872589111328125,0.0097808837890625
1789316122813161500,2.021161376953125,-0.87908935546875,-0.489532470703125,0.0120849609375
1789316122823129000,2.031129150390625,-0.8871307373046875,-0.49298095703125,0.012908935546875
1789316122833097200,2.04109716796875,-0.8854522705078125,-0.49200439453125,0.0133514404296875
1789316122843065300,2.0510654296875,-0.8800201416015625,-0.4928741455078125,0.0120391845703125
1789316122853033200,2.061033203125,-0.871490478515625,-0.492919921875,0.013580322265625
1789316122863000000,2.071,-0.871063232421875,-0.4918212890625,0.0092010498046875
1789316122872968200,2.08096826171875,-0.8699493408203125,-0.490936279296875,0.006805419921875
1789316122882936300,2.090936279296875,-0.8674163818359375,-0.489471435546875,0.0102081298828125
1789316122892904200,2.100904296875,-0.8667449951171875,-0.48675537109375,0.0110321044921875
1789316122902872300,2.110872314453125,-0.8663177490234375,-0.4880523681640625,0.0080413818359375
1789316122912839200,2.120839111328125,-0.864654541015625,-0.49005126953125,0.00445556640625
1789316122922807300,2.130807373046875,-0.858978271484375,-0.491851806640625,0.0047760009765625
1789316122932775200,2.140775146484375,-0.8563232421875,-0.492279052734375,0.0061798095703125
1789316122942743300,2.150743408203125,-0.859222412109375,-0.4932403564453125,0.00750732421875
1789316122952711400,2.16071142578125,-0.8621673583984375,-0.4938201904296875,0.0106658935546875
1789316122962678300,2.17067822265625,-0.8667755126953125,-0.4929656982421875,0.011932373046875
1789316122972646100,2.180646240234375,-0.8767242431640625,-0.4912109375,0.013458251953125
1789316122982614300,2.1906142578125,-0.883544921875,-0.4908599853515625,0.0125885009765625
1789316122992582400,2.20058251953125,-0.8796234130859375,-0.489990234375,0.0104217529296875
1789316123002550300,2.21055029296875,-0.872802734375,-0.4903411865234375,0.0100250244140625
1789316123012517000,2.22051708984375,-0.8713836669921875,-0.4881591796875,0.00958251953125
1789316123022485200,2.2304853515625,-0.8679351806640625,-0.48797607421875,0.006805419921875
1789316123032453400,2.240453369140625,-0.8694915771484375,-0.491485595703125,0.0060577392578125
1789316123042421200,2.250421142578125,-0.8736724853515625,-0.49029541015625,0.005523681640625
1789316123052388000,2.26038818359375,-0.8732452392578125,-0.49041748046875,0.007354736328125
1789316123062356200,2.270356201171875,-0.8671112060546875,-0.491729736328125,0.008056640625
1789316123072324400,2.280324462890625,-0.8641510009765625,-0.491607666015625,0.0115509033203125
1789316123082292200,2.290292236328125,-0.8709564208984375,-0.491851806640625,0.0072784423828125
1789316123092260400,2.30026025390625,-0.871124267578125,-0.492431640625,0.0042724609375
1789316123102225700,2.3102255859375,-0.8683013916015625,-0.495086669921875,0.0016326904296875
1789316123112193500,2.320193603515625,-0.8647613525390625,-0.4944915771484375,0.0048675537109375
1789316123122161700,2.33016162109375,-0.8617095947265625,-0.4948272705078125,0.006988525390625
1789316123132129500,2.340129638671875,-0.8656768798828125,-0.4943084716796875,0.0098114013671875
1789316123142097400,2.350097412109375,-0.868927001953125,-0.49481201171875,0.0068817138671875
1789316123152064500,2.360064453125,-0.8683319091796875,-0.4981689453125,0.0035400390625
1789316123162032600,2.37003271484375,-0.8714141845703125,-0.5012054443359375,0.001708984375
1789316123172000500,2.38000048828125,-0.8723602294921875,-0.5011138916015625,-0.0035247802734375
1789316123181968400,2.389968505859375,-0.8668365478515625,-0.5063323974609375,-0.012542724609375
1789316123191936500,2.3999365234375,-0.8610076904296875,-0.5137176513671875,-0.0230255126953125
1789316123201903600,2.409903564453125,-0.86846923828125,-0.5108642578125,-0.022216796875
1789316123211871700,2.419871826171875,-0.8554840087890625,-0.5028533935546875,-0.0139312744140625
1789316123221839400,2.42983935546875,-0.837371826171875,-0.507049560546875,-0.010772705078125
1789316123231807500,2.439807373046875,-0.8054351806640625,-0.5319366455078125,-0.019256591796875
1789316123241775600,2.449775634765625,-0.784637451171875,-0.515167236328125,-0.017669677734375
1789316123251742700,2.45974267578125,-0.813323974609375,-0.4937744140625,-0.0147552490234375
1789316123261710300,2.46971044921875,-0.85223388671875,-0.4866790771484375,0.00048828125
1789316123271678500,2.479678466796875,-0.867828369140625,-0.4716339111328125,0.022003173828125
1789316123281646600,2.489646484375,-0.8777313232421875,-0.466094970703125,0.038726806640625
1789316123291613700,2.49961376953125,-0.87408447265625,-0.459716796875,0.053924560546875
1789316123301581600,2.50958154296875,-0.8683624267578125,-0.4507293701171875,0.0644073486328125
1789316123311549400,2.519549560546875,-0.8597869873046875,-0.4459381103515625,0.06414794921875
1789316123321517600,2.529517578125,-0.8637542724609375,-0.448516845703125,0.0500030517578125
1789316123331485400,2.5394853515625,-0.8773345947265625,-0.451324462890625,0.0444183349609375
1789316123341452500,2.54945263671875,-0.9011077880859375,-0.4517974853515625,0.040435791015625
1789316123351420400,2.55942041015625,-0.9420318603515625,-0.4526214599609375,0.034576416015625
1789316123361388500,2.569388427734375,-0.968231201171875,-0.4438934326171875,0.0277557373046875
1789316123371356400,2.5793564453125,-0.96832275390625,-0.440582275390625,0.0277862548828125
1789316123381324500,2.589324462890625,-0.9549102783203125,-0.4486846923828125,0.0362091064453125
1789316123391291600,2.599291748046875,-0.937225341796875,-0.4536590576171875,0.0426788330078125
1789316123401259500,2.609259521484375,-0.9127044677734375,-0.45733642578125,0.0363616943359375
1789316123411227400,2.619227294921875,-0.901336669921875,-0.457244873046875,0.0300445556640625
1789316123421195500,2.629195556640625,-0.88702392578125,-0.4542083740234375,0.0279998779296875
1789316123431163600,2.63916357421875,-0.87225341796875,-0.45391845703125,0.0251617431640625
1789316123441130500,2.649130615234375,-0.869110107421875,-0.46075439453125,0.018402099609375
1789316123451098400,2.659098388671875,-0.878082275390625,-0.465972900390625,0.0110321044921875
1789316123461066500,2.66906640625,-0.888092041015625,-0.4659423828125,0.008056640625
1789316123471034600,2.67903466796875,-0.893798828125,-0.4624481201171875,0.0146026611328125
1789316123481001700,2.689001708984375,-0.8958282470703125,-0.453765869140625,0.0248565673828125
1789316123490969300,2.69896923828125,-0.8959197998046875,-0.4489898681640625,0.035247802734375
1789316123500937500,2.7089375,-0.88214111328125,-0.450469970703125,0.0397186279296875
1789316123510905600,2.718905517578125,-0.8630218505859375,-0.452850341796875,0.04986572265625
1789316123520873500,2.72887353515625,-0.8495941162109375,-0.4530792236328125,0.0564117431640625
1789316123530840300,2.73884033203125,-0.8527069091796875,-0.4346923828125,0.0654296875
1789316123540808400,2.748808349609375,-0.8745574951171875,-0.4371490478515625,0.0585174560546875
1789316123550776600,2.758776611328125,-0.893310546875,-0.44110107421875,0.0507049560546875
1789316123560744400,2.768744384765625,-0.9006500244140625,-0.440338134765625,0.047210693359375
1789316123570712600,2.778712646484375,-0.90667724609375,-0.4471282958984375,0.041595458984375
1789316123580679400,2.788679443359375,-0.9097137451171875,-0.453338623046875,0.0384063720703125
1789316123590647600,2.7986474609375,-0.9122314453125,-0.4561920166015625,0.03680419921875
1789316123600615400,2.808615478515625,-0.9142608642578125,-0.4644622802734375,0.0286865234375
1789316123610583600,2.81858349609375,-0.9121246337890625,-0.4653167724609375,0.0215606689453125
1789316123620551700,2.8285517578125,-0.900482177734375,-0.46002197265625,0.01715087890625
1789316123630518500,2.8385185546875,-0.887237548828125,-0.460113525390625,0.01580810546875
1789316123640486400,2.848486328125,-0.88128662109375,-0.4575653076171875,0.0195465087890625
1789316123650454500,2.85845458984375,-0.87841796875,-0.45501708984375,0.029052734375
1789316123660422700,2.868422607421875,-0.8755950927734375,-0.457916259765625,0.0324859619140625
1789316123670389500,2.878389404296875,-0.875823974609375,-0.455078125,0.039520263671875
1789316123680357400,2.888357421875,-0.886444091796875,-0.448822021484375,0.0476226806640625
1789316123690325500,2.898325439453125,-0.8922576904296875,-0.4461669921875,0.049224853515625
1789316123700293600,2.908293701171875,-0.8834075927734375,-0.4439239501953125,0.0479278564453125
1789316123710261500,2.918261474609375,-0.8683013916015625,-0.4436798095703125,0.049957275390625
1789316123720228400,2.928228271484375,-0.799285888671875,-0.437225341796875,0.060394287109375
1789316123730196500,2.938196533203125,-0.822967529296875,-0.4740142822265625,0.018707275390625
1789316123740164600,2.94816455078125,-0.8695526123046875,-0.46844482421875,-0.0127716064453125
1789316123750132500,2.958132568359375,-0.9057464599609375,-0.4580230712890625,0.00933837890625
1789316123760100600,2.9681005859375,-0.9252471923828125,-0.4835662841796875,0.000518798828125
1789316123770067500,2.9780673828125,-0.952789306640625,-0.48388671875,0.0037078857421875
1789316123780035600,2.98803564453125,-0.9675445556640625,-0.4683685302734375,0.013763427734375
1789316123790003500,2.99800341796875,-0.9644622802734375,-0.4564666748046875,0.020843505859375
1789316123799971600,3.0079716796875,-0.9389190673828125,-0.4480133056640625,0.0319671630859375
1789316123809938400,3.0179384765625,-0.89801025390625,-0.4481201171875,0.044677734375
1789316123819906600,3.027906494140625,-0.86480712890625,-0.4537200927734375,0.05401611328125
1789316123829874400,3.03787451171875,-0.8568267822265625,-0.4532012939453125,0.0491943359375
1789316123839842600,3.047842529296875,-0.854034423828125,-0.447601318359375,0.0459442138671875
1789316123849810700,3.057810791015625,-0.846282958984375,-0.4488983154296875,0.04742431640625
1789316123859777500,3.067777587890625,-0.8432159423828125,-0.4638824462890625,0.038238525390625
1789316123869745400,3.077745361328125,-0.8556671142578125,-0.4696502685546875,0.025360107421875
1789316123879713500,3.087713623046875,-0.8555755615234375,-0.4649505615234375,0.0211181640625
1789316123889681700,3.097681640625,-0.842559814453125,-0.4574737548828125,0.0232391357421875
1789316123899649500,3.1076494140625,-0.862518310546875,-0.4579925537109375,0.028564453125
1789316123909616400,3.117616455078125,-0.8821258544921875,-0.4593963623046875,0.0264434814453125
1789316123919584500,3.12758447265625,-0.896331787109375,-0.4608306884765625,0.024078369140625
1789316123929552600,3.137552734375,-0.9130859375,-0.458038330078125,0.02532958984375
1789316123939520500,3.1475205078125,-0.9181671142578125,-0.4584197998046875,0.0247039794921875
1789316123949488400,3.15748828125,-0.9187469482421875,-0.463714599609375,0.01904296875
1789316123959455500,3.16745556640625,-0.914703369140625,-0.47161865234375,0.0145111083984375
1789316123969423600,3.177423583984375,-0.9033203125,-0.470703125,0.019287109375
1789316123979391500,3.1873916015625,-0.8870697021484375,-0.46588134765625,0.024810791015625
1789316123989359600,3.197359619140625,-0.8776397705078125,-0.4626922607421875,0.031036376953125
1789316123999326500,3.207326416015625,-0.8728179931640625,-0.460693359375,0.0294647216796875
1789316124009294600,3.217294677734375,-0.86834716796875,-0.4595947265625,0.0286865234375
1789316124019262500,3.227262451171875,-0.8701629638671875,-0.462066650390625,0.0277252197265625
1789316124029230600,3.237230712890625,-0.870635986328125,-0.463348388671875,0.028778076171875
1789316124039198500,3.247198486328125,-0.8743743896484375,-0.464111328125,0.02838134765625
1789316124049165600,3.25716552734375,-0.874908447265625,-0.4625701904296875,0.028961181640625
1789316124059133400,3.267133544921875,-0.87982177734375,-0.46392822265625,0.0254669189453125
1789316124069101600,3.2771015625,-0.8817596435546875,-0.46502685546875,0.026702880859375
1789316124079069700,3.287069580078125,-0.8854217529296875,-0.461822509765625,0.0283966064453125
1789316124089037300,3.297037353515625,-0.89794921875,-0.4632720947265625,0.029022216796875
1789316124099005200,3.307005126953125,-0.9197998046875,-0.46209716796875,0.0236053466796875
1789316124108973300,3.316973388671875,-0.9166717529296875,-0.462371826171875,0.023162841796875
1789316124118941200,3.326941162109375,-0.8971710205078125,-0.4646759033203125,0.0267486572265625
1789316124128909000,3.336908935546875,-0.8856353759765625,-0.4683837890625,0.031768798828125
1789316124138876200,3.346876220703125,-0.8896026611328125,-0.469573974609375,0.0306243896484375
1789316124148844300,3.35684423828125,-0.8833770751953125,-0.4686737060546875,0.0281982421875
1789316124158812200,3.366812255859375,-0.870208740234375,-0.470794677734375,0.03369140625
1789316124168780300,3.3767802734375,-0.860931396484375,-0.4700927734375,0.0332489013671875
1789316124178748200,3.386748046875,-0.8622589111328125,-0.467529296875,0.0284881591796875
1789316124188715300,3.39671533203125,-0.867340087890625,-0.4625244140625,0.029327392578125
1789316124198683100,3.40668310546875,-0.866851806640625,-0.460723876953125,0.0342254638671875
1789316124208651300,3.4166513671875,-0.8722991943359375,-0.465118408203125,0.0328521728515625
1789316124218619100,3.426619140625,-0.87640380859375,-0.4688262939453125,0.02679443359375
1789316124228587300,3.436587158203125,-0.8794708251953125,-0.4696502685546875,0.026458740234375
1789316124238554000,3.44655419921875,-0.8791656494140625,-0.4679107666015625,0.03216552734375
1789316124248522200,3.456522216796875,-0.8782958984375,-0.4686431884765625,0.03265380859375
1789316124258490400,3.466490478515625,-0.88214111328125,-0.470306396484375,0.032928466796875
1789316124268458200,3.476458251953125,-0.8859405517578125,-0.4686431884765625,0.0349273681640625
1789316124278426000,3.486426025390625,-0.88555908203125,-0.4660491943359375,0.0356292724609375
1789316124288393200,3.496393310546875,-0.8833160400390625,-0.4683685302734375,0.0322265625
1789316124298361300,3.506361328125,-0.876983642578125,-0.4658660888671875,0.0289154052734375
1789316124308329200,3.5163291015625,-0.8805694580078125,-0.467315673828125,0.026092529296875
1789316124318297000,3.526297119140625,-0.88232421875,-0.4731292724609375,0.0258941650390625
1789316124328264200,3.53626416015625,-0.8800811767578125,-0.468780517578125,0.028167724609375
1789316124338232300,3.546232421875,-0.8790740966796875,-0.4666748046875,0.0289306640625
1789316124348200400,3.556200439453125,-0.877960205078125,-0.4687957763671875,0.0282440185546875
1789316124358168000,3.56616796875,-0.8751068115234375,-0.471282958984375,0.0262603759765625
1789316124368136200,3.57613623046875,-0.8773956298828125,-0.4730377197265625,0.0227813720703125
1789316124378103300,3.586103271484375,-0.8838043212890625,-0.4734344482421875,0.0243988037109375
1789316124388071400,3.596071533203125,-0.8908538818359375,-0.470001220703125,0.030792236328125
1789316124398039000,3.6060390625,-0.8898468017578125,-0.4702301025390625,0.034423828125
1789316124408007200,3.616007080078125,-0.8871612548828125,-0.4738311767578125,0.03271484375
1789316124417974300,3.625974365234375,-0.8798828125,-0.4734344482421875,0.0330963134765625
1789316124427942400,3.6359423828125,-0.8749542236328125,-0.4720611572265625,0.03460693359375
1789316124437910300,3.64591015625,-0.8759918212890625,-0.4713134765625,0.0329437255859375
1789316124447878100,3.655878173828125,-0.873016357421875,-0.4700469970703125,0.0271148681640625
1789316124457846300,3.66584619140625,-0.868499755859375,-0.4678955078125,0.027618408203125
1789316124467813400,3.6758134765625,-0.8707122802734375,-0.4695587158203125,0.02593994140625
1789316124477781200,3.68578125,-0.870361328125,-0.4714202880859375,0.027252197265625
1789316124487749400,3.695749267578125,-0.868316650390625,-0.47186279296875,0.0322723388671875
1789316124497717200,3.70571728515625,-0.866455078125,-0.4716796875,0.0357818603515625
1789316124507685000,3.71568505859375,-0.8690643310546875,-0.47247314453125,0.0345916748046875
1789316124517652200,3.72565234375,-0.8753814697265625,-0.470703125,0.0307159423828125
1789316124527620400,3.735620361328125,-0.884521484375,-0.46875,0.02685546875
1789316124537588200,3.745588134765625,-0.8888092041015625,-0.4689483642578125,0.0301513671875
1789316124547556000,3.75555615234375,-0.887939453125,-0.47210693359375,0.03094482421875
1789316124557523200,3.765523193359375,-0.8867645263671875,-0.47406005859375,0.0283203125
1789316124567491300,3.7754912109375,-0.8883209228515625,-0.4726715087890625,0.02984619140625
1789316124577459500,3.78545947265625,-0.894195556640625,-0.4727020263671875,0.0282440185546875
1789316124587427000,3.795427001953125,-0.8896026611328125,-0.47320556640625,0.027374267578125
1789316124597395200,3.805395263671875,-0.878082275390625,-0.4745635986328125,0.032012939453125
1789316124607362300,3.8153623046875,-0.8743438720703125,-0.47833251953125,0.0298919677734375
1789316124617330400,3.825330322265625,-0.8730316162109375,-0.47760009765625,0.026031494140625
1789316124627298000,3.835298095703125,-0.881805419921875,-0.47625732421875,0.025604248046875
1789316124637266200,3.84526611328125,-0.8844146728515625,-0.473663330078125,0.02984619140625
1789316124647234300,3.855234375,-0.8809967041015625,-0.4727935791015625,0.034912109375
1789316124657201400,3.865201416015625,-0.88262939453125,-0.471771240234375,0.033355712890625
1789316124667169300,3.875169189453125,-0.8806304931640625,-0.467864990234375,0.035491943359375
1789316124677137200,3.88513720703125,-0.8738555908203125,-0.4683990478515625,0.0351715087890625
1789316124687105300,3.895105224609375,-0.87060546875,-0.4711761474609375,0.0346221923828125
1789316124697072400,3.905072265625,-0.870635986328125,-0.4723358154296875,0.0307464599609375
1789316124707040300,3.915040283203125,-0.884185791015625,-0.469818115234375,0.03070068359375
1789316124717008100,3.925008056640625,-0.8881683349609375,-0.470367431640625,0.030731201171875
1789316124726976300,3.934976318359375,-0.8757171630859375,-0.470733642578125,0.037384033203125
1789316124736944000,3.944944091796875,-0.866119384765625,-0.473358154296875,0.040313720703125
1789316124746911200,3.9549111328125,-0.8672332763671875,-0.47479248046875,0.0340118408203125
1789316124756879400,3.96487939453125,-0.8868408203125,-0.4717864990234375,0.0264892578125
1789316124766847200,3.97484716796875,-0.891845703125,-0.4726715087890625,0.0261688232421875
1789316124776815000,3.984815185546875,-0.8875885009765625,-0.4769439697265625,0.0315093994140625
1789316124786782200,3.9947822265625,-0.878997802734375,-0.4725189208984375,0.039306640625
1789316124796750300,4.004750244140625,-0.8716888427734375,-0.4722137451171875,0.042572021484375
1789316124806718200,4.01471826171875,-0.868072509765625,-0.4807586669921875,0.03521728515625
1789316124816686000,4.02468603515625,-0.86712646484375,-0.4824981689453125,0.0282745361328125
1789316124826654200,4.034654296875,-0.8702850341796875,-0.481475830078125,0.0299224853515625
1789316124836621300,4.044621337890625,-0.86993408203125,-0.4779510498046875,0.031951904296875
1789316124846589400,4.05458935546875,-0.862274169921875,-0.4794769287109375,0.0311279296875
1789316124856557000,4.06455712890625,-0.865386962890625,-0.47845458984375,0.0298614501953125
1789316124866525200,4.074525146484375,-0.86956787109375,-0.47698974609375,0.026947021484375
1789316124876493300,4.084493408203125,-0.8672943115234375,-0.4788360595703125,0.0299530029296875
1789316124886460400,4.09446044921875,-0.865814208984375,-0.478607177734375,0.0362091064453125
1789316124896428000,4.104427978515625,-0.87451171875,-0.4774322509765625,0.0355377197265625
1789316124906396200,4.114396240234375,-0.8847503662109375,-0.4777069091796875,0.0335693359375
1789316124916364300,4.1243642578125,-0.8869476318359375,-0.4789886474609375,0.03192138671875
1789316124926331400,4.134331298828125,-0.8872528076171875,-0.4792938232421875,0.031524658203125
1789316124936299300,4.14429931640625,-0.8882904052734375,-0.47760009765625,0.02911376953125
1789316124946267100,4.15426708984375,-0.8891448974609375,-0.476654052734375,0.0290374755859375
1789316124956235300,4.1642353515625,-0.8827972412109375,-0.4784698486328125,0.032684326171875
1789316124966203100,4.174203125,-0.8759765625,-0.4750213623046875,0.0362091064453125
1789316124976170200,4.184170166015625,-0.873748779296875,-0.475830078125,0.0340118408203125
1789316124986138000,4.19413818359375,-0.870635986328125,-0.4771575927734375,0.0306854248046875
1789316124996106200,4.204106201171875,-0.8621673583984375,-0.4740753173828125,0.0291900634765625
1789316125006074000,4.21407421875,-0.860107421875,-0.4762115478515625,0.030059814453125
1789316125016041200,4.224041259765625,-0.877105712890625,-0.47772216796875,0.0289764404296875
1789316125026009300,4.23400927734375,-0.8814697265625,-0.47430419921875,0.03631591796875
1789316125035977200,4.243977294921875,-0.8763885498046875,-0.4752655029296875,0.0379486083984375
1789316125045945000,4.253945068359375,-0.8709869384765625,-0.4801177978515625,0.03192138671875
1789316125055913200,4.263913330078125,-0.8740692138671875,-0.4798431396484375,0.0314483642578125
1789316125065880300,4.27388037109375,-0.8853302001953125,-0.4793548583984375,0.029449462890625
1789316125075848200,4.28384814453125,-0.883453369140625,-0.4775543212890625,0.031005859375
1789316125085816000,4.293816162109375,-0.8727569580078125,-0.479339599609375,0.0339813232421875
1789316125095783700,4.30378369140625,-0.8647918701171875,-0.479766845703125,0.0353546142578125
1789316125105750800,4.313750732421875,-0.8774566650390625,-0.478973388671875,0.03387451171875
1789316125115719000,4.323718994140625,-0.89312744140625,-0.4779052734375,0.02996826171875
1789316125125686500,4.3336865234375,-0.8898162841796875,-0.4773712158203125,0.0314178466796875
1789316125135654700,4.343654541015625,-0.879669189453125,-0.47918701171875,0.0350799560546875
1789316125145622800,4.353622802734375,-0.8734588623046875,-0.4804840087890625,0.0361785888671875
1789316125155590000,4.36358984375,-0.871185302734375,-0.4820098876953125,0.0330657958984375
1789316125165557800,4.373557861328125,-0.868927001953125,-0.4813232421875,0.0343170166015625
1789316125175525600,4.383525634765625,-0.8709716796875,-0.4808349609375,0.034637451171875
1789316125185493800,4.39349365234375,-0.873199462890625,-0.478851318359375,0.035247802734375
1789316125195460900,4.4034609375,-0.877349853515625,-0.478607177734375,0.034698486328125
1789316125205428700,4.4134287109375,-0.881317138671875,-0.4800872802734375,0.0318756103515625
1789316125215396900,4.42339697265625,-0.8758697509765625,-0.4781341552734375,0.031494140625
1789316125225364700,4.43336474609375,-0.8709869384765625,-0.48388671875,0.02752685546875
1789316125235332600,4.44333251953125,-0.865386962890625,-0.4834136962890625,0.03009033203125
1789316125245299700,4.4532998046875,-0.865997314453125,-0.4814453125,0.0321502685546875
1789316125255267800,4.463267822265625,-0.8670654296875,-0.4812469482421875,0.033447265625
1789316125265235700,4.473235595703125,-0.8670654296875,-0.4822998046875,0.034393310546875
1789316125275203600,4.48320361328125,-0.874053955078125,-0.482879638671875,0.0326080322265625
1789316125285171700,4.493171630859375,-0.8773345947265625,-0.483428955078125,0.0321807861328125
1789316125295138800,4.503138916015625,-0.8737640380859375,-0.482452392578125,0.033721923828125
1789316125305107000,4.51310693359375,-0.8702239990234375,-0.4816436767578125,0.034149169921875
1789316125315074600,4.523074462890625,-0.8695526123046875,-0.4796295166015625,0.0359954833984375
1789316125325042700,4.533042724609375,-0.872222900390625,-0.4786529541015625,0.03350830078125
1789316125335009800,4.543009765625,-0.8750457763671875,-0.481231689453125,0.0314788818359375
1789316125344978000,4.55297802734375,-0.8792877197265625,-0.4825439453125,0.0308380126953125
1789316125354945500,4.562945556640625,-0.877899169921875,-0.4841766357421875,0.0282440185546875
1789316125364913700,4.57291357421875,-0.88018798828125,-0.4853515625,0.02935791015625
1789316125374881800,4.5828818359375,-0.8803253173828125,-0.4874267578125,0.029327392578125
1789316125384849000,4.592848876953125,-0.8873443603515625,-0.4884033203125,0.0279541015625
1789316125394816800,4.602816650390625,-0.8852691650390625,-0.4851837158203125,0.0313262939453125
1789316125404784600,4.61278466796875,-0.871368408203125,-0.488555908203125,0.0322418212890625
1789316125414752800,4.622752685546875,-0.8665924072265625,-0.4896087646484375,0.0317230224609375
1789316125424720000,4.632719970703125,-0.8580169677734375,-0.4881744384765625,0.0336151123046875
1789316125434687700,4.642687744140625,-0.85308837890625,-0.48907470703125,0.03533935546875
1789316125444655600,4.652655517578125,-0.85308837890625,-0.490264892578125,0.033905029296875
1789316125454623700,4.662623779296875,-0.852508544921875,-0.4897308349609375,0.0313262939453125
1789316125464591600,4.672591552734375,-0.8624725341796875,-0.4880523681640625,0.0306854248046875
1789316125474558700,4.682558837890625,-0.8650970458984375,-0.4893646240234375,0.0287017822265625
1789316125484526800,4.69252685546875,-0.8693084716796875,-0.4915924072265625,0.0273284912109375
1789316125494494700,4.70249462890625,-0.8758392333984375,-0.4932403564453125,0.0261077880859375
1789316125504462600,4.712462646484375,-0.8726654052734375,-0.4898681640625,0.0312347412109375
1789316125514430700,4.7224306640625,-0.871795654296875,-0.4858856201171875,0.033172607421875
1789316125524397800,4.732397705078125,-0.874359130859375,-0.4818267822265625,0.033111572265625
1789316125534365700,4.74236572265625,-0.8785858154296875,-0.48260498046875,0.0292816162109375
1789316125544333800,4.752333740234375,-0.8752288818359375,-0.48504638671875,0.0298004150390625
1789316125554301700,4.7623017578125,-0.86553955078125,-0.482391357421875,0.03350830078125
1789316125564268800,4.772268798828125,-0.860443115234375,-0.484375,0.0359344482421875
1789316125574237000,4.78223681640625,-0.8650360107421875,-0.4864654541015625,0.0316619873046875
1789316125584204800,4.792204833984375,-0.8690338134765625,-0.4861297607421875,0.0279388427734375
1789316125594172700,4.802172607421875,-0.8674468994140625,-0.4867706298828125,0.0280914306640625
1789316125604140800,4.812140869140625,-0.865966796875,-0.4879150390625,0.0289154052734375
1789316125614108000,4.82210791015625,-0.864471435546875,-0.487396240234375,0.0312042236328125
1789316125624075800,4.83207568359375,-0.8590087890625,-0.488525390625,0.03253173828125
1789316125634043600,4.842043701171875,-0.860382080078125,-0.4949493408203125,0.0311126708984375
1789316125644011800,4.85201171875,-0.869659423828125,-0.4947052001953125,0.030914306640625
1789316125653979000,4.861978759765625,-0.875823974609375,-0.4945831298828125,0.029144287109375
1789316125663946800,4.87194677734375,-0.877105712890625,-0.4959259033203125,0.0267791748046875
1789316125673914600,4.88191455078125,-0.878875732421875,-0.4930267333984375,0.02630615234375
1789316125683882800,4.8918828125,-0.883758544921875,-0.4944305419921875,0.02496337890625
1789316125693851000,4.901850830078125,-0.888580322265625,-0.4936370849609375,0.0256195068359375
1789316125703817700,4.911817626953125,-0.886474609375,-0.488555908203125,0.0303192138671875
1789316125713785600,4.92178564453125,-0.8795623779296875,-0.484466552734375,0.03448486328125
1789316125723753700,4.931753662109375,-0.86865234375,-0.4840087890625,0.0351409912109375
1789316125733721900,4.941721923828125,-0.859649658203125,-0.4855194091796875,0.03363037109375
1789316125743688700,4.951688720703125,-0.8557891845703125,-0.48382568359375,0.030548095703125
1789316125753656800,4.96165673828125,-0.857421875,-0.48529052734375,0.02691650390625
1789316125763624700,4.971624755859375,-0.8579254150390625,-0.48455810546875,0.02752685546875
1789316125773592800,4.9815927734375,-0.8568267822265625,-0.483856201171875,0.030548095703125
1789316125783560700,4.991560791015625,-0.8545989990234375,-0.4874114990234375,0.02862548828125
1789316125793527800,5.00152783203125,-0.8590850830078125,-0.4890899658203125,0.026092529296875
1789316125803495700,5.01149560546875,-0.868377685546875,-0.486572265625,0.026885986328125
1789316125813463800,5.0214638671875,-0.8704681396484375,-0.4841156005859375,0.031463623046875
1789316125823431700,5.031431640625,-0.868988037109375,-0.4864654541015625,0.035186767578125
1789316125833398800,5.041398681640625,-0.8762969970703125,-0.48773193359375,0.0345916748046875
1789316125843367000,5.051366943359375,-0.8789520263671875,-0.4886627197265625,0.0349273681640625
1789316125853334800,5.061334716796875,-0.8805999755859375,-0.4890594482421875,0.0329132080078125
1789316125863302700,5.071302734375,-0.881072998046875,-0.4911651611328125,0.0288238525390625
1789316125873270800,5.081270751953125,-0.8766021728515625,-0.49481201171875,0.0269012451171875
1789316125883238000,5.09123779296875,-0.8778839111328125,-0.4896697998046875,0.029632568359375
1789316125893205800,5.101205810546875,-0.877655029296875,-0.48944091796875,0.0302734375
1789316125903173600,5.111173583984375,-0.8765411376953125,-0.489349365234375,0.027679443359375
1789316125913141800,5.121141845703125,-0.8722686767578125,-0.48883056640625,0.0289459228515625
1789316125923108900,5.13110888671875,-0.86834716796875,-0.487060546875,0.0321502685546875
1789316125933076700,5.14107666015625,-0.8668670654296875,-0.489288330078125,0.030364990234375
1789316125943044600,5.151044677734375,-0.86358642578125,-0.4892730712890625,0.029754638671875
1789316125953012700,5.1610126953125,-0.8661346435546875,-0.4866485595703125,0.03314208984375
1789316125962980900,5.17098095703125,-0.86041259765625,-0.4873046875,0.0317535400390625
1789316125972947700,5.18094775390625,-0.85223388671875,-0.4902801513671875,0.026611328125
1789316125982915800,5.190915771484375,-0.8538970947265625,-0.4891815185546875,0.031646728515625
1789316125992883700,5.2008837890625,-0.8555450439453125,-0.4884796142578125,0.03570556640625
1789316126002851800,5.210851806640625,-0.861328125,-0.4847564697265625,0.0344696044921875
1789316126012818700,5.220818603515625,-0.8719329833984375,-0.4842681884765625,0.0350341796875
1789316126022786800,5.230786865234375,-0.8748779296875,-0.484222412109375,0.0289459228515625
1789316126032754700,5.240754638671875,-0.883331298828125,-0.487396240234375,0.022857666015625
1789316126042722800,5.250722900390625,-0.88250732421875,-0.4865570068359375,0.0233306884765625
1789316126052690700,5.260690673828125,-0.876678466796875,-0.4863433837890625,0.02764892578125
1789316126062657800,5.27065771484375,-0.87542724609375,-0.485137939453125,0.0305633544921875
1789316126072626000,5.2806259765625,-0.878692626953125,-0.4869232177734375,0.0290985107421875
1789316126082593800,5.29059375,-0.87896728515625,-0.4883270263671875,0.0282440185546875
1789316126092561700,5.300561767578125,-0.87579345703125,-0.4869384765625,0.0316162109375
1789316126102529300,5.310529296875,-0.8689422607421875,-0.4883880615234375,0.0330810546875
1789316126112497400,5.320497314453125,-0.8675384521484375,-0.4897003173828125,0.0304412841796875
1789316126122465300,5.33046533203125,-0.8711090087890625,-0.4895172119140625,0.0287322998046875
1789316126132433400,5.340433349609375,-0.8689422607421875,-0.4859771728515625,0.029266357421875
1789316126142401500,5.350401611328125,-0.8670654296875,-0.4882965087890625,0.0283355712890625
1789316126152368400,5.360368408203125,-0.866058349609375,-0.4889984130859375,0.0285491943359375
1789316126162336300,5.370336181640625,-0.8653717041015625,-0.488189697265625,0.0249481201171875
1789316126172304400,5.380304443359375,-0.862579345703125,-0.486297607421875,0.0244903564453125
1789316126182272500,5.3902724609375,-0.86248779296875,-0.48675537109375,0.030181884765625
1789316126192239400,5.4002392578125,-0.8619842529296875,-0.488983154296875,0.0344085693359375
1789316126202207200,5.410207275390625,-0.864013671875,-0.4895477294921875,0.034576416015625
1789316126212175400,5.42017529296875,-0.86236572265625,-0.488433837890625,0.0338134765625
1789316126222143500,5.4301435546875,-0.871185302734375,-0.48760986328125,0.0331268310546875
1789316126232111400,5.440111328125,-0.88104248046875,-0.4834747314453125,0.0302276611328125
1789316126242078200,5.450078125,-0.88275146484375,-0.4829864501953125,0.0260162353515625
1789316126252046300,5.46004638671875,-0.8831329345703125,-0.48883056640625,0.0269622802734375
1789316126262014500,5.470014404296875,-0.8868408203125,-0.4878387451171875,0.0255126953125
1789316126271982300,5.479982421875,-0.8845367431640625,-0.48638916015625,0.024505615234375
1789316126281949200,5.48994921875,-0.8742218017578125,-0.48779296875,0.0279693603515625
1789316126291917300,5.499917236328125,-0.8606109619140625,-0.488067626953125,0.0339508056640625
1789316126301885400,5.509885498046875,-0.85906982421875,-0.4867706298828125,0.032501220703125
1789316126311853300,5.519853271484375,-0.86114501953125,-0.485809326171875,0.02874755859375
1789316126321821400,5.529821533203125,-0.8647308349609375,-0.484771728515625,0.03076171875
1789316126331788300,5.539788330078125,-0.8721923828125,-0.4847412109375,0.0314178466796875
1789316126341756400,5.54975634765625,-0.8758697509765625,-0.484710693359375,0.0296173095703125
1789316126351724300,5.559724365234375,-0.8795166015625,-0.4857025146484375,0.0300140380859375
1789316126361692400,5.5696923828125,-0.8795623779296875,-0.486114501953125,0.03094482421875
1789316126371659300,5.5796591796875,-0.8751983642578125,-0.48626708984375,0.0289306640625
1789316126381627400,5.58962744140625,-0.8677520751953125,-0.48651123046875,0.0300750732421875
1789316126391595300,5.59959521484375,-0.8704071044921875,-0.4871673583984375,0.0306396484375
1789316126401563400,5.6095634765625,-0.8712005615234375,-0.4864654541015625,0.0292205810546875
1789316126411531500,5.619531494140625,-0.866973876953125,-0.487152099609375,0.029296875
1789316126421498400,5.629498291015625,-0.866790771484375,-0.485748291015625,0.0310211181640625
1789316126431466200,5.63946630859375,-0.8634796142578125,-0.48748779296875,0.026580810546875
1789316126441434400,5.649434326171875,-0.8688507080078125,-0.4901580810546875,0.024627685546875
1789316126451402500,5.659402587890625,-0.870697021484375,-0.48626708984375,0.025970458984375
1789316126461369300,5.669369384765625,-0.8713836669921875,-0.4854583740234375,0.030242919921875
1789316126471337200,5.679337158203125,-0.8732452392578125,-0.4858551025390625,0.032318115234375
1789316126481305300,5.689305419921875,-0.8742218017578125,-0.48583984375,0.03179931640625
1789316126491273500,5.6992734375,-0.8755035400390625,-0.4856109619140625,0.030487060546875
1789316126501241300,5.709241455078125,-0.86962890625,-0.486572265625,0.033721923828125
1789316126511208200,5.719208251953125,-0.8640899658203125,-0.4875335693359375,0.0357208251953125
1789316126521176300,5.72917626953125,-0.86962890625,-0.48828125,0.0303802490234375
1789316126531144400,5.73914453125,-0.8728179931640625,-0.4882354736328125,0.025390625
1789316126541112300,5.7491123046875,-0.8723602294921875,-0.48681640625,0.0281829833984375
1789316126551079200,5.7590791015625,-0.8689422607421875,-0.4849853515625,0.03253173828125
1789316126561047300,5.76904736328125,-0.8634490966796875,-0.4871063232421875,0.0319366455078125
1789316126571015400,5.779015380859375,-0.865692138671875,-0.486175537109375,0.032623291015625
1789316126580983300,5.7889833984375,-0.8712158203125,-0.4846343994140625,0.030914306640625
1789316126590950100,5.7989501953125,-0.873443603515625,-0.4859466552734375,0.02960205078125
1789316126600918300,5.808918212890625,-0.8755950927734375,-0.484527587890625,0.030059814453125
1789316126610886400,5.818886474609375,-0.878387451171875,-0.4840087890625,0.029510498046875
1789316126620854300,5.828854248046875,-0.8740234375,-0.48492431640625,0.02838134765625
1789316126630822400,5.838822509765625,-0.8739471435546875,-0.48876953125,0.0263519287109375
1789316126640789200,5.848789306640625,-0.8749847412109375,-0.4886627197265625,0.0264434814453125
1789316126650757400,5.85875732421875,-0.8698577880859375,-0.485443115234375,0.0330352783203125
1789316126660725200,5.868725341796875,-0.8654327392578125,-0.4827423095703125,0.0368804931640625
1789316126670693400,5.878693359375,-0.8603363037109375,-0.48492431640625,0.031829833984375
1789316126680660200,5.88866015625,-0.86669921875,-0.484100341796875,0.0302886962890625
1789316126690628400,5.89862841796875,-0.8720245361328125,-0.4854583740234375,0.0308074951171875
1789316126700596200,5.90859619140625,-0.864959716796875,-0.4857330322265625,0.030364990234375
1789316126710564400,5.918564453125,-0.865631103515625,-0.485687255859375,0.0287628173828125
1789316126720532500,5.928532470703125,-0.8716888427734375,-0.4883575439453125,0.0288543701171875
1789316126730499300,5.938499267578125,-0.879547119140625,-0.489410400390625,0.0278472900390625
1789316126740467200,5.94846728515625,-0.8787384033203125,-0.4892120361328125,0.0288848876953125
1789316126750435300,5.958435302734375,-0.8772735595703125,-0.4895477294921875,0.0318145751953125
1789316126760403500,5.968403564453125,-0.8849029541015625,-0.4897003173828125,0.02801513671875
1789316126770370300,5.978370361328125,-0.88323974609375,-0.4857635498046875,0.02813720703125
1789316126780338200,5.988338134765625,-0.881805419921875,-0.4842376708984375,0.03143310546875
1789316126790306300,5.998306396484375,-0.87725830078125,-0.48529052734375,0.031036376953125
1789316126800274400,6.0082744140625,-0.87017822265625,-0.4844970703125,0.0298919677734375
1789316126810241500,6.018241455078125,-0.8608551025390625,-0.4822235107421875,0.032257080078125
1789316126820209200,6.028209228515625,-0.853729248046875,-0.48565673828125,0.03460693359375
1789316126830177300,6.03817724609375,-0.85302734375,-0.4864959716796875,0.0318603515625
1789316126840145400,6.0481455078125,-0.8531494140625,-0.4838409423828125,0.0291290283203125
1789316126850113300,6.05811328125,-0.8577880859375,-0.484161376953125,0.03009033203125
1789316126860080000,6.068080078125,-0.8703155517578125,-0.485687255859375,0.0281524658203125
1789316126870048300,6.07804833984375,-0.8854217529296875,-0.4832305908203125,0.0270843505859375
1789316126880016400,6.088016357421875,-0.8929901123046875,-0.4819793701171875,0.0308685302734375
1789316126889984300,6.097984375,-0.8878173828125,-0.4854736328125,0.033172607421875
1789316126899951400,6.107951416015625,-0.8774871826171875,-0.4875030517578125,0.0319976806640625
1789316126909919200,6.117919189453125,-0.8708038330078125,-0.486907958984375,0.032073974609375
1789316126919887400,6.127887451171875,-0.8735809326171875,-0.48797607421875,0.0318145751953125
1789316126929855200,6.137855224609375,-0.87225341796875,-0.4866943359375,0.031768798828125
1789316126939822300,6.147822265625,-0.868377685546875,-0.485931396484375,0.0341796875
1789316126949790200,6.157790283203125,-0.864715576171875,-0.4873199462890625,0.0302581787109375
1789316126959758300,6.16775830078125,-0.8602447509765625,-0.4887847900390625,0.0269927978515625
1789316126969726200,6.177726318359375,-0.8628082275390625,-0.483123779296875,0.0292510986328125
1789316126979694300,6.1876943359375,-0.8649139404296875,-0.4846954345703125,0.0308380126953125
1789316126989661400,6.197661376953125,-0.8710784912109375,-0.485595703125,0.0325469970703125
1789316126999629300,6.20762939453125,-0.8777313232421875,-0.4853973388671875,0.030731201171875
1789316127009597200,6.21759716796875,-0.8813018798828125,-0.4884490966796875,0.027587890625
1789316127019565300,6.2275654296875,-0.879150390625,-0.4888916015625,0.029937744140625
1789316127029532400,6.237532470703125,-0.871551513671875,-0.48760986328125,0.031402587890625
1789316127039500300,6.247500244140625,-0.8688812255859375,-0.488372802734375,0.03082275390625
1789316127049468200,6.25746826171875,-0.863739013671875,-0.4880218505859375,0.031524658203125
1789316127059436300,6.267436279296875,-0.8691864013671875,-0.48907470703125,0.027679443359375
1789316127069404400,6.277404296875,-0.87347412109375,-0.4847412109375,0.0251617431640625
1789316127079371500,6.28737158203125,-0.8677215576171875,-0.4848785400390625,0.0287322998046875
1789316127089339100,6.297339111328125,-0.86798095703125,-0.4880828857421875,0.0301666259765625
1789316127099307300,6.307307373046875,-0.8730621337890625,-0.48944091796875,0.025390625
1789316127109275400,6.317275390625,-0.8729095458984375,-0.4868011474609375,0.023101806640625
1789316127119242200,6.3272421875,-0.87359619140625,-0.48638916015625,0.0318756103515625
1789316127129210000,6.337210205078125,-0.8774261474609375,-0.4881134033203125,0.030914306640625
1789316127139178200,6.34717822265625,-0.88299560546875,-0.48822021484375,0.0271759033203125
1789316127149146400,6.357146484375,-0.8833770751953125,-0.4875030517578125,0.03045654296875
1789316127159113200,6.36711328125,-0.877471923828125,-0.486724853515625,0.032928466796875
1789316127169081000,6.3770810546875,-0.8657684326171875,-0.4870758056640625,0.03253173828125
1789316127179049200,6.38704931640625,-0.8616180419921875,-0.4897308349609375,0.028900146484375
1789316127189017300,6.397017333984375,-0.862518310546875,-0.4912261962890625,0.0249786376953125
1789316127198985200,6.406985107421875,-0.86163330078125,-0.4909820556640625,0.0240020751953125
1789316127208952000,6.4169521484375,-0.8660430908203125,-0.490509033203125,0.0228118896484375
1789316127218920200,6.426920166015625,-0.8654632568359375,-0.4930572509765625,0.021392822265625
1789316127228888300,6.436888427734375,-0.862091064453125,-0.4903564453125,0.025970458984375
1789316127238856200,6.446856201171875,-0.8651123046875,-0.493133544921875,0.02581787109375
1789316127248823000,6.456822998046875,-0.870513916015625,-0.4921112060546875,0.0269927978515625
1789316127258791200,6.466791259765625,-0.8704681396484375,-0.4920806884765625,0.029327392578125
1789316127268759300,6.47675927734375,-0.870391845703125,-0.49298095703125,0.0326690673828125
1789316127278727200,6.48672705078125,-0.8659820556640625,-0.4932098388671875,0.0320281982421875
1789316127288694300,6.4966943359375,-0.8671722412109375,-0.4923553466796875,0.0323028564453125
1789316127298662100,6.506662109375,-0.8703460693359375,-0.4914398193359375,0.029541015625
1789316127308630300,6.51663037109375,-0.87493896484375,-0.4912872314453125,0.02728271484375
1789316127318598100,6.52659814453125,-0.8714752197265625,-0.492828369140625,0.025787353515625
1789316127328566300,6.536566162109375,-0.864227294921875,-0.4937286376953125,0.0255126953125
1789316127338533000,6.546533203125,-0.8603973388671875,-0.4955291748046875,0.02703857421875
1789316127348501200,6.556501220703125,-0.8596343994140625,-0.493896484375,0.026580810546875
1789316127358469000,6.56646923828125,-0.8619384765625,-0.494293212890625,0.0264739990234375
1789316127368437200,6.576437255859375,-0.8610076904296875,-0.4952392578125,0.029541015625
1789316127378404400,6.586404296875,-0.8623504638671875,-0.4934234619140625,0.0305328369140625
1789316127388372200,6.596372314453125,-0.8653106689453125,-0.493438720703125,0.03094482421875
1789316127398340400,6.60634033203125,-0.867889404296875,-0.49444580078125,0.027252197265625
1789316127408308200,6.61630810546875,-0.869720458984375,-0.49249267578125,0.028167724609375
1789316127418275300,6.626275390625,-0.871826171875,-0.49346923828125,0.0281524658203125
1789316127428243200,6.6362431640625,-0.8719024658203125,-0.4931640625,0.0286407470703125
1789316127438211300,6.64621142578125,-0.877838134765625,-0.4945220947265625,0.02459716796875
1789316127448179200,6.65617919921875,-0.873046875,-0.4927978515625,0.02777099609375
1789316127458147300,6.666147216796875,-0.863525390625,-0.4918212890625,0.0316162109375
1789316127468114400,6.676114501953125,-0.86077880859375,-0.4926910400390625,0.0288238525390625
1789316127478082300,6.686082275390625,-0.8574066162109375,-0.493621826171875,0.0272674560546875
1789316127488050200,6.69605029296875,-0.8531646728515625,-0.4947357177734375,0.0283355712890625
1789316127498018300,6.706018310546875,-0.85357666015625,-0.49517822265625,0.0257110595703125
1789316127507985400,6.7159853515625,-0.86383056640625,-0.4946136474609375,0.02545166015625
1789316127517953300,6.725953369140625,-0.8687896728515625,-0.4948577880859375,0.027740478515625
1789316127527921200,6.735921142578125,-0.8708343505859375,-0.494384765625,0.027801513671875
1789316127537889300,6.74588916015625,-0.8697509765625,-0.495758056640625,0.0242462158203125
1789316127547856400,6.7558564453125,-0.87548828125,-0.4978790283203125,0.022674560546875
1789316127557824300,6.76582421875,-0.880340576171875,-0.49810791015625,0.0256805419921875
1789316127567792000,6.775792236328125,-0.877960205078125,-0.4973907470703125,0.030731201171875
1789316127577760300,6.78576025390625,-0.8736114501953125,-0.4948883056640625,0.032958984375
1789316127587728400,6.795728271484375,-0.867218017578125,-0.49560546875,0.0279541015625
1789316127597695200,6.8056953125,-0.8650665283203125,-0.497222900390625,0.0247650146484375
1789316127607663000,6.8156630859375,-0.859527587890625,-0.4937744140625,0.0283966064453125
1789316127617631200,6.82563134765625,-0.8524017333984375,-0.4947052001953125,0.02838134765625
1789316127627599400,6.835599365234375,-0.8516845703125,-0.495025634765625,0.0277252197265625
1789316127637566200,6.845566162109375,-0.8583221435546875,-0.4957122802734375,0.02935791015625
1789316127647534300,6.855534423828125,-0.8610687255859375,-0.4961700439453125,0.02752685546875
1789316127657502200,6.865502197265625,-0.85992431640625,-0.4958648681640625,0.0241241455078125
1789316127667470300,6.87547021484375,-0.8582305908203125,-0.4963226318359375,0.0251922607421875
1789316127677437200,6.885437255859375,-0.8622283935546875,-0.4952545166015625,0.0254364013671875
1789316127687405300,6.8954052734375,-0.8656005859375,-0.495941162109375,0.026580810546875
1789316127697373200,6.905373291015625,-0.863250732421875,-0.496856689453125,0.030242919921875
1789316127707341300,6.91534130859375,-0.8651885986328125,-0.49737548828125,0.031341552734375
1789316127717309200,6.92530908203125,-0.8713226318359375,-0.4982452392578125,0.0277252197265625
1789316127727276300,6.9352763671875,-0.8805694580078125,-0.5003204345703125,0.0236968994140625
1789316127737244400,6.945244384765625,-0.880340576171875,-0.497711181640625,0.0236053466796875
1789316127747212300,6.95521240234375,-0.87310791015625,-0.4994049072265625,0.0242156982421875
1789316127757180200,6.96518017578125,-0.865509033203125,-0.5019073486328125,0.0224456787109375
1789316127767147300,6.975147216796875,-0.8604583740234375,-0.499420166015625,0.0237579345703125
1789316127777115400,6.985115478515625,-0.8631439208984375,-0.49951171875,0.024871826171875
1789316127787083300,6.995083251953125,-0.8672332763671875,-0.4971466064453125,0.023834228515625
1789316127797051100,7.005051025390625,-0.8653106689453125,-0.493316650390625,0.027496337890625
1789316127807018200,7.015018310546875,-0.8641204833984375,-0.4923858642578125,0.0294952392578125
1789316127816986400,7.024986328125,-0.8637847900390625,-0.49273681640625,0.028350830078125
1789316127826954200,7.034954345703125,-0.8610382080078125,-0.4903717041015625,0.0310516357421875
1789316127836922000,7.044922119140625,-0.858367919921875,-0.4930877685546875,0.02813720703125
1789316127846889200,7.05488916015625,-0.8619384765625,-0.49273681640625,0.0263214111328125
1789316127856857300,7.064857421875,-0.8629608154296875,-0.49285888671875,0.0286865234375
1789316127866825200,7.0748251953125,-0.871063232421875,-0.4965362548828125,0.024444580078125
1789316127876793000,7.08479296875,-0.8739166259765625,-0.49725341796875,0.0216064453125
1789316127886761200,7.09476123046875,-0.8697509765625,-0.49761962890625,0.02423095703125
1789316127896728300,7.104728271484375,-0.8702850341796875,-0.4970855712890625,0.022705078125
1789316127906696200,7.1146962890625,-0.870849609375,-0.498382568359375,0.024993896484375
1789316127916664300,7.124664306640625,-0.871002197265625,-0.499237060546875,0.02593994140625
1789316127926632200,7.134632080078125,-0.8650665283203125,-0.4991302490234375,0.026580810546875
1789316127936599300,7.144599365234375,-0.865020751953125,-0.5001068115234375,0.0279998779296875
1789316127946567400,7.1545673828125,-0.8619537353515625,-0.499237060546875,0.02838134765625
1789316127956535300,7.164535400390625,-0.8597259521484375,-0.4981536865234375,0.0255126953125
1789316127966503200,7.174503173828125,-0.8556671142578125,-0.500396728515625,0.0249176025390625
1789316127976470300,7.18447021484375,-0.8587493896484375,-0.4999237060546875,0.023590087890625
1789316127986438400,7.1944384765625,-0.8657073974609375,-0.498382568359375,0.025787353515625
1789316127996406300,7.20440625,-0.867828369140625,-0.49603271484375,0.0258331298828125
1789316128006374400,7.21437451171875,-0.8653411865234375,-0.49761962890625,0.0262298583984375
1789316128016341200,7.22434130859375,-0.86553955078125,-0.4990997314453125,0.0272674560546875
1789316128026309400,7.234309326171875,-0.8673858642578125,-0.4976654052734375,0.0228271484375
1789316128036277200,7.24427734375,-0.8681793212890625,-0.4979705810546875,0.0244598388671875
1789316128046245400,7.254245361328125,-0.8651885986328125,-0.500091552734375,0.0249481201171875
1789316128056213500,7.264213623046875,-0.8576507568359375,-0.498565673828125,0.0289459228515625
1789316128066180400,7.274180419921875,-0.8567047119140625,-0.49884033203125,0.0283355712890625
1789316128076148200,7.284148193359375,-0.8630523681640625,-0.4984283447265625,0.0229949951171875
1789316128086116400,7.294116455078125,-0.8647308349609375,-0.497039794921875,0.022247314453125
1789316128096083700,7.304083740234375,-0.8645172119140625,-0.4975128173828125,0.0265350341796875
1789316128106050800,7.31405078125,-0.8623504638671875,-0.495941162109375,0.0254669189453125
1789316128116018700,7.324018798828125,-0.865509033203125,-0.49578857421875,0.024078369140625
1789316128125986800,7.33398681640625,-0.869049072265625,-0.495361328125,0.02362060546875
1789316128135954700,7.34395458984375,-0.8735809326171875,-0.4977264404296875,0.0234527587890625
1789316128145921800,7.353921875,-0.8729400634765625,-0.4982757568359375,0.0229034423828125
1789316128155889700,7.3638896484375,-0.8716278076171875,-0.496612548828125,0.0274658203125
1789316128165857800,7.37385791015625,-0.8670654296875,-0.4968109130859375,0.0306396484375
1789316128175826000,7.383825927734375,-0.862640380859375,-0.4984283447265625,0.0293426513671875
1789316128185792800,7.393792724609375,-0.862060546875,-0.4980010986328125,0.0263519287109375
1789316128195760600,7.4037607421875,-0.8572540283203125,-0.4977569580078125,0.02667236328125
1789316128205728800,7.413728759765625,-0.85589599609375,-0.497955322265625,0.026214599609375
1789316128215697000,7.42369677734375,-0.857513427734375,-0.497650146484375,0.0253753662109375
1789316128225664500,7.43366455078125,-0.866729736328125,-0.496337890625,0.0220947265625
1789316128235631600,7.443631591796875,-0.87066650390625,-0.498199462890625,0.01947021484375
1789316128245599700,7.453599853515625,-0.870330810546875,-0.49822998046875,0.0207366943359375
1789316128255568000,7.46356787109375,-0.8695068359375,-0.4979248046875,0.0254669189453125
1789316128265535700,7.47353564453125,-0.8686676025390625,-0.4996185302734375,0.0243988037109375
1789316128275502600,7.483502685546875,-0.8638916015625,-0.4999542236328125,0.0269012451171875
1789316128285470700,7.493470703125,-0.8655853271484375,-0.500457763671875,0.028961181640625
1789316128295438800,7.50343896484375,-0.8683624267578125,-0.498626708984375,0.0274810791015625
1789316128305406700,7.51340673828125,-0.8676605224609375,-0.4976959228515625,0.0259246826171875
1789316128315373600,7.52337353515625,-0.8590545654296875,-0.4993438720703125,0.0274505615234375
1789316128325341700,7.533341796875,-0.8506011962890625,-0.4980621337890625,0.0263824462890625
1789316128335309800,7.543309814453125,-0.8565673828125,-0.49835205078125,0.0258026123046875
1789316128345277700,7.553277587890625,-0.864471435546875,-0.49725341796875,0.0235595703125
1789316128355244500,7.56324462890625,-0.864715576171875,-0.49920654296875,0.024627685546875
1789316128365212700,7.573212646484375,-0.8619537353515625,-0.498565673828125,0.02685546875
1789316128375180800,7.583180908203125,-0.8607177734375,-0.4965362548828125,0.02850341796875
1789316128385148700,7.593148681640625,-0.86572265625,-0.497955322265625,0.02520751953125
1789316128395115500,7.603115478515625,-0.872100830078125,-0.4985198974609375,0.025238037109375
1789316128405083600,7.613083740234375,-0.8705291748046875,-0.497283935546875,0.0266571044921875
1789316128415051800,7.6230517578125,-0.87518310546875,-0.4988250732421875,0.0252227783203125
1789316128425019600,7.63301953125,-0.8741302490234375,-0.4973297119140625,0.0229339599609375
1789316128434987800,7.64298779296875,-0.863677978515625,-0.4967803955078125,0.025482177734375
1789316128444954600,7.65295458984375,-0.8557891845703125,-0.4998016357421875,0.0252838134765625
1789316128454922800,7.6629228515625,-0.855865478515625,-0.499053955078125,0.025177001953125
1789316128464890600,7.672890625,-0.8627166748046875,-0.4975128173828125,0.0264434814453125
1789316128474858800,7.682858642578125,-0.8648681640625,-0.4981842041015625,0.0244598388671875
1789316128484825600,7.69282568359375,-0.8636322021484375,-0.5005035400390625,0.024871826171875
1789316128494793700,7.702793701171875,-0.862640380859375,-0.5000762939453125,0.02606201171875
1789316128504761600,7.71276171875,-0.8615264892578125,-0.5001983642578125,0.020843505859375
1789316128514729700,7.722729736328125,-0.858245849609375,-0.501983642578125,0.020355224609375
1789316128524696800,7.73269677734375,-0.8605499267578125,-0.501678466796875,0.0279998779296875
1789316128534664700,7.742664794921875,-0.8633270263671875,-0.4987945556640625,0.030181884765625
1789316128544632600,7.752632568359375,-0.8641815185546875,-0.5029144287109375,0.0266265869140625
1789316128554600700,7.7626005859375,-0.8664093017578125,-0.501434326171875,0.0262603759765625
1789316128564567800,7.77256787109375,-0.868499755859375,-0.5008392333984375,0.0256500244140625
1789316128574535700,7.78253564453125,-0.86944580078125,-0.501556396484375,0.02923583984375
1789316128584503600,7.792503662109375,-0.8651580810546875,-0.496978759765625,0.0298004150390625
1789316128594471700,7.8024716796875,-0.86181640625,-0.497650146484375,0.0258331298828125
1789316128604438800,7.812438720703125,-0.8604736328125,-0.4991607666015625,0.0235137939453125
1789316128614407000,7.822406982421875,-0.861358642578125,-0.4976348876953125,0.0257720947265625
1789316128624374500,7.83237451171875,-0.8592376708984375,-0.4969329833984375,0.02490234375
1789316128634342700,7.8423427734375,-0.8537445068359375,-0.4977569580078125,0.0262908935546875
1789316128644309800,7.852309814453125,-0.856170654296875,-0.4971771240234375,0.0239105224609375
1789316128654278000,7.86227783203125,-0.8551025390625,-0.4976806640625,0.0212554931640625
1789316128664245500,7.87224560546875,-0.8563385009765625,-0.4981231689453125,0.022735595703125
1789316128674213600,7.882213623046875,-0.8653411865234375,-0.49847412109375,0.0281829833984375
1789316128684181800,7.892181640625,-0.8689422607421875,-0.4958648681640625,0.030181884765625
1789316128694148900,7.90214892578125,-0.86859130859375,-0.499542236328125,0.029083251953125
1789316128704116700,7.91211669921875,-0.87176513671875,-0.5010223388671875,0.0251922607421875
1789316128714084600,7.922084716796875,-0.8770904541015625,-0.5006103515625,0.0218963623046875
1789316128724052700,7.932052734375,-0.874237060546875,-0.503265380859375,0.0190582275390625
1789316128734019800,7.942019775390625,-0.86883544921875,-0.506134033203125,0.0137176513671875
1789316128743987700,7.95198779296875,-0.8654022216796875,-0.50640869140625,0.0117645263671875
1789316128753955600,7.96195556640625,-0.8522796630859375,-0.5031890869140625,0.01678466796875
1789316128763923700,7.971923828125,-0.8442535400390625,-0.5023345947265625,0.0218963623046875
1789316128773890800,7.981890869140625,-0.8536529541015625,-0.510986328125,0.020294189453125
1789316128783858700,7.991858642578125,-0.8712615966796875,-0.5081329345703125,0.0215606689453125
1789316128793826800,8.001826904296875,-0.88470458984375,-0.4979248046875,0.0305328369140625
1789316128803794700,8.011794677734375,-0.8941497802734375,-0.49395751953125,0.0391082763671875
1789316128813761800,8.02176171875,-0.906219482421875,-0.491790771484375,0.0420379638671875
1789316128823729700,8.031729736328124,-0.90234375,-0.4882659912109375,0.040283203125
1789316128833697800,8.04169775390625,-0.88519287109375,-0.4920806884765625,0.03778076171875
1789316128843666000,8.051666015625,-0.8648834228515625,-0.4957275390625,0.035919189453125
1789316128853632800,8.0616328125,-0.8517608642578125,-0.495513916015625,0.0348052978515625
1789316128863600600,8.0716005859375,-0.8480224609375,-0.49725341796875,0.0300445556640625
1789316128873568800,8.08156884765625,-0.84295654296875,-0.49652099609375,0.0272979736328125
1789316128883537000,8.091536865234374,-0.84039306640625,-0.4971466064453125,0.028076171875
1789316128893503700,8.101503662109375,-0.84478759765625,-0.4958953857421875,0.0272369384765625
1789316128903471600,8.1114716796875,-0.8378143310546875,-0.492828369140625,0.0256805419921875
1789316128913439700,8.121439697265625,-0.836883544921875,-0.4952850341796875,0.0341644287109375
1789316128923408000,8.131407958984376,-0.8409271240234375,-0.49407958984375,0.038818359375
1789316128933375700,8.141375732421874,-0.84893798828125,-0.4947357177734375,0.04266357421875
1789316128943342600,8.151342529296874,-0.8638458251953125,-0.49993896484375,0.0371856689453125
1789316128953310700,8.161310791015625,-0.8769073486328125,-0.501373291015625,0.030609130859375
1789316128963278800,8.17127880859375,-0.8825531005859375,-0.499176025390625,0.0292510986328125
1789316128973246700,8.181246826171876,-0.8819122314453125,-0.5011749267578125,0.026153564453125
1789316128983213600,8.191213623046876,-0.8803558349609375,-0.502471923828125,0.0245361328125
1789316128993181700,8.201181640625,-0.8740386962890625,-0.5030670166015625,0.022674560546875
1789316129003149800,8.21114990234375,-0.865997314453125,-0.5049285888671875,0.02294921875
1789316129013117700,8.22111767578125,-0.8653411865234375,-0.505218505859375,0.02203369140625
1789316129023084500,8.23108447265625,-0.8616943359375,-0.5042266845703125,0.027130126953125
1789316129033052700,8.241052734375,-0.85546875,-0.50518798828125,0.0247650146484375
1789316129043020800,8.251020751953124,-0.8535003662109375,-0.50360107421875,0.02618408203125
1789316129052988700,8.26098876953125,-0.8475799560546875,-0.50152587890625,0.03033447265625
1789316129062955500,8.27095556640625,-0.8454742431640625,-0.5009765625,0.031494140625
1789316129072923600,8.280923583984375,-0.848358154296875,-0.5022430419921875,0.0274658203125
1789316129082891800,8.290891845703126,-0.8530731201171875,-0.503143310546875,0.02301025390625
1789316129092859600,8.300859619140626,-0.859710693359375,-0.5035858154296875,0.018341064453125
1789316129102828800,8.310828857421875,-0.8700103759765625,-0.501190185546875,0.0182952880859375
1789316129112796700,8.320796630859375,-0.8733367919921875,-0.4982452392578125,0.0174407958984375
1789316129122764800,8.330764892578125,-0.87677001953125,-0.5010528564453125,0.0204315185546875
1789316129132732700,8.340732666015626,-0.8785400390625,-0.4999847412109375,0.022674560546875
1789316129142699800,8.35069970703125,-0.8776092529296875,-0.4986572265625,0.0243988037109375
1789316129152667600,8.360667724609375,-0.8752899169921875,-0.4986114501953125,0.025543212890625
1789316129162635800,8.3706357421875,-0.8684844970703125,-0.501434326171875,0.02435302734375
1789316129173851000,8.381850830078125,-0.86358642578125,-0.5018768310546875,0.02044677734375
1789316129183818800,8.39181884765625,-0.8594818115234375,-0.50152587890625,0.0224609375
1789316129193785600,8.40178564453125,-0.8534393310546875,-0.5023040771484375,0.0228729248046875
1789316129203753700,8.411753662109374,-0.8472442626953125,-0.503753662109375,0.0231475830078125
1789316129213721900,8.421721923828125,-0.851776123046875,-0.502777099609375,0.0232696533203125
1789316129223689700,8.431689697265625,-0.8690185546875,-0.502960205078125,0.0173797607421875
1789316129233656600,8.441656494140625,-0.8665618896484375,-0.500885009765625,0.0179901123046875
1789316129243624700,8.451624755859376,-0.8607177734375,-0.502593994140625,0.0201568603515625
1789316129253592800,8.4615927734375,-0.8571624755859375,-0.5030059814453125,0.026763916015625
1789316129263560700,8.471560791015625,-0.85650634765625,-0.5034637451171875,0.0245513916015625
1789316129273527600,8.481527587890625,-0.858551025390625,-0.5053253173828125,0.022705078125
1789316129283495700,8.49149560546875,-0.8598480224609375,-0.505859375,0.02410888671875
1789316129293463800,8.5014638671875,-0.862518310546875,-0.508270263671875,0.0203857421875
1789316129303431700,8.511431640625,-0.860443115234375,-0.505401611328125,0.021881103515625
1789316129313398800,8.521398681640624,-0.8599090576171875,-0.50543212890625,0.0244598388671875
1789316129323366700,8.53136669921875,-0.8604278564453125,-0.5057373046875,0.022216796875
1789316129333334800,8.541334716796875,-0.861541748046875,-0.5005950927734375,0.027313232421875
1789316129343302700,8.551302734375,-0.86572265625,-0.501190185546875,0.0291290283203125
1789316129353269800,8.561269775390626,-0.861297607421875,-0.498504638671875,0.030364990234375
1789316129363237600,8.571237548828124,-0.8591156005859375,-0.500396728515625,0.030731201171875
1789316129373205800,8.581205810546875,-0.8600006103515625,-0.4984130859375,0.02691650390625
1789316129383173600,8.591173583984375,-0.8629913330078125,-0.4992523193359375,0.0279693603515625
1789316129393140700,8.601140625,-0.86029052734375,-0.4990692138671875,0.027679443359375
1789316129403108900,8.61110888671875,-0.85760498046875,-0.499359130859375,0.028289794921875
1789316129413076700,8.62107666015625,-0.8621673583984375,-0.498046875,0.02996826171875
1789316129423044600,8.631044677734375,-0.86492919921875,-0.4980316162109375,0.0301055908203125
1789316129433011700,8.64101171875,-0.8640289306640625,-0.4988861083984375,0.0280914306640625
1789316129442979800,8.650979736328125,-0.8614349365234375,-0.4996795654296875,0.0286407470703125
1789316129452947700,8.66094775390625,-0.8637847900390625,-0.500457763671875,0.031219482421875
1789316129462915600,8.67091552734375,-0.8644561767578125,-0.4980926513671875,0.033416748046875
1789316129472882700,8.680882568359374,-0.8630523681640625,-0.49755859375,0.033538818359375
1789316129482850800,8.690850830078125,-0.8650665283203125,-0.4998321533203125,0.0306243896484375
1789316129492819000,8.70081884765625,-0.871826171875,-0.4991607666015625,0.0247344970703125
1789316129502786600,8.71078662109375,-0.8769073486328125,-0.49847412109375,0.023712158203125
1789316129512753700,8.720753662109376,-0.87542724609375,-0.4989166259765625,0.0263214111328125
1789316129522721800,8.7307216796875,-0.865997314453125,-0.50067138671875,0.0289154052734375
1789316129532690000,8.74068994140625,-0.8643646240234375,-0.501953125,0.0287628173828125
1789316129542657500,8.750657470703125,-0.8587799072265625,-0.5011749267578125,0.028656005859375
1789316129552625700,8.760625732421875,-0.85748291015625,-0.5024261474609375,0.02978515625
1789316129562591700,8.770591796875,-0.8583831787109375,-0.5016326904296875,0.0270843505859375
1789316129572560000,8.780559814453126,-0.8653717041015625,-0.500579833984375,0.026641845703125
1789316129582527700,8.79052783203125,-0.8643341064453125,-0.4987335205078125,0.0248565673828125
1789316129592495600,8.80049560546875,-0.86224365234375,-0.5008392333984375,0.02587890625
1789316129602462700,8.810462646484375,-0.8623809814453125,-0.5019683837890625,0.026580810546875
1789316129612430800,8.820430908203125,-0.86370849609375,-0.5008392333984375,0.0252532958984375
1789316129622398700,8.830398681640625,-0.861602783203125,-0.49932861328125,0.024627685546875
1789316129632366600,8.84036669921875,-0.8673248291015625,-0.5001983642578125,0.0247039794921875
1789316129642333700,8.850333740234374,-0.8685455322265625,-0.4988861083984375,0.02740478515625
1789316129652301800,8.8603017578125,-0.873809814453125,-0.498016357421875,0.02777099609375
1789316129662270000,8.87027001953125,-0.876129150390625,-0.49786376953125,0.0261077880859375
1789316129672237600,8.880237548828125,-0.8687744140625,-0.500518798828125,0.02471923828125
1789316129682204700,8.89020458984375,-0.8598175048828125,-0.49969482421875,0.0285186767578125
1789316129692172800,8.9001728515625,-0.8543701171875,-0.4974517822265625,0.027496337890625
1789316129702141000,8.910140869140625,-0.85302734375,-0.5010528564453125,0.0251312255859375
1789316129712108500,8.920108642578125,-0.8531494140625,-0.5013427734375,0.02337646484375
1789316129722075600,8.93007568359375,-0.853546142578125,-0.5008087158203125,0.0210113525390625
1789316129732043800,8.940043701171875,-0.8520050048828125,-0.50482177734375,0.0201263427734375
1789316129742012000,8.950011962890626,-0.8607635498046875,-0.5048065185546875,0.0208587646484375
1789316129751979800,8.959979736328124,-0.86651611328125,-0.5038909912109375,0.0212249755859375
1789316129761946600,8.969946533203125,-0.868438720703125,-0.505828857421875,0.0233154296875
1789316129771914800,8.979914794921875,-0.8702850341796875,-0.5047760009765625,0.0252227783203125
1789316129781883000,8.9898828125,-0.876922607421875,-0.5019683837890625,0.0260009765625
1789316129791850800,8.999850830078126,-0.878875732421875,-0.5008697509765625,0.027862548828125
1789316129801818600,9.009818603515624,-0.871490478515625,-0.50048828125,0.0248260498046875
1789316129811785700,9.01978564453125,-0.86602783203125,-0.5,0.025238037109375
1789316129821753900,9.02975390625,-0.863037109375,-0.4971771240234375,0.0260009765625
1789316129831721700,9.0397216796875,-0.8537750244140625,-0.496673583984375,0.0278778076171875
1789316129841689900,9.04968994140625,-0.8485107421875,-0.4982147216796875,0.0269775390625
1789316129851656700,9.05965673828125,-0.855560302734375,-0.500732421875,0.0254669189453125
1789316129861624800,9.069624755859374,-0.8550872802734375,-0.5003204345703125,0.024017333984375
1789316129871592700,9.0795927734375,-0.8553924560546875,-0.498077392578125,0.028045654296875
1789316129881560800,9.089560791015625,-0.8580780029296875,-0.500732421875,0.0275421142578125
1789316129891527700,9.099527587890625,-0.8614501953125,-0.5000457763671875,0.0234375
1789316129901495800,9.109495849609376,-0.8620758056640625,-0.49951171875,0.02764892578125
1789316129911463700,9.119463623046874,-0.8624267578125,-0.5024566650390625,0.0310821533203125
1789316129921431800,9.129431884765625,-0.872772216796875,-0.5054779052734375,0.0287628173828125
1789316129931400000,9.13939990234375,-0.876953125,-0.5020294189453125,0.029632568359375
1789316129941366800,9.14936669921875,-0.87371826171875,-0.503265380859375,0.036041259765625
1789316129951334700,9.159334716796875,-0.86981201171875,-0.5031585693359375,0.0393218994140625
1789316129961302800,9.169302734375,-0.8751220703125,-0.504302978515625,0.035125732421875
1789316129971271000,9.17927099609375,-0.8814544677734375,-0.503387451171875,0.031951904296875
1789316129981237800,9.18923779296875,-0.880096435546875,-0.5003204345703125,0.0288238525390625
1789316129991205600,9.19920556640625,-0.8786468505859375,-0.4967193603515625,0.0299224853515625
1789316130001173800,9.209173828125,-0.882904052734375,-0.5008697509765625,0.02734375
1789316130011142000,9.219141845703126,-0.879302978515625,-0.499053955078125,0.0199127197265625
1789316130021108700,9.229108642578124,-0.8582916259765625,-0.4962921142578125,0.0033111572265625
1789316130031076600,9.23907666015625,-0.84759521484375,-0.4961090087890625,0.0016021728515625
1789316130041044700,9.249044677734375,-0.8226318359375,-0.505828857421875,0.000396728515625
1789316130051012900,9.259012939453125,-0.80902099609375,-0.491455078125,0.001251220703125
1789316130060979700,9.268979736328125,-0.8033447265625,-0.4940185546875,0.0028228759765625
1789316130070947600,9.278947509765626,-0.808258056640625,-0.4946136474609375,-0.007049560546875
1789316130080915700,9.288915771484374,-0.8054046630859375,-0.49615478515625,-0.0185394287109375
1789316130090883800,9.2988837890625,-0.84173583984375,-0.50665283203125,-0.020751953125
1789316130100850000,9.308849853515625,-0.882965087890625,-0.49560546875,-0.0347442626953125
1789316130110816800,9.318816650390625,-0.8993377685546875,-0.4485626220703125,-0.0598602294921875
1789316130120784600,9.32878466796875,-0.93218994140625,-0.385223388671875,-0.033843994140625
1789316130130752800,9.338752685546876,-0.9777679443359375,-0.440460205078125,-0.0705108642578125
1789316130140721000,9.348720947265624,-0.958038330078125,-0.4625396728515625,-0.074859619140625
1789316130150687700,9.358687744140624,-0.916046142578125,-0.4797210693359375,-0.0382537841796875
1789316130160655600,9.368655517578125,-0.839630126953125,-0.579925537109375,0.011016845703125
1789316130170623700,9.378623779296875,-0.754058837890625,-0.6401519775390625,0.0927581787109375
1789316130180591900,9.388591796875,-0.736083984375,-0.643829345703125,0.1479644775390625
1789316130190558700,9.398558837890626,-0.7686004638671875,-0.6442413330078125,0.1750640869140625
1789316130200526600,9.408526611328124,-0.798919677734375,-0.6309814453125,0.187347412109375
1789316130210494700,9.41849462890625,-0.811767578125,-0.6005096435546875,0.201171875
1789316130220462800,9.428462890625,-0.79443359375,-0.5841522216796875,0.190460205078125
1789316130230430700,9.4384306640625,-0.771240234375,-0.568023681640625,0.1558074951171875
1789316130240397600,9.4483974609375,-0.805572509765625,-0.5464019775390625,0.1307220458984375
1789316130250365700,9.45836572265625,-0.8020477294921875,-0.54925537109375,0.115142822265625
1789316130260333800,9.468333740234375,-0.7525634765625,-0.55426025390625,0.111663818359375
1789316130270301700,9.4783017578125,-0.706085205078125,-0.555328369140625,0.095245361328125
1789316130280268500,9.4882685546875,-0.6814422607421875,-0.5767364501953125,0.0775146484375
1789316130290236700,9.498236572265625,-0.6948394775390625,-0.609100341796875,0.0967864990234375
1789316130300204800,9.508204833984376,-0.7213897705078125,-0.631072998046875,0.1257171630859375
1789316130310172700,9.518172607421874,-0.7343902587890625,-0.6432037353515625,0.1449432373046875
1789316130320139500,9.528139404296875,-0.747314453125,-0.6460418701171875,0.157196044921875
1789316130330107600,9.538107666015625,-0.7598724365234375,-0.64471435546875,0.1513671875
1789316130340075800,9.54807568359375,-0.7649078369140625,-0.647918701171875,0.1484832763671875
1789316130350043600,9.558043701171876,-0.7982177734375,-0.6558990478515625,0.1472625732421875
1789316130360011800,9.56801171875,-0.764617919921875,-0.674468994140625,0.134918212890625
1789316130369978600,9.577978515625,-0.79864501953125,-0.69873046875,0.1322479248046875
1789316130379946800,9.58794677734375,-0.830047607421875,-0.6680450439453125,0.154144287109375
1789316130389914600,9.59791455078125,-0.805206298828125,-0.6358642578125,0.1756439208984375
1789316130399882800,9.6078828125,-0.79425048828125,-0.62310791015625,0.173614501953125
1789316130409849600,9.617849609375,-0.7850189208984375,-0.6229705810546875,0.164764404296875
1789316130419817700,9.627817626953124,-0.7764739990234375,-0.623077392578125,0.150604248046875
1789316130429785900,9.637785888671875,-0.786102294921875,-0.6120452880859375,0.138092041015625
1789316130439753700,9.647753662109375,-0.8204498291015625,-0.6005706787109375,0.1291961669921875
1789316130449720800,9.657720947265625,-0.8350067138671875,-0.596527099609375,0.11920166015625
1789316130459688700,9.667688720703126,-0.8100738525390625,-0.592926025390625,0.113067626953125
1789316130469656800,9.67765673828125,-0.80120849609375,-0.602081298828125,0.1147308349609375
1789316130479624700,9.687624755859375,-0.7957916259765625,-0.6185760498046875,0.126617431640625
1789316130489591800,9.697591796875,-0.7803955078125,-0.6310577392578125,0.1333465576171875
1789316130499560000,9.707559814453125,-0.7719879150390625,-0.628692626953125,0.130828857421875
1789316130509527800,9.71752783203125,-0.7799835205078125,-0.627960205078125,0.1246337890625
1789316130519495700,9.72749560546875,-0.7730712890625,-0.6261138916015625,0.1328887939453125
1789316130529463800,9.7374638671875,-0.7545928955078125,-0.627532958984375,0.1325531005859375
1789316130539431000,9.747430908203125,-0.741607666015625,-0.6300506591796875,0.1238555908203125
1789316130549398800,9.757398681640625,-0.752105712890625,-0.62164306640625,0.118438720703125
1789316130559366700,9.76736669921875,-0.757720947265625,-0.61383056640625,0.1110687255859375
1789316130569334800,9.777334716796876,-0.7755279541015625,-0.607818603515625,0.112457275390625
1789316130579302000,9.787302001953124,-0.7899169921875,-0.6100616455078125,0.1199188232421875
1789316130589269800,9.797269775390625,-0.7743682861328125,-0.6134796142578125,0.1194915771484375
1789316130599237600,9.807237548828125,-0.6918792724609375,-0.6319580078125,0.1243743896484375
1789316130609205800,9.817205810546875,-0.6868133544921875,-0.657928466796875,0.1681060791015625
1789316130619172900,9.8271728515625,-0.749908447265625,-0.6432037353515625,0.1599273681640625
1789316130629140700,9.837140625,-0.7565155029296875,-0.631866455078125,0.1325531005859375
1789316130639108600,9.847108642578124,-0.7533416748046875,-0.6413116455078125,0.12847900390625
1789316130649076700,9.85707666015625,-0.7579345703125,-0.644500732421875,0.1426849365234375
1789316130659043800,9.8670439453125,-0.7736358642578125,-0.6291961669921875,0.1441192626953125
1789316130669011700,9.87701171875,-0.776702880859375,-0.6118621826171875,0.1330413818359375
1789316130678979800,9.886979736328126,-0.7675628662109375,-0.6123809814453125,0.1211700439453125
1789316130688947700,9.89694775390625,-0.75177001953125,-0.6180419921875,0.119384765625
1789316130698914800,9.906914794921875,-0.7482452392578125,-0.617645263671875,0.1248931884765625
1789316130708882700,9.916882568359375,-0.758544921875,-0.6224517822265625,0.126190185546875
1789316130718850800,9.926850830078125,-0.7824859619140625,-0.626922607421875,0.119476318359375
1789316130728818700,9.936818603515626,-0.7812652587890625,-0.62542724609375,0.11395263671875
1789316130738786800,9.946786865234374,-0.7606964111328125,-0.627655029296875,0.1077423095703125
1789316130748753700,9.956753662109374,-0.7509765625,-0.63018798828125,0.1089324951171875
1789316130758721800,9.9667216796875,-0.7679290771484375,-0.627349853515625,0.11553955078125
1789316130768690000,9.97668994140625,-0.7911834716796875,-0.6233978271484375,0.113555908203125
1789316130778657800,9.98665771484375,-0.7886962890625,-0.621551513671875,0.1228485107421875
1789316130788624600,9.996624755859376,-0.7829132080078125,-0.616241455078125,0.1287078857421875
1789316130798592800,10.0065927734375,-0.7890472412109375,-0.6176300048828125,0.1187744140625
1789316130808561000,10.016560791015625,-0.780426025390625,-0.6230010986328125,0.1168060302734375
1789316130818528800,10.02652880859375,-0.75799560546875,-0.6269378662109375,0.1162109375
1789316130828495600,10.03649560546875,-0.7448883056640625,-0.6293182373046875,0.118988037109375
1789316130838463700,10.046463623046876,-0.756622314453125,-0.6239776611328125,0.116455078125
1789316130848431900,10.056431884765624,-0.7820892333984375,-0.6134490966796875,0.1072540283203125
1789316130858399700,10.066399658203125,-0.78924560546875,-0.611083984375,0.1054534912109375
1789316130868366600,10.07636669921875,-0.791168212890625,-0.6186370849609375,0.11114501953125
1789316130878334700,10.086334716796875,-0.7883148193359375,-0.6153717041015625,0.117523193359375
1789316130888302800,10.096302734375,-0.78369140625,-0.6135711669921875,0.1214141845703125
1789316130898270700,10.106270751953126,-0.7804412841796875,-0.61865234375,0.1203765869140625
1789316130908237600,10.116237548828124,-0.7734222412109375,-0.622589111328125,0.1230010986328125
1789316130918205700,10.126205810546875,-0.760406494140625,-0.6190643310546875,0.1291656494140625
1789316130928173800,10.136173828125,-0.761383056640625,-0.6214599609375,0.1319122314453125
1789316130938141700,10.1461416015625,-0.7689208984375,-0.6206512451171875,0.1295013427734375
1789316130948109800,10.15610986328125,-0.7686767578125,-0.6147003173828125,0.1178741455078125
1789316130958076700,10.16607666015625,-0.767425537109375,-0.617584228515625,0.114715576171875
1789316130968044800,10.176044921875,-0.7780303955078125,-0.6215362548828125,0.115966796875
1789316130978013000,10.186012939453125,-0.7792510986328125,-0.6204681396484375,0.11590576171875
1789316130987980800,10.195980712890625,-0.7714080810546875,-0.6172943115234375,0.1117706298828125
1789316130997947600,10.20594775390625,-0.7703704833984375,-0.618896484375,0.107086181640625
1789316131007915800,10.215915771484376,-0.7812957763671875,-0.622772216796875,0.1080169677734375
1789316131017884000,10.2258837890625,-0.784149169921875,-0.61834716796875,0.114990234375
1789316131027851800,10.235851806640625,-0.7820892333984375,-0.61785888671875,0.122314453125
1789316131037818600,10.245818603515625,-0.7899627685546875,-0.614898681640625,0.1206512451171875
1789316131047786800,10.255786865234375,-0.790252685546875,-0.6149749755859375,0.1178131103515625
1789316131057755000,10.2657548828125,-0.782470703125,-0.61688232421875,0.1158599853515625
1789316131067722800,10.27572265625,-0.767364501953125,-0.6183624267578125,0.1133270263671875
1789316131077689600,10.285689697265624,-0.7565460205078125,-0.6214752197265625,0.1102294921875
1789316131087657700,10.29565771484375,-0.7516937255859375,-0.6205902099609375,0.1150970458984375
1789316131097626000,10.305626220703125,-0.7560272216796875,-0.62042236328125,0.1115875244140625
1789316131107594200,10.31559423828125,-0.767333984375,-0.6199493408203125,0.10845947265625
1789316131117561300,10.325561279296876,-0.777099609375,-0.6186370849609375,0.1074371337890625
1789316131127529200,10.335529296875,-0.7826080322265625,-0.618011474609375,0.105682373046875
1789316131137497000,10.3454970703125,-0.781463623046875,-0.6149139404296875,0.1080780029296875
1789316131147465200,10.35546533203125,-0.779205322265625,-0.618133544921875,0.11041259765625
1789316131157432300,10.365432373046875,-0.7731170654296875,-0.620269775390625,0.1165924072265625
1789316131167400400,10.375400390625,-0.773345947265625,-0.6185302734375,0.119415283203125
1789316131177368000,10.3853681640625,-0.791656494140625,-0.6160430908203125,0.1134033203125
1789316131187336200,10.395336181640625,-0.793182373046875,-0.6174163818359375,0.1129302978515625
1789316131197303300,10.40530322265625,-0.784698486328125,-0.6210479736328125,0.109161376953125
1789316131207271400,10.415271484375,-0.7794952392578125,-0.62091064453125,0.105560302734375
1789316131217239300,10.4252392578125,-0.766143798828125,-0.618133544921875,0.1026153564453125
1789316131227207200,10.435207275390624,-0.75970458984375,-0.6208343505859375,0.104766845703125
1789316131237175300,10.44517529296875,-0.7626190185546875,-0.6211090087890625,0.10565185546875
1789316131247142400,10.455142333984375,-0.7611083984375,-0.6202392578125,0.10638427734375
1789316131257110300,10.4651103515625,-0.7667236328125,-0.6208953857421875,0.1077117919921875
1789316131267078100,10.475078125,-0.7690582275390625,-0.6194915771484375,0.1080322265625
1789316131277046300,10.48504638671875,-0.77197265625,-0.622283935546875,0.106536865234375
1789316131287013400,10.495013427734374,-0.7763214111328125,-0.6242828369140625,0.109771728515625
1789316131296981200,10.504981201171875,-0.777008056640625,-0.6219329833984375,0.1102142333984375
1789316131306949400,10.514949462890625,-0.7734375,-0.6215057373046875,0.11083984375
1789316131316917200,10.524917236328125,-0.773223876953125,-0.6277923583984375,0.1131134033203125
1789316131326884400,10.53488427734375,-0.777587890625,-0.62518310546875,0.1138763427734375
1789316131336852200,10.544852294921874,-0.7834930419921875,-0.6187896728515625,0.112548828125
1789316131346820400,10.5548203125,-0.779632568359375,-0.616943359375,0.1076812744140625
1789316131356788200,10.564788330078125,-0.7774810791015625,-0.6208648681640625,0.1063995361328125
1789316131366755300,10.57475537109375,-0.7722015380859375,-0.6196746826171875,0.1079254150390625
1789316131376723200,10.58472314453125,-0.7649688720703125,-0.6207427978515625,0.10003662109375
1789316131386691300,10.59469140625,-0.7588958740234375,-0.6242218017578125,0.106414794921875
1789316131396659500,10.604659423828124,-0.764892578125,-0.6209869384765625,0.1154632568359375
1789316131406626300,10.614626220703125,-0.771759033203125,-0.6199798583984375,0.1124267578125
1789316131416594200,10.62459423828125,-0.773468017578125,-0.62060546875,0.1112060546875
1789316131426562300,10.634562255859375,-0.77276611328125,-0.6233062744140625,0.1099853515625
1789316131436530400,10.644530517578126,-0.7753448486328125,-0.6220550537109375,0.108154296875
1789316131446497300,10.654497314453126,-0.777252197265625,-0.6177978515625,0.1071319580078125
1789316131456465200,10.664465087890624,-0.7877349853515625,-0.61822509765625,0.1045379638671875
1789316131466433300,10.674433349609375,-0.7928924560546875,-0.6197052001953125,0.10528564453125
1789316131476401400,10.6844013671875,-0.7841949462890625,-0.6201324462890625,0.1041412353515625
1789316131486368300,10.6943681640625,-0.7693328857421875,-0.6225128173828125,0.105865478515625
1789316131496336100,10.704336181640626,-0.7594451904296875,-0.6226959228515625,0.109222412109375
1789316131506304300,10.71430419921875,-0.7557830810546875,-0.6236419677734375,0.110748291015625
1789316131516272400,10.7242724609375,-0.753875732421875,-0.6217193603515625,0.109832763671875
1789316131526239200,10.7342392578125,-0.7582550048828125,-0.619384765625,0.11102294921875
1789316131536207000,10.74420703125,-0.765869140625,-0.620361328125,0.109893798828125
1789316131546175200,10.75417529296875,-0.7732391357421875,-0.622039794921875,0.1083221435546875
1789316131556143400,10.764143310546874,-0.7771453857421875,-0.6211395263671875,0.10784912109375
1789316131566110500,10.7741103515625,-0.7718963623046875,-0.6223907470703125,0.108154296875
1789316131576078000,10.784078125,-0.7766571044921875,-0.6221466064453125,0.11102294921875
1789316131586046200,10.794046142578125,-0.7837371826171875,-0.621185302734375,0.112335205078125
1789316131596014300,10.804014404296876,-0.79168701171875,-0.62451171875,0.1057891845703125
1789316131605981400,10.8139814453125,-0.7854461669921875,-0.62530517578125,0.1042022705078125
1789316131615949000,10.823948974609374,-0.785858154296875,-0.622955322265625,0.101806640625
1789316131625917200,10.833917236328125,-0.7827606201171875,-0.622100830078125,0.1031646728515625
1789316131635885300,10.84388525390625,-0.7697601318359375,-0.6245269775390625,0.105865478515625
1789316131645852400,10.853852294921875,-0.7578887939453125,-0.62445068359375,0.11053466796875
1789316131655820300,10.8638203125,-0.7575531005859375,-0.6207733154296875,0.1153411865234375
1789316131665788200,10.8737880859375,-0.7642364501953125,-0.61602783203125,0.1131134033203125
1789316131675756300,10.88375634765625,-0.76812744140625,-0.616607666015625,0.106964111328125
1789316131685723400,10.893723388671875,-0.7642364501953125,-0.61981201171875,0.1078033447265625
1789316131695691300,10.903691162109375,-0.765411376953125,-0.62078857421875,0.1092071533203125
1789316131705659100,10.9136591796875,-0.775848388671875,-0.6219329833984375,0.102996826171875
1789316131715627300,10.923627197265626,-0.78277587890625,-0.6226806640625,0.10174560546875
1789316131725594400,10.933594482421874,-0.78277587890625,-0.6203765869140625,0.1025543212890625
1789316131735562200,10.943562255859375,-0.7779388427734375,-0.6206512451171875,0.1052703857421875
1789316131745530400,10.9535302734375,-0.7704010009765625,-0.6223602294921875,0.1076507568359375
1789316131755498200,10.963498291015625,-0.7738800048828125,-0.6210174560546875,0.11029052734375
1789316131765465300,10.97346533203125,-0.7779388427734375,-0.6192169189453125,0.10882568359375
1789316131775433200,10.98343310546875,-0.77618408203125,-0.6249237060546875,0.1079254150390625
1789316131785401300,10.9934013671875,-0.78125,-0.6270751953125,0.1082916259765625
1789316131795369200,11.003369140625,-0.778289794921875,-0.6253204345703125,0.1057891845703125
1789316131805336300,11.01333642578125,-0.7711029052734375,-0.62786865234375,0.1041259765625
1789316131815304200,11.02330419921875,-0.76318359375,-0.6272735595703125,0.107757568359375
1789316131825272300,11.033272216796876,-0.7547454833984375,-0.6217803955078125,0.108154296875
1789316131835240400,11.043240478515624,-0.7534332275390625,-0.6250762939453125,0.1078033447265625
1789316131845207300,11.053207275390625,-0.7629547119140625,-0.622772216796875,0.105865478515625
1789316131855175200,11.063175048828125,-0.776336669921875,-0.6176605224609375,0.1038360595703125
1789316131865143300,11.073143310546875,-0.7802276611328125,-0.6170196533203125,0.10308837890625
1789316131875111400,11.083111328125,-0.7746124267578125,-0.6173248291015625,0.1025238037109375
1789316131885078300,11.093078369140626,-0.76904296875,-0.61981201171875,0.1069488525390625
1789316131895046100,11.103046142578124,-0.774200439453125,-0.6204071044921875,0.1096343994140625
1789316131905014300,11.11301416015625,-0.787506103515625,-0.61602783203125,0.11102294921875
1789316131914982400,11.122982421875,-0.793609619140625,-0.6149444580078125,0.1082916259765625
1789316131924949200,11.13294921875,-0.781219482421875,-0.6214141845703125,0.1030731201171875
1789316131934917000,11.142917236328126,-0.7646636962890625,-0.6234588623046875,0.10528564453125
1789316131944885200,11.15288525390625,-0.75946044921875,-0.6207427978515625,0.1071014404296875
1789316131954853400,11.162853271484375,-0.7654266357421875,-0.623321533203125,0.1050262451171875
1789316131964820200,11.1728203125,-0.7674102783203125,-0.6242523193359375,0.10174560546875
1789316131974788000,11.1827880859375,-0.769683837890625,-0.6248016357421875,0.102081298828125
1789316131984756200,11.192756103515626,-0.771087646484375,-0.62371826171875,0.1053314208984375
1789316131994724400,11.202724365234374,-0.77313232421875,-0.62298583984375,0.105926513671875
1789316132004691500,11.21269140625,-0.782958984375,-0.62664794921875,0.105133056640625
1789316132014659000,11.2226591796875,-0.7885589599609375,-0.62420654296875,0.1066131591796875
1789316132024627200,11.232627197265625,-0.787628173828125,-0.6222381591796875,0.109039306640625
1789316132034595300,11.24259521484375,-0.7797393798828125,-0.6221923828125,0.111907958984375
1789316132044562400,11.2525625,-0.7711181640625,-0.6231842041015625,0.1100616455078125
1789316132054530000,11.262530029296874,-0.76483154296875,-0.622314453125,0.1073455810546875
1789316132064498200,11.272498291015625,-0.76422119140625,-0.6222076416015625,0.1092987060546875
1789316132074466300,11.28246630859375,-0.7607269287109375,-0.6227874755859375,0.10479736328125
1789316132084433400,11.292433349609375,-0.7556610107421875,-0.6204833984375,0.10174560546875
1789316132094401300,11.3024013671875,-0.7540130615234375,-0.6199798583984375,0.1033477783203125
1789316132104369000,11.312368896484376,-0.7550048828125,-0.6214447021484375,0.10687255859375
1789316132114336800,11.322336669921874,-0.76470947265625,-0.6228179931640625,0.10791015625
1789316132124304000,11.332303955078125,-0.7885284423828125,-0.62347412109375,0.1025543212890625
1789316132134271700,11.342271728515625,-0.8043975830078125,-0.621551513671875,0.1036834716796875
1789316132144239900,11.352239990234375,-0.7952880859375,-0.6239013671875,0.107421875
1789316132154208000,11.3622080078125,-0.7849884033203125,-0.6240692138671875,0.1089324951171875
1789316132164174800,11.3721748046875,-0.78070068359375,-0.62518310546875,0.1079254150390625
1789316132174142700,11.382142822265624,-0.7804107666015625,-0.622467041015625,0.1063079833984375
1789316132184110800,11.39211083984375,-0.7750396728515625,-0.6207427978515625,0.1078643798828125
1789316132194079000,11.402078857421875,-0.766387939453125,-0.6209564208984375,0.1038055419921875
1789316132204045800,11.4120458984375,-0.7554473876953125,-0.6190032958984375,0.1036224365234375
1789316132214013700,11.422013671875,-0.753509521484375,-0.621185302734375,0.1024017333984375
1789316132223981800,11.43198193359375,-0.7566070556640625,-0.61761474609375,0.1034393310546875
1789316132233950000,11.441949951171875,-0.7568206787109375,-0.6196441650390625,0.1070709228515625
1789316132243916800,11.451916748046875,-0.7657470703125,-0.6248321533203125,0.1070098876953125
1789316132253884700,11.461884765625,-0.7812042236328125,-0.62188720703125,0.107757568359375
1789316132263852800,11.471852783203126,-0.7896728515625,-0.62310791015625,0.104461669921875
1789316132273821000,11.481821044921874,-0.787933349609375,-0.6291046142578125,0.1077880859375
1789316132283787800,11.491787841796874,-0.780670166015625,-0.628875732421875,0.1070709228515625
1789316132293755600,11.501755615234375,-0.77069091796875,-0.6248016357421875,0.10528564453125
1789316132303723800,11.511723876953125,-0.7713470458984375,-0.62744140625,0.104705810546875
1789316132313692000,11.52169189453125,-0.77044677734375,-0.625701904296875,0.1029205322265625
1789316132323659000,11.531658935546876,-0.7652435302734375,-0.6204986572265625,0.101348876953125
1789316132333626600,11.541626708984374,-0.755401611328125,-0.621612548828125,0.10498046875
1789316132343594800,11.5515947265625,-0.7523956298828125,-0.6247100830078125,0.10772705078125
1789316132353563000,11.56156298828125,-0.7582550048828125,-0.6246337890625,0.1097869873046875
1789316132363530000,11.571530029296875,-0.7626190185546875,-0.623992919921875,0.1072540283203125
1789316132373497900,11.581497802734376,-0.7681732177734375,-0.62445068359375,0.1088104248046875
1789316132383465700,11.5914658203125,-0.7713775634765625,-0.6290283203125,0.1076507568359375
1789316132393433900,11.601433837890625,-0.783447265625,-0.62786865234375,0.10125732421875
1789316132403401000,11.61140087890625,-0.791229248046875,-0.6208953857421875,0.100128173828125
1789316132413368800,11.621368896484375,-0.786956787109375,-0.622161865234375,0.101593017578125
1789316132423336700,11.631336669921875,-0.7812347412109375,-0.623504638671875,0.1055450439453125
1789316132433304800,11.641304931640626,-0.771820068359375,-0.6238861083984375,0.1053466796875
1789316132443272000,11.65127197265625,-0.767974853515625,-0.6253509521484375,0.1039581298828125
1789316132453239800,11.66123974609375,-0.761566162109375,-0.621124267578125,0.1094970703125
1789316132463208000,11.6712080078125,-0.7606048583984375,-0.6242828369140625,0.1101837158203125
1789316132473175800,11.68117578125,-0.7621307373046875,-0.626068115234375,0.10662841796875
1789316132483143000,11.691142822265626,-0.7668609619140625,-0.62347412109375,0.1028289794921875
1789316132493110800,11.70111083984375,-0.769287109375,-0.625274658203125,0.09844970703125
1789316132503079000,11.711078857421874,-0.7730712890625,-0.6251220703125,0.100921630859375
1789316132513046800,11.721046875,-0.7694549560546875,-0.6221466064453125,0.10540771484375
1789316132523014000,11.731013916015625,-0.76385498046875,-0.6254119873046875,0.1049346923828125
1789316132532981800,11.740981689453125,-0.7704620361328125,-0.625762939453125,0.1040191650390625
1789316132542950000,11.750949951171876,-0.77960205078125,-0.6218719482421875,0.1039276123046875
1789316132552918000,11.76091796875,-0.784576416015625,-0.62347412109375,0.1065673828125
1789316132562884900,11.770884765625,-0.7839202880859375,-0.626312255859375,0.109375
1789316132572852700,11.780852783203125,-0.7742767333984375,-0.625091552734375,0.10845947265625
1789316132582820900,11.79082080078125,-0.765838623046875,-0.6266326904296875,0.1048736572265625
1789316132592789000,11.8007890625,-0.7641143798828125,-0.62908935546875,0.1052093505859375
1789316132602755800,11.810755859375,-0.7670745849609375,-0.627288818359375,0.1044921875
1789316132612723700,11.8207236328125,-0.776947021484375,-0.6256561279296875,0.1063995361328125
1789316132622691800,11.83069189453125,-0.7729339599609375,-0.6260528564453125,0.1042022705078125
1789316132632659000,11.840658935546875,-0.766357421875,-0.6268463134765625,0.102996826171875
1789316132642626800,11.850626708984375,-0.7605743408203125,-0.6265411376953125,0.10675048828125
1789316132652594700,11.8605947265625,-0.757171630859375,-0.6237945556640625,0.1079864501953125
1789316132662562800,11.870562744140624,-0.7604522705078125,-0.627410888671875,0.106903076171875
1789316132672530000,11.880530029296875,-0.7618560791015625,-0.6287078857421875,0.1053924560546875
1789316132682497800,11.890497802734375,-0.7626800537109375,-0.626068115234375,0.1038818359375
1789316132692465700,11.900465576171875,-0.7606353759765625,-0.6270599365234375,0.105804443359375
1789316132702433800,11.910433837890626,-0.765869140625,-0.6235809326171875,0.1046295166015625
1789316132712401000,11.92040087890625,-0.777984619140625,-0.624755859375,0.1016693115234375
1789316132722369000,11.930369140625,-0.795196533203125,-0.6218414306640625,0.1038055419921875
1789316132732336600,11.940336669921875,-0.7924652099609375,-0.619964599609375,0.11041259765625
1789316132742304800,11.9503046875,-0.789276123046875,-0.6287384033203125,0.1163177490234375
1789316132752272000,11.96027197265625,-0.7786407470703125,-0.6229400634765625,0.1167449951171875
1789316132762240000,11.970239990234376,-0.77056884765625,-0.6215667724609375,0.10980224609375
1789316132772207600,11.98020751953125,-0.7670745849609375,-0.627105712890625,0.1034393310546875
1789316132782175700,11.99017578125,-0.7628173828125,-0.6248779296875,0.0978240966796875
1789316132792142800,12.000142822265625,-0.7651214599609375,-0.6261138916015625,0.094451904296875
1789316132802111000,12.010111083984375,-0.776275634765625,-0.626708984375,0.09442138671875
1789316132812078800,12.020078857421876,-0.773651123046875,-0.616851806640625,0.0962677001953125
1789316132822046700,12.030046630859376,-0.7600860595703125,-0.611602783203125,0.107208251953125
1789316132832013800,12.040013916015624,-0.754608154296875,-0.6223297119140625,0.1097869873046875
1789316132841982000,12.04998193359375,-0.6462554931640625,-0.6274871826171875,0.1201629638671875
1789316132851949800,12.05994970703125,-0.6708526611328125,-0.639984130859375,0.151580810546875
1789316132861917700,12.069917724609375,-0.8130950927734375,-0.638214111328125,0.1421356201171875
1789316132871884800,12.079884765625,-0.854278564453125,-0.6185150146484375,0.1089630126953125
1789316132881853000,12.08985302734375,-0.8422698974609375,-0.62261962890625,0.094390869140625
1789316132891820800,12.09982080078125,-0.8245697021484375,-0.6304779052734375,0.086944580078125
1789316132901789000,12.109788818359375,-0.806793212890625,-0.6356201171875,0.0767364501953125
1789316132911755800,12.119755859375,-0.7915496826171875,-0.6374664306640625,0.0762176513671875
1789316132921724000,12.129723876953125,-0.7744598388671875,-0.6370697021484375,0.0917510986328125
1789316132931691800,12.13969189453125,-0.742919921875,-0.626953125,0.1174163818359375
1789316132941660000,12.149659912109374,-0.709259033203125,-0.617523193359375,0.138275146484375
1789316132951626800,12.159626708984375,-0.70330810546875,-0.6276702880859375,0.1255035400390625
1789316132961595000,12.169594970703125,-0.7262420654296875,-0.6214752197265625,0.1179351806640625
1789316132971562800,12.179562744140625,-0.7643280029296875,-0.6168670654296875,0.1140289306640625
1789316132981529900,12.18952978515625,-0.7895355224609375,-0.6118011474609375,0.102325439453125
1789316132991497700,12.199497802734374,-0.7994842529296875,-0.61138916015625,0.091033935546875
1789316133001465900,12.2094658203125,-0.7925262451171875,-0.6231689453125,0.0839996337890625
1789316133011433700,12.219433837890625,-0.7821807861328125,-0.6302642822265625,0.08966064453125
1789316133021400800,12.22940087890625,-0.7763214111328125,-0.633331298828125,0.0984344482421875
1789316133031368700,12.23936865234375,-0.76983642578125,-0.63458251953125,0.10675048828125
1789316133041336800,12.2493369140625,-0.7735137939453125,-0.6291656494140625,0.1127166748046875
1789316133051304700,12.2593046875,-0.79156494140625,-0.62225341796875,0.11529541015625
1789316133061271800,12.269271728515625,-0.7900543212890625,-0.6190948486328125,0.10638427734375
1789316133071240000,12.279239990234375,-0.768890380859375,-0.6173858642578125,0.104705810546875
1789316133081207800,12.289207763671875,-0.75634765625,-0.620208740234375,0.1003875732421875
1789316133091175700,12.29917578125,-0.7552032470703125,-0.6255950927734375,0.1006622314453125
1789316133101143000,12.30914306640625,-0.7527313232421875,-0.63067626953125,0.105255126953125
1789316133111111200,12.319111083984374,-0.7531280517578125,-0.6311798095703125,0.1077728271484375
1789316133121079300,12.329079345703125,-0.7692718505859375,-0.6330718994140625,0.1116790771484375
1789316133131047000,12.339046875,-0.7818145751953125,-0.6278533935546875,0.1103515625
1789316133141014000,12.349013916015625,-0.7885894775390625,-0.6262664794921875,0.1045379638671875
1789316133150982100,12.358982177734376,-0.7797088623046875,-0.6280364990234375,0.1031646728515625
1789316133160950300,12.3689501953125,-0.767822265625,-0.6229095458984375,0.1029205322265625
1789316133170918000,12.37891796875,-0.7581787109375,-0.6236419677734375,0.09808349609375
1789316133180885000,12.388885009765625,-0.759918212890625,-0.626495361328125,0.0996551513671875
1789316133190853000,12.39885302734375,-0.7565155029296875,-0.626495361328125,0.107147216796875
1789316133200821200,12.4088212890625,-0.7548828125,-0.6249847412109375,0.1096343994140625
1789316133210788000,12.4187880859375,-0.762664794921875,-0.6252899169921875,0.111968994140625
1789316133220756000,12.428755859375,-0.7674407958984375,-0.6252288818359375,0.111572265625
1789316133230724000,12.43872412109375,-0.7722320556640625,-0.6257781982421875,0.1063232421875
1789316133240692200,12.448692138671875,-0.7764739990234375,-0.629974365234375,0.0966033935546875
1789316133250659000,12.4586591796875,-0.7786712646484375,-0.6291961669921875,0.0954437255859375
1789316133260627000,12.468626953125,-0.7759246826171875,-0.6302642822265625,0.099334716796875
1789316133270595000,12.478594970703124,-0.77581787109375,-0.6270751953125,0.102203369140625
1789316133280563200,12.488563232421875,-0.773773193359375,-0.6215972900390625,0.102569580078125
1789316133290530300,12.4985302734375,-0.7696990966796875,-0.6212310791015625,0.1025848388671875
1789316133300498000,12.508497802734375,-0.7683868408203125,-0.6244659423828125,0.1041107177734375
1789316133310466000,12.518466064453126,-0.764190673828125,-0.6218719482421875,0.1089324951171875
1789316133320434200,12.52843408203125,-0.762237548828125,-0.6207122802734375,0.1067352294921875
1789316133330401300,12.5384013671875,-0.76617431640625,-0.62835693359375,0.102294921875
1789316133340369000,12.548368896484375,-0.77398681640625,-0.6284332275390625,0.1021881103515625
1789316133350337000,12.5583369140625,-0.780029296875,-0.62237548828125,0.1062469482421875
1789316133360305200,12.56830517578125,-0.7816619873046875,-0.626617431640625,0.1060333251953125
1789316133370272300,12.578272216796876,-0.773345947265625,-0.630584716796875,0.1053466796875
1789316133380240100,12.588240234375,-0.7688446044921875,-0.629364013671875,0.1026611328125
1789316133390208000,12.5982080078125,-0.7682952880859375,-0.6302032470703125,0.100128173828125
1789316133400176000,12.608176025390625,-0.770050048828125,-0.6269989013671875,0.0968017578125
1789316133410143200,12.618143310546875,-0.767730712890625,-0.626190185546875,0.09381103515625
1789316133420111000,12.628111083984376,-0.762664794921875,-0.62445068359375,0.096527099609375
1789316133430079000,12.638078857421876,-0.7616424560546875,-0.6241912841796875,0.1052093505859375
1789316133440047000,12.648047119140625,-0.7584381103515625,-0.6268310546875,0.106597900390625
1789316133450014200,12.65801416015625,-0.7601165771484375,-0.629547119140625,0.1051177978515625
1789316133459982000,12.667982177734375,-0.767974853515625,-0.6300048828125,0.1065673828125
1789316133469950200,12.6779501953125,-0.7799224853515625,-0.62872314453125,0.1037139892578125
1789316133479917000,12.6879169921875,-0.7853546142578125,-0.6286773681640625,0.1012420654296875
1789316133489885200,12.69788525390625,-0.7802276611328125,-0.6276702880859375,0.09967041015625
1789316133499853000,12.70785302734375,-0.7726287841796875,-0.6260833740234375,0.0996856689453125
1789316133509821200,12.7178212890625,-0.7731781005859375,-0.626434326171875,0.099029541015625
1789316133519788000,12.7277880859375,-0.7676239013671875,-0.6252593994140625,0.100189208984375
1789316133529756200,12.737756103515625,-0.758941650390625,-0.62567138671875,0.1045989990234375
1789316133539724000,12.74772412109375,-0.7561187744140625,-0.627288818359375,0.1082763671875
1789316133549692200,12.757692138671874,-0.753448486328125,-0.625091552734375,0.1060943603515625
1789316133559659000,12.767658935546875,-0.759979248046875,-0.6240234375,0.10089111328125
1789316133569627100,12.777627197265625,-0.7684173583984375,-0.624969482421875,0.09686279296875
1789316133579595000,12.787594970703125,-0.771087646484375,-0.6255035400390625,0.09698486328125
1789316133589563100,12.797563232421876,-0.7684326171875,-0.62664794921875,0.0955810546875
1789316133599530000,12.807530029296874,-0.76422119140625,-0.6288604736328125,0.1010589599609375
1789316133609498000,12.817498046875,-0.7648162841796875,-0.630706787109375,0.1068267822265625
1789316133619466000,12.827466064453125,-0.77435302734375,-0.628631591796875,0.1048583984375
1789316133629434000,12.83743408203125,-0.7860107421875,-0.6268463134765625,0.100494384765625
1789316133639401200,12.847401123046875,-0.7895965576171875,-0.624603271484375,0.1028289794921875
1789316133649369000,12.857369140625,-0.7755584716796875,-0.6241302490234375,0.10137939453125
1789316133659337000,12.8673369140625,-0.7606353759765625,-0.625732421875,0.1012115478515625
