time,seconds_elapsed,z,y,x
1789316120854490600,0.06249072265625,-0.018320669588446616,0.03433949197530746,-0.19366503459997475
1789316120864457700,0.072457763671875,0.07294950087666512,-0.03985533278733492,-0.23727599359378218
1789316120874425300,0.08242529296875,0.052063364714384074,-0.04392389740049839,-0.22133071136716753
1789316120884393500,0.0923935546875,-0.018892916518449782,0.015186170955002307,-0.1773673587391153
1789316120894361600,0.102361572265625,0.10185527736544608,0.10802110651880502,-0.06582841682508588
1789316120904329500,0.11232958984375,0.30692484548985954,0.13894523709267376,-0.017232545558176934
1789316120914296600,0.122296630859375,0.3048217357307672,0.14347615852057932,-0.009943977718893438
1789316120924264400,0.132264404296875,0.27910861780345436,0.00587239916473627,-0.07060122071746737
1789316120934232600,0.142232666015625,0.2640612707972526,-0.04231529316008091,-0.09891821926655248
1789316120944200400,0.152200439453125,0.11819909392297268,-0.006496084021031856,-0.07742887478042393
1789316120954168600,0.16216845703125,-0.03213233731985092,0.06436550466567277,-0.08978716536574065
1789316120964135400,0.172135498046875,-0.035707857719063756,0.07171499064564704,-0.08106407121131196
1789316120974103600,0.182103515625,0.05867489180862903,0.10536913070529699,-0.09701346335746347
1789316120984071400,0.192071533203125,0.09582827216088771,0.07644932569116354,-0.08328149153245612
1789316120994039600,0.20203955078125,-0.10370002844929695,-0.09344897580891848,-0.2619003481700085
1789316121004006700,0.212006591796875,-0.09466858073174952,-0.09494915123879909,-0.2757532977598719
1789316121013974500,0.221974609375,-0.18443010019958017,-0.07750818709433079,-0.20362304084422064
1789316121023942400,0.2319423828125,-0.18744038793146608,-0.07140636308789253,-0.19366898012273012
1789316121033910500,0.24191064453125,-0.2568552849411964,-0.03488222054988146,-0.11541366445552557
1789316121043878700,0.251878662109375,-0.1934486884355545,0.02121083807200193,-0.08557303653573617
1789316121053845500,0.261845458984375,0.021025252372026442,0.038785949990153314,-0.1567087659887038
1789316121063813400,0.2718134765625,0.16400456728637217,-0.018240005567669866,-0.14273677486274391
1789316121073781500,0.281781494140625,0.15898235521018503,-0.00883738645017147,-0.14308624588754026
1789316121083749600,0.29174951171875,0.2457102060705423,-0.010846095924079417,-0.09271440532351843
1789316121093716700,0.301716796875,0.3198901255249977,-0.004838379941880703,-0.03815790861914865
1789316121103683600,0.31168359375,0.3419184174597263,-0.015033318480849265,-0.04723411792702972
1789316121113651500,0.3216513671875,0.3321270912855863,0.005291092145442962,-0.059274346405966204
1789316121123619600,0.33161962890625,0.3324684520691633,0.004831950201094151,-0.053667237980756906
1789316121133587700,0.341587646484375,0.39370997949540615,0.05346183333545923,-0.09338384728399104
1789316121143554600,0.351554443359375,0.07301847445964812,0.004544365431368351,-0.08925242830137722
1789316121153522400,0.3615224609375,-0.05500234077572822,-0.026993805387616157,-0.14520337503883055
1789316121163490600,0.371490478515625,-0.2103448781788349,-0.07216916415393353,-0.24586388052860272
1789316121173458700,0.381458740234375,-0.2069078894674778,-0.07867109339386225,-0.248197438042704
1789316121183426600,0.391426513671875,-0.30237668066620826,-0.005206044210493564,-0.19231559275239704
1789316121193393700,0.4013935546875,-0.3637345279484987,0.042912674531340594,-0.16701366770816967
1789316121203361500,0.411361572265625,-0.3030594022333622,0.04260696958303451,-0.11552858693893067
1789316121213329700,0.42132958984375,-0.2338426581442356,0.005057867911458016,-0.06767067455775104
1789316121223297500,0.431297607421875,-0.2356383093893528,0.008334989885985852,-0.07059606048515997
1789316121233265700,0.441265625,-0.27586393679380417,0.01087386071383953,-0.06752723836591466
1789316121243232500,0.451232421875,-0.2654623697668314,0.004233399786055088,-0.07218331141029484
1789316121253200600,0.46120068359375,0.07551555197238921,-0.024415187071263788,-0.08536497414247132
1789316121263168500,0.47116845703125,0.11223813969194889,0.03014642419964075,-0.11043362928694113
1789316121273136600,0.48113671875,0.10959142457544803,0.035081834775209424,-0.1102654970452655
1789316121283103700,0.491103759765625,0.10019874233007431,0.06265460909456014,-0.11796313887578434
1789316121293071600,0.501071533203125,0.2097083338409662,0.04255144000351429,-0.08689027488045394
1789316121303039500,0.51103955078125,0.2390665302723646,0.0434223776191473,-0.04245377004900947
1789316121313007600,0.521007568359375,0.18851415464282034,-0.0003074585139751434,-0.0657462184343487
1789316121322975700,0.530975830078125,0.18940788861215113,-0.001983575032651424,-0.06616968627711757
1789316121332942600,0.540942626953125,-0.0015565817922353743,-0.027475743685662746,-0.062479398658126586
1789316121342910500,0.550910400390625,-0.09840893630385399,0.011430617813766001,-0.07247693319516256
1789316121352878600,0.560878662109375,0.10080722961723804,0.01723608922213316,-0.12587830504765735
1789316121362846700,0.5708466796875,0.11159048943817615,0.046398470820486544,-0.1218276048847474
1789316121372814600,0.580814697265625,0.11231471205949782,0.04507102160900831,-0.12132197518385945
1789316121382781400,0.590781494140625,0.051937107986211775,0.0630573446765542,-0.07629731346722692
1789316121392749600,0.60074951171875,-0.01567395447194576,0.049449967345595355,-0.055255329156108195
1789316121402717700,0.6107177734375,-0.18273206411004064,0.02295592817366123,-0.08426513227494432
1789316121412685600,0.620685546875,-0.21770985398888587,-0.011550152540206908,-0.1898912334159948
1789316121422652400,0.63065234375,-0.13870470633506773,-0.03479366548359394,-0.16836354794716463
1789316121432620500,0.64062060546875,-0.14017360984385013,-0.0321747151568532,-0.17167482791962102
1789316121442588700,0.650588623046875,0.005982581540942192,-0.012967618122696875,-0.21876913551716132
1789316121452556500,0.660556640625,-0.0004874912559986114,-0.01200754091888666,-0.24857734073838217
1789316121462524700,0.670524658203125,-0.007435118436813354,-0.04916881231665611,-0.26091263404060155
1789316121472491500,0.680491455078125,0.08357084813416003,-0.06857581583708525,-0.2421891375386156
1789316121482459600,0.690459716796875,0.16151391951441763,-0.06148059687912464,-0.17224952253503725
1789316121492427500,0.700427490234375,0.2856535094022751,-0.003732464526593685,-0.033200788535270837
1789316121502395600,0.710395751953125,0.27305706267952917,0.06536152996569872,0.05384938961463049
1789316121512363800,0.72036376953125,0.04491115487217903,0.044641982541978355,0.05637660653730854
1789316121522330600,0.73033056640625,-0.17137246570587159,0.05926905830949544,0.032014044702425595
1789316121532298500,0.740298583984375,-0.29582652837038037,0.1434051391109824,0.03190271154874936
1789316121542266600,0.7502666015625,-0.42132045547664165,0.08489800508469343,-0.015717702282126992
1789316121552234800,0.76023486328125,-0.4624830714702606,0.03569996667355299,-0.040737796443980186
1789316121562202600,0.77020263671875,-0.2915244472622871,0.062411740249395366,-0.053622083664778615
1789316121572169500,0.78016943359375,-0.0914765066921711,0.03205868756175041,-0.036532417176011946
1789316121582137600,0.7901376953125,0.058413610523939126,-0.01731704550385475,-0.026154724214971063
1789316121592105700,0.800105712890625,0.12742518742978573,-0.027816812208294867,-0.1285863766962662
1789316121602073600,0.810073486328125,0.11053542742729186,-0.009978373178839683,-0.16579353306237607
1789316121612041700,0.820041748046875,0.1861550242960453,0.040190556091070175,-0.06953317136084661
1789316121622008600,0.830008544921875,0.25916297736167904,0.060678048324584954,-0.07663427207032218
1789316121631976700,0.839976806640625,0.3744873926311731,0.06789426331371068,-0.03827085834117606
1789316121641944600,0.849944580078125,0.37229485102295873,0.07196078210026026,-0.03627453342480585
1789316121651912700,0.85991259765625,0.4075099567890167,0.0592559065669775,-0.03960813482692465
1789316121661879600,0.869879638671875,0.2815846525281668,0.050149640047550195,-0.08371801978619768
1789316121671847700,0.87984765625,0.2834311571776867,0.04697890105694532,-0.07953929106313735
1789316121681815600,0.889815673828125,0.09975158308446407,0.03702332423180341,-0.12435149733917787
1789316121691783700,0.89978369140625,-0.033811668708920474,0.036407238160073754,-0.11633247806718572
1789316121701751800,0.909751708984375,-0.16098668076992034,0.04578618414103985,-0.07667675950517877
1789316121711718700,0.91971875,-0.29259529136419293,-0.006575286737084388,-0.09536545868841931
1789316121721686500,0.9296865234375,-0.2758282809585333,-0.01986731450855732,-0.14824390264535323
1789316121731654700,0.939654541015625,-0.20002397517263887,-0.01680208171904087,-0.16274550713598726
1789316121741622800,0.949622802734375,-0.1381488260179758,-0.023373569063842296,-0.14218140600230544
1789316121751590400,0.95959033203125,-0.12363631654083727,-0.035466450178623196,-0.11424803647594525
1789316121761557500,0.9695576171875,-0.06678162589669227,-0.010281155517697333,-0.1303620263329707
1789316121771525600,0.979525634765625,0.017167992421984673,0.019554010775685308,-0.1262879087618552
1789316121781493800,0.98949365234375,0.07721884875893592,0.010099076949059963,-0.06986514326157048
1789316121791461600,0.999461669921875,0.17391045975089073,0.037651100741326805,-0.04461560599170625
1789316121801429500,1.009429443359375,0.23105565777420997,0.0601207067027688,-0.04315329662049189
1789316121811396600,1.019396728515625,0.17588439017236232,0.051608606684207914,-0.042538470924086864
1789316121821364700,1.02936474609375,0.04157821105718613,0.027293665117025374,-0.03953969096690416
1789316121831332600,1.03933251953125,-0.03958557593524456,0.033121640618145466,-0.051804713778197765
1789316121841300500,1.049300537109375,0.0021960487395524977,0.015389000050723552,-0.04609594420995563
1789316121851267600,1.059267578125,-0.0629722967416048,-0.022531273020803926,-0.060545599317643785
1789316121861235700,1.069235595703125,-0.07458265503644942,0.011185703141987323,-0.07129079215051606
1789316121871203600,1.07920361328125,-0.04985504101514816,0.01898497871607542,-0.09624874432897194
1789316121881171700,1.089171630859375,-0.06180792913734912,0.02737316009402275,-0.10228654492218046
1789316121891139600,1.0991396484375,-0.00765139153599739,0.029855916820466517,-0.07856966057969257
1789316121901106700,1.109106689453125,-0.010173018968105315,-0.00035012861192226406,-0.1084138321634382
1789316121911074600,1.119074462890625,-0.02830956416130066,-0.005468786799907684,-0.11580629876861348
1789316121921042700,1.129042724609375,-0.005464110624790191,0.02245148578286171,-0.10227673591421917
1789316121931010600,1.139010498046875,0.02666471956372261,0.04961538704037666,-0.08076985577140003
1789316121940978400,1.148978515625,0.12117489486336708,0.01617167486101389,-0.11457765202280133
1789316121950945500,1.158945556640625,0.09479016128480434,0.02181581822782755,-0.11831115772901102
1789316121960913700,1.16891357421875,0.022780571606755257,0.05413111089915037,-0.09895329057993367
1789316121970881800,1.1788818359375,0.019715338817238807,0.036565351331233974,-0.07595885702678934
1789316121980849400,1.188849365234375,0.02902326538860798,0.03935848918110132,-0.030482305090501902
1789316121990817500,1.198817626953125,0.07258943539261818,0.029998832422494886,-0.0423550771811977
1789316122000784600,1.20878466796875,0.0984299790918827,0.01774842265844345,-0.0825795355418697
1789316122010752800,1.218752685546875,0.0595259556800127,0.011907879936695098,-0.13996307236570865
1789316122020720400,1.228720458984375,0.01938274586200714,0.026171967610716818,-0.15206130550904198
1789316122030688500,1.2386884765625,-0.051615036424994466,0.039029695618152616,-0.13580319447359068
1789316122040656600,1.24865673828125,-0.07260287939608097,0.014661270298063755,-0.10686375317722559
1789316122050623700,1.258623779296875,-0.07196282792687415,0.01622866574525833,-0.08880359768848865
1789316122060591600,1.268591552734375,-0.04725158051848411,0.012780278857052326,-0.0932611068203114
1789316122070559500,1.2785595703125,-0.0004874912559986114,0.009429799385368823,-0.06729023300595581
1789316122080527600,1.288527587890625,-0.015796119546890256,0.006142740538716316,-0.08786290103858337
1789316122090497300,1.298497314453125,-0.055686231386661525,-0.008773089042305946,-0.09606529578715563
1789316122100464400,1.30846435546875,-0.013802899903059005,0.02258387999087572,-0.0669333641259931
1789316122110432300,1.318432373046875,0.017414076137542724,0.024281331558525562,-0.06561415301989763
1789316122120400100,1.328400146484375,0.06860065801739693,0.029329847119748592,-0.0945877157815732
1789316122130368300,1.3383681640625,0.07485971841216087,0.024308219565451143,-0.12113012413987889
1789316122140336400,1.34833642578125,0.008656184664368629,0.022050796027481556,-0.13541287998175247
1789316122150303500,1.358303466796875,0.010912439158558844,0.018018471771478653,-0.15017090691886842
1789316122160271000,1.36827099609375,0.028999299991130826,-0.0006046878948807716,-0.1386241884447634
1789316122170239200,1.3782392578125,0.08888122950196266,-0.008369184416532517,-0.14653046805728226
1789316122180207400,1.388207275390625,0.05502805973887443,-0.02304097610861063,-0.12423512268420309
1789316122190174500,1.398174560546875,-0.03185761203169823,-0.027728841663897035,-0.08573701319210231
1789316122200142000,1.40814208984375,-0.04884206458032131,0.0038850247398018833,-0.059461640005838125
1789316122210110200,1.418110107421875,-0.10036416202485561,0.0009027940586209297,-0.07750948400227353
1789316122220078300,1.428078369140625,-0.09091887280941009,0.017636194455623627,-0.06997154451180249
1789316122230046200,1.438046142578125,-0.017165069812536238,0.02642155845761299,-0.060955824086349454
1789316122240013300,1.448013427734375,0.013645663514733314,0.02047463275194168,-0.04648139986358583
1789316122249981200,1.457981201171875,0.03715279583036899,0.017088205184042454,-0.07309349419092759
1789316122259949300,1.46794921875,0.06495674855709076,0.04330459645837545,-0.07836115066185594
1789316122269917200,1.477917236328125,0.04201894056200981,0.06056728142648935,-0.09367184304567053
1789316122279885300,1.48788525390625,0.029496143597364424,0.05622983674407005,-0.056756344836205244
1789316122289852400,1.497852294921875,0.04400573046505451,0.08598843066990375,-0.025953502554446457
1789316122299820300,1.5078203125,-0.0031482348978519436,0.08714899888187647,-0.04701919653471559
1789316122309788200,1.5177880859375,-0.0011848258703947066,0.05508534288406372,-0.03859934137687087
1789316122319756300,1.52775634765625,0.01675590448975563,0.03283580941408872,-0.06286560323042795
1789316122329724400,1.537724365234375,0.0027332243561744686,0.034060675033926964,-0.026708376042358577
1789316122339691300,1.547691162109375,0.024538813450932503,0.0034983635097742076,-0.042119624457508324
1789316122349659100,1.5576591796875,0.15916823317110537,-0.020110475614666938,-0.08281588331470266
1789316122359627300,1.567627197265625,0.12072189039885997,-0.03796002056002617,-0.11664105082601309
1789316122369595400,1.577595458984375,0.024582652592658995,-0.0069046648219227786,-0.16464072803175075
1789316122379563300,1.587563232421875,0.0486550175756216,0.0421937126070261,-0.15098392206849529
1789316122389530000,1.597530029296875,0.07357260121107101,0.028111411240696906,-0.11259973954595624
1789316122399498200,1.607498291015625,0.06484919652938842,0.019209142860770224,-0.12695570675451306
1789316122409466400,1.61746630859375,0.07110942596793174,0.050258361119031904,-0.10036995244482531
1789316122419434200,1.627434326171875,-0.04601064054667949,0.04373743491768837,-0.06166218225741758
1789316122429401000,1.637401123046875,-0.11348960105776786,-0.007350947284698486,-0.07896605775244533
1789316122439369200,1.647369140625,-0.11101648894250392,-0.03429769866019487,-0.14967265680683775
1789316122449337300,1.65733740234375,-0.1489326703608036,-0.05165682974010705,-0.2078442935347557
1789316122459305200,1.66730517578125,-0.09653145199418067,-0.06085661976188421,-0.1966235190793872
1789316122469273300,1.6772734375,-0.013085691544413566,-0.06595102029144763,-0.1745898020508699
1789316122479240200,1.687240234375,0.06810147632360458,-0.026143910560011863,-0.09557152092084288
1789316122489208300,1.697208251953125,0.16897183430492876,-0.015666940209269523,-0.0742081409019418
1789316122499176200,1.70717626953125,0.15724223354458808,-0.004684650684893131,-0.12981845750818027
1789316122509144300,1.717144287109375,0.09360708898007869,0.04252425973564386,-0.13795938612679018
1789316122519112400,1.727112548828125,0.05831073467135429,0.06577829407304525,-0.07880341453664004
1789316122529079300,1.737079345703125,-0.12126900288760661,0.0750152012348175,-0.030998529250640422
1789316122539047200,1.747047119140625,-0.2374205166310072,0.08070084565579891,-0.020190573379863054
1789316122549015300,1.757015380859375,-0.21971593311429022,0.09191957428455352,0.026793405710998922
1789316122558983400,1.7669833984375,-0.08746201035380363,0.05316489621549844,0.07313658441398292
1789316122568951300,1.776951416015625,0.055147886726260184,0.09105389736592769,0.12310399976242332
1789316122578918100,1.786918212890625,0.11667466083467005,0.05712620106190443,0.06423972286153584
1789316122588886300,1.79688623046875,0.16871581371724603,0.04513473449498415,0.007279032825957983
1789316122598854400,1.8068544921875,0.19451953253746032,0.051098026813566684,-0.04566140698390081
1789316122608822300,1.816822265625,0.18857611396312712,-0.00815291131734848,-0.13940574901020153
1789316122618790100,1.8267900390625,0.10446166047155857,-0.04655716851353645,-0.21726145263426005
1789316122628757200,1.83675732421875,0.007681786674261093,-0.02685468917787075,-0.2504686891766265
1789316122638725400,1.846725341796875,-0.035978491353988645,-0.00020019874721765516,-0.20580418427558614
1789316122648693200,1.856693359375,0.0133195003002882,-0.005182663334906101,-0.19023014651415868
1789316122658661400,1.866661376953125,0.0016086042404174804,-0.025547698232531547,-0.20116903528822586
1789316122668628200,1.876628173828125,-0.02505553080141544,0.01838496699631214,-0.14637944221403448
1789316122678596400,1.886596435546875,-0.01212824468910694,0.030993980939686295,-0.06219932134142145
1789316122688564200,1.896564208984375,-0.0706324561059475,0.024364333666861054,-0.03294474968127906
1789316122698532400,1.906532470703125,-0.05921674360036849,0.04400806855261326,-0.0256918559435755
1789316122708500200,1.916500244140625,-0.05905658460259437,0.027357378003001212,-0.033901465884223575
1789316122718467300,1.92646728515625,-0.07557166607379913,0.01889028616994619,-0.04601230278080329
1789316122728435200,1.936435302734375,-0.007107786178588866,-0.010092354947328568,-0.0950849429802969
1789316122738403300,1.9464033203125,0.029053076004981995,-0.00961947673857212,-0.11322612781599163
1789316122748371500,1.956371337890625,0.10320143127739428,0.019135493102669716,-0.11530843224907293
1789316122758339000,1.966339111328125,0.09396949255168438,0.03445376600474119,-0.13697715189009904
1789316122768306200,1.97630615234375,0.09943068056702613,0.009841595056653022,-0.12163242937251925
1789316122778274300,1.9862744140625,0.0960726023107767,0.015377017351984977,-0.0856387952483259
1789316122788242400,1.996242431640625,0.10623743797242641,0.047211248508095736,-0.05520065809311345
1789316122798210000,2.0062099609375,0.04900163905620575,0.0586760608524084,-0.05894547064462676
1789316122808178200,2.01617822265625,-0.03988251305520534,0.04357610687613487,-0.092348448954802
1789316122818145300,2.026145263671875,-0.08324293135404587,0.02043839239478111,-0.06939297743886709
1789316122828113400,2.036113525390625,-0.16282967828810213,-0.01202975275069475,-0.05972063800189644
1789316122838081300,2.046081298828125,-0.14778291580379008,0.00011222820281982422,-0.05373675955301151
1789316122848049200,2.056049072265625,-0.09595452888906002,-0.005822422543168068,-0.06545452374508604
1789316122858017300,2.066017333984375,-0.013252280282974243,-0.004561608827114105,-0.049310193548724054
1789316122867984400,2.075984375,-0.00942950712442398,0.0068818684682250015,-0.09167626704797148
1789316122877952300,2.0859521484375,0.0014753332495689392,0.015613748717308043,-0.1146611290551722
1789316122887920400,2.09592041015625,0.0264864403873682,0.029705986955761907,-0.08048729423666372
1789316122897888300,2.10588818359375,0.03296703457832336,0.05656944396197795,-0.07120347919324413
1789316122907856100,2.115856201171875,0.036328619965910906,0.04535597603023052,-0.09936952496431767
1789316122917823200,2.1258232421875,0.05137888958156109,0.028004151473939417,-0.1338293371173553
1789316122927791400,2.135791259765625,0.10600479826033114,0.012215046189725399,-0.12974504521209745
1789316122937759200,2.14575927734375,0.13165128069221974,0.008733926075696945,-0.11542259668065234
1789316122947727000,2.15572705078125,0.10363806912899017,-0.0014434768065810203,-0.10277107703611255
1789316122957694200,2.165694091796875,0.07592413277328014,-0.00921732567846775,-0.0726142593066208
1789316122967662300,2.175662353515625,0.032011341288685796,-0.003119593325257301,-0.06090855087852105
1789316122977630500,2.18563037109375,-0.06474281354546546,0.012616612727940082,-0.0470850831114687
1789316122987598000,2.19559814453125,-0.1313432376563549,0.015501228253543376,-0.05693645064346492
1789316122997566200,2.205566162109375,-0.0930529622286558,0.024307050521671772,-0.07864928342085331
1789316123007533300,2.215533203125,-0.026710896793007848,0.021841244930028914,-0.08222485861899331
1789316123017501400,2.22550146484375,-0.013565584015846252,0.04466039498150348,-0.08498296168809756
1789316123027469000,2.235468994140625,0.019404373171925542,0.048046822549402714,-0.109673896960821
1789316123037437200,2.245437255859375,0.002881692916154861,0.01593202088624239,-0.11483224783837795
1789316123047405300,2.2554052734375,-0.03963759838342666,0.030317104591429233,-0.1190785619049333
1789316123057372400,2.265372314453125,-0.03692074064016342,0.031715573212504386,-0.1011229079702869
1789316123067340300,2.27534033203125,0.022063363248109816,0.02091682356148958,-0.09394923521494493
1789316123077308200,2.28530810546875,0.05026595990359783,0.023604162949323652,-0.05871783590121194
1789316123087276300,2.2952763671875,-0.01713233658671379,0.02236994497925043,-0.10063333435505628
1789316123097242600,2.30524267578125,-0.019222586864233015,0.017441548666357994,-0.1307785712446086
1789316123107209500,2.31520947265625,0.008192658805847167,-0.008150865490734576,-0.1574145944368094
1789316123117177600,2.325177490234375,0.04281856650710106,-0.002181435692310333,-0.12637332202298565
1789316123127145500,2.3351455078125,0.07306465168893336,-0.006046294426918029,-0.10593213488291948
1789316123137113600,2.345113525390625,0.03456044124960899,-0.0017035890474915503,-0.07930042253965511
1789316123147080400,2.35508056640625,0.003031330519914627,-0.007329027713835239,-0.11029831246947869
1789316123157048600,2.365048583984375,0.009475099831819534,-0.041432665106654165,-0.14617012857859954
1789316123167016400,2.375016357421875,-0.019784312400221823,-0.07305559159964323,-0.16787839477872474
1789316123176984600,2.384984619140625,-0.027681787651777267,-0.07477057882398366,-0.2239147365109995
1789316123186952700,2.39495263671875,0.0286649534702301,-0.13004822940975427,-0.31893823162764307
1789316123196919600,2.40491943359375,0.08899053509533404,-0.20846797839105127,-0.43157859544493254
1789316123206887400,2.414887451171875,0.019851532417535782,-0.1882189710885286,-0.4372644590616226
1789316123216855600,2.42485546875,0.15224164877831936,-0.11934651039242744,-0.37162908059060573
1789316123226823700,2.43482373046875,0.33627427409291266,-0.17261165211200713,-0.35480332573503254
1789316123236791600,2.44479150390625,0.6576040770322084,-0.431676137535274,-0.4471202287741005
1789316123246758400,2.45475830078125,0.8719137671887874,-0.28617402614504095,-0.4386153622139245
1789316123256726500,2.4647265625,0.221372468149662,-0.02962181580364704,-0.2701862747498788
1789316123266694700,2.474694580078125,0.08224281440079212,0.09210954389870166,-0.07199530542436987
1789316123276662500,2.48466259765625,-0.0008545710027217865,0.1199450608074665,0.07831210562204942
1789316123286630700,2.494630615234375,0.0480319172412157,0.15745120012015104,0.21398038513697681
1789316123296597500,2.504597412109375,0.11671849997639655,0.22148878800570965,0.3052482175145298
1789316123306565600,2.514565673828125,0.2134738238543272,0.24427315900474786,0.29458135061487556
1789316123316533500,2.524533447265625,0.18779577724039553,0.19378157365173102,0.15108732764404267
1789316123326501600,2.534501708984375,0.06792144358158111,0.14090981516391038,0.09405117948576808
1789316123336469500,2.544469482421875,-0.15250234554111958,0.11209288600236177,0.055538712674751876
1789316123346436600,2.5544365234375,-0.54266077003479,0.08282178333252668,0.0011088380247354507
1789316123356404500,2.564404541015625,-0.7910323042690753,0.15207973621487617,-0.06366539357230067
1789316123366372600,2.57437255859375,-0.7863292411446571,0.1736132303699851,-0.06471018991749733
1789316123376340700,2.5843408203125,-0.6517495057851076,0.08796353013515472,0.014186748121492563
1789316123386307600,2.5943076171875,-0.47709027349352834,0.03643354164510965,0.07290642891991883
1789316123396275500,2.604275390625,-0.2363350594818592,-0.0005646481454372405,0.006110080378130078
1789316123406243600,2.61424365234375,-0.1250391690760851,0.00039718262404203413,-0.05957293662689626
1789316123416211700,2.624211669921875,0.014894786792993544,0.0307671864464879,-0.08259276034962386
1789316123426179300,2.634179443359375,0.15952771413326264,0.03389087142497301,-0.11219313150644301
1789316123436146400,2.644146484375,0.1904430768787861,-0.03337970703244209,-0.1791901537194848
1789316123446114600,2.654114501953125,0.10253507632315158,-0.084807404191792,-0.252693854412809
1789316123456082700,2.664082763671875,0.003967734587192536,-0.08395750936418771,-0.2848092040652409
1789316123466050600,2.674050537109375,-0.052988078343868254,-0.04816723405867815,-0.2255284187853336
1789316123476018400,2.684018310546875,-0.07418459562957286,0.038919220981001854,-0.1318656906278804
1789316123485985500,2.693985595703125,-0.0755944624274969,0.040972646379470824,-0.13990809077546
1789316123495953700,2.70395361328125,0.05720598829984665,0.07534487158060073,-0.0024078283267095686
1789316123505921500,2.713921630859375,0.24397476058006284,0.05273848749697208,0.08947455575261265
1789316123515889400,2.723889404296875,0.3766396022289991,0.048072249251604075,0.1479180134255439
1789316123525857500,2.733857421875,0.3491606436729431,0.22234072865992782,0.23490546507015822
1789316123535824600,2.74382470703125,0.13857435795366763,0.19119974046498536,0.16859492728393524
1789316123545792500,2.75379248046875,-0.042083237969875335,0.1463026141181588,0.09400924004018306
1789316123555760600,2.7637607421875,-0.11193594187498092,0.1498340031147003,0.06185827108509838
1789316123565728500,2.773728515625,-0.17040975815355777,0.08222615552693605,0.009218969646282493
1789316123575695600,2.783695556640625,-0.2007990511983633,0.022809505440294742,-0.018775756412185728
1789316123585663500,2.79366357421875,-0.226889185744524,-0.00208615862429142,-0.0304330225886777
1789316123595631600,2.803631591796875,-0.24850655879080294,-0.07951455848067998,-0.10623882621191441
1789316123605599500,2.813599609375,-0.2295119354635477,-0.0838750917777419,-0.17363197160307317
1789316123615567400,2.8235673828125,-0.1174438916414976,-0.027752514800429343,-0.21566892274580896
1789316123625534500,2.833534423828125,0.0104699560880661,-0.0247568401157856,-0.2280835100956261
1789316123635502600,2.843502685546875,0.06696224316060542,0.003798807761073112,-0.19207330842912196
1789316123645470700,2.853470703125,0.09340893605947494,0.031826340110599996,-0.1015124187445268
1789316123655438300,2.863438232421875,0.11954290974736213,0.006037234337627887,-0.0719854050848633
1789316123665406500,2.873406494140625,0.11598083335161208,0.03604015841335058,-0.007362272396311163
1789316123675373600,2.88337353515625,0.010592705684900283,0.0994628292709589,0.0683743384482339
1789316123685341700,2.893341796875,-0.04785188449919223,0.12806348533332348,0.0817762563349679
1789316123695309300,2.903309326171875,0.037547932627797126,0.1527557357802987,0.06918258609119803
1789316123705277400,2.91327734375,0.18473171349465847,0.15727642807513476,0.09221684019807726
1789316123715245600,2.92324560546875,0.8603238671600818,0.2240586384937167,0.20765348367039113
1789316123725212700,2.933212646484375,0.624402064654231,-0.12723784816414116,-0.17203133147340266
1789316123735180500,2.9431806640625,0.6224836638122797,-0.12192659001350402,-0.15072459527887402
1789316123745148400,2.9531484375,-0.1878968995273113,0.03272533477693796,-0.2353745073540136
1789316123755116500,2.963116455078125,-0.3754074300855398,-0.22511136241704224,-0.3242755375349894
1789316123765083600,2.973083740234375,-0.6420125401467085,-0.23558424111455678,-0.30115926770046353
1789316123775051500,2.983051513671875,-0.7847247285574674,-0.0879842806622386,-0.2123317411471158
1789316123785019400,2.993019287109375,-0.7540197936922312,0.027006080347299573,-0.1531781624434516
1789316123794987500,3.002987548828125,-0.5047697230577468,0.11150134984999895,-0.054106597512401634
1789316123804955400,3.012955322265625,-0.1065472345739603,0.1155529633283615,0.0631747970437631
1789316123814922500,3.022922607421875,0.21438158634901044,0.06947042658925057,0.15249887494239955
1789316123824890600,3.032890625,0.28732290391921994,0.08481354167163371,0.10564480584152042
1789316123834858500,3.0428583984375,0.31042730065286156,0.14782587816268206,0.07250215896796434
1789316123844826400,3.052826416015625,0.3841074538916349,0.1393093942299485,0.08383516162615269
1789316123854794500,3.06279443359375,0.41357261782884597,-0.006593699176609516,-0.007774762187339365
1789316123864761600,3.07276171875,0.29164076711833475,-0.06335019014328717,-0.1324503586480394
1789316123874729500,3.0827294921875,0.2926186722397804,-0.017077976050972936,-0.17001279472522438
1789316123884697300,3.092697265625,0.42096740425527096,0.05542261201441288,-0.14276695080529897
1789316123894665500,3.10266552734375,0.2270890922307968,0.04724895016998052,-0.08499328215271235
1789316123904632600,3.112632568359375,0.03721475515067577,0.02907762592434883,-0.10319218852501362
1789316123914600700,3.1226005859375,-0.10007365464568138,0.011207330451905726,-0.12541582036875187
1789316123924568300,3.132568359375,-0.2633399707853794,0.0366579980507493,-0.11246833171863108
1789316123934536400,3.142536376953125,-0.3133668612360954,0.03334229763150215,-0.1180305689556524
1789316123944504600,3.152504638671875,-0.3202197958707809,-0.016306407156586645,-0.17306531416364013
1789316123954471700,3.1624716796875,-0.28252573277056214,-0.09005728754401207,-0.2174547832492739
1789316123964439600,3.172439453125,-0.17342472206056117,-0.0762964732170105,-0.17135398020111023
1789316123974407400,3.182407470703125,-0.01671148082613945,-0.024008652096986768,-0.11800850325431674
1789316123984375600,3.19237548828125,0.07326981887221336,0.011997019524872303,-0.05734579862933606
1789316123994343400,3.202343505859375,0.11842764198184012,0.03561082708537578,-0.0733444184783846
1789316124004310500,3.212310546875,0.16069032817184925,0.04930675948262214,-0.08210519602838903
1789316124014278400,3.2222783203125,0.1416594644874334,0.02726151641309261,-0.09320870077963918
1789316124024246500,3.23224658203125,0.13599427833259106,0.016506898164749144,-0.08458473788443953
1789316124034214400,3.24221435546875,0.09853986920714378,0.01045651208460331,-0.08943659836240113
1789316124044181500,3.252181396484375,0.09282792130112648,0.026506606392562387,-0.08333466475810855
1789316124054149600,3.262149658203125,0.04454992034435272,0.013481412863731383,-0.11619038444906472
1789316124064117500,3.272117431640625,0.025776246291399,0.0023804653957486153,-0.10269033995009959
1789316124074085400,3.28208544921875,-0.009606032735109328,0.03293810074478388,-0.08428918900396674
1789316124084053500,3.292053466796875,-0.1319663379907608,0.017974340368807316,-0.07578096144292504
1789316124094021400,3.302021484375,-0.34647476558983326,0.029989772333204743,-0.12812763661071658
1789316124103989200,3.3119892578125,-0.31746143707334995,0.030300737978518007,-0.1344466470317915
1789316124113957000,3.32195703125,-0.12919628875553607,0.013141513384878635,-0.10186247429121285
1789316124123925200,3.33192529296875,-0.01953179894387722,-0.01680471206754446,-0.05444653352387249
1789316124133893400,3.341893310546875,-0.06179740774333477,-0.022272037562727928,-0.06755768830310553
1789316124143860200,3.351860107421875,-0.003856675428152084,-0.007821195144951344,-0.09450845826659351
1789316124153828000,3.361828125,0.12251929520964622,-0.02362783608585596,-0.043281471311114726
1789316124163796200,3.371796142578125,0.211042212793231,-0.012181728442013264,-0.04841507133990526
1789316124173764400,3.381764404296875,0.196006556224823,0.016794482934474945,-0.09456829869505018
1789316124183732200,3.391732177734375,0.14480711486339568,0.06844985136985779,-0.08635686212349683
1789316124193699000,3.401698974609375,0.14877660301625728,0.08756225585788488,-0.03935056160297245
1789316124203667200,3.411667236328125,0.09484802895188331,0.04533844037353992,-0.05381619973108172
1789316124213635300,3.42163525390625,0.05391337649524212,0.010219780719280242,-0.11368052051998674
1789316124223603200,3.431603271484375,0.023028993409872054,0.003643909460306167,-0.11709463981240988
1789316124233570300,3.4415703125,0.02535071435570717,0.021931553561985492,-0.06149634243752807
1789316124243538200,3.4515380859375,0.033493104279041286,0.015415888057649135,-0.05742200567070394
1789316124253506300,3.46150634765625,-0.004254150313138962,-0.0008969488397240638,-0.05564392661489546
1789316124263474200,3.47147412109375,-0.041463644766807556,0.015283493849635123,-0.03647493310142308
1789316124273442300,3.4814423828125,-0.03802957866489887,0.0413309582978487,-0.029188575485534964
1789316124283409200,3.4914091796875,-0.016748305705189703,0.020016367590427398,-0.06146602036450058
1789316124293377300,3.501377197265625,0.04450023598372936,0.046207039901614184,-0.0932648879462853
1789316124303345200,3.51134521484375,0.008650339445471764,0.033277707962691784,-0.1208915113447234
1789316124313313300,3.521313232421875,-0.009231354203820229,-0.022500877882540224,-0.12319175111111252
1789316124323280400,3.5312802734375,0.011956395253539085,0.021688976977765558,-0.10052497860975564
1789316124333248300,3.541248291015625,0.020862755286693572,0.044267596271634096,-0.09165014622602612
1789316124343216000,3.551216064453125,0.03073416095972061,0.025474048474431035,-0.09790358059760182
1789316124353184300,3.561184326171875,0.057739072263240813,0.0028989363119006155,-0.11747541929092258
1789316124363152400,3.57115234375,0.03451777115166187,-0.012881108883023261,-0.1518423472624272
1789316124373119200,3.581119140625,-0.028842648124694822,-0.01587356869727373,-0.13671766070369631
1789316124383087000,3.591087158203125,-0.09849603006541728,0.018653554804623124,-0.07540639250949024
1789316124393055200,3.60105517578125,-0.08959726881682872,0.018102058401703834,-0.041398689771816134
1789316124403023400,3.6110234375,-0.06484452035427093,-0.01435556534975767,-0.05931991171389818
1789316124412991200,3.6209912109375,0.004599018228054046,-0.0069184010863304135,-0.0562673192102462
1789316124422958000,3.6309580078125,0.051314007651805875,0.009513386015594006,-0.04203194617405533
1789316124432926200,3.64092626953125,0.040052608925104136,0.018833587546646595,-0.05873955454267561
1789316124442894300,3.650894287109375,0.06837152543663978,0.03280541427582502,-0.11648096489347516
1789316124452862200,3.6608623046875,0.11190788482427597,0.05530336954891681,-0.1116279353717342
1789316124462830300,3.670830322265625,0.08970423632264136,0.039922845065593716,-0.12820373405423013
1789316124472797200,3.680797119140625,0.0927706381559372,0.022291326785087585,-0.11621825883667915
1789316124482765300,3.690765380859375,0.11241057364940643,0.01862462097108364,-0.06810976922791451
1789316124492733200,3.700733154296875,0.13037526940703392,0.020910101559758185,-0.03429017294086516
1789316124502701300,3.710701416015625,0.10488310075402259,0.012968494905531406,-0.045751222425512966
1789316124512668200,3.720668212890625,0.10548983447551727,0.011902619239687919,-0.04501403072476387
1789316124522636300,3.73063623046875,-0.04506137699782848,0.046565644080936906,-0.12005451253131032
1789316124532604200,3.740604248046875,-0.08606675660312176,0.04269640143215656,-0.08756927012056112
1789316124542572300,3.750572265625,-0.0768365714430809,0.01044774425625801,-0.07942187522854656
1789316124552540400,3.76054052734375,-0.06513035155832766,-0.00897153422385454,-0.10422598855216056
1789316124562507300,3.77050732421875,-0.08046294524669646,0.004876373864710331,-0.0880255259880796
1789316124572475100,3.78047509765625,-0.13822189125418663,0.004924012398719787,-0.10287566992174833
1789316124582443300,3.790443359375,-0.09384265130162238,0.0011599836900830268,-0.11209051138218491
1789316124592411400,3.800411376953125,0.018040683603286742,-0.0102194884583354,-0.0677424702854827
1789316124602379300,3.810379150390625,0.053504211172461506,-0.045025428901612756,-0.0893973257979378
1789316124612346000,3.82034619140625,0.06549684678316116,-0.03628361178040504,-0.1280852587737143
1789316124622314200,3.830314208984375,-0.020947510960698128,-0.02247925057262182,-0.13362469965703785
1789316124632282400,3.840282470703125,-0.04702303245961666,0.003706161041557789,-0.09391747010350227
1789316124642250200,3.850250244140625,-0.01431026490330696,0.013612930288910864,-0.04565868530385196
1789316124652217000,3.860217041015625,-0.03143441818356514,0.02562076346874237,-0.06189816470406949
1789316124662185200,3.870185302734375,-0.013144728255271911,0.06622048488259315,-0.04262625880539417
1789316124672153300,3.8801533203125,0.05200374348163604,0.06318301688283681,-0.04802910422962159
1789316124682121200,3.890121337890625,0.08263035241365432,0.03810615103244781,-0.05518204472418874
1789316124692089300,3.90008935546875,0.08127250806391238,0.02862929763495922,-0.09393021998722105
1789316124702056200,3.91005615234375,-0.05243745872378349,0.05477846889197826,-0.09529518819749355
1789316124712024300,3.9200244140625,-0.09252981513738631,0.05113222134411335,-0.09705982324983924
1789316124721992200,3.9299921875,0.028118425503373144,0.050119244909286494,-0.03312576880399137
1789316124731960300,3.939960205078125,0.12088438748419283,0.026923370499908922,-0.003942600145936012
1789316124741927200,3.94992724609375,0.10899755033552647,0.014777882415056228,-0.06405969011951237
1789316124751895300,3.959895263671875,-0.08396423136591911,0.045534839728474615,-0.13747691810578108
1789316124761863200,3.96986328125,-0.13398586111962796,0.03839607388973236,-0.14288959080427885
1789316124771831300,3.979831298828125,-0.09382511564493179,-0.0008148235142230987,-0.09330339332576841
1789316124781799400,3.98979931640625,-0.011939444118738174,0.04681026649177074,-0.018149733468331396
1789316124791766300,3.999766357421875,0.057170332464575764,0.05454466013610363,0.014160371571220456
1789316124801734100,4.009734130859375,0.09049977061450482,-0.02525952894091606,-0.057091129748523234
1789316124811702300,4.019702392578125,0.09818097276687622,-0.03933189343512058,-0.12449139900021254
1789316124821670400,4.02967041015625,0.06604220570623874,-0.027092881847918034,-0.10738883649725467
1789316124831638300,4.03963818359375,0.06855623435378075,0.009255904123187065,-0.08650755917318165
1789316124841605000,4.049605224609375,0.1429980196148157,-0.004411678962409496,-0.09390366077385842
1789316124851573200,4.0595732421875,0.11223404803872108,0.006064706866443157,-0.1061436222091317
1789316124861541400,4.069541259765625,0.07132803715467452,0.020201661029458046,-0.13537052041105926
1789316124871509200,4.07950927734375,0.0940250221312046,0.0012923778980970383,-0.10671371371466666
1789316124881476000,4.08947607421875,0.10932371354997157,0.002109539499878883,-0.04526248906049877
1789316124891444200,4.0994443359375,0.025167759004235266,0.011598375596106051,-0.05125223099458962
1789316124901412400,4.109412353515625,-0.07414192553162574,0.006891220818459987,-0.07058331973459571
1789316124911380200,4.119380126953125,-0.09515490294396876,-0.006706511901319026,-0.08730064577963202
1789316124921348400,4.129348388671875,-0.09820026198923587,-0.0095572251573205,-0.09065748192686587
1789316124931315200,4.139315185546875,-0.10889116735160351,0.008079846081137657,-0.11334025571495294
1789316124941283300,4.149283447265625,-0.10974983000755309,0.009672960491478443,-0.11311294976510107
1789316124951251200,4.159251220703125,-0.11929799507558345,0.021034604722261426,-0.1145355664467439
1789316124961219300,4.16921923828125,0.008518237498402595,0.039453181727230544,-0.044336131463199854
1789316124971186200,4.179186279296875,0.02913081741631031,0.03383212697505951,-0.06528291177153588
1789316124981154300,4.189154296875,0.05856149456202984,0.022859774322807787,-0.09740797910038382
1789316124991122200,4.1991220703125,0.05751987655460834,0.024736089588701722,-0.0977306351834908
1789316125001090300,4.20909033203125,0.13997779501080512,0.05600274998992681,-0.11285809822119772
1789316125011058400,4.219058349609375,-0.006576455780863762,0.02026245130598545,-0.11595577197559177
1789316125021025300,4.229025390625,-0.04943535429835319,0.053770168632268904,-0.04544080476947129
1789316125030993200,4.2389931640625,-0.00016308160722255705,0.04531038332283496,-0.03002228636331856
1789316125040961300,4.248961181640625,-0.0010375263541936874,0.046914603649079796,-0.02993877279832959
1789316125050929400,4.258929443359375,0.05135609322786331,0.0003965981021523475,-0.08890479304064065
1789316125060896300,4.268896240234375,-0.08947451921999454,0.008179799324274062,-0.11327774840537458
1789316125070864100,4.278864013671875,-0.07136077038049697,0.026298808860778806,-0.09883954627346248
1789316125080832300,4.288832275390625,0.03298457023501396,0.009782558345794678,-0.0698048827080056
1789316125090799900,4.2987998046875,0.03258475726246834,0.010574293245375156,-0.06907474180255085
1789316125100767700,4.308767822265625,0.11095277605652809,0.005988134498894214,-0.05476224840953946
1789316125110734600,4.318734619140625,-0.013044775012135504,0.013326806823909281,-0.07014671841561794
1789316125120702700,4.32870263671875,-0.13502864817082882,0.030369711561501023,-0.09526161472145467
1789316125130670800,4.3386708984375,-0.03737608319222927,0.015947802977263927,-0.05933127335812896
1789316125140638700,4.348638671875,-0.03952537018060684,0.01988806503564119,-0.05899926492478698
1789316125150605600,4.35860546875,0.01965980923771858,0.01027472577691078,-0.04843680824767798
1789316125160573700,4.36857373046875,0.040833530169725414,-0.002687047126889229,-0.07940949067100882
1789316125170541800,4.378541748046875,0.042136429461836815,0.010328501790761948,-0.06335219943728297
1789316125180509700,4.388509765625,0.04151800530254841,0.011560089412331581,-0.06208396959975362
1789316125190477800,4.398477783203125,0.01909866822361946,0.032173546113073825,-0.054667592396028336
1789316125200444700,4.408444580078125,-0.022568974682688713,0.03637684302181005,-0.059391223384439945
1789316125210412800,4.418412841796875,-0.06320669001936913,0.024979250694811342,-0.08734959948789328
1789316125220380700,4.428380615234375,0.03582534661889076,-0.008202887938916683,-0.13046956009436397
1789316125230348800,4.438348876953125,0.08847790939807891,0.0004974281281232833,-0.10575802042502909
1789316125240317000,4.44831689453125,0.0807967072457075,0.022863281454145908,-0.08559932175446301
1789316125250283800,4.45828369140625,0.06928045697510242,0.026682255220413207,-0.07296692693550139
1789316125260251600,4.468251708984375,0.06874854205548762,0.02767769599854946,-0.07255166066549718
1789316125270219800,4.4782197265625,0.06817454155981541,0.018460954841971397,-0.06243384248334914
1789316125280188000,4.48818798828125,-0.0011193594187498092,0.01421001939922571,-0.07917458593659102
1789316125290154800,4.49815478515625,-0.03433715388774872,0.010770692600309849,-0.08263462672997265
1789316125300122600,4.50812255859375,-0.0005167173504829406,0.022605507300794123,-0.0662748088857159
1789316125310090800,4.5180908203125,0.03304769859910011,0.03272241216748953,-0.06074830054920166
1789316125320059000,4.528058837890625,0.03880114755928516,0.054064475403726095,-0.04152045298796147
1789316125330026800,4.53802685546875,0.011907295414805412,0.06503039831519127,-0.06450418248400092
1789316125339993600,4.54799365234375,-0.016717910566926,0.0415773342743516,-0.08270341764986515
1789316125349961700,4.557961669921875,-0.05989128186106681,0.03166413528621197,-0.08747563702035695
1789316125359929900,4.567929931640625,-0.04821428807079792,0.019224340429902075,-0.11185958870314061
1789316125369897700,4.577897705078125,-0.0728016168385744,0.0115831780269742,-0.10048194318562745
1789316125379864600,4.587864501953125,-0.07652034510076046,-0.004516600641608238,-0.10078896330818533
1789316125389832700,4.597832763671875,-0.1481347979813814,-0.009194821585714816,-0.11525978906806558
1789316125399800800,4.60780078125,-0.13074468724131583,0.027633856856822965,-0.08265709429010748
1789316125409768700,4.617768798828125,0.002819733595848083,-0.00047960021048784254,-0.07324227327816188
1789316125419736800,4.62773681640625,0.04716156414747238,-0.0062926704034209245,-0.07754665594119578
1789316125429703700,4.63770361328125,0.12937456793189048,0.011240063677728175,-0.057594147367216644
1789316125439671800,4.647671875,0.17657938669919968,0.004559270739555359,-0.03895498641412705
1789316125449639700,4.6576396484375,0.17614859406650066,-0.0061950552478432655,-0.05113430370334535
1789316125459607800,4.66760791015625,0.18194062147140502,-0.0010299275696277618,-0.07496949892956763
1789316125469574700,4.67757470703125,0.08459317691922187,0.014825520949065684,-0.0806698294630274
1789316125479542800,4.687542724609375,0.05926350535154342,0.0012386018842458725,-0.10001936717517673
1789316125489510700,4.6975107421875,0.01818447598814964,-0.021012685151398182,-0.1136268541039899
1789316125499478800,4.707478759765625,-0.04579729005694389,-0.03728226742893457,-0.12556396013516932
1789316125509447000,4.717447021484375,-0.014662147080898283,-0.004161503593623638,-0.0744009417939931
1789316125519413800,4.727413818359375,-0.006284194836020469,0.03525631455928087,-0.05423365795817226
1789316125529381600,4.737381591796875,-0.03174830643832684,0.07569763054102659,-0.05407090514451265
1789316125539349800,4.747349853515625,-0.07375438751876354,0.06904518691450356,-0.0917769874760881
1789316125549318000,4.75731787109375,-0.04146306024491787,0.046213761903345585,-0.0867913810832426
1789316125559285800,4.76728564453125,0.0530775101929903,0.07316168232262134,-0.04968816001564264
1789316125569252600,4.777252685546875,0.10282850631177425,0.05423310996890068,-0.024371128733828663
1789316125579220700,4.787220703125,0.057767129313945766,0.033871582202613354,-0.06496522412449121
1789316125589188900,4.79718896484375,0.018493688067793845,0.03737316058278083,-0.10034629757460206
1789316125599156700,4.80715673828125,0.033902854123711586,0.0314274039208889,-0.09799644651282578
1789316125609123600,4.81712353515625,0.04820025954544544,0.020633330444991587,-0.08936141423434019
1789316125619091700,4.827091796875,0.06270049406290054,0.02602554487735033,-0.06675492055285721
1789316125629059800,4.837059814453125,0.11641104146242141,0.014729074837267398,-0.053403929135762154
1789316125639027700,4.84702783203125,0.10349836839735507,-0.04922463415712118,-0.06694437871035189
1789316125648995800,4.856995849609375,0.013164601999521255,-0.047959436526894564,-0.06862787481788546
1789316125658962700,4.866962646484375,-0.04671148229241371,-0.04776479073762893,-0.0856681492069736
1789316125668930800,4.876930908203125,-0.05878419740200042,-0.061788932175934314,-0.10850348320826887
1789316125678898700,4.886898681640625,-0.07591127329170703,-0.0337996860101819,-0.11355163344331085
1789316125688866800,4.89686669921875,-0.12401567124724387,-0.047290158963203426,-0.12821326906755565
1789316125698833700,4.906833740234375,-0.172050511097908,-0.038328853872418404,-0.12373784068655222
1789316125708801800,4.9168017578125,-0.15258651669323445,0.0134741063401103,-0.07937971658725292
1789316125718769700,4.926769775390625,-0.0861211171388626,0.055802258981764316,-0.040073688245750964
1789316125728737800,4.93673779296875,0.019597849917411803,0.06250351018607617,-0.03423270713258535
1789316125738706000,4.946705810546875,0.1070136830419302,0.049288347043097015,-0.04835227176938205
1789316125748672800,4.9566728515625,0.14470891518592835,0.06626286271959543,-0.07763458995297551
1789316125758640600,4.966640625,0.12906126419901848,0.05127075303196907,-0.11300561693310737
1789316125768608800,4.97660888671875,0.12452128268182278,0.057768006096780296,-0.10674856583233922
1789316125778577000,4.986576904296875,0.13560674031972883,0.06410276207625866,-0.07707103778608143
1789316125788543700,4.996543701171875,0.15816811621785162,0.02792904041111469,-0.0964242287600413
1789316125798511600,5.00651171875,0.115156657487154,0.00964168857038021,-0.12231818314697593
1789316125808479700,5.016479736328125,0.024948563295602796,0.03258738761097193,-0.115895200894773
1789316125818448000,5.02644775390625,0.005375847819447517,0.05499386520832777,-0.07144917931631208
1789316125828415700,5.036415771484375,0.020741759255528448,0.030476971328258513,-0.03441219188533723
1789316125838382800,5.0463828125,-0.05028057295083999,0.016969547240436075,-0.03928637379296124
1789316125848350700,5.056350830078125,-0.07587269484698772,0.007141688448190689,-0.03483808914721012
1789316125858318800,5.06631884765625,-0.09176818311512469,0.0028568507358431813,-0.05358286589924246
1789316125868287000,5.076286865234375,-0.09623451487421988,-0.01804769786596298,-0.09301745252385735
1789316125878253800,5.08625390625,-0.052393035060167306,-0.05379033463746309,-0.1116664772838354
1789316125888221700,5.0962216796875,-0.06516483834981918,-0.0030082419052720067,-0.0849531328054145
1789316125898189800,5.10618994140625,-0.06341361076831817,0.00012099603116512298,-0.07858257486019284
1789316125908158000,5.116157958984375,-0.053424131673574446,0.00267827929854393,-0.10405571001917123
1789316125918125800,5.126125732421875,-0.012562544453144073,0.009630290393531322,-0.09138214293960481
1789316125928092700,5.1360927734375,0.024970775127410888,0.028643033899366854,-0.05979633358661085
1789316125938060800,5.146060791015625,0.03891396028399467,0.007792845833301544,-0.07754756925664842
1789316125948029000,5.15602880859375,0.07068155594468116,0.008655892403423786,-0.08360124327242374
1789316125957996800,5.165996826171875,0.04519757059812546,0.03526508238762617,-0.05047127321735024
1789316125967963600,5.175963623046875,0.10104922167956829,0.02929156093597412,-0.0641624563742429
1789316125977931800,5.185931884765625,0.18164777600467205,-0.0005962123274803161,-0.11471201899219303
1789316125987900000,5.19589990234375,0.16647651035785674,0.008135375660657883,-0.0655611807236448
1789316125997867800,5.20586767578125,0.1520779826492071,0.011923369766771793,-0.025279694946110248
1789316126007836000,5.2158359375,0.09721651164889335,0.045241702000796795,-0.036111360486038024
1789316126017802800,5.225802734375,-0.005278232663869857,0.047479836316406725,-0.028927111537754534
1789316126027771000,5.23577099609375,-0.03310556626617908,0.04615589423626661,-0.0873113133041188
1789316126037738800,5.24573876953125,-0.1155664073318243,0.014265256717801093,-0.14681940453387796
1789316126047707000,5.255706787109375,-0.10742460193037986,0.022375790198147297,-0.14230897790472954
1789316126057673700,5.265673828125,-0.05025660755336284,0.024471885694563388,-0.09979944081418216
1789316126067641900,5.275641845703125,-0.03795592890679836,0.03625321664214134,-0.07102777556646615
1789316126077609700,5.285609619140625,-0.06999766533374786,0.01875613839626312,-0.08571257287058978
1789316126087577900,5.295577880859375,-0.07292904261052609,0.005351882421970367,-0.09487725504636764
1789316126097546200,5.305546142578125,-0.04222293870151043,0.019694003768265245,-0.062076553478278215
1789316126107513300,5.315513427734375,0.02443301498889923,0.0064484454870223995,-0.047423064627870916
1789316126117481200,5.325481201171875,0.037650808480381964,-0.005415887568891048,-0.07297262602392583
1789316126127449300,5.335449462890625,0.0020715455770492553,-0.0025645897909998892,-0.08906224862467498
1789316126137417200,5.345417236328125,0.022907412856817244,0.032923195436596865,-0.08335030071865766
1789316126147384300,5.35538427734375,0.04121814557313919,0.010370879627764224,-0.09216397749967872
1789316126157352400,5.3653525390625,0.05118132118284702,0.0033291444227099417,-0.0901081774810329
1789316126167320300,5.3753203125,0.058119011491537094,0.01084200427085161,-0.12613346711881457
1789316126177288200,5.3852880859375,0.08593874630928039,0.028557109181582926,-0.13143957417029886
1789316126187256300,5.39525634765625,0.0876899738907814,0.02251929032206535,-0.0759852883759886
1789316126197223400,5.405223388671875,0.09395020332932472,-0.001675239735841751,-0.034420777050592
1789316126207191300,5.41519140625,0.07568214071094989,-0.010065466940402983,-0.03200282918866724
1789316126217159200,5.4251591796875,0.0935848771482706,-0.0021264906346797944,-0.037868944743089376
1789316126227127300,5.435127197265625,0.008669044145941733,0.003282382671535015,-0.04275419603399932
1789316126237094400,5.445094482421875,-0.08692191212773323,0.04195931932926178,-0.07058814204018563
1789316126247062500,5.4550625,-0.10309738638103008,0.045669572024047374,-0.11231884024534373
1789316126257030100,5.465030029296875,-0.10682312890589236,-0.011712065103650093,-0.10360493404436856
1789316126266998300,5.474998291015625,-0.1437555599838495,-0.0010518471404910087,-0.11893774692844598
1789316126276966400,5.48496630859375,-0.12218202607929705,0.014847148258984089,-0.1306649000033736
1789316126286933500,5.49493359375,-0.02188800668120384,0.0025277649119496344,-0.09786865541469306
1789316126296901400,5.5049013671875,0.11132862363159655,0.00029956746846437454,-0.03921758287306875
1789316126306869200,5.514869140625,0.1266460197508335,0.012682371440529822,-0.05306969221271574
1789316126316837400,5.52483740234375,0.10680734681487083,0.021222528509795665,-0.08952424011323601
1789316126326804500,5.534804443359375,0.07223521512746811,0.030343700337409973,-0.06970149539876729
1789316126336772400,5.5447724609375,-0.00043722237348556514,0.029738720181584355,-0.06339399275239557
1789316126346740200,5.554740234375,-0.03642740416526794,0.029871114389598368,-0.08152735960781574
1789316126356708400,5.564708251953125,-0.07264321140646934,0.02091214738637209,-0.07817483430951833
1789316126366676200,5.57467626953125,-0.07388005972504616,0.018232406783103942,-0.06964764631967992
1789316126376643300,5.584643310546875,-0.03189560595452785,0.018157295720279215,-0.08978716536574065
1789316126386611500,5.594611572265625,0.04062719394266605,0.01667436368614435,-0.07833440878540276
1789316126396579300,5.604579345703125,0.014254735323786735,0.010837912617623806,-0.07281257662400603
1789316126406547200,5.614547119140625,0.006285948401689529,0.01809212152957916,-0.08628014362547547
1789316126416514300,5.624514404296875,0.04771276828944683,0.011458674864470959,-0.08475023064445704
1789316126426482400,5.634482421875,0.049748658031225204,0.024820845262706278,-0.06752279965281487
1789316126436450300,5.6444501953125,0.08252572299540042,0.00720218646377325,-0.11126388783231377
1789316126446418200,5.654418212890625,0.030128011760115623,-0.019532967987656594,-0.13115593492332844
1789316126456385300,5.66438525390625,0.012276713249087332,0.018069325175881383,-0.11927910771202295
1789316126466353400,5.674353515625,0.0058043023645877835,0.025458558644354343,-0.07832929421886801
1789316126476321500,5.684321533203125,-0.012230536019802092,0.021155016231536865,-0.058206653242371974
1789316126486289200,5.6942890625,-0.021772271347045898,0.021215514247119427,-0.06363448697738348
1789316126496257300,5.70425732421875,-0.03442307860553264,0.023542203629016874,-0.07730974191278218
1789316126506224400,5.714224365234375,0.02326046407818794,0.014002806389331816,-0.04535568376928568
1789316126516192500,5.724192626953125,0.0778127229988575,0.00421849447786808,-0.02498180797807872
1789316126526160100,5.73416015625,0.02373158872127533,-0.003524374733865261,-0.07717544800862669
1789316126536128300,5.744128173828125,-0.007309446230530738,-0.0035088849037885664,-0.12631222121920435
1789316126546095400,5.754095458984375,-0.0026478841602802275,0.010060206243395806,-0.09942753876186906
1789316126556063500,5.7640634765625,0.031166122636198997,0.02748772638440132,-0.05680124342385679
1789316126566031400,5.77403125,0.08555179281830787,0.005805763669312,-0.0621229864358902
1789316126575999200,5.783999267578125,0.06408990259468555,0.013970073163509369,-0.05547960289865732
1789316126585967400,5.79396728515625,0.010417349117994308,0.02816080334037542,-0.07268438366707414
1789316126595934500,5.8039345703125,-0.01092179150879383,0.014388883097469806,-0.08546787739451975
1789316126605902300,5.81390234375,-0.031683424508571624,0.027740239840745924,-0.08048866420984267
1789316126615870200,5.8238701171875,-0.05900222406685352,0.03275426861047744,-0.08533646956719458
1789316126625838300,5.83383837890625,-0.016393500918149947,0.024102175599336622,-0.09654208298604935
1789316126635805400,5.843805419921875,-0.016216975307464597,-0.012660451869666576,-0.1174107200242579
1789316126645773300,5.853773193359375,-0.027115970462560653,-0.010392214676737784,-0.11745229414366185
1789316126655741400,5.863741455078125,0.022699907585978507,0.021980653400719165,-0.05316102375797927
1789316126665709300,5.873709228515625,0.06616904695630073,0.04835924949944019,-0.01513893427979201
1789316126675677200,5.88367724609375,0.11676058555245399,0.025945173117518424,-0.06364990374222397
1789316126685644300,5.893644287109375,0.055119829675555225,0.03269990807473659,-0.07837112406659871
1789316126695612400,5.9036123046875,0.003543371695280075,0.018260171572864053,-0.07283131785709411
1789316126705580300,5.913580322265625,0.07329787592291831,0.014814999555051327,-0.07595507590081542
1789316126715548200,5.923548095703125,0.06731704794764519,0.014255904367566108,-0.0907393515240401
1789316126725515300,5.933515380859375,0.008668459624052048,-0.013257833240926265,-0.08947272912170738
1789316126735483400,5.9434833984375,-0.06778349641561508,-0.02466916183233261,-0.09922686509061604
1789316126745451500,5.953451416015625,-0.05956278055906295,-0.023220132067799566,-0.08875625141542405
1789316126755419100,5.963419189453125,-0.045267713224887846,-0.02641805132627487,-0.06042575406394898
1789316126765387300,5.97338720703125,-0.12061901454627513,-0.027062194448709487,-0.09899740371629595
1789316126775354400,5.983354248046875,-0.10524784241318702,0.013094167111814022,-0.0994864658748731
1789316126785322500,5.993322509765625,-0.09235095143914222,0.03002601269036531,-0.06876132847182452
1789316126795290000,6.0032900390625,-0.049210313370823856,0.022199849109351633,-0.07389704739246516
1789316126805258200,6.01325830078125,0.01879413231909275,0.032444179747998715,-0.0862500042155385
1789316126815225300,6.023225341796875,0.10938450382649897,0.056201779693365095,-0.06352006681747734
1789316126825193500,6.033193359375,0.17919512215554714,0.022660160097479818,-0.04045695194229483
1789316126835161300,6.043161376953125,0.18663725485503674,0.013456278422474861,-0.0670748001569882
1789316126845129200,6.053129150390625,0.1865723729252815,0.03756517602354288,-0.09265811769217253
1789316126855096300,6.063096435546875,0.1425929459452629,0.03181055801957845,-0.08208035384807735
1789316126865064400,6.073064453125,0.021091303345561026,0.014438859719038008,-0.10094645542483777
1789316126875032300,6.0830322265625,-0.12639935151338577,0.037299218563735484,-0.11226740231905132
1789316126885000200,6.093000244140625,-0.1502624576598406,0.015883213308453558,-0.05359137799926102
1789316126894968300,6.10296826171875,-0.04992401459813118,-0.002313245378434658,-0.06542381807956844
1789316126904935400,6.112935302734375,0.014604279413819312,0.0053869537353515625,-0.0640368937658146
1789316126914903300,6.1229033203125,-0.013276245680451392,-0.0038458617731928824,-0.06550623566601425
1789316126924871400,6.132871337890625,-0.0006488192975521087,0.009477730180323123,-0.06525733893886208
1789316126934839300,6.14283935546875,0.03714928869903088,0.017407354135811327,-0.0406923681333661
1789316126944806400,6.152806396484375,0.07274725630283355,0.0044172319203615185,-0.07835022740904242
1789316126954774300,6.162774169921875,0.11620470523536204,-0.009207973328232765,-0.10973591108005493
1789316126964742400,6.172742431640625,0.09082827191650866,0.04675912082642317,-0.08724376449324191
1789316126974710500,6.18271044921875,0.07020809321403503,0.03129471745193004,-0.07165547901075332
1789316126984678100,6.19267822265625,0.009980126744508743,0.022067454901337623,-0.054834254199825225
1789316126994645200,6.202645263671875,-0.05513911889791488,0.023797055172920224,-0.072600468243286
1789316127004613400,6.21261328125,-0.0904740516513586,-0.005511456897854805,-0.10282952922508119
1789316127014581500,6.22258154296875,-0.0701443803280592,-0.008413900341093539,-0.0789691995576024
1789316127024549000,6.232549072265625,0.003336450946331024,0.00606587591022253,-0.06389964071959257
1789316127034516200,6.24251611328125,0.02860883936882019,0.00028700024783611294,-0.06867416164502502
1789316127044484400,6.252484375,0.07850479691624641,0.004774374794960022,-0.060554202749207614
1789316127054452500,6.262452392578125,0.02489478728175163,-0.005097323139011859,-0.0967530953882262
1789316127064420400,6.27242041015625,-0.01745265458226204,0.03801145848631859,-0.12044628832787274
1789316127074387200,6.28238720703125,0.038300212299823756,0.03788958567231893,-0.08481514910683036
1789316127084355300,6.292355224609375,0.03484685697555542,0.008177461236715316,-0.06956753028817475
1789316127094323200,6.3023232421875,-0.015950433325767517,-0.0032858898028731345,-0.11470979050248861
1789316127104291300,6.312291259765625,-0.015393968486785889,0.024346798010170458,-0.1362108071601018
1789316127114259200,6.32225927734375,-0.02293839251697063,0.02986439238786697,-0.049721952687390145
1789316127124226300,6.332226318359375,-0.0612947189182043,0.01441664788722992,-0.058573002336733036
1789316127134194400,6.3421943359375,-0.11710077729225157,0.015506196689605713,-0.09494546144437044
1789316127144162300,6.352162353515625,-0.12260814253687857,0.025652619911730287,-0.06310991511400789
1789316127154130200,6.362130126953125,-0.06699614543020725,0.037355917187035084,-0.03899009426012635
1789316127164097300,6.37209716796875,0.04529752384126186,0.03836714005619287,-0.04213142449315637
1789316127174065400,6.3820654296875,0.08374211304783821,0.01644610788822174,-0.07617478306610137
1789316127184033300,6.392033203125,0.07304886959791183,0.005207797776162624,-0.11293452445827423
1789316127194001200,6.402001220703125,0.080204586571455,0.010430793121457099,-0.12068758627045899
1789316127203968300,6.41196826171875,0.03559153786301612,0.017591770792007445,-0.13092965188678354
1789316127213936400,6.421936279296875,0.04004734822809696,-0.005146715238690376,-0.1437905582319945
1789316127223904300,6.431904296875,0.072104866746068,0.023157588225603102,-0.09845825533829629
1789316127233872100,6.4418720703125,0.041648353683948515,-0.002618365804851055,-0.09999452499486505
1789316127243840300,6.45184033203125,-0.012045242580771446,0.008618775263428687,-0.08932469895314425
1789316127253807400,6.461807373046875,-0.012341010656952858,0.010137655393779277,-0.06769866767637431
1789316127263775200,6.471775146484375,-0.012479542344808577,0.002792261067032814,-0.03600592735018581
1789316127273743000,6.4817431640625,0.0297977568924427,0.002241056925058365,-0.04245546881575137
1789316127283711200,6.491711181640625,0.01734276446700096,0.012055763974785805,-0.03899564721807837
1789316127293678300,6.50167822265625,-0.014574468797445296,0.022511691537499427,-0.0649509764034301
1789316127303646200,6.511646240234375,-0.06072714816331863,0.026035481749475002,-0.08612020382340997
1789316127313614300,6.5216142578125,-0.028217209702730176,0.013540449574589728,-0.10003153253700584
1789316127323582200,6.531582275390625,0.041264907324314114,0.0075695584714412685,-0.10197543314639479
1789316127333549300,6.54154931640625,0.07735562688112259,-0.007460837399959563,-0.08634159148912876
1789316127343517200,6.55151708984375,0.08362696223556995,0.010675707793235779,-0.09080532943233847
1789316127353485300,6.5614853515625,0.06020400107204914,0.008210486723482608,-0.09222407365646212
1789316127363453200,6.571453125,0.06888824278712272,-0.0003226560831069946,-0.06259396494850517
1789316127373420300,6.581420166015625,0.05555588300526142,0.017778817796707154,-0.05277447212580591
1789316127383388200,6.59138818359375,0.02653787831366062,0.017648469415307046,-0.04818710780292749
1789316127393356300,6.601356201171875,0.0012070377022027968,0.007885200291872023,-0.08386051526311784
1789316127403324400,6.611324462890625,-0.016947627669572828,0.02742985871732235,-0.07428436620961874
1789316127413292300,6.621292236328125,-0.038000937092304225,0.018609423401951788,-0.07373911688439548
1789316127423259100,6.631259033203125,-0.039325463694334026,0.022660160097479818,-0.06828976543731988
1789316127433227300,6.641227294921875,-0.09831015210449695,0.010714578498899936,-0.10774265490360557
1789316127443195400,6.6511953125,-0.0524064790636301,0.029502573338150977,-0.07683602345380931
1789316127453163300,6.661163330078125,0.039705987444519995,0.041297640550136565,-0.03896985518969595
1789316127463130000,6.671130126953125,0.06547229686379433,0.03484773375838995,-0.06585380699466914
1789316127473098200,6.68109814453125,0.0975672247827053,0.02743804202377796,-0.08092442527860402
1789316127483066400,6.69106640625,0.13864859223365783,0.01744476353675127,-0.07009093310777098
1789316127493034200,6.7010341796875,0.1345849960565567,0.013194997137784957,-0.09514189733192324
1789316127503002000,6.711002197265625,0.03431260396838188,0.018283260187506676,-0.09700590110551566
1789316127512969200,6.72096923828125,-0.014035539615154266,0.015429039800167082,-0.0740424472125247
1789316127522937300,6.730937255859375,-0.03399520858228206,0.019982465320825576,-0.07239880819134414
1789316127532905200,6.7409052734375,-0.023451602736115455,0.006739245127141475,-0.10608513348754495
1789316127542873000,6.750873046875,-0.07995791833400726,-0.01360796185284853,-0.12109284260310232
1789316127552840200,6.760840087890625,-0.12815233266055584,-0.014849486346542835,-0.09248590293042361
1789316127562808300,6.770808349609375,-0.10568097313344478,-0.006346738678216934,-0.043706637920625506
1789316127572776200,6.780776123046875,-0.06412497390806675,0.0200751120403409,-0.022165910307131706
1789316127582744300,6.790744384765625,-0.0027039982616901396,0.015284662893414496,-0.07104008705876767
1789316127592711200,6.800711181640625,0.017107786667346952,0.0016878069564700126,-0.10202223143018782
1789316127602679300,6.81067919921875,0.07025368592143058,0.03755933080464601,-0.06626034196894616
1789316127612647200,6.820647216796875,0.1392296069920063,0.03006283756941557,-0.06561429915037005
1789316127622615300,6.830615234375,0.1456260300308466,0.02812602428793907,-0.0706662853103131
1789316127632582100,6.84058203125,0.08008592862784862,0.022272037562727928,-0.05322068152334541
1789316127642550300,6.85055029296875,0.05270166261792183,0.01861936027407646,-0.0704050405582413
1789316127652518400,6.860518310546875,0.06361936247348784,0.0221665313616395,-0.10342431678045541
1789316127662486300,6.870486328125,0.0804220287144184,0.017370529256761073,-0.09254146904256194
1789316127672454400,6.880454345703125,0.04200549655854702,0.026534371182322502,-0.08927702388651669
1789316127682421200,6.890421142578125,0.009963175609707832,0.018072832307219504,-0.07716112722232937
1789316127692389400,6.900389404296875,0.0340022228449583,0.00743833330720663,-0.04014748413432389
1789316127702357200,6.910357177734375,0.015945757150650025,0.0008279752567410468,-0.027518742577172815
1789316127712325400,6.920325439453125,-0.0432785852342844,-0.009156243140995501,-0.060563226305879646
1789316127722292200,6.930292236328125,-0.1334475164592266,-0.030281741017103195,-0.09835150702819227
1789316127732260400,6.94026025390625,-0.13138064705729482,-0.00436316364556551,-0.09894004750587046
1789316127742228200,6.950228271484375,-0.06120411802530289,-0.019677344894409178,-0.09316526349671185
1789316127752196400,6.9601962890625,0.012215922972559929,-0.042293958111107345,-0.1104155273746699
1789316127762163200,6.9701630859375,0.06088906072676181,-0.016408113965392112,-0.09749459793791174
1789316127772131300,6.98013134765625,0.03418751628398895,-0.01670358978062868,-0.08707713922206312
1789316127782099200,6.99009912109375,-0.006093640699982643,0.006734861212968826,-0.09822415432147681
1789316127792067300,7.0000673828125,0.012469020950794218,0.044727614998817444,-0.06339044908843934
1789316127802035500,7.010035400390625,0.023786533778905865,0.054417526625096795,-0.04458225171137601
1789316127812002300,7.020002197265625,0.026653029125928877,0.051662090437114234,-0.05659392081610858
1789316127821970200,7.02997021484375,0.05319441457092762,0.07554097867459059,-0.030107590026594695
1789316127831938300,7.039938232421875,0.07909516402482986,0.049480070222914216,-0.057548335464112456
1789316127841906400,7.049906494140625,0.043992286461591715,0.05316635752022266,-0.07400427062660456
1789316127851873300,7.059873291015625,0.03409691539108753,0.0518400773525238,-0.04937080116216093
1789316127861841200,7.069841064453125,-0.045183542072772975,0.015561434008181094,-0.08962247632332146
1789316127871809300,7.079809326171875,-0.07325579034686087,0.008716098158061503,-0.11698423824049532
1789316127881777400,7.08977734375,-0.03287935629487038,0.005960954231023788,-0.09108129682950675
1789316127891744300,7.099744140625,-0.03878770355582237,0.012364099271595477,-0.10605707643684
1789316127901712100,7.109712158203125,-0.04485211816132068,0.0005406827479600906,-0.08394508827403187
1789316127911680300,7.11968017578125,-0.04689677573144436,-0.006928922480344772,-0.07529493149165063
1789316127921648400,7.1296484375,0.010744096854329109,-0.004909399351477623,-0.06923029769044368
1789316127931615200,7.139615234375,0.010582184290885924,-0.013400748842954635,-0.05494827250093221
1789316127941583000,7.1495830078125,0.04002162926495075,-0.0037114217385649678,-0.05042947990223765
1789316127951551200,7.15955126953125,0.0613122545748949,0.007940145349502563,-0.07764489215128123
1789316127961519400,7.169519287109375,0.1006084921747446,-0.013135375905036925,-0.08287767823822796
1789316127971487200,7.1794873046875,0.07015899337530136,-0.008087444865703583,-0.09554905336070806
1789316127981454300,7.189454345703125,0.0020388123512268064,0.006814356189966201,-0.07418222100939602
1789316127991422200,7.199422119140625,-0.018637480452656743,0.029595512318611142,-0.0744907024366781
1789316128001390300,7.209390380859375,0.005756371569633483,0.013993746300041675,-0.071106393760629
1789316128011358200,7.219358154296875,0.0035690906584262844,-0.00008475567400455475,-0.0606736278777942
1789316128021325300,7.2293251953125,-0.014872574961185454,0.01459434254169464,-0.10376147631295025
1789316128031293200,7.239293212890625,-0.022768296647071837,0.011815525478124618,-0.08752528484836221
1789316128041261300,7.24926123046875,0.006503390544652939,-0.008871873241662978,-0.08254402583707124
1789316128051229200,7.259229248046875,0.08024082692861556,0.006436462788283825,-0.04293547088503837
1789316128061196300,7.2691962890625,0.08946633591353893,0.0038823943912982936,-0.048188642172887916
1789316128071164400,7.279164306640625,0.027450316983461377,0.007564882296323776,-0.09986677042935042
1789316128081132300,7.28913232421875,0.011291793864965437,0.020668694019317625,-0.10704608747418969
1789316128091099600,7.299099609375,0.013666706302762031,0.01555208165794611,-0.06488339105993508
1789316128101066800,7.309066650390625,0.03507540503442287,0.03071282591074705,-0.07495956205744296
1789316128111034600,7.31903466796875,0.0044791912406682965,0.03158727065771818,-0.08804350003618747
1789316128121002800,7.329002685546875,-0.029651041898131367,0.03477320721745491,-0.09235540841855108
1789316128130970600,7.338970703125,-0.07361117965579032,0.010734744504094123,-0.0941148193065077
1789316128140938800,7.348938720703125,-0.06738543700873852,0.0054053661748766895,-0.10016213664673268
1789316128150905600,7.358905517578125,-0.05502162999808788,0.02251198379844427,-0.05663322991319
1789316128160873700,7.368873779296875,-0.010922960552573203,0.021621172438561913,-0.026428864981234073
1789316128170841600,7.378841552734375,0.03179740627706051,0.006944120049476623,-0.03894081175830215
1789316128180809700,7.388809814453125,0.03694587508141994,0.012108955466747283,-0.06763342042043805
1789316128190776800,7.39877685546875,0.08372633095681667,0.015171850168704986,-0.06370601784363389
1789316128200744700,7.40874462890625,0.09713935475945472,0.013131576512753963,-0.06714136258717626
1789316128210712600,7.418712646484375,0.08176467549502849,0.015384908397495746,-0.07376786805484443
1789316128220680700,7.4286806640625,-0.007970540487766265,0.027236674232780932,-0.10437456670999526
1789316128230647800,7.438647705078125,-0.04608429030478001,0.00814238992333412,-0.12987634344156831
1789316128240615700,7.44861572265625,-0.042700493085384365,0.007634148140251636,-0.11819949578177183
1789316128250583600,7.45858349609375,-0.035002924320101735,0.011236556546390056,-0.07263787764422595
1789316128260551700,7.4685517578125,-0.027424598020315168,-0.0043014965862035745,-0.08400584201794117
1789316128270518800,7.478518798828125,0.018657938718795775,-0.006361643986403941,-0.06061298373173922
1789316128280487000,7.48848681640625,0.0012964695513248442,-0.010052899719774723,-0.04127681695781648
1789316128290454500,7.49845458984375,-0.02676876446008682,0.00931231048554182,-0.056260195349715644
1789316128300422700,7.508422607421875,-0.020809563794732092,0.0200379949003458,-0.07156531650926917
1789316128310389800,7.5183896484375,0.0627501784235239,0.005323533110320568,-0.056626434846222394
1789316128320358000,7.52835791015625,0.14507950206398962,0.018904606956243512,-0.06672686350215226
1789316128330325500,7.538325439453125,0.08657119899392128,0.01610445484369993,-0.07175809913501142
1789316128340293600,7.548293701171875,0.009500818794965744,0.0261205296844244,-0.09366283775530755
1789316128350261800,7.55826171875,0.007469605228304863,0.0063005614489316936,-0.08374302636329084
1789316128360228900,7.568228759765625,0.0345861602127552,0.012518705311417579,-0.06205857943017035
1789316128370196700,7.57819677734375,0.046676410979032516,0.03250292419791222,-0.045448915010690684
1789316128380164600,7.58816455078125,-0.002273205628991127,0.018365677773952482,-0.07767747924663126
1789316128390132700,7.5981328125,-0.06464753647744655,0.012518120789527892,-0.07752915681712329
1789316128400099800,7.608099853515625,-0.049203883630037304,0.0245867442458868,-0.06357154127638787
1789316128410067700,7.618067626953125,-0.09517711477577685,0.010062836591899394,-0.07747267738953233
1789316128420035800,7.628035888671875,-0.08560206170082092,0.025996611043810843,-0.10034761274885386
1789316128430003700,7.638003662109375,0.015883797830343247,0.03309913652539253,-0.07599197384510188
1789316128439970800,7.647970703125,0.0922258637547493,0.0052127662122249604,-0.07830068917889148
1789316128449938700,7.657938720703125,0.0908230112195015,0.013673136043548584,-0.0794066776594147
1789316128459906800,7.66790673828125,0.023391981503367423,0.02921265048086643,-0.06691657738797366
1789316128469874700,7.677874755859375,0.001979191118478775,0.023158757269382477,-0.08655961815398186
1789316128479841800,7.687841796875,0.013593641066551207,0.0012795184165239333,-0.08263575924113392
1789316128489809700,7.6978095703125,0.022875264152884482,0.006239186650514602,-0.07096698528993875
1789316128499777800,7.70777783203125,0.033465047228336334,0.005606733965873718,-0.12230335090402512
1789316128509746000,7.717745849609375,0.06538461858034134,-0.01149345391690731,-0.1275189666604623
1789316128519713500,7.727713623046875,0.06541793632805347,-0.011578209590911865,-0.12793653448540718
1789316128529680600,7.7376806640625,0.015906009662151336,0.019126725274324415,-0.03188289260342717
1789316128539648800,7.747648681640625,0.01631225237548351,0.018401333609223365,-0.03225340641625225
1789316128549617000,7.757616943359375,-0.01369593239724636,-0.007879939594864846,-0.07094017034824937
1789316128559584500,7.76758447265625,-0.03429623735547065,-0.0018874211817979812,-0.07716222320087254
1789316128569551600,7.777551513671875,-0.04385433929562568,-0.008474982878565789,-0.04258442895766348
1789316128579519700,7.787519775390625,-0.002237549793720245,0.037141105392575265,-0.037347953076288104
1789316128589487900,7.79748779296875,0.030057284611463547,0.03143500270545482,-0.07542042103484273
1789316128599455700,7.807455810546875,0.04296002080440521,0.017132921108603476,-0.09734875972643495
1789316128609422600,7.817422607421875,0.034330724146962165,0.03201952459514141,-0.07508143487144261
1789316128619390700,7.827390625,0.05519114134609699,0.038784780946373935,-0.08380462035741656
1789316128629358800,7.83735888671875,0.10923428170084952,0.030409751310944557,-0.07011288921125233
1789316128639326700,7.84732666015625,0.08586334298551082,0.03540390633642673,-0.0929239655541256
1789316128649293600,7.85729345703125,0.09706921213269233,0.029215573090314865,-0.11876600709073244
1789316128659261700,7.86726171875,0.086025255548954,0.023024317234754562,-0.10411905757896601
1789316128669229800,7.877229736328125,-0.000997194343805313,0.0174281046628952,-0.050232167231850325
1789316128679197700,7.88719775390625,-0.035305706658959386,0.041302901247143746,-0.030242943376675248
1789316128689164500,7.89716455078125,-0.031162615504860876,0.0040951603591442105,-0.03997179877385497
1789316128699132700,7.907132568359375,-0.061679334321618075,-0.011397007805109024,-0.07698135020863264
1789316128709100800,7.917100830078125,-0.11344342382848262,-0.00812105487436056,-0.10884557464420795
1789316128719068700,7.927068603515625,-0.08529752579629421,-0.03442980060726404,-0.1364888934491202
1789316128729035500,7.937035400390625,-0.03253682646751404,-0.062195467150211334,-0.188858876427263
1789316128739003600,7.947003662109375,-0.03296235840320587,-0.06150690036416053,-0.18958664271254091
1789316128748971800,7.9569716796875,0.1289513740837574,-0.03196954797357321,-0.16116265839133412
1789316128758939600,7.966939697265625,0.20754969450235367,-0.02347439908981323,-0.11218754201587289
1789316128768907800,7.97690771484375,0.11609189251065254,-0.10961568223387003,-0.12867697758916766
1789316128778874600,7.98687451171875,-0.05486497813165187,-0.08484773620218038,-0.11962488894239068
1789316128788842800,7.9968427734375,-0.1846428661674261,0.011317512828111649,-0.03724957073573023
1789316128798810600,8.006810546875,-0.2758960854977369,0.04751198502033949,0.042098764332570135
1789316128808778800,8.01677880859375,-0.3940560164541006,0.06816489694863558,0.06737601159326732
1789316128818745600,8.02674560546875,-0.35723756714463234,0.1046077909439802,0.04750336332246661
1789316128828713700,8.036713623046875,-0.19163374796807764,0.07155512390881777,0.021087102094478904
1789316128838681600,8.046681640625,0.004191606470942497,0.04152823443561792,0.0020877295268699526
1789316128848649700,8.056649658203124,0.1297661975979805,0.049040802022814745,-0.008380217267200351
1789316128858616800,8.066616943359374,0.16399696850180626,0.036254385685920716,-0.05401033406369388
1789316128868584700,8.076584716796875,0.2119184111058712,0.04654840068519115,-0.07986855955012143
1789316128878552600,8.086552490234375,0.23585808961987495,0.04258183514177799,-0.07081248884797096
1789316128888520700,8.096520751953125,0.19182079497277735,0.0564934561163187,-0.07876567634213716
1789316128898487800,8.10648779296875,0.2594832953572273,0.08771043215692043,-0.09550024578291923
1789316128908455700,8.11645556640625,0.2594406252592802,0.08769581910967826,-0.0967659183371812
1789316128918423600,8.126423583984375,0.26918811229169365,0.06259703368842602,-0.012699541771039366
1789316128928391700,8.1363916015625,0.2304483395308256,0.0730108756750822,0.035316849107481535
1789316128938358800,8.14635888671875,0.1529489202648401,0.06495207238197326,0.07593461763467639
1789316128948327000,8.156326904296876,0.007521627676486968,0.012783493727445602,0.024856939489394426
1789316128958294500,8.16629443359375,-0.12033084525465965,-0.0015314473509788513,-0.03730973995774984
1789316128968262700,8.1762626953125,-0.17610358588099478,0.02083352919220924,-0.048931898288242515
1789316128978229800,8.186229736328125,-0.17076456294059753,0.002949497455358505,-0.07801960721518844
1789316128988198000,8.196197998046875,-0.1568669704914093,-0.007374328160285949,-0.09327277899179608
1789316128998165500,8.20616552734375,-0.09633563716113566,-0.010747603985667228,-0.11124879986103624
1789316129008133600,8.216133544921876,-0.01893441757261753,-0.026480595168471333,-0.10834752546157687
1789316129018100700,8.226100830078124,-0.01399345403909683,-0.026702713486552235,-0.11654679667130112
1789316129028068900,8.23606884765625,0.020336101064085958,-0.014442951372265814,-0.06553454844504594
1789316129038036700,8.24603662109375,0.0801917270898819,-0.021755904734134673,-0.08783723687436432
1789316129048004600,8.256004638671875,0.09850655145943164,-0.004431844967603683,-0.07296805944666267
1789316129057971700,8.2659716796875,0.15590601650476454,0.017148703199625016,-0.030802440422959623
1789316129067939800,8.27593994140625,0.176442608577013,0.022861235627532003,-0.01745159513633698
1789316129077907700,8.28590771484375,0.1486836640357971,0.009675590839982031,-0.05497026513703167
1789316129087875600,8.29587548828125,0.1034451769053936,-0.0007546177595853806,-0.09693886375129222
1789316129097845800,8.305845703125,0.03928220907449722,-0.0065735331714153284,-0.14094609205368905
1789316129107812600,8.3158125,-0.061169046711921686,0.016041034218668936,-0.14025558903887866
1789316129117780700,8.32578076171875,-0.09359539854228496,0.044595513051748276,-0.14848463433235884
1789316129127748600,8.33574853515625,-0.12747662535607815,0.017421090400218962,-0.1192699380248785
1789316129137716700,8.345716796875,-0.14561843124628066,0.02924304561913013,-0.0972620312910527
1789316129147683600,8.35568359375,-0.13756255056262015,0.044108021795749665,-0.08025876444410532
1789316129157651700,8.365651611328126,-0.11603168675601482,0.04663490992486476,-0.0691128818558529
1789316129167619600,8.37561962890625,-0.0024397943675518036,0.016648352462053297,-0.11890585395283997
1789316129178834700,8.386834716796875,-0.003606500059366226,0.018669629156589505,-0.11856843869201839
1789316129188801800,8.3968017578125,0.03596796995997429,0.023320669832825658,-0.09807849877309054
1789316129198770000,8.40677001953125,0.09502046290934085,0.016084288838505743,-0.09332096551507711
1789316129208737500,8.416737548828126,0.15609773968458174,0.001381225225329399,-0.0895761164309457
1789316129218705700,8.42670556640625,0.11215279949605464,0.010135025045275688,-0.08791654918827116
1789316129228672800,8.4366728515625,-0.05688274769484997,0.00816986245214939,-0.14685283187944442
1789316129238641000,8.446640869140625,-0.0329652810126543,0.0287391877502203,-0.14211951974723488
1789316129248608800,8.45660888671875,0.02426525720655918,0.012077975806593894,-0.12148677382413298
1789316129258576600,8.46657666015625,0.0593733954668045,0.007599953609704971,-0.057019306621327995
1789316129268543700,8.476543701171876,0.06633271308541297,0.0021972177833318707,-0.07893836602792144
1789316129278511900,8.486511962890624,0.04702303245961666,-0.017312953850626943,-0.09678721685353665
1789316129288479700,8.496479736328125,0.03507248242497444,-0.023837971705198288,-0.08254599859844892
1789316129298447600,8.506447509765625,0.009642857614159584,-0.04880816231071949,-0.11950294306315482
1789316129308414700,8.516414794921875,0.03097147684693336,-0.022405308553576468,-0.10562091350927948
1789316129318382800,8.5263828125,0.037217677760124204,-0.024549919366836547,-0.08208663745839148
1789316129328350700,8.536350830078124,0.03286298968195915,-0.028924481189250943,-0.10595368912760168
1789316129338318800,8.54631884765625,0.022394202637672424,0.02062368583381176,-0.05745433703772723
1789316129348285700,8.55628564453125,-0.01823591391444206,0.014065934753417967,-0.040950507612898944
1789316129358253800,8.56625390625,0.02566518713235855,0.0394704251229763,-0.029743615552410483
1789316129368221700,8.5762216796875,0.04776654430329799,0.019650456887483597,-0.02699457257259637
1789316129378189800,8.58618994140625,0.03992927480638027,0.037593525335192675,-0.06534326365664601
1789316129388157700,8.59615771484375,0.011575871503353118,0.027616905722022054,-0.05603402191102504
1789316129398124800,8.606124755859375,0.038918636459112164,0.027896307185292242,-0.059477001971751445
1789316129408092700,8.6160927734375,0.06599719752073288,0.023768413600325583,-0.053577860930562014
1789316129418060800,8.626060791015625,0.021897359031438825,0.03550678218901157,-0.03749536219034344
1789316129428029000,8.63602880859375,-0.004676175117492676,0.034731121641397474,-0.036817572526633736
1789316129437995800,8.645995849609376,0.00455225647687912,0.02561199564039707,-0.05730455330349504
1789316129447963600,8.655963623046874,0.030412089398503303,0.01705517969727516,-0.05265128413755446
1789316129457931800,8.665931884765625,0.008006196323037148,0.008283259698748588,-0.027950411992706356
1789316129467900000,8.67589990234375,0.0022948329389095305,0.029991233637928962,-0.006100362701714038
1789316129477866800,8.68586669921875,0.017084990313649177,0.033542788639664645,-0.003723952426575124
1789316129487834600,8.695834716796876,-0.0015665186643600464,0.009442951127886772,-0.030870683353580532
1789316129497802800,8.705802734375,-0.06703881552815437,0.014651625686883926,-0.08809541288651525
1789316129507771000,8.71577099609375,-0.11681962226331233,0.02129062530994415,-0.09828794027268886
1789316129517737700,8.72573779296875,-0.10305237819552421,0.018247019830346108,-0.07263188629485666
1789316129527705600,8.73570556640625,-0.011692775881290435,0.002983399724960327,-0.04693319875169545
1789316129537673700,8.745673828125,0.003326514074206352,-0.007853051587939261,-0.04811776889376342
1789316129547641900,8.755641845703124,0.05755494786798954,0.0007598784565925597,-0.048398302868194874
1789316129557607700,8.765607666015624,0.07016016241908073,-0.011197101318836212,-0.03557305235825479
1789316129567575800,8.775575927734375,0.06134440327882766,-0.0033259295523166655,-0.06037088207155466
1789316129577543700,8.785543701171875,-0.00698737466931343,0.006700374421477318,-0.0639511882437393
1789316129587511800,8.79551171875,0.0034217911422252654,0.024426585248112677,-0.08111837694812565
1789316129597478700,8.805478759765625,0.024102760121226308,0.0035194062978029248,-0.07025679119396955
1789316129607446800,8.81544677734375,0.022846038058400152,-0.007667758148908615,-0.06274630596600472
1789316129617414700,8.82541455078125,0.009892448461055754,0.0033095629394054413,-0.07551924176681786
1789316129627382800,8.8353828125,0.030640637457370758,0.017963526713848113,-0.08152432740051299
1789316129637349600,8.845349609375,-0.02563479199409485,0.00970657050013542,-0.0808762752879411
1789316129647317800,8.85531787109375,-0.03813186999559402,0.023478490743041036,-0.054434806553460655
1789316129657285600,8.86528564453125,-0.09065876056849956,0.033518823242187495,-0.05151840765010565
1789316129667253800,8.875253662109374,-0.11469254710674286,0.03716916244328022,-0.0688631083458662
1789316129677220900,8.885220947265625,-0.04397825793623924,0.013546294793486595,-0.08272891741730272
1789316129687188700,8.895188720703125,0.04290507574677467,0.023322423398494718,-0.04467581174634397
1789316129697156600,8.905156494140625,0.0959112742692232,0.04611819257438182,-0.053374045454151926
1789316129707124700,8.915124755859376,0.10887889239192008,0.011257891595363617,-0.07490297303199768
1789316129717092900,8.9250927734375,0.10750409690737724,0.008816343662142753,-0.09064462244529277
1789316129727059700,8.935059814453124,0.10355974319577216,0.014199790266156196,-0.11301500581596045
1789316129737027600,8.945027587890625,0.11882453234493731,-0.025424948635697362,-0.1218454145360738
1789316129746995700,8.95499560546875,0.03306640329957008,-0.02557224815189838,-0.11568645351491867
1789316129756963800,8.9649638671875,-0.023348726883530617,-0.016686346384882925,-0.11354838204029948
1789316129766931000,8.974930908203126,-0.042218262526392936,-0.035762802776694295,-0.09455050731003284
1789316129776898600,8.984898681640624,-0.060380526682734484,-0.025426117679476737,-0.07716017737425863
1789316129786866700,8.99486669921875,-0.125800216576457,0.0025859248399734496,-0.07079674328956753
1789316129796834800,9.004834716796875,-0.1458218448638916,0.014769699108600615,-0.053791138355061406
1789316129806802000,9.014802001953125,-0.07463818461596965,0.02054945155382156,-0.08500146545916795
1789316129816769800,9.024769775390626,-0.022672435057163237,0.027979309293627738,-0.08269264052752405
1789316129826737700,9.034737548828126,0.004900631523132324,0.05855915647447109,-0.0769608554098755
1789316129836705800,9.044705810546875,0.09431085333526133,0.06583236234784126,-0.06006539631895721
1789316129846673700,9.054673583984375,0.14508651632666586,0.05210486576855183,-0.06992313879281283
1789316129856640800,9.064640869140625,0.0754945091843605,0.028145898032188414,-0.08556439657155424
1789316129866608600,9.074608642578125,0.07997954564392566,0.03242401374280453,-0.10017634783517569
1789316129876576800,9.08457666015625,0.07680266917347908,0.0547463201880455,-0.060525086252577597
1789316129886544600,9.094544677734374,0.05008358907401562,0.029340076252818106,-0.06581628799587488
1789316129896511700,9.10451171875,0.01649754581451416,0.03688450028300285,-0.10715225126240402
1789316129906479900,9.11447998046875,0.009775544083118438,0.04309796797037124,-0.0662775122994557
1789316129916447700,9.12444775390625,0.005573416218161583,0.015512626430392265,-0.032722266037017105
1789316129926415600,9.13441552734375,-0.09713818571567535,-0.012095511463284492,-0.05739369289167225
1789316129936382700,9.1443828125,-0.13989888455569743,0.024549919366836547,-0.05153035381622612
1789316129946350800,9.154350830078124,-0.11050386324524879,0.016265490624308584,0.009261310950666665
1789316129956318700,9.164318603515625,-0.07509411168992519,0.022134090396761893,0.03962912281602621
1789316129966286600,9.17428662109375,-0.13073708845674992,0.016909049224853513,-0.002717551863007247
1789316129976253700,9.184253662109375,-0.19765549247562883,0.03399696214795112,-0.035103096758946774
1789316129986221800,9.194221923828126,-0.1907423520863056,0.07486556363105773,-0.06686667383164167
1789316129996190000,9.20418994140625,-0.18451427135169504,0.12361293566524982,-0.057185274305380875
1789316130006157600,9.214157470703125,-0.23564999982714652,0.09857201791107655,-0.08463767364807426
1789316130016125700,9.224125732421875,-0.210641230776906,0.1335135674327612,-0.1596329646060243
1789316130026092800,9.2340927734375,-0.015640636724233627,0.17882804240882397,-0.3254642358629033
1789316130036061000,9.24406103515625,0.0778816965818405,0.19914193164110183,-0.3474325047060847
1789316130046028500,9.254028564453124,0.31142917117178437,0.1219406185388565,-0.36605033061020076
1789316130055996700,9.26399658203125,0.43336277544796464,0.28137247108221053,-0.36459202156066894
1789316130065963800,9.2739638671875,0.4760533316612243,0.27678046711683274,-0.3582449175562709
1789316130075932000,9.283931884765625,0.41377310883700846,0.29304011252224443,-0.4659686120310798
1789316130085899800,9.293899658203125,0.4280167382448911,0.2993248918801546,-0.5890616520080715
1789316130095867600,9.30386767578125,0.05861468605399132,0.21624971830844877,-0.6258627848565578
1789316130105832700,9.313832763671876,-0.36086920164525504,0.34670915886759757,-0.7883639618426561
1789316130115800800,9.32380078125,-0.5431897623449564,0.8397814298689364,-1.0660694348499178
1789316130125768700,9.333768798828125,-0.898569134402275,1.5092957249253987,-0.8505252344623208
1789316130135736600,9.343736572265625,-1.3914572810083627,1.0329232443124055,-1.265058660147339
1789316130145704700,9.35370458984375,-1.253653322905302,0.8927198238521814,-1.3789955665811895
1789316130155671800,9.363671875,-0.9011953912526368,0.80185940323174,-1.1029838918797672
1789316130165640000,9.373639892578124,-0.20753274336755276,-0.11193185022175312,-0.7068669973731041
1789316130175607800,9.38360791015625,0.5862742863118648,-0.6488537843436002,0.021641411508992313
1789316130185575700,9.39357568359375,0.7274351536273956,-0.6450432861447334,0.5037746476057916
1789316130195542800,9.403542724609375,0.38008828137815,-0.6181856743574142,0.7179605652522295
1789316130205511000,9.413510986328125,0.05550736768841743,-0.4584796810477972,0.7935354461964219
1789316130215478800,9.423478759765626,-0.10041852256059645,-0.1260188277631998,0.8892028287071734
1789316130225446700,9.43344677734375,0.03757423611283302,0.07204290742576122,0.7538543009322136
1789316130235413800,9.443413818359375,0.23250702562630174,0.26991993369758127,0.3936624870918691
1789316130245382000,9.4533818359375,-0.13562369145452977,0.52015024754107,0.1294172380298376
1789316130255349800,9.463349853515625,-0.1292033030182123,0.5258569347500801,-0.04018303037174046
1789316130265317600,9.473317626953126,0.3334615547597408,0.503807015505433,-0.08661649944037199
1789316130275284700,9.48328466796875,0.7737994299173354,0.5119014746338129,-0.2549324271198362
1789316130285252900,9.4932529296875,1.0067875170588492,0.3124672820478678,-0.4322548142060637
1789316130295220700,9.503220703125,0.8734802858531474,-0.0036328035444021223,-0.24924802480787037
1789316130305188600,9.513188720703125,0.6168044491320848,-0.2259387531518936,0.024210677475109695
1789316130315156700,9.52315673828125,0.49559915913045405,-0.35612229937911033,0.19755824264623223
1789316130325123800,9.533123779296876,0.37479134401381015,-0.39607495506107804,0.2963710105106234
1789316130335091700,9.543091796875,0.25577859562039373,-0.3929781580895185,0.21772344412282107
1789316130345059800,9.553059814453125,0.20815467465817927,-0.43038580546379085,0.17225144049748778
1789316130355027700,9.56302783203125,-0.12077157475948333,-0.5079571209222078,0.14989040947705506
1789316130364994800,9.572994873046875,0.2020885064870119,-0.6810545107245445,0.030574586483836173
1789316130374962700,9.582962646484376,-0.1438040753006935,-0.9025368689894676,0.007338380064070224
1789316130384930800,9.592930908203124,-0.465380546477437,-0.5835018989890813,0.22462767055332658
1789316130394898700,9.602898681640625,-0.23185879085063932,-0.2546077982753515,0.43713440294116734
1789316130404865800,9.61286572265625,-0.13046353221237658,-0.12163082193732261,0.4178900426365435
1789316130414833700,9.622833740234375,-0.043291444715857504,-0.11549801827073096,0.33340924005061384
1789316130424801800,9.6328017578125,0.03893149594068527,-0.11326046847701073,0.20052008812651037
1789316130434770000,9.64277001953125,-0.05685819777548313,-0.0017646715849637983,0.0851807675488293
1789316130444736800,9.65273681640625,-0.3971533979475498,0.11594167038500308,0.0015801087982952593
1789316130454704600,9.66270458984375,-0.5460527505606413,0.1632715768367052,-0.09711188223063945
1789316130464672800,9.6726728515625,-0.30978198848664756,0.2084323225557804,-0.16015154512003063
1789316130474641000,9.682640869140625,-0.23213351613879202,0.12942308324873447,-0.1485161985144019
1789316130484608800,9.69260888671875,-0.18829554345607757,-0.021682254976034165,-0.03696633334755897
1789316130494575600,9.70257568359375,-0.04664835392832756,-0.13342004393041132,0.02391819733455777
1789316130504543700,9.712543701171874,0.02597615277767181,-0.09909399595856666,-0.006384001948684453
1789316130514512000,9.722511962890625,-0.06303074893057346,-0.08009177384674548,-0.07384601132497191
1789316130524479700,9.732479736328125,-0.005296937364339828,-0.05050736744403839,0.002199263609945774
1789316130534446600,9.742446533203125,0.16772563363611698,-0.0548117866396904,-0.003725011872500181
1789316130544414700,9.752414794921876,0.28893618433475493,-0.07224632104337216,-0.09062412764653563
1789316130554382800,9.7623828125,0.1807125409811735,0.016139818418025968,-0.1464991596035659
1789316130564350700,9.772350830078125,0.12048866616487502,0.09833704011142254,-0.22245149555802343
1789316130574317600,9.782317626953125,-0.06043430269658565,0.16423603795468805,-0.21265987712293863
1789316130584285700,9.79228564453125,-0.2097556801140308,0.1515548355579376,-0.14315832474306225
1789316130594253800,9.80225390625,-0.0657698185056448,0.1264852762311697,-0.1565051514416933
1789316130604221700,9.8122216796875,0.7400415372222662,-0.052320554345846176,-0.1152099951095879
1789316130614189800,9.82218994140625,0.7919815678179264,-0.3091635643273592,0.31645562103167174
1789316130624156700,9.83215673828125,0.17627017461955546,-0.16774726094603537,0.23968042438700793
1789316130634124800,9.842124755859375,0.11463760204911232,-0.05969195989668369,-0.02528700146973133
1789316130644092700,9.8520927734375,0.1492541574001312,-0.1559644686937332,-0.06226473299413919
1789316130654060800,9.862060791015624,0.10769231295585632,-0.19060440492033956,0.08128244493603706
1789316130664027600,9.872027587890624,-0.044054245781898496,-0.04195347411036491,0.10145122660920024
1789316130673995800,9.881995849609375,-0.07310615274310112,0.12833587253391743,0.00013517068699002264
1789316130683963600,9.891963623046875,0.01767009672522545,0.12326572966277599,-0.10957082017883658
1789316130693931800,9.901931884765625,0.17534663003385065,0.06578618511855602,-0.12004282209351658
1789316130703898600,9.911898681640626,0.2143015068501234,0.06593582272231578,-0.05808189435154199
1789316130713866800,9.92186669921875,0.11806640745401381,0.014859715479612349,-0.03603796645626425
1789316130723835000,9.9318349609375,-0.11356792699098586,-0.031137481063604353,-0.09351853391379117
1789316130733802800,9.941802734375,-0.09954232424795627,-0.017829671201109884,-0.1419515793018043
1789316130743769600,9.95176953125,0.10511457142233847,-0.042620998108386994,-0.199454943113029
1789316130753737700,9.96173779296875,0.2046118874847889,-0.07206219664812087,-0.18499284864887594
1789316130763705900,9.971705810546876,0.04272036682963371,-0.04903437228202819,-0.11729235434159636
1789316130773673700,9.981673828125,-0.18228432034254072,-0.013615852898359298,-0.13459025675356387
1789316130783640800,9.991640869140625,-0.15651158118247985,0.003499532553553581,-0.039907793626934286
1789316130793608700,10.001608642578125,-0.09968377854526042,0.056384735044836994,0.022233459118008614
1789316130803576800,10.011576904296875,-0.1603963136613369,0.04415595259070396,-0.07175225391611456
1789316130813544700,10.021544677734376,-0.07588730789422989,-0.00801788676083088,-0.08881488626748323
1789316130823511800,10.03151171875,0.1453682558774948,-0.0476876338481903,-0.0919977540872991
1789316130833480000,10.04147998046875,0.27700959969758987,-0.07421148363649845,-0.061413084600865836
1789316130843447800,10.05144775390625,0.16589257299005986,-0.02617664378583431,-0.08336078558005391
1789316130853415700,10.061415771484375,-0.08054594735503197,0.07317980250120162,-0.17246866344474254
1789316130863383800,10.0713837890625,-0.14825170235931873,0.09326163654327392,-0.19026150976680217
1789316130873351000,10.081350830078126,-0.16560089656710625,0.01698854420185089,-0.13605799121856688
1789316130883318800,10.09131884765625,-0.13701894520521163,0.047796939441561694,-0.07581804205030203
1789316130893286700,10.10128662109375,-0.09177636642158031,0.06524900950193405,-0.03927884807363152
1789316130903254800,10.1112548828125,-0.060548868986964224,0.01598433559536934,-0.05064370717480778
1789316130913222000,10.121221923828125,0.008108487653732298,-0.02224398051202297,-0.024121903213113544
1789316130923189800,10.131189697265626,0.1370551855623722,0.011339724659919738,0.03953749900981784
1789316130933157600,10.14115771484375,0.12996025886535645,-0.014224340185523033,0.07157850478440522
1789316130943125800,10.151125732421875,0.058606502747535705,-0.008272153782844544,0.05406907851360738
1789316130953092900,10.1610927734375,0.06322597924172878,0.04850654901564121,-0.05392170593217015
1789316130963060700,10.171060791015625,0.07731178773939609,0.01899111619591713,-0.07967559426128863
1789316130973028600,10.181028564453126,-0.025421441504359245,-0.020440730482339856,-0.06282141702882946
1789316130982996700,10.190996826171874,-0.036733693635463714,-0.010087094250321388,-0.059852776481583714
1789316130992963800,10.2009638671875,0.04064122246801853,0.02104278802871704,-0.09744527890346943
1789316131002931700,10.210931640625,0.051447863164544104,0.005001169288158416,-0.1410381907839328
1789316131012899800,10.22089990234375,-0.05500234077572822,-0.03350771732628345,-0.13005159041061998
1789316131022867700,10.23086767578125,-0.0820692113995552,0.009223170897364616,-0.05919781970418989
1789316131032834800,10.240834716796876,-0.0613689531981945,0.013935001850128173,0.015440291846543549
1789316131042802700,10.250802734375,-0.13914602036178111,0.044158875200152395,0.0016303046155720948
1789316131052770800,10.260770751953125,-0.14340893850326536,0.045562896779179574,-0.024272929056361317
1789316131062738700,10.27073876953125,-0.06873451353013516,0.02917699464559555,-0.04206131839901209
1789316131072705800,10.280705810546875,0.07801964374780654,0.0167266783952713,-0.06519903288036584
1789316131082673700,10.290673583984375,0.18322481606304644,-0.012288403686881064,-0.09350216730087994
1789316131092641800,10.300641845703124,0.23089959042966365,-0.003220131090283394,-0.043166357031464576
1789316131102610400,10.3106103515625,0.18931494963169096,-0.002171498820185661,-0.07475640416815876
1789316131112578000,10.320578125,0.07957797910571097,0.0015127426505088806,-0.10294840636439621
1789316131122545200,10.330545166015625,-0.015583938100934027,0.014001052823662758,-0.11101181276738643
1789316131132513300,10.34051318359375,-0.06959434522986412,0.020512626674771307,-0.12618848524168133
1789316131142481400,10.3504814453125,-0.058683659636974334,0.05167991835474968,-0.10059811691120266
1789316131152449300,10.36044921875,-0.036628479695320126,0.020588029998540876,-0.07577909827940166
1789316131162416000,10.370416015625,0.023320085310935972,-0.00017184943556785583,-0.012581468349322675
1789316131172384300,10.38038427734375,0.020970307314395902,0.017465514063835143,0.01745470040887594
1789316131182352400,10.390352294921875,-0.15988777961730957,0.04382160606980324,-0.039659956345707174
1789316131192320300,10.4003203125,-0.17698036871552467,0.03334054406583309,-0.042566929833590984
1789316131202287000,10.410287109375,-0.09613280806541442,0.000820084211230278,-0.07868621789775788
1789316131212255200,10.420255126953125,-0.04710486552417278,0.00469429529607296,-0.11381437603272497
1789316131222223400,10.430223388671875,0.08260814058184623,0.03355447907745838,-0.1421304430000484
1789316131232191200,10.440191162109375,0.14511281981170177,0.008064648512005805,-0.11999079964533448
1789316131242158000,10.450157958984375,0.11625848124921322,0.006028758770227432,-0.10963277949914335
1789316131252126200,10.460126220703126,0.13120412144660948,0.014797756159305571,-0.1002959190942347
1789316131262094300,10.47009423828125,0.07629998034834862,0.008521744629740714,-0.08535838913805782
1789316131272062200,10.480062255859375,0.0533867222726345,0.02254676285088062,-0.0809511671550572
1789316131282029000,10.490029052734375,0.024414894810318947,-0.004288052582740783,-0.09528715102151036
1789316131291997200,10.4999970703125,-0.018920973569154738,-0.023194413104653356,-0.06443601261861621
1789316131301965300,10.50996533203125,-0.026006547915935516,0.00005962123274803161,-0.061312619901075956
1789316131311933200,10.51993310546875,0.009463409394025802,0.0036538463324308395,-0.05533391081765294
1789316131321900300,10.529900390625,0.01251519818007946,-0.0590858106970787,-0.03249101456440985
1789316131331868200,10.5398681640625,-0.02945405802130699,-0.03436053476333618,-0.024109482122957705
1789316131341836300,10.549836181640625,-0.08700316067039966,0.028063480445742604,-0.03619900223687291
1789316131351804200,10.55980419921875,-0.049451720911264416,0.046612698093056674,-0.08360212005525827
1789316131361771300,10.569771240234376,-0.029265257450938224,0.009364625194668769,-0.09578618658483028
1789316131371739100,10.5797392578125,0.020802549532055854,0.023375030368566512,-0.07968392369821667
1789316131381707300,10.589707275390625,0.09008943624794483,0.015125672939419745,-0.15606602937206626
1789316131391675100,10.599675048828125,0.14901801055669783,-0.017921441137790678,-0.09195471866317093
1789316131401642200,10.609642333984375,0.09043021250963211,0.013704700225591658,-0.002272328846156597
1789316131411610400,10.6196103515625,0.0236544318318367,0.023016718450188635,-0.03132730454728007
1789316131421578200,10.629578125,0.007592939347028732,0.016150924333930016,-0.04256334963701665
1789316131431546000,10.639546142578125,0.015319734206795691,-0.011224573847651482,-0.053669119410589335
1789316131441514200,10.64951416015625,-0.009340075275301932,0.00036649522483348846,-0.07107048219703137
1789316131451481300,10.6594814453125,-0.028003274691104887,0.0421370139837265,-0.08069492737166584
1789316131461449200,10.66944921875,-0.1318880120575428,0.039353520745038985,-0.10582651908397674
1789316131471417000,10.6794169921875,-0.18458266041278837,0.027382512444257736,-0.0989775299720466
1789316131481385200,10.68938525390625,-0.10161737695634364,0.025873276925086973,-0.11134740139730274
1789316131491352300,10.699352294921875,0.042328152641654015,0.004581482571363449,-0.09544891745448111
1789316131501320400,10.709320556640625,0.13853461046516893,0.003703530693054199,-0.06265453602932393
1789316131511288000,10.7192880859375,0.17478139736652373,-0.005874444991350173,-0.047077685256302355
1789316131521256200,10.729256103515626,0.19461422508358955,0.011788637471199036,-0.05492533001676202
1789316131531223300,10.739223388671874,0.15317746832370757,0.03308510800004005,-0.041755321189761156
1789316131541191400,10.74919140625,0.079969608771801,0.021974515920877454,-0.05130114817023277
1789316131551159000,10.759158935546875,0.008721651116013526,0.004457563930749893,-0.0655235155943781
1789316131561127200,10.769127197265625,-0.028742694881558416,0.012414660415053368,-0.06920951063074171
1789316131571094300,10.77909423828125,0.023592472511529922,-0.0007528641939163207,-0.0652810851406306
1789316131581062400,10.7890625,-0.022324060010910033,0.0009440028518438339,-0.03573511105217039
1789316131591030300,10.7990302734375,-0.0912409443706274,0.010075988334417342,-0.020987404579669237
1789316131600998100,10.808998046875,-0.169428345900774,-0.02220131041407585,-0.08483947983048856
1789316131610965200,10.81896533203125,-0.1092401269197464,-0.028877719438076016,-0.1012538774061948
1789316131620933400,10.828933349609375,-0.11483400140404701,-0.004185761252045631,-0.12629055737666786
1789316131630901200,10.8389013671875,-0.08625847978293895,0.006160276195406913,-0.11445157795771956
1789316131640869400,10.848869384765624,0.03979541929364204,-0.01595686306655407,-0.08856631833389401
1789316131650836200,10.858836181640624,0.15541384907364844,-0.01412380242049694,-0.04228248686902225
1789316131660804400,10.868804443359375,0.1588105057746172,0.022094927430152893,0.006401683735847472
1789316131670772200,10.878772216796875,0.09370002796053886,0.0683007982879877,-0.014338175823539495
1789316131680740400,10.888740234375,0.05600011964142322,0.062196636193990705,-0.07382051155753433
1789316131690707200,10.898707275390626,0.09503390691280364,0.02998421937525272,-0.0639579467780888
1789316131700675300,10.90867529296875,0.08473463121652602,0.019217326167225837,-0.04839293257333338
1789316131710643200,10.918643310546875,-0.01666881072819233,0.00698912823498249,-0.10834734279848635
1789316131720611300,10.928611328125,-0.08434417059421538,-0.0005377601385116576,-0.11991159692928194
1789316131730578200,10.938578125,-0.08469722181558609,0.022571897292137145,-0.11156710856258868
1789316131740546300,10.94854638671875,-0.03757891228795052,0.020285832181572913,-0.08485957277044653
1789316131750514200,10.95851416015625,0.036349662753939624,0.0035801965743303297,-0.061174964996054765
1789316131760482300,10.968482421875,0.002044073048233986,0.017105448579788206,-0.03460851817503571
1789316131770449200,10.97844921875,-0.03857902924120426,0.03591244038045406,-0.04825462008118629
1789316131780417300,10.988417236328125,-0.022296002960205077,-0.018810498932003972,-0.05658069600835442
1789316131790385200,10.99838525390625,-0.07301379828453064,-0.03863105168938637,-0.053055225295946
1789316131800353300,11.008353271484374,-0.04506546865105629,-0.020038579422235487,-0.07736636747084558
1789316131810320400,11.0183203125,0.02417640987932682,-0.04343582162261009,-0.0933640740044415
1789316131820288300,11.028288330078125,0.10124854364395142,-0.03686579558253288,-0.05773593045808374
1789316131830256000,11.038256103515625,0.18460837937593458,0.01628477984666824,-0.05363463261909782
1789316131840224300,11.048224365234375,0.19900164638757706,-0.017742577439546586,-0.05605440711192786
1789316131850191400,11.05819140625,0.10714169333577156,0.003190320473909378,-0.07386508135162294
1789316131860159200,11.0681591796875,-0.02311199551820755,0.052208910664916036,-0.09318630628474056
1789316131870127000,11.078127197265625,-0.060575172472000116,0.05761982979774475,-0.10057634347081183
1789316131880095200,11.08809521484375,-0.004883095866441726,0.05381985299289226,-0.1062819347012788
1789316131890062300,11.098062255859375,0.050718379846215245,0.028234160837531087,-0.06273702668100595
1789316131900030500,11.108030517578126,0.0009866729497909545,0.021454291439056396,-0.035804523026570674
1789316131909998000,11.117998046875,-0.12956746015548706,0.0646937137067318,-0.021051190530881284
1789316131919966200,11.12796630859375,-0.19043956974744797,0.07681260604560375,-0.046572512213140724
1789316131929933300,11.137933349609375,-0.07036357603669166,0.015333178210258484,-0.09669913671128451
1789316131939901400,11.1479013671875,0.09089549193382263,-0.003140636113286018,-0.07382526079788804
1789316131949869000,11.157869140625,0.14174889633655546,0.023901684591174123,-0.0549522180236876
1789316131959837200,11.167837158203126,0.0835901373565197,-0.0016460136413574218,-0.07433416016809642
1789316131969804300,11.17780419921875,0.06447627156376838,-0.011059154152870178,-0.10575367304347455
1789316131979772400,11.1877724609375,0.04250350920855999,-0.01682604711651802,-0.10234598349183797
1789316131989740300,11.197740234375,0.029318448942899703,-0.006941781961917877,-0.07056779337190092
1789316131999708200,11.207708251953125,0.009666823011636733,-0.0003045359045267105,-0.06499810348078608
1789316132009675300,11.21767529296875,-0.08709200799763202,-0.035918285599350924,-0.07382277657985686
1789316132019643400,11.227643310546876,-0.14307108485102651,-0.01094575690627098,-0.060904331361129875
1789316132029611300,11.237611328125,-0.13528466875851153,0.009786649999022482,-0.03841770119965076
1789316132039579100,11.2475791015625,-0.05926116726398468,0.011841244441270828,-0.010602788687497377
1789316132049546200,11.257546142578125,0.02407178046107292,0.0037082068681716916,-0.02821392176710069
1789316132059514400,11.267514404296875,0.08484978202879428,0.013450433203577994,-0.05413432576954364
1789316132069482200,11.277482177734376,0.09047054452002048,0.015076573100686072,-0.03427943235114217
1789316132079450400,11.287450439453124,0.12446107692718505,0.00985737714767456,-0.0777357853051275
1789316132089417200,11.297417236328124,0.17418226242959498,0.032519290810823435,-0.10700491521358489
1789316132099385300,11.30738525390625,0.1914098760843277,0.03616963001191616,-0.09110328946560621
1789316132109352700,11.317352783203125,0.18380524629950523,0.019212649992108345,-0.05631101222150028
1789316132119320800,11.32732080078125,0.0909884309142828,0.0028957214415073393,-0.0457400069117546
1789316132129288000,11.337287841796876,-0.14142857834100722,-0.005105214184522628,-0.0989005192130804
1789316132139255800,11.347255859375,-0.29747488009929657,0.014081716844439505,-0.08889620787538588
1789316132149223700,11.3572236328125,-0.20957564737200735,-0.007189619243144989,-0.05228592142388224
1789316132159191800,11.36719189453125,-0.11042612183392048,-0.006508651241660118,-0.03734663790203631
1789316132169159000,11.377158935546875,-0.0702402419179678,-0.015180033475160597,-0.047543987593799825
1789316132179126800,11.387126708984376,-0.06940729822516441,0.013907529321312903,-0.06362988386750221
1789316132189094700,11.3970947265625,-0.0189922852396965,0.03357669090926647,-0.04857252692393958
1789316132199062800,11.407062744140624,0.06418634870648383,0.03356967664659023,-0.08823562507480383
1789316132209030000,11.41702978515625,0.17052023279070852,0.053988779819011685,-0.08957593376785516
1789316132218998000,11.426998046875,0.18913140975832937,0.03310322817862034,-0.10140402646660804
1789316132228965600,11.436965576171875,0.15877718802690505,0.06812193458974361,-0.09105521254017948
1789316132238933800,11.446933837890626,0.15710779350996015,0.0478226584047079,-0.05473119568414986
1789316132248900900,11.45690087890625,0.06997136184871196,-0.003446341061592102,-0.05474741616658866
1789316132258869000,11.466868896484375,-0.08151625369191169,0.025389292800426483,-0.04700198967158794
1789316132268836900,11.4768369140625,-0.16503274129033088,0.014034370571374893,-0.07911964087896048
1789316132278804700,11.4868046875,-0.14914426728487015,-0.04324643653035164,-0.04606054410301148
1789316132288771800,11.496771728515625,-0.07951485074162483,-0.03895253872871399,-0.052684638417884705
1789316132298740000,11.506739990234376,0.01698503707051277,0.0027250410497188567,-0.06997194637060165
1789316132308707800,11.516707763671874,0.009486790269613266,-0.021927754169702527,-0.07610431164577602
1789316132318675700,11.52667578125,0.017245733833312987,-0.003681318861246109,-0.09435505780316888
1789316132328642800,11.536642822265625,0.06714870564341545,0.04867547584176063,-0.11008008487522601
1789316132338611000,11.54661083984375,0.16302490859925747,0.038597149419784545,-0.07415843827500938
1789316132348578800,11.556578857421876,0.19271862059533595,0.00810673408806324,-0.04638217727281153
1789316132358546700,11.566546630859374,0.13584639429450035,0.008382628419995307,-0.024763489052280784
1789316132368513800,11.576513671875,0.09384031321406364,0.014041969355940818,-0.04765351238287985
1789316132378482000,11.58648193359375,0.04047171112000942,0.00859948604106903,-0.03013407617472112
1789316132388449800,11.59644970703125,0.010424363380670546,-0.03769523214399814,-0.03984298476241529
1789316132398416600,11.606416748046875,-0.10716799682080745,-0.027255671194195745,-0.10243132368773221
1789316132408384800,11.616384765625,-0.18372458227872848,0.041246202623844146,-0.11451770199649035
1789316132418353000,11.626352783203124,-0.1428115571320057,0.029785481932759282,-0.10159889145158231
1789316132428320800,11.63632080078125,-0.08834113127589226,0.01846037032008171,-0.06388824254274368
1789316132438287600,11.64628759765625,0.0021066168904304503,0.016924246793985367,-0.06647292527370155
1789316132448255700,11.656255859375,0.03856207810640335,0.004138999500870704,-0.07989917388409376
1789316132458223900,11.666223876953126,0.10102642532587051,0.046184243547916407,-0.0248939104989171
1789316132468191700,11.676191650390624,0.11028583658039569,0.015607903498411178,-0.017085720966011284
1789316132478158800,11.686158935546874,0.09529635724127292,-0.0016360767692327497,-0.05065517841689288
1789316132488126700,11.696126708984375,0.04911036012768745,0.023689503145217894,-0.08715491716600954
1789316132498094800,11.7060947265625,0.025602643290162087,0.005635375538468361,-0.13035846440270543
1789316132508062700,11.716062744140626,-0.011343231791257858,0.006797989577054977,-0.1068530125875026
1789316132518029800,11.72602978515625,0.024565116935968398,0.03538052546083927,-0.06312829102091491
1789316132527997700,11.735997802734374,0.0803004481613636,0.002330488774180412,-0.06787132082954049
1789316132537965800,11.7459658203125,0.015919453665614126,-0.0016565350353717804,-0.07705605941265821
1789316132547933700,11.75593359375,-0.07421732885539531,0.03707330085337162,-0.07822824499718845
1789316132557900800,11.76590087890625,-0.12420564086139202,0.02278641682565212,-0.05269369850717485
1789316132567869000,11.775868896484376,-0.1193266366481781,-0.0031961656928062437,-0.02554083010032773
1789316132577836800,11.7858369140625,-0.026283611291646955,0.010592705684900283,-0.03488536235503852
1789316132587804700,11.7958046875,0.055308630245923994,-0.0031289456754922864,-0.0702436759840697
1789316132597771800,11.805771728515625,0.07172258943021297,-0.026674071913957594,-0.0673029463570565
1789316132607740000,11.815739990234375,0.042240474358201024,-0.008686579802632332,-0.07560746803954244
1789316132617707800,11.825707763671875,-0.05562018041312694,0.008384966507554053,-0.05816197385042905
1789316132627675600,11.835675537109376,-0.01783434737622738,0.006257891350984573,-0.08064765416383743
1789316132637642800,11.845642822265624,0.04520107772946357,0.00004676175117492675,-0.09371208372451365
1789316132647611000,11.85561083984375,0.10127893878221511,0.003595394143462181,-0.058154228935390705
1789316132657579000,11.8655791015625,0.1348117905497551,0.03014554741680622,-0.047052916141226885
1789316132667546600,11.875546630859375,0.10328267982006073,-0.006195932030677795,-0.05816175465472042
1789316132677513700,11.885513671875,0.09080196843147277,-0.02056055746972561,-0.07332366795130074
1789316132687481900,11.89548193359375,0.08467384093999862,0.00289221431016922,-0.08831007855050266
1789316132697450000,11.905449951171875,0.10725509058237075,-0.009902385333180427,-0.06918883316889404
1789316132707417900,11.91541796875,0.05846037227511405,0.021046879681944845,-0.08097535174824297
1789316132717384700,11.925384765625,-0.05881225445270538,0.007264438045024872,-0.11199833958670496
1789316132727352800,11.935352783203125,-0.22758768940269947,0.035414427730441095,-0.09332344973310827
1789316132737321000,11.945321044921876,-0.2020546042174101,0.05516191525161266,-0.02965009205006063
1789316132747288800,11.955288818359374,-0.17299685203731058,-0.028092706540226935,0.02855564787685871
1789316132757255700,11.965255615234375,-0.07103986786305903,0.031844168028235434,0.0337895299423486
1789316132767223800,11.975223876953125,0.006114098966121673,0.04789338555335998,-0.033661227387562394
1789316132777192000,11.98519189453125,0.03839198223650455,-0.003949029886722564,-0.09590813246406614
1789316132787159800,11.995159912109376,0.07830138329863548,0.02012742674946785,-0.15115999102145433
1789316132797126700,12.005126708984376,0.05445990446209907,0.009321955096721648,-0.18542334902063012
1789316132807094800,12.0150947265625,-0.056412207573652264,0.004610124143958091,-0.18960501861944792
1789316132817063000,12.02506298828125,-0.03337386181354522,0.10356441937088966,-0.17714951473735271
1789316132827030000,12.035030029296875,0.09619067573249339,0.15844634863734244,-0.07447590672634541
1789316132836997600,12.04499755859375,0.14827216062545776,0.053365094962716096,-0.0595043283700943
1789316132846965800,12.0549658203125,1.2179501413613558,-0.006558335602283478,0.03884929754994809
1789316132856934000,12.064933837890624,0.9895797771483659,-0.14349778583049774,0.35471148273311554
1789316132866901000,12.07490087890625,-0.3958510831773281,-0.13591069170236586,0.2727459509037435
