time,seconds_elapsed,z,y,x
1788800321841642800,0.048642822265625,-4.086761364111304,0.7451023277431726,-0.31677425852678714
1788800321851612000,0.05861181640625,-5.119938290923834,0.9624626376420259,-0.7411524941388518
1788800321861581800,0.068581787109375,-5.547101042687893,0.9802689279675483,-0.6490674270942807
1788800321871550700,0.07855078125,-5.335951862388849,1.0482950009673833,-0.10357238348163664
1788800321881520600,0.088520751953125,-4.381187962555885,1.2745979112565518,0.7128857462059706
1788800321891489800,0.09848974609375,-2.9312574497908352,1.4303952066898344,1.4968294804535804
1788800321901460000,0.1084599609375,-1.6387801829725503,1.3063362808227539,2.133840997442603
1788800321911428900,0.118428955078125,-0.7542939344584941,1.002446272984147,2.6406886958181857
1788800321921398000,0.12839794921875,-0.0033089784175157544,0.8243927220791578,2.772019658514857
1788800321931368000,0.138367919921875,0.6963192998737097,0.6475333493947982,2.6777777787625787
1788800321941336800,0.1483369140625,1.1032131705909967,0.34153029492497444,2.6476822079673408
1788800321951306800,0.158306640625,1.4325170211493967,0.10833177990317344,2.6987925097405907
1788800321961276000,0.16827587890625,1.6921639826357364,-0.050263037294149396,2.7805817351549864
1788800321971245800,0.178245849609375,1.7638813113689422,-0.36634558722972865,2.7937533514171835
1788800321981214700,0.188214599609375,1.584393343746662,-0.5550029497355222,2.603787244400382
1788800321991185000,0.198184814453125,1.1883902848780155,-0.4922042559951543,2.2318255708545447
1788800322001154000,0.208154052734375,0.47393151720166204,-0.2445084290653467,1.91068895239979
1788800322011124000,0.2181240234375,-0.6504407612740993,0.029891280394792556,1.6142328939542174
1788800322021092900,0.2280927734375,-2.4251684608280657,0.13607611139714718,1.3311875212237239
1788800322031062800,0.238062744140625,-4.541930313175916,0.21109511202424763,1.0321853584919125
1788800322041032000,0.248031982421875,-6.00543225517571,0.4887529464974999,0.6614136984482407
1788800322051000800,0.258000732421875,-6.680082744076848,0.9116934043914079,0.25226731783011924
1788800322060970800,0.267970703125,-6.934175578567385,1.091504028096795,-0.06407450409615412
1788800322070940000,0.27793994140625,-6.534744883337616,0.95834263510257,-0.1465817781194113
1788800322080910000,0.28791015625,-5.404874591967463,0.4969087804242968,-0.19626776444427668
1788800322090879000,0.29787890625,-3.8357442838042974,0.009449380868673325,-0.17663590265940873
1788800322100849000,0.307848876953125,-2.316480707094073,-0.3860381296932697,-0.2813082102069631
1788800322110817800,0.31781787109375,-1.138838026201725,-0.8010621153742075,-0.48695426304508
1788800322120788000,0.3277880859375,-0.3269908974409103,-1.1970493921518326,-0.6188778213400393
1788800322130756900,0.3377568359375,0.25721125877201556,-1.3633879553437231,-0.5689062047405168
1788800322140726800,0.347726806640625,0.7620873648136853,-1.348682553642988,-0.40106260728053744
1788800322150695700,0.35769580078125,1.1129010363906622,-1.2295786198347807,-0.1865504350881092
1788800322160665900,0.367665771484375,1.1467770025074482,-0.9076660485714674,0.005144642012612894
1788800322170635300,0.37763525390625,0.7232482233315706,-0.4728343696147203,-0.0012194405260495841
1788800322180605200,0.387605224609375,-0.060663435277342796,-0.14845570049881934,-0.054087011462519874
1788800322190574000,0.397573974609375,-0.639963790923357,0.09041092328727245,-0.036875540658412496
1788800322200544000,0.4075439453125,-0.6906114436209202,0.36794133198857304,0.0680970467436593
1788800322210513200,0.41751318359375,-0.37739538903236386,0.5825409450024366,0.20560747439339755
1788800322220482000,0.42748193359375,-0.07119827329516411,0.6777613143980503,0.3143200703077018
1788800322230452000,0.437451904296875,-0.04984393509924411,0.6754770028531552,0.32559418238550425
1788800322240421000,0.447421142578125,-0.19412322669625282,0.7446025615274906,0.24082986841676754
1788800322250391300,0.457391357421875,-0.1658592552423477,0.93729604768157,0.1225490966928657
1788800322260360200,0.467360107421875,-0.04981880065798759,1.1224439407616853,0.07149903264029417
1788800322270330000,0.477330078125,0.00905307502746582,1.2081588151872158,0.05140410622120835
1788800322280299300,0.48729931640625,0.007119476616382598,1.2278028423339127,0.0262743913721526
1788800322290269200,0.497269287109375,0.059279287442564964,1.1462912648171186,0.0677669745390769
1788800322300238000,0.507238037109375,0.25537995169162747,0.8977882131576538,0.24581056117247788
1788800322310208000,0.5172080078125,0.6036094519942998,0.5136760830909013,0.44252844400443136
1788800322320177200,0.52717724609375,1.1659621799707411,0.2651794611722231,0.39651893596891313
1788800322330147000,0.53714697265625,1.6537983038842676,0.043997547158598896,0.06604706454444677
1788800322340116200,0.5471162109375,1.561651935106516,-0.34155192223489284,-0.5147861266920343
1788800322350086100,0.557086181640625,0.823361040943861,-0.6909516353607177,-1.068754728411138
1788800322360055300,0.56705517578125,-0.14057868351340294,-0.7038754143416881,-1.3687404222875832
1788800322370025200,0.577025146484375,-0.999686160621047,-0.39950843664109703,-1.652789565233141
1788800322379994000,0.586994140625,-1.618349389362335,0.07331541157960891,-1.8995688618399202
1788800322389964000,0.596964111328125,-2.1006839932501316,0.44599838513731954,-1.9080048278823494
1788800322399933200,0.60693310546875,-2.388386251875758,0.6765525231301784,-1.7414874009922146
1788800322409903000,0.616903076171875,-2.5773756228148934,0.8495125502884388,-1.5157260502338408
1788800322419872000,0.6268720703125,-2.6787574374496934,0.9815525380373,-1.3456431859470903
1788800322429841200,0.636841064453125,-2.5028408985733983,1.043922192710638,-1.407563927809149
1788800322439811300,0.646811279296875,-2.0609663153678177,1.0747013618558645,-1.6538745839908717
1788800322449780200,0.6567802734375,-1.4437322426468133,0.9678700496435165,-1.8234641118027268
1788800322459750100,0.666750244140625,-0.6658727236837149,0.7925900551050901,-1.9303852942556141
1788800322469719300,0.67671923828125,0.1766039366185665,0.5925064586997032,-1.877549045472592
1788800322479689200,0.686689208984375,0.9353530969202518,0.4444879805743694,-1.7756769631028175
1788800322489658000,0.696658203125,1.649167136952281,0.3496545646697283,-1.7666838015690445
1788800322499628000,0.7066279296875,2.2152555443257094,0.23822306518554687,-1.8643591629013418
1788800322509597200,0.71659716796875,2.6142694754481313,0.1267033028960228,-1.9951359988465904
1788800322519567400,0.7265673828125,2.6767279774487016,0.023896423894166945,-2.068352041704953
1788800322529536300,0.736536376953125,2.4951310548484322,-0.05330255112051963,-1.9487581324227152
1788800322539506200,0.746506103515625,2.1849299641668796,0.05967325519621372,-1.6615616313621402
1788800322549475000,0.75647509765625,1.877881784558296,0.4145470158189535,-1.347175948472321
1788800322559445200,0.7664453125,1.5338491514235735,0.8362859889686107,-1.1363365647748112
1788800322569414100,0.7764140625,1.1289677895724772,1.0537965209931135,-0.998234062116593
1788800322579384000,0.786384033203125,0.7126052487641572,1.050983217138052,-0.8383907061628997
1788800322589353000,0.79635302734375,0.5161959569573402,0.8747434376567602,-0.6271317818790674
1788800322599323100,0.8063232421875,0.6321943259656428,0.7141998244792223,-0.47211095071099696
1788800322609292000,0.8162919921875,0.9278507584661245,0.6569803921759129,-0.4068207689484581
1788800322619262200,0.82626220703125,1.253108548504114,0.6424708053082228,-0.4434788035318255
1788800322629231000,0.836231201171875,1.3405267197161912,0.5970920329242945,-0.5596410578649491
1788800322639201300,0.846201171875,1.1395125644624233,0.5461445204973221,-0.6960601374808698
1788800322649170200,0.856170166015625,0.699509620347619,0.5761427683979272,-0.847171540120244
1788800322659140000,0.86614013671875,0.17631342923939228,0.6740490158766508,-0.8461487729437649
1788800322669109000,0.87610888671875,-0.23998832129240036,0.7420563841760158,-0.6810758457735181
1788800322679079200,0.8860791015625,-0.4444043939441442,0.7386644036501646,-0.37584070693627
1788800322689048000,0.896048095703125,-0.38057752619981766,0.8009229991644621,-0.10133066896945238
1788800322699018200,0.906018310546875,-0.2658095757693052,0.9013765930384396,0.05110080329254269
1788800322708987100,0.915987060546875,-0.31902912478148937,0.9730746325492858,-0.0803423145417124
1788800322718957300,0.925957275390625,-0.6777753429234028,1.1727011328369379,-0.334895386955142
1788800322728926200,0.93592626953125,-1.3072393671423197,1.4682359847843647,-0.6309445451002568
1788800322738896100,0.945896240234375,-2.1031927612006664,1.8588608577460048,-0.7837908817734569
1788800322748865000,0.955864990234375,-2.666611657103896,2.2614292664796114,-0.5420961218893527
1788800322758835200,0.965835205078125,-2.338081713527441,2.471106620660424,0.14912797373719514
1788800322768804000,0.97580419921875,-1.1203636273562907,2.3148013757050037,1.008871045334637
1788800322778774300,0.985774169921875,0.31326573894917964,1.8416402583539484,1.9926763307347892
1788800322788743200,0.9957431640625,2.035104144358635,1.181997953492403,2.7954285911530254
1788800322798713000,1.005713134765625,3.7254829971432684,0.5914613335609435,3.092349344500899
1788800322808682200,1.01568212890625,4.783585690897703,0.7020622274398803,3.054203153719008
1788800322818652200,1.025652099609375,4.899163204145431,-0.39282793596386906,1.7168004112422466
1788800322828621000,1.03562109375,4.724484682631492,-1.3684867397874594,0.777895759320259
1788800322838591000,1.045591064453125,3.771842597258091,-1.5386574284881351,0.1570021411783993
1788800322848560000,1.05556005859375,2.218279276061058,-1.4135276585191487,-0.5788249932192265
1788800322858530000,1.065530029296875,0.42891748647689815,-0.6503308711588383,-1.0149613980989902
1788800322868499000,1.0754990234375,-1.3531541460990906,0.27253450011014935,-0.9595444121077656
1788800322878469000,1.08546923828125,-2.9588199949771163,0.7963163821518421,-0.5621770060833543
1788800322888438300,1.095438232421875,-4.22134811373353,1.1060855111569166,-0.12721410196237265
1788800322898408200,1.105408203125,-5.078457695022225,1.2576023527920246,-0.07433430629856884
1788800322908377000,1.115377197265625,-5.1848693205177785,1.1761948201715946,-0.2988097819648683
1788800322918347000,1.125346923828125,-4.708397471183538,0.9951631302386522,-0.19785116117820142
1788800322928316200,1.135316162109375,-4.049184205389023,0.49853112092912194,0.080998586493358
1788800322938286000,1.1452861328125,-3.0114649589717386,0.2836480147987604,0.511984695937857
1788800322948255000,1.1552548828125,-1.8136703014105557,0.26368366965651513,0.9732959471497684
1788800322958225200,1.16522509765625,-0.8238578845500946,0.21945523635149,1.3386559574082493
1788800322968194300,1.1751943359375,-0.2842038951158523,0.10523439840972423,1.1135095967430622
1788800322978164200,1.185164306640625,-0.35374212624430657,-0.0331090733975172,0.4807294337134808
1788800322988133000,1.195133056640625,-0.8638134628415107,-0.08599486041069031,-0.24426994413435457
1788800322998103000,1.20510302734375,-1.3592957175940275,0.027165070301294326,-0.7419233323808759
1788800323008072200,1.215072265625,-1.6543489235043525,0.37876317025423045,-0.7973953364949673
1788800323018042000,1.2250419921875,-1.3536030589103698,1.3497089740812778,-0.8622636030510067
1788800323028011000,1.235010986328125,-0.7394067464500665,3.3873253935217855,0.05573357765972614
1788800323037981000,1.24498095703125,-0.7536790174305439,2.735250893566012,1.5199515589743853
1788800323047950000,1.2549501953125,0.6520528726458549,2.76906723845005,1.782436666496098
1788800323057920300,1.264920166015625,2.870857049363851,2.4825106427282093,1.9789114247545598
1788800323067890200,1.27489013671875,4.337727591013908,1.2163187407672404,1.9520240023508666
1788800323077859000,1.284859130859375,4.227959640827775,1.1092021818727253,1.128707385070622
1788800323087829000,1.2948291015625,3.701836164095998,0.7708055087983607,1.1559105954252182
1788800323097798100,1.304798095703125,2.270734270441532,-0.06835223621428012,1.7975144086405634
1788800323107768000,1.31476806640625,-0.3862403742671013,-1.0173650251746178,1.8176571790896354
1788800323117737000,1.324737060546875,-2.901976994770765,-1.2133236506044864,1.6910741415724158
1788800323127707100,1.33470703125,-3.3195062412708998,-1.0990361771672963,2.0806876455344256
1788800323137676300,1.34467626953125,-2.961010198497772,-1.6480828488469124,2.618015091717243
1788800323147646200,1.354646240234375,-2.2726526712834834,-2.0444705231189726,2.7585329849541185
1788800323157615000,1.364614990234375,-1.4776877037405967,-1.6768308044254778,2.2453239348530767
1788800323167585000,1.3745849609375,-0.8179799324274063,-0.9583733225017785,1.7907995673023163
1788800323177553700,1.3845537109375,-0.6389128205657005,-0.4732715919882059,1.5278354440920054
1788800323187523800,1.39452392578125,-0.8738765916943549,-0.35182080279290673,1.524788623742014
1788800323197492700,1.40449267578125,-1.2897592400312423,-0.40826515907049177,1.795056347963959
1788800323207463000,1.414462890625,-1.9080302545845507,-0.2858978395521641,1.8860633374482392
1788800323217431800,1.424431884765625,-2.4504262362033127,0.12075929979979991,1.4800741604857146
1788800323227401700,1.434401611328125,-2.8123627748191353,0.3901373817056417,0.682768840361759
1788800323237370600,1.44437060546875,-3.1205133627116677,0.2767027257055044,-0.010739603342302144
1788800323247340800,1.4543408203125,-3.3332349068939684,-0.08158347370922565,-0.36863241952527315
1788800323257309700,1.464309814453125,-2.912746226066351,-0.15978490376472473,-0.7154083965513854
1788800323267280000,1.47427978515625,-2.274739998951554,-0.15960370197892187,-0.9872634630300104
1788800323277249800,1.484249755859375,-1.3813468058824538,-0.22374036632478236,-0.9157130883615463
1788800323287218700,1.49421875,-0.3774263686925173,-0.2023842745631933,-0.8749925901122391
1788800323297188900,1.50418896484375,0.209408474111557,-0.08713876974880695,-0.7477715469524264
1788800323307157800,1.51415771484375,0.5931172840744257,0.33644963065981864,-0.5606529383212328
1788800323317127700,1.524127685546875,0.837478998145461,0.8092156112134457,-0.637297640454024
1788800323327096600,1.5340966796875,0.9324725730478763,1.1435574559390544,-0.9847285377249121
1788800323337067000,1.54406689453125,1.0055798948347567,1.1402911476194857,-1.2290483123503624
1788800323347036000,1.554035888671875,1.088695400416851,0.9641098203271626,-1.6585577733710408
1788800323357005800,1.564005859375,1.091522732797265,0.7980272777229547,-2.39366097740829
1788800323366974700,1.573974609375,1.0673580133557319,0.6497972026735543,-3.211529266154766
1788800323376945000,1.58394482421875,1.1002180804282427,0.5851344686269759,-3.7333603063896295
1788800323386913800,1.593913818359375,1.2255156081795693,0.5664420431166887,-4.0331811650931835
1788800323396883700,1.6038837890625,1.3223369830310343,0.6371370430648327,-4.136034805846214
1788800323406852600,1.6138525390625,1.2955688030928372,0.739890730574727,-3.9500478315934537
1788800323416822800,1.62382275390625,1.404028593289852,0.8558440913975238,-3.8313948564231395
1788800323426793000,1.63379296875,1.4621844296604394,0.9137427381366491,-3.9342645715281366
1788800323436761900,1.643761962890625,1.2391799763947724,0.8811685022681951,-3.9730326936006546
1788800323446731800,1.653731689453125,0.53986324827075,0.6479436837613582,-3.5318034225612878
1788800323456701000,1.663700927734375,0.09847966345250606,0.14405191258192063,-2.7803350669175386
1788800323466670800,1.6736708984375,-0.15282558614611624,-0.678390259951353,-1.3369675659298896
1788800323476639700,1.6836396484375,-0.4804588731437921,-1.2781067961603403,-0.6425358333684503
1788800323486609700,1.693609619140625,-0.23479601334631442,-0.9189566733926534,-1.3516472486674784
1788800323496578800,1.703578857421875,0.07460428234636783,0.23004735751450062,-3.072649495513737
1788800323506549000,1.713549072265625,-0.11627777047157287,0.9467004203647374,-3.608253332774341
1788800323516518000,1.723517822265625,-0.43195115508437154,0.9631815995663404,-2.8457041956678033
1788800323526487800,1.73348779296875,-0.2904290532410145,1.2601701574534176,-2.2154509207673367
1788800323536456700,1.743456787109375,-0.010021043276786804,1.847571986490488,-1.9137024550020694
1788800323546427000,1.753427001953125,0.5415075083464383,1.9214286653399466,-1.6939762927547095
1788800323556395800,1.763395751953125,1.2093676064550876,1.6327110921919346,-1.4957551292203366
1788800323566365700,1.77336572265625,1.61677351834774,1.6022645160019398,-0.568681346476078
1788800323576335600,1.783335693359375,2.1594839727431534,1.4485288292735814,0.24123700617924332
1788800323586304800,1.7933046875,3.15232655107975,0.710610275554657,0.085842263664864
1788800323596275000,1.80327490234375,4.056068704205751,0.4876444007337093,0.6310008053321391
1788800323606243800,1.813243896484375,3.5157366693794727,0.7726151885688305,1.289723730326444
1788800323616213800,1.8232138671875,2.5833511900931594,1.5463094045460224,0.8690394538614898
1788800323626183000,1.833182861328125,2.113346490946412,1.4281903901219366,0.546058888040483
1788800323636152800,1.84315283203125,1.975089528378844,0.9418412898957729,0.928132717212662
1788800323646121700,1.853121826171875,1.8746540546834467,1.3425018191814422,1.2039751728270203
1788800323656091600,1.863091552734375,1.8921330127507447,1.6287538789987563,1.2829266175322234
1788800323666060800,1.873060791015625,2.1466887885779142,1.4551771812468766,1.334049194265157
1788800323676031000,1.883031005859375,1.9844442167013883,1.2228157015711068,1.1142737129833549
1788800323686001000,1.8930009765625,1.0540496189713477,1.2947323522686958,1.157482886243239
1788800323695969800,1.9029697265625,-0.15282558614611624,1.7315332854717969,1.4543030287608503
1788800323705939700,1.912939697265625,-1.0639198556005953,2.0060598361819983,1.6927476277425884
1788800323715908900,1.922908935546875,-1.5584242052316666,1.9850316612005232,1.6714152091175316
1788800323725878800,1.932878662109375,-0.9113672411769628,1.8188246154338121,1.7867220887303352
1788800323735847700,1.94284765625,0.3913374051451683,1.5986638611614703,2.0742384693950413
1788800323745817600,1.952817626953125,1.6641361580252647,1.1926093638777733,2.1719471484750508
1788800323755786800,1.962786865234375,2.2381705559670926,0.7076888351500034,1.896192809535563
1788800323765757000,1.9727568359375,2.093603095078468,0.37319676829874515,1.25248194103837
1788800323775725800,1.982725830078125,1.5593629473865032,-0.01930909610390663,0.6839980168305337
1788800323785695700,1.99269580078125,1.0685480999231338,-0.24336510424911975,0.3307118176601827
1788800323795665700,2.002665771484375,0.3384989644050598,-0.06387772114872932,0.39581440442875027
1788800323805634800,2.012634765625,-0.524417257335782,0.6032569852948189,0.53367623019889
1788800323815604700,2.022604736328125,-1.0542144541442393,1.1248936720013618,0.6559982492707669
1788800323825573600,2.03257373046875,-1.1357277852267027,2.165717314174771,-1.711401328677684
1788800323835543800,2.042543701171875,0.05242693732976913,1.7689175519704818,-0.3293509045705199
1788800323845513000,2.052512939453125,1.413090436145663,0.8621142577081918,2.75032454405725
1788800323855483000,2.06248291015625,1.5682260527998209,0.7349217099905013,3.496406822748482
1788800323865451800,2.07245166015625,1.15264794036746,0.5204501072704791,3.3478649052709337
1788800323875421700,2.082421630859375,0.0932189664453268,2.181539152684808,2.297543220781535
1788800323885390800,2.092390869140625,-1.2566039894044398,3.9423143147319553,1.1589607767760752
1788800323895360800,2.10236083984375,-1.2260592135369777,4.722188680648803,0.033306641796231266
1788800323905330700,2.11233056640625,-1.2623019087851046,5.178139135479927,-1.2700441934749482
1788800323915299600,2.122299560546875,-0.6165671332448721,5.9423190886586905,-1.9456068287849426
1788800323925269800,2.132269775390625,1.0090905333042144,6.393401645192504,-1.6841767832741141
1788800323935239000,2.142239013671875,2.1615596099734304,6.965154069676995,0.6878083688989282
1788800323945208800,2.152208740234375,2.5836983960956332,4.29738389018774,3.03358151371181
1788800323955177700,2.162177734375,1.88341369972229,0.7949369104921817,3.3535686698704956
1788800323965147600,2.172147705078125,-0.6503314556807279,1.1035586230278014,1.472157542142272
1788800323975116800,2.18211669921875,-2.550673493850231,3.702853232184052,0.35204116754531856
1788800323985086700,2.192086669921875,-1.967168964512646,5.699217603781819,2.0909856060564516
1788800323995055600,2.2020556640625,-0.2576733233258128,5.965598841959237,5.058984348267317
1788800324005025800,2.21202587890625,1.08359632371217,5.925729772907495,7.150250524830818
1788800324014995700,2.22199560546875,-0.19111819966137408,5.527230805569887,6.871413709706068
1788800324024964900,2.23196484375,-0.8535413674131035,5.487120328977704,5.030839034757018
1788800324034934800,2.241934814453125,0.06672434275150299,7.59422997136116,3.0434242778122425
1788800324044903700,2.251903564453125,1.615503352281451,10.209581981348991,2.2290023301273583
1788800324054873600,2.26187353515625,2.0413545830555258,9.792857621490954,-0.6949737304836511
1788800324064842800,2.2718427734375,1.4359354512907563,7.888120563232898,-3.9707641641467806
1788800324074813000,2.28181298828125,-0.37710546617507934,5.936510694640875,-6.270203135547042
1788800324084781800,2.29178173828125,-0.9016746992021799,7.3583233664244405,-6.4167363435506815
1788800324094751700,2.301751708984375,-2.078148336315155,7.046087555044889,-6.501170530515909
1788800324104721700,2.3117216796875,-1.9057997190535068,4.440278741689026,-6.520943152478337
1788800324114690800,2.32169091796875,-1.2009586745500564,3.461419388258457,-6.798119925436377
1788800324124660700,2.33166064453125,-1.1153174498826264,2.32078059624508,-8.847210509571433
1788800324134629600,2.341629638671875,-0.987176661529392,0.7880521194145083,-11.046948166769742
1788800324144599600,2.351599609375,-0.7409189776439219,-1.0831070788905024,-12.969704865843056
1788800324154568700,2.361568603515625,0.7167904254943132,-1.5863742884308099,-12.33518648084402
1788800324164538600,2.37153857421875,2.196754841995239,-1.377849611416459,-10.054197358369827
1788800324174507500,2.381507568359375,3.0477427255332468,-1.2846008343547581,-8.409806349778174
1788800324184477400,2.3914775390625,5.0107642149776215,-2.8545044649779796,-9.137845314517616
1788800324194448000,2.40144775390625,5.673153772720694,-4.878643270947038,-12.827143484079837
1788800324204416800,2.411416748046875,6.853631384778023,-7.457876212066411,-14.884003533172606
1788800324214386700,2.42138671875,16.392817027539014,-9.422385309720038,-18.119381292426585
1788800324224355600,2.43135546875,10.877850660258531,-7.569348043560981,-9.428452062413095
1788800324234325800,2.44132568359375,10.74319669061899,-7.4713640546709295,-9.391958607274294
1788800324244294700,2.451294677734375,7.214165070858598,-2.244610818147659,-5.406771365499496
1788800324254264600,2.4612646484375,5.24089106746912,-0.23598434634804724,-4.020437418854236
1788800324264233500,2.4712333984375,2.7747815244436262,0.6467223252728581,-3.3219553879886865
1788800324274203600,2.48120361328125,0.7126818211317062,1.0583940779164434,-2.455425067403912
1788800324284173800,2.491173828125,-0.740653531640768,0.6236565069839358,-0.7316314362734556
1788800324294142700,2.501142822265625,-1.2993173419713973,0.5062497324824333,0.6649918491959571
1788800324304112600,2.511112548828125,-1.9732874473929405,0.7506289822101593,0.9730120887070893
1788800324314081800,2.521081787109375,-3.0143805541574955,0.144278707075119,1.2211778712362051
1788800324324051700,2.5310517578125,-2.978753944981098,-0.35994711836427445,1.5453502041250466
1788800324334020600,2.5410205078125,-3.247738059133291,-0.6467255401432513,1.6983593301445246
1788800324343990500,2.550990478515625,-4.258355363613367,-0.8469915073782205,2.0807915443003178
1788800324353959700,2.560959716796875,-5.0087037753164765,-1.2377183794096112,2.3057933088630436
1788800324363929900,2.570929931640625,-4.855694941557943,-1.405395789989829,2.9678853449642655
1788800324373899800,2.580899658203125,-2.5397078631997108,-1.8278490488886832,3.960198346468806
1788800324383868700,2.59086865234375,1.0245207421481608,-2.000077254641056,5.200762470698356
1788800324393838600,2.600838623046875,3.280681712836027,-1.4174705509260297,5.485960053026676
1788800324403807700,2.610807861328125,2.1817921045325694,-1.0169152355805038,3.4730081192433833
1788800324413777700,2.620777587890625,1.610206999439001,-0.9309025472521781,3.939651233002543
1788800324423746600,2.63074658203125,0.662370999173075,-0.03280044583976269,2.3654905294567343
1788800324433716500,2.640716552734375,0.16335516346693038,0.9149819245427846,0.3147878339499235
1788800324443686700,2.650686767578125,0.551260256075859,0.6002899521827697,-0.2725789237737655
1788800324453655800,2.66065576171875,0.7197334932088851,0.5153828870087862,-0.2686351545840502
1788800324463625700,2.670625732421875,0.8921148436963557,0.9431786759793758,-0.181323366355896
1788800324473594600,2.6805947265625,0.9545615091286599,1.61803228623718,-0.15909399889111517
1788800324483564500,2.690564453125,-1.066794241993129,3.3341309789508577,0.5646399621307849
1788800324493533700,2.70053369140625,0.168122816260159,3.7646667142793535,3.442644545161724
1788800324503503600,2.710503662109375,-1.137209548217058,0.921049846279621,1.6988631880134344
1788800324513472500,2.720472412109375,0.61974167162776,0.4047577354714274,0.6066109718978404
1788800324523442700,2.730442626953125,0.6483643933914601,0.015825053380429745,-0.8909919771462679
1788800324533412600,2.74041259765625,1.4008791893482206,-1.8773761731237173,-2.2795962068110702
1788800324543381800,2.7503818359375,1.8197268249705434,-2.2505098130583763,-2.198992976310849
1788800324553351700,2.7603515625,1.5290820831522345,-1.3733634059131146,-2.880037550163269
1788800324563320600,2.770320556640625,2.8847847446903585,-1.1332006048366428,-3.819765208905935
1788800324573290500,2.78029052734375,0.5493129214003681,-1.4393942134425044,-3.688037940368056
1788800324583259600,2.790259765625,-1.3042670733332633,-0.8154191420286894,-4.109851732319593
1788800324593229600,2.8002294921875,-0.06665653821229935,1.4598045487865805,-1.3329267661064863
1788800324603199700,2.81019970703125,-0.46921705590039486,1.6618793190091847,-0.630232085981965
1788800324613168600,2.820168701171875,-0.5539823745161294,0.6239522750601172,-1.3229068918734788
1788800324623138600,2.830138671875,-0.8387240297704934,0.19084552019983528,-1.0005419006675482
1788800324633107700,2.840107666015625,-1.3024553477361798,0.3702396720588207,0.16791677229404448
1788800324643077600,2.85007763671875,-1.4829419710069893,0.3783320853605866,0.7793594021320343
1788800324653046500,2.860046630859375,-1.2510656444996595,-0.14451777652800082,1.1191168421655893
1788800324663016400,2.870016357421875,-0.9104851976454258,-0.900010857643187,1.2678642190873621
1788800324672986600,2.879986572265625,-1.1663622852042317,-1.2551830166906117,1.8987842873334884
1788800324682955800,2.889955810546875,-1.1842091998010873,-0.8345333000823855,2.8865865334153176
1788800324692925700,2.89992578125,-0.36812896351516244,-0.8309244619354605,3.617139526802301
1788800324702894600,2.90989453125,-0.5222635864332318,-0.4795543255195021,4.871064652386307
1788800324712864500,2.919864501953125,0.04155132305026054,1.2846698079377412,5.995004384663701
1788800324722833700,2.929833740234375,1.2133736272260547,1.3660650655984878,5.853329138085246
1788800324732803600,2.939803466796875,0.8991805442988872,0.9028948886469006,4.351252258497476
1788800324742773500,2.9497734375,-0.0871364316612482,0.37884178844839334,2.8850960025966166
1788800324752742700,2.95974267578125,-0.7954419374048709,-0.7348878077208996,1.6597335391521453
1788800324762712800,2.969712890625,-1.2425579283952712,-0.6337368792325258,0.9054179773837328
1788800324772681700,2.979681640625,-0.2635363701403141,-0.5868155535817146,0.872242853012681
1788800324782651600,2.989651611328125,1.8799106600373983,-1.0984583772793413,0.943907574775815
1788800324792620500,2.99962060546875,3.356521674457192,-0.7672913631975651,1.190301086935401
1788800324802590700,3.0095908203125,2.2767273733764886,0.16797990065813065,1.0539292074620723
1788800324812560600,3.019560546875,0.2354939324826002,0.937657866731286,0.590173631837964
1788800324822529500,3.029529541015625,-0.5045628023087978,1.3356088447973131,1.0915578041106462
1788800324832499700,3.039499755859375,-0.4502162950932979,1.462725989191234,1.2903443464428186
1788800324842468900,3.04946875,-0.7243219900429249,0.8061781432136893,0.9341115724265575
1788800324852438800,3.059438720703125,-1.2927122446179389,0.09037994362711906,0.8571452371239662
1788800324862408700,3.06940869140625,-1.7349471855685115,-0.06004822598844766,1.1887597027122974
1788800324872377600,3.079377685546875,-1.0289528793767093,-0.016090718579292295,1.9249428109407425
1788800324882347500,3.089347412109375,1.371163265520334,0.06157850429564714,3.096001437267661
1788800324892316700,3.099316650390625,2.8083889027521014,-0.7149409982353448,2.703098097980022
1788800324902286600,3.10928662109375,2.6229692069932815,-1.4255205863907932,0.813394358202815
1788800324912255700,3.119255859375,1.9145780687928198,-4.3181238958776,-2.0573317582577464
1788800324922225700,3.1292255859375,-0.4680640864729881,-3.6456922520697113,-2.4389216763705015
1788800324932195600,3.139195556640625,1.7402961453810333,1.194901858729124,-3.0252941623598337
1788800324942164700,3.149164794921875,0.3414847022175789,1.0057190110445022,-0.5101946707159281
1788800324952134700,3.159134765625,-0.8452250822275876,1.2714356478333473,-0.7605342901527882
1788800324962103600,3.169103515625,-1.7122066537111997,1.5163988349288702,-1.2495219221889973
1788800324972073500,3.179073486328125,-1.2234329566866158,2.089097600352764,-0.6596832213938236
1788800324982042600,3.189042724609375,-0.9037994362711906,2.9712831707090137,-0.4835048167109489
1788800324992012800,3.1990126953125,-0.8212930024981498,2.5634511423587796,-0.021755904734134673
1788800325001982700,3.208982666015625,-1.2740893772125244,1.2118149996072054,0.44007600935101504
1788800325011951600,3.21895166015625,-0.7660223661750555,1.3163047171294688,0.37907062876820563
1788800325021921500,3.228921630859375,1.571646090376377,1.8166998783648014,-0.6531389143168926
1788800325031890700,3.238890625,4.447105957360566,1.8637480452656745,-2.4180823019593953
1788800325041860600,3.248860595703125,6.400258671480417,1.426017137736082,-4.322174632573128
1788800325051830500,3.25883056640625,5.726286227971315,1.695312802055478,-5.3936167003721
1788800325061799700,3.268799560546875,4.848322366963327,3.0044115333288905,-4.719694525745511
1788800325071769600,3.27876953125,6.064248601281642,4.45753295108974,-3.786629247501492
1788800325081738800,3.28873876953125,6.289183145827055,5.319599278002977,-2.472691844025254
1788800325091708700,3.298708740234375,4.350359109050035,5.725266821795701,-1.0411924754858017
1788800325101677600,3.308677490234375,2.428073242358863,5.68716768502593,-0.2435334465533495
1788800325111647500,3.3186474609375,2.1478666001856324,0.7066232517451048,1.071888058000803
1788800325121617700,3.32861767578125,-1.1660133256360887,-2.2715526010870932,-1.5570213526964187
1788800325131586600,3.338586669921875,-1.1347232843592763,-1.5343769746899605,-0.8838041114687919
1788800325141556700,3.348556640625,-0.30898762323856355,-0.8073930719614029,0.49163785428404805
1788800325151525600,3.358525634765625,-1.2114634096905588,-0.02427694764435291,1.47840900375247
1788800325161495800,3.368495849609375,-2.522603583663702,-0.1602776557177305,2.4511685790032147
1788800325171466200,3.37846630859375,-2.4455752890408036,-1.7453905459105967,2.3830606729388237
1788800325181435400,3.388435302734375,-1.966648740030825,-2.52958277502656,2.397748538982868
1788800325191405300,3.3984052734375,-1.5185963449731468,-2.806813323998451,2.5888380970716476
1788800325201374200,3.408374267578125,-0.33795185191631316,-2.4883979472011326,2.408981296136975
1788800325211344100,3.41834423828125,0.10990151343792676,-2.720993820154667,2.505976273989677
1788800325221313300,3.428313232421875,-0.3297475026726723,-3.2765444669008255,3.0547943976104257
1788800325231283500,3.438283447265625,-0.5585071584641933,-3.6295892585307357,3.420876365467906
1788800325241253400,3.44825341796875,-0.7369695824310183,-3.9649627843916413,3.445917867743969
1788800325251222300,3.45822216796875,-0.7121513675168156,-4.168319118857384,3.2954104954123493
1788800325261192400,3.4681923828125,-0.5822206270068884,-4.307167033055425,3.1389263867586847
1788800325271161300,3.478161376953125,-0.7165405423864721,-4.647821129667759,3.0870506535708904
1788800325281131300,3.48813134765625,-0.3106231154859066,-4.542267582306265,2.614889068651199
1788800325291101400,3.498101318359375,-0.8323593170441687,-4.446996359506249,2.4349241311669347
1788800325301070300,3.5080703125,-0.11376797960773109,-4.253140843835473,1.9289824417203663
1788800325311040500,3.51804052734375,0.8807026383221149,-3.7185283556997772,1.248716451025009
1788800325321009400,3.528009521484375,0.5491875414550305,-3.065575319343805,0.21745091079175471
1788800325330979300,3.537979248046875,0.9151930830754339,-2.5912562641292807,-1.3597668422371147
1788800325340949200,3.54794921875,1.443695417767763,-1.1456050361186265,-5.40926259779334
1788800325350918400,3.55791845703125,0.20850831040143966,0.22843641518652438,-9.52324163917601
1788800325360888300,3.567888427734375,-2.826355059814453,1.5781787070155142,-11.792605205786227
1788800325370857200,3.577857177734375,3.9569267774522303,5.924552545821666,-10.132843609583377
1788800325380827400,3.587827392578125,4.142995292508602,12.986512208259105,-6.8838412296026945
1788800325390796500,3.597796630859375,-1.2774796041727066,15.512216096025705,-9.872722016322612
1788800325400766500,3.607766357421875,2.2415748114526273,14.518520700252056,-12.09469313263893
1788800325410736400,3.617736328125,1.6442086377620697,10.560033249354362,-11.138986983519793
1788800325420705300,3.627705322265625,3.4572283663094043,4.383754013651609,-8.887378269308805
1788800325430675200,3.63767529296875,6.357874989259242,0.818107358199358,-6.361737509906291
1788800325440644400,3.647644287109375,5.419836598777771,1.1305746402472256,-4.507353505313397
1788800325450614500,3.657614501953125,2.4958301430284977,0.020678046369552613,-5.165817414045334
1788800325460584400,3.66758447265625,0.8965407703798264,-1.143239476031065,-3.631575463911891
1788800325470553300,3.67755322265625,-0.5717125308655202,-1.0210019203722476,-2.8276223032712933
1788800325480523300,3.687523193359375,-0.6040110185325145,-1.4067249927669763,-1.818337708699703
1788800325490492400,3.697492431640625,-0.3408804527141154,-2.085195916739106,0.700684509345889
1788800325500462300,3.70746240234375,-0.1538122590959072,-0.4492056567460298,3.2402550099015235
1788800325510431200,3.71743115234375,0.25438538769632574,1.6507120283067225,4.222953795364499
1788800325520401200,3.727401123046875,-3.1719004355996847,-2.440949382805824,5.802142556205392
1788800325530371300,3.737371337890625,-4.7175332560583945,-0.5748708487659693,7.627060227817297
1788800325540340500,3.747340576171875,-4.524557153570652,0.5592530083954333,8.911467000904679
1788800325550310400,3.757310302734375,-3.313610753491521,0.019032617250084875,8.263608072817325
1788800325560279300,3.767279296875,-1.8678057962238788,-1.472931449124217,5.513851684036851
1788800325570249200,3.777249267578125,-2.2574504259765145,-2.8372458716630935,3.29908421548903
1788800325580219400,3.787219482421875,-0.978303765374422,-2.462382046934962,2.8972616566866636
1788800325590188300,3.797188232421875,0.3248237825348973,-1.9091876079261303,3.252506588709354
1788800325600158500,3.807158447265625,0.18637100513428448,-1.7963661153882742,4.117461038279533
1788800325610127400,3.81712744140625,-0.164816175930202,-0.7763304096996784,4.934017659905552
1788800325620097300,3.82709716796875,-0.9895382760941982,0.00341068522632122,4.953744689160585
1788800325630067500,3.8370673828125,-1.0047051578268409,1.057482516029477,5.4105117210716
1788800325640036400,3.847036376953125,0.2752700625538826,0.7563274861127137,5.439845367583632
1788800325650006300,3.85700634765625,0.04211714023947716,2.3864479772895573,4.796342881140113
1788800325659975200,3.86697509765625,-0.6714496470332145,2.4008991119682785,3.7566222317725417
1788800325669945300,3.8769453125,-0.8315675821445881,1.1842431020706892,1.8578233313918113
1788800325679915500,3.88691552734375,0.38106004901975393,-4.270539722403884,1.808354659345746
1788800325689884400,3.896884521484375,0.6309514862976968,-6.110223001471161,2.1984867803543806
1788800325699854300,3.906854248046875,0.4481893193103373,-4.185623304879665,1.376596396484971
1788800325709823500,3.916823486328125,-0.6892458543561398,-2.2397522722005845,1.368534086060524
1788800325719793400,3.92679345703125,-0.0458230090200901,-0.851688725283742,2.1587831309974193
1788800325729762300,3.93676220703125,0.23778233568072318,0.2169973218053579,3.4507243912428613
1788800325739732200,3.946732177734375,0.7091210599102079,0.7380711139321326,3.423064230901003
1788800325749702400,3.956702392578125,1.7885154018878935,0.6280459741145372,2.4672955379396675
1788800325759671600,3.966671630859375,1.2226467016797513,1.9776830520033835,2.890880431216955
1788800325769641500,3.976641357421875,1.9939188781417905,2.840245638000965,1.6002449928730724
1788800325779610400,3.9866103515625,1.7523790896236895,1.243448155233264,1.359261230802536
1788800325789580300,3.996580322265625,0.6481880139112473,-2.8230162707805633,1.380389943549037
1788800325799550200,4.00655029296875,0.5270644108437001,-5.283986697351932,0.9371113387644291
1788800325809519400,4.016519287109375,1.0470072992444037,-2.855984474402666,0.6501730502486228
1788800325819489300,4.0264892578125,0.9381505456190555,0.2598275787502527,-0.4404664699733257
1788800325829458200,4.036458251953125,-0.22458741160817444,1.22191436881721,-0.8423007192134857
1788800325839428400,4.046428466796875,1.5653342768810687,1.8525667260378598,-1.8075515262693165
1788800325849398300,4.056398193359375,3.7144811261355875,4.5305058328419925,-1.0493021321833134
1788800325859367400,4.066367431640625,0.8748514280758798,5.361813448876142,0.3185170836061239
1788800325869337300,4.07633740234375,-0.3861117794513702,5.3096255809992545,0.4437853852629661
1788800325879306200,4.08630615234375,0.2855915500819683,5.649958190572262,-2.12978032387495
1788800325889276200,4.096276123046875,0.7183738952934742,3.4650364097118374,-0.9489601819902658
1788800325899246300,4.106246337890625,1.9086665066614745,-0.23836685757040976,-0.5751105027407407
1788800325909215500,4.116215576171875,0.5342715657435357,1.8777894300997255,-2.777835651317239
1788800325919185400,4.126185302734375,0.4621719596944749,4.795984569221734,-3.432428271573782
1788800325929154300,4.136154296875,-0.6034943011820316,7.439501181942224,-3.890481251642108
1788800325939124200,4.146124267578125,-1.828468642091751,7.442237328907847,-4.838541269922256
1788800325949094400,4.156094482421875,-1.3575028428278864,5.220140540385246,-5.857614268058538
1788800325959063300,4.166063232421875,-1.209767419427633,5.940279691785574,-6.676265231615305
1788800325969033200,4.176033203125,-2.4062476333893836,5.53332210818231,-7.294256844705343
1788800325979002000,4.186002197265625,-3.5947219432890414,4.2834155705898995,-7.166012742108106
1788800325988972500,4.19597265625,-4.61576010401845,2.6417332364350554,-6.462103425496816
1788800325998942500,4.2059423828125,11.56626313253045,-2.603983059233427,0.23436142132133245
1788800326008911400,4.215911376953125,11.994406712025404,-4.942784319207072,2.4489324905142187
1788800326018881300,4.22588134765625,-5.070054023814201,0.9884446356385945,-0.8442121057927608
1788800326028851200,4.235851318359375,-9.72458780286312,4.258861559569835,-1.9161288053661585
1788800326038820400,4.2458203125,-1.3763831921257077,0.6360989321887492,0.5652054870590567
1788800326048790500,4.25579052734375,3.3876375282108784,-4.9935588131546975,2.4802479584932327
1788800326058759400,4.265759521484375,1.8949429556049406,-4.635045234724879,0.3719578741535544
1788800326068729300,4.275729248046875,-4.521154067128896,-4.400884012150764,-5.0729912463098765
1788800326078699300,4.28569921875,2.577035431075096,-6.243441969871521,-5.04920412800908
1788800326088668400,4.29566845703125,7.382292855554819,-6.712058429530263,-1.4211100764721631
1788800326098638300,4.305638427734375,-0.2654267139315605,-4.46779072573185,-1.4984180648192762
1788800326108607200,4.315607177734375,-2.112117241412401,-3.187757345423102,-1.9341729961007832
1788800326118577200,4.3255771484375,-0.11425780895128845,-3.627617666196823,-3.19641469913125
1788800326128547300,4.33554736328125,-1.8735938781060277,-4.732897121667862,-2.743784036372602
1788800326138516500,4.3455166015625,-1.0675007828272878,-3.110484720650315,-1.0782263211116194
1788800326148486400,4.355486328125,0.21645298579558728,-1.1742448551476001,0.9700386258542537
1788800326158455300,4.365455322265625,0.26522432322725653,-0.27789748844802376,0.7008908455729485
1788800326168425200,4.37542529296875,0.07078413953632116,0.4531201998412609,-0.5545867701500654
1788800326178395400,4.3853955078125,-0.9150877230048179,0.75758420817554,-2.093360518494248
1788800326188364500,4.395364501953125,-0.9985656321585178,0.9109931471675634,-2.535874568647146
1788800326198334500,4.40533447265625,-0.3548505258776247,2.251916757246852,-1.7608014655321835
1788800326208304400,4.415304443359375,0.7992551390174776,4.081185025283694,-1.87242877984941
1788800326218273300,4.425273193359375,1.4570692786037922,3.129593910267949,-2.0052029270917178
1788800326228243700,4.43524365234375,2.7601743224203585,1.9923259098619222,-3.29061624687314
1788800326238212600,4.445212646484375,-0.4483809694249183,-0.18758418031632898,0.7021212641507387
1788800326248182500,4.4551826171875,0.6355109031677245,-1.8739491212844848,-0.7137737080216408
1788800326258152400,4.46515234375,1.024326680880785,-2.3068197293013335,-2.254544183140993
1788800326268121600,4.47512158203125,-0.7538168184660374,-1.175397532314062,-0.46265492090582844
1788800326278091500,4.485091552734375,-1.8344027083158492,-4.286569066184759,-1.2219026783794165
1788800326288060400,4.495060302734375,-0.06711487643904984,-3.9333506715536117,1.8903145651519297
1788800326298030300,4.5050302734375,-0.12341602485366165,-2.627563841307163,2.1310557506382466
1788800326308000500,4.51500048828125,-0.26648703663945195,-2.000197081628442,2.5884400376647707
1788800326317969700,4.5249697265625,-0.6805003839731216,-1.8283523222357034,2.649229729670286
1788800326327939600,4.534939697265625,-0.1291897128842771,-2.000084853425622,2.329184705844521
1788800326337908500,4.544908447265625,1.3451158010721207,-1.75105397849977,2.0895979510903357
1788800326347878400,4.55487841796875,1.8233926540017127,-1.347992817813158,2.243520100301504
1788800326357848300,4.564848388671875,1.2529051348865032,-0.9182324507713318,2.335344982039928
1788800326367817500,4.5748173828125,0.9852127410452812,-2.2680367019206282,0.6987754608541726
1788800326377787600,4.58478759765625,1.7912556405067444,5.108691505244374,-7.412870364648104
1788800326387757600,4.594757568359375,-0.8280768904846161,-0.6167711313843727,-1.1318991668492555
1788800326397726500,4.6047265625,-0.5527378543477505,4.5769846754223105,-3.103604898008704
1788800326407696400,4.6146962890625,-1.7410861267149447,5.6615697179108855,-5.864003676834702
1788800326417665500,4.62466552734375,-0.609053104352951,6.248574656584858,-4.927067110115289
1788800326427635500,4.634635498046875,-0.3186135297179222,5.2682075289398425,-3.2990584965258836
1788800326437605400,4.64460546875,-1.2437176198244093,3.9459336742728945,-3.8279333177924153
1788800326447574300,4.65457421875,-0.3208101629793644,4.778077156609297,-2.384469370692968
1788800326457544400,4.66454443359375,0.3184942872524261,4.8684167682260275,-0.5201350499719382
1788800326467513600,4.674513671875,0.21814240018725395,2.9975106678992507,0.14479074825048446
1788800326477483500,4.6844833984375,-1.532478301461786,1.1189274570733307,0.7054115378677844
1788800326487453400,4.694453369140625,-0.3925649011135101,2.1375494965717197,0.20298048689067363
1788800326497422300,4.70442236328125,-0.003676642686128616,1.7092857978284357,-0.9056588004022836
1788800326507392500,4.714392578125,-0.37667028962820764,0.9073413466617465,-1.9767413872390984
1788800326517362700,4.72436279296875,-0.34760084701031446,1.3094605503231287,-0.5703033947199583
1788800326527331600,4.73433154296875,-0.06341098041981458,1.1226914857819676,1.8988696275293826
1788800326537301500,4.744301513671875,0.06314633813425898,0.7119508765086531,3.3039205496042965
1788800326547270700,4.754270751953125,0.3066039429724216,0.08036240748167038,2.968526565477252
1788800326557240600,4.764240478515625,0.31094679448232054,-0.838931827302277,1.96909174926877
1788800326567210500,4.77421044921875,-0.4715748710729181,0.06064736092537641,3.43062268345654
1788800326577179400,4.784179443359375,-1.5496397180125117,0.601619154959917,5.083581613907218
1788800326587149300,4.7941494140625,-1.7326386163651941,-0.8683017141714692,6.130204882270097
1788800326597119500,4.804119384765625,-0.5072229614287614,-0.5573059659808873,6.734379566931724
1788800326607088600,4.814088623046875,-2.1853344533145425,-0.3918748730227351,7.3824839942127465
1788800326617058600,4.82405859375,-1.4222969481691716,-1.2020230889111756,6.5229550768226385
1788800326627027500,4.83402734375,-0.11256021125316619,-1.4024199890494347,5.948148525464535
1788800326636997400,4.843997314453125,-1.7897724162116646,-0.9351914766177535,7.063865203797817
1788800326646967300,4.85396728515625,-2.0846786148667333,-1.304394499105215,5.922277586627006
1788800326656936400,4.8639365234375,-1.0363868287697433,-2.3938038930103183,2.818268783992529
1788800326666906600,4.87390673828125,-1.5667669400326907,-2.2590023315936327,0.9118471336483955
1788800326676876500,4.88387646484375,-1.5769563256137071,-2.2212319883868097,-0.526539656317234
1788800326686845400,4.893845458984375,-1.3204711891591547,-1.4860463667631147,-1.200008241957426
1788800326696815600,4.903815673828125,-0.8761959745526313,-0.8640396728128195,-1.657464425176382
1788800326706784500,4.913784423828125,-0.6379962902426719,-0.5938754089653492,-2.403925181791186
1788800326716754400,4.92375439453125,-0.23313640957102177,-0.9714028999447822,-3.0569232263326644
1788800326726724400,4.933724365234375,1.5008334553979337,-1.5286878231376408,-3.6542432227939363
1788800326736693500,4.943693603515625,0.5008452430903911,-0.7240396659702062,-4.572629402822256
1788800326746663700,4.95366357421875,1.4798891593076289,-0.21803426363766193,-4.723253679531813
1788800326756633600,4.963633544921875,2.1584685120902956,0.3710822603628039,-4.842176996076106
1788800326766602500,4.9736025390625,1.4495464818835258,0.9735893040731549,-2.5388895325541494
1788800326776572400,4.983572509765625,0.6933434989333153,1.5090256758123635,0.8294014901518821
1788800326786541600,4.99354150390625,0.9307844738304615,2.6584599148303267,2.8914205294430255
1788800326796511500,5.003511474609375,-0.040585546758025885,1.3343649822160601,2.2442373086601495
1788800326806481400,5.0134814453125,0.6998036348581314,0.6774032947406172,-0.5889712703108787
1788800326816450600,5.023450439453125,1.258195204118639,0.4902744569763541,-3.177500739824772
1788800326826420500,5.03342041015625,0.9850456408500671,0.20635873115211725,-3.538360004597902
1788800326836390400,5.043390380859375,0.7582616690456867,-0.3915273747593164,-2.3470547090560197
1788800326846359600,5.053359619140625,0.5753168389678001,-1.167510578456521,0.5665057560026645
1788800326856329500,5.06332958984375,0.3201531603753567,-1.284563717214763,4.0866204943358895
1788800326866298400,5.07329833984375,1.0665351526655256,-1.7609227538242935,4.7504824627190825
1788800326876268300,5.083268310546875,1.6375192231260238,-0.963105903981626,4.74662578729093
1788800326886238500,5.093238525390625,0.8998131431140005,0.1506952961191535,2.8141373832762238
1788800326896207600,5.10320751953125,-0.4185889846861362,1.0602683473557233,2.0289356848567723
1788800326906177500,5.113177490234375,-1.3711539131700992,1.2195745276927947,2.0535224291026593
1788800326916147500,5.1231474609375,-1.7247731436870992,0.3584241465806961,0.8380746259510516
1788800326926116400,5.133116455078125,0.22008651999235151,-0.625586306002736,1.4464268885582685
1788800326936086500,5.14308642578125,0.9403460829019546,0.1270280048057437,1.877344608941674
1788800326946056400,5.153056396484375,-0.3730735803104937,0.5838184175923467,1.2030582771778107
1788800326956025300,5.163025390625,-1.306339787954092,0.035058746160566805,1.540174262791872
1788800326965995500,5.17299560546875,-1.1197487103283406,-0.06223609142154455,2.3386200581878422
1788800326975964700,5.182964599609375,-0.39609658237099643,-0.25444588571190835,2.3302052810639142
1788800326985934600,5.1929345703125,-0.3539795882619917,-0.5781836265757679,2.3375357700824737
1788800326995904500,5.202904541015625,-0.6102890028234571,-0.506662404936552,2.090005947369337
1788800327005873400,5.212873291015625,0.15395817037262022,-0.48961277819722887,-2.3452906219929455
1788800327015843300,5.22284326171875,-0.923820626167208,-0.820811648721993,-3.370409330034256
1788800327025813500,5.2328134765625,-0.06632204556092619,-0.42028439042717214,-0.8756441858887672
1788800327035782700,5.24278271484375,2.278416057115793,0.5111357509583234,-3.394266006439924
1788800327045752600,5.252752685546875,3.257981220728159,-1.4010089532077312,-5.69046848013699
1788800327055721500,5.262721435546875,1.0890566349446773,2.217822764465213,-6.631964902117848
1788800327065691400,5.27269140625,-0.9002787147991359,3.0542630672127005,-6.440249905607104
1788800327075661300,5.282661376953125,-0.767996296596527,1.2657131785333156,-4.398689716976881
1788800327085630500,5.29263037109375,-0.5158300462543964,1.1055296308398246,-3.7538703027158973
1788800327095600400,5.302600341796875,1.3827929130375385,2.4242589447677134,-6.86616821026802
1788800327105570600,5.312570556640625,0.6032137306749821,3.1349568986058234,-6.8084846675843
1788800327115539500,5.32253955078125,0.6138669343754649,2.1723674197137353,-6.155904556193947
1788800327125509400,5.33250927734375,2.856812157398462,2.0767127505540848,-4.649961064305901
1788800327135478500,5.342478515625,1.7696525882467626,1.5868845760405064,-4.205670067608356
1788800327145448400,5.352448486328125,1.632230907459557,1.0513029506117104,-2.539184716108441
1788800327155418400,5.36241845703125,1.235486382573843,1.5051187315016985,0.32986031539738175
1788800327165387500,5.372387451171875,1.7893001225247978,-0.7329197225183248,-1.0889046592533589
1788800327175357000,5.38235693359375,0.5943804358780383,-0.3339943464621901,-1.1977028876245022
1788800327185326800,5.392326904296875,-0.37317835585922,1.288288582956791,-2.257815167635679
1788800327195295700,5.402295654296875,0.35890915361866355,2.6576246330499647,-2.797220150744915
1788800327205266000,5.412265869140625,1.8505097935080528,-0.8090466843873262,-2.329968549698591
1788800327215235800,5.42223583984375,1.6232906451568005,-1.3115613219946622,-2.5767595367431637
1788800327225205000,5.432205078125,0.8055269858285784,-0.5313043865010142,-1.451950035893917
1788800327235175000,5.4421748046875,0.07607406263798475,-0.41196050645709037,-0.08778115930557251
1788800327245143800,5.452143798828125,-0.5321957823827862,-0.4295756581246853,0.303093304502964
1788800327255113700,5.46211376953125,1.108753853583336,1.092531909839809,0.5015221194386482
1788800327265084000,5.472083984375,1.9371321381673217,4.043554090547562,-0.5846598368525505
1788800327275052800,5.482052734375,-1.0353455030232668,2.2046444262012836,0.2852384988605976
1788800327285023000,5.49202294921875,0.37009091123789545,-0.44063773488700386,1.9537574020147321
1788800327294993000,5.501992919921875,-0.10142623829841613,-0.45969022588133807,1.6570663657695055
1788800327304961800,5.5119619140625,-1.9139011924445628,-0.4742223168417811,1.3345569976568221
1788800327314932000,5.521931884765625,-1.491144858945906,-1.465950796456635,0.12040858666598796
1788800327324902000,5.53190185546875,-0.9221285814270377,-1.4051803936734795,-0.6753472389936447
1788800327334870800,5.541870849609375,-2.151929027318954,-0.39522155310213564,-1.0682020629644393
1788800327344841000,5.551841064453125,-3.6469504354372617,0.5943333818659186,-2.2882231653809546
1788800327354810000,5.56181005859375,-4.660421083521842,0.6828190361790358,-3.488334867712855
1788800327364780000,5.571780029296875,-3.99124347307384,0.6756736944690346,-2.582147659522295
1788800327374750000,5.58175,-2.554886727631092,0.414072384044528,-2.205710301867127
1788800327384718800,5.59171875,-1.804749328330159,-0.1424601133458316,-1.6929226920485496
1788800327394688800,5.601688720703125,-0.5735398924231528,-0.2306320255346596,-1.3714888442128896
1788800327404658700,5.61165869140625,0.20607611481845378,-1.2632774758189915,-0.26243103924691674
1788800327414627800,5.6216279296875,-0.6191559806942939,-0.7798379794292152,-0.6666098057866096
1788800327424598000,5.631597900390625,-1.9955746825248002,-0.4636125138916075,0.018860183292627335
1788800327434568000,5.64156787109375,-1.6142144815146922,-0.14858385692313314,0.7706897734642029
1788800327444536800,5.651536865234375,-0.6087625969737768,0.5998965689510106,1.329614865079522
1788800327454506800,5.6615068359375,-0.32498890996873375,0.7287740010157228,1.4000889157533645
1788800327464476000,5.671475830078125,-1.3375176010280847,0.4816220717042684,1.4539070151805877
1788800327474445800,5.68144580078125,-1.6135516336917877,1.0121851383186877,3.332198549583554
1788800327484416000,5.691416015625,-1.3656196599185466,1.4390034605592488,5.118236747702956
1788800327494385000,5.701385009765625,-1.7312001079946755,1.4292889990136026,5.431784226202964
1788800327504355000,5.71135498046875,-1.664260661187768,1.4691129137493668,5.690076265949011
1788800327514325000,5.721324951171875,-1.6909832484185694,1.05451197578609,5.315417608404159
1788800327524294000,5.7312939453125,-1.8949077381610868,0.9192856130860745,4.91496283082366
1788800327534263800,5.741263916015625,-1.830128684258461,0.8671054901242256,4.497864961478114
1788800327544233700,5.751233642578125,-1.7785539798438548,0.6617585663631558,4.04122593986094
1788800327554203000,5.761202880859375,-1.7523048553436993,0.4704107957296073,3.77428765232265
1788800327564173000,5.771173095703125,-1.8264187238246201,0.7331241590492427,3.863533623483777
1788800327574142000,5.781141845703125,-1.3374550571858883,0.8282105268016458,4.395362033858895
1788800327584111900,5.79111181640625,-0.5160334598720073,0.6005199615463614,3.9047283881813284
1788800327594081800,5.801081787109375,-0.9394505953669547,0.443688646890223,1.564713660764694
1788800327604051000,5.811051025390625,-1.8666840987175701,0.37347280876114963,-0.5041559750735759
1788800327614020900,5.821020751953125,-2.1459470302999017,-0.1876646982066333,-1.002722167316079
1788800327623991000,5.830990966796875,-0.9452420382499694,-0.1374298640936613,-1.4717127209842205
1788800327633960000,5.8409599609375,-0.36722237006425856,0.9936194079279899,-2.23080850276649
1788800327643929900,5.850929931640625,-0.005487199239432811,1.5090988871790467,-2.214370578184724
1788800327653900000,5.860900146484375,0.4570540321588516,1.4646699628658593,-1.9203730188071726
1788800327663869000,5.870868896484375,0.6468763467907905,0.7508106223873794,-1.0522183118909596
1788800327673838800,5.8808388671875,-1.0944646314680575,-0.7960854960054159,1.0505103389292956
1788800327683807700,5.890807861328125,-2.1228724441826343,-3.09209653878361,2.7122785987794398
1788800327693778000,5.90077783203125,-1.0848732117801905,-2.691900996661186,1.8842238470613955
1788800327703748000,5.910748046875,-0.7119514610305429,0.508098575219512,0.6061854399621486
1788800327713717000,5.920717041015625,-0.0845487532556057,4.521309257690608,-0.2792214305281639
1788800327723687000,5.93068701171875,0.795081871920824,4.691556811019778,-0.7932178316146135
1788800327733656800,5.94065673828125,1.3333072898566722,1.9532363007500766,-0.8382330313831567
1788800327743626000,5.9506259765625,0.7532377034038304,-0.2357268644556403,0.7498322788745164
1788800327753596000,5.960595947265625,1.6517662135347724,-1.810506868943572,3.983109850978851
1788800327763565800,5.97056591796875,2.7519495149105784,-2.4746903243660925,4.8857010805040595
1788800327773535000,5.980534912109375,3.961679524937272,-1.779202506880462,3.499937042701244
1788800327783505000,5.9905048828125,3.539701774595678,0.3129813690498471,2.952073443326354
1788800327793474000,6.00047412109375,1.772040944688022,0.9319038332492112,0.7745055323600769
1788800327803444000,6.01044384765625,0.3990297132134437,0.34764205580353735,-2.1190940946877
1788800327813414000,6.020413818359375,-0.1648445252418518,-0.3415601055413484,-3.615637305545807
1788800327823382800,6.0303828125,0.11002835468798876,-1.6992489724606274,-4.544190659323334
1788800327833352700,6.040352783203125,1.2945365374356508,-1.8160989898622035,-3.6942011391729115
1788800327843323000,6.050322998046875,1.9816753365099429,-0.604703969232738,-1.7518343152225015
1788800327853292000,6.0602919921875,1.8747212747007607,-0.3699965109527111,-0.5200806894361972
1788800327863262000,6.070261962890625,2.1281237888395785,-0.376969857096672,0.02924363014101982
1788800327873232000,6.08023193359375,1.7014532045066355,0.4720949494242668,-1.1270897207409143
1788800327883200800,6.09020068359375,1.151646946631372,1.5088815911665558,-1.7852251281708478
1788800327893171000,6.1001708984375,0.9845870834276079,2.0047908391594884,-0.7669266215384006
1788800327903139800,6.110139892578125,1.5432602461084723,1.6003621895119546,-0.9389993444681167
1788800327913109800,6.12010986328125,1.8357053153470158,1.2910524947121738,-1.0507505774259567
1788800327923080000,6.130079833984375,1.954634184849262,1.2815458306983112,-1.1364186901003122
1788800327933049000,6.140049072265625,1.28734837949723,1.2943766706988216,-0.7519236981958151
1788800327943019000,6.15001904296875,1.0113923805058003,1.1858742104038595,-0.7554968805074691
1788800327952989000,6.159989013671875,0.76604194765836,1.2286088980197907,-0.3973100498139858
1788800327962957800,6.169957763671875,0.8483996206104755,1.0813967678412795,-0.09571838204562663
1788800327972927700,6.179927734375,0.3380339772418141,0.6263002994909882,-1.0851011753171682
1788800327982898000,6.18989794921875,0.038061727368831635,-0.051415422199666494,-1.6426158156126736
1788800327992867000,6.1998671875,0.7372875623390078,0.2573918760359287,-0.55668578825593
1788800328002837000,6.2098369140625,1.2193217219755053,-0.11786825453341007,0.14573299753665922
1788800328012806000,6.219805908203125,1.2964002854809165,-0.8827207001462578,-0.7320300802022218
1788800328022775800,6.22977587890625,1.8463444905221462,-1.1928574934199452,-1.4491437463015318
1788800328032745700,6.239745849609375,1.7382877281680702,-0.9460612456783651,-1.2912661374628542
1788800328042715000,6.24971484375,0.5301788896024227,-1.3809031537681817,-0.7918675860494375
1788800328052684800,6.259684814453125,0.48892684175968165,-1.6124883883744476,-0.45908758381307124
1788800328062655000,6.269655029296875,1.611509021948278,-0.34467911434471604,0.06439736110866069
1788800328072623900,6.279623779296875,3.004205197101831,-0.5625158095836639,-0.8178361400425433
1788800328082593800,6.28959375,4.171603547355533,-0.523913691727817,-2.7272102104514837
1788800328092564000,6.29956396484375,4.3883311123088,-0.3537129001498222,-4.603872682347894
1788800328102532900,6.309532958984375,3.7897546860456464,0.3119511492192745,-5.329904983440041
1788800328112502800,6.319502685546875,3.105430359870195,1.1077660115897654,-4.982705995228886
1788800328122473000,6.329472900390625,3.158203041897714,1.8353984413549302,-4.5072453687638045
1788800328132442000,6.339442138671875,3.0931027932167052,2.871074491506815,-3.8702965417474506
1788800328142412000,6.349412109375,2.680340322726965,3.2203976322650907,-3.605358488115668
1788800328152381000,6.359380859375,1.8770491331264376,2.947451044222712,-4.236665509852767
1788800328162350800,6.369350830078125,0.5497913525670767,2.2136776274845005,-4.711643905758858
1788800328172321500,6.379321533203125,-0.6112392162203788,0.24167320563942193,-5.146594827181101
1788800328182290400,6.38929052734375,-0.8021607242658734,-0.9857967514783144,-4.18447588841021
1788800328192260600,6.399260498046875,0.5925292550534009,-1.8140785899505019,-1.7508230923533439
1788800328202230500,6.40923046875,0.8522863989159465,-2.4232068053662776,0.7176227846652269
1788800328212199400,6.419199462890625,-1.0642483569025993,-1.9877841747790574,3.173264709690213
1788800328222169300,6.42916943359375,-2.5859376994550227,-2.504970896339416,5.134411052912474
1788800328232138500,6.439138427734375,-2.7797078749299047,-2.9071289707064625,6.251112650629878
1788800328242108700,6.449108642578125,-2.924591854421794,-2.0471774439901114,6.180484286177158
1788800328252078600,6.45907861328125,-2.4828739230826495,-1.1218205481663346,6.695037736624479
1788800328262047500,6.469047607421875,-2.2025708347976205,0.14954948708489538,7.369567229494452
1788800328272017400,6.479017333984375,-1.0703145250737667,1.1365965308852493,7.075598311689496
1788800328281987300,6.4889873046875,0.4819546646595001,0.6368351375088095,5.300777673155069
1788800328291956500,6.49895654296875,0.8767173680782318,-0.1877577833175659,3.9959675789862867
1788800328301926400,6.508926513671875,1.9006839834749698,0.2716676541477442,2.7657342946350574
1788800328311896600,6.518896484375,2.076114200139046,0.7738008912220596,0.4110767093598842
1788800328321865500,6.528865478515625,1.547686538118124,0.14650208221301436,-1.6350509333163499
1788800328331835400,6.53883544921875,-0.19609072737693786,-0.69744231255427,-2.5664544158279896
1788800328341805600,6.5488056640625,-1.2859189312160015,-0.4248308016851544,-2.8008313269793987
1788800328351774500,6.5587744140625,-2.078282776349783,0.7392141464874148,-3.003698416623473
1788800328361744400,6.568744384765625,-1.1801666464120149,5.180533337140083,-0.9716156659126282
1788800328371713300,6.57871337890625,-8.370306698560714,-2.5754776802390813,-11.090391002655029
1788800328381683700,6.58868359375,-1.0043769487857819,-5.119148017328977,-9.039265113300084
1788800328391653600,6.598653564453125,4.589163188993931,-2.050868407462537,1.7663947554945945
1788800328401622500,6.60862255859375,2.256005195604265,-2.653403508223593,-0.5184580566704273
1788800328411592400,6.618592529296875,-0.2277595388382673,1.7412259735770523,0.9778794024825096
1788800328421562400,6.628562255859375,-0.8397504502087831,3.8902024347007274,1.649155446514487
1788800328431531500,6.638531494140625,-0.36006723761260506,3.706117494677007,2.960663577017188
1788800328441501400,6.64850146484375,-0.40555940724313255,4.159439062309265,3.9749510944426056
1788800328451471600,6.6584716796875,-0.7300777770906687,3.705777887459099,4.128554094702005
1788800328461440500,6.6684404296875,-1.4334183539032934,3.0018796767637133,4.094423861563206
1788800328471410400,6.678410400390625,-1.6376929722577334,2.61020646379292,4.482925166499615
1788800328481380400,6.68838037109375,-1.51418904992491,2.2955239899136126,5.191131888043881
1788800328491349500,6.698349609375,-0.9204714618697762,2.200078725720942,6.353022288531065
1788800328501319400,6.7083193359375,-0.12988660910725594,2.7742408416956663,7.59186148866415
1788800328511288300,6.718288330078125,0.036278351083397865,2.214809407993406,7.320346394729614
1788800328521258500,6.728258544921875,-1.002671898433566,0.9168569246344268,5.88869972667396
1788800328531228400,6.738228515625,-1.3173966040194034,1.3859683282032609,6.394670057693124
1788800328541197600,6.748197509765625,-0.5616363964006305,1.1153902228578925,6.807297503626346
1788800328551167500,6.75816748046875,-0.09425444697290658,0.989125457509607,6.107113345018029
1788800328561137400,6.768137451171875,0.738864894658327,1.0011935695093124,5.279605121266842
1788800328571106600,6.7781064453125,0.554421642716229,0.271997178363055,5.100817410868406
1788800328581076500,6.788076416015625,-0.16581220123022794,0.7165599777393042,4.334169606271386
1788800328591046700,6.798046630859375,-0.48224312621206045,2.546201609133184,3.126446844413876
1788800328601015600,6.808015625,0.8061869110420345,0.026061346843093632,1.3343681970864534
1788800328610985500,6.8179853515625,2.6907480272337794,-1.6283596189841627,-0.7252221537530422
1788800328620954600,6.82795458984375,1.5914228039920328,-2.4171754162475465,-2.7634721949219703
1788800328630924500,6.837924560546875,-0.6468468284353613,-3.432507766550779,-4.440293646997213
1788800328640894500,6.84789453125,0.01583615929633379,2.410019845404476,-3.9340702179998157
1788800328650863400,6.85786328125,0.1924725368797779,4.509673472693562,-4.731517650008201
1788800328660833500,6.86783349609375,1.7739833109274505,3.3361817740008233,-6.967389281383157
1788800328670803500,6.877803466796875,3.6804110987514256,2.124997765773535,-6.862203982812166
1788800328680772600,6.887772705078125,2.355146537835896,1.1655346022084354,-5.489699239555001
1788800328690742500,6.897742431640625,0.8161758056148887,0.6493173102021217,-3.0605542763113975
1788800328700712400,6.90771240234375,1.7935189092636108,1.6076578994780777,-2.1474533432096243
1788800328710681300,6.917681396484375,2.9528385824799535,1.4980466011583804,-2.5900603323429823
1788800328720651300,6.9276513671875,3.1234134680673478,0.2530854110136628,-1.635436717763543
1788800328730620400,6.937620361328125,2.643433318351209,-0.690078359657526,-0.8317594514548778
1788800328740590600,6.947590576171875,2.4755890267714857,-1.4125877473205326,-4.401112560209632
1788800328750560500,6.957560546875,2.1715230778440833,-3.5001401640579104,-5.868364794653654
1788800328760529400,6.967529296875,-2.669041514599323,-3.767360483407974,-6.064884561097622
1788800328770499600,6.97749951171875,-4.332387691290676,-0.640810470880568,2.9432676210582254
1788800328780469500,6.987469482421875,-5.2793397483289235,-0.9689207277402281,1.1136235054463148
1788800328790438400,6.9974384765625,-1.7616905233263969,-1.965932408455014,5.43061693598926
1788800328800408300,7.007408203125,-0.9067571170330047,-1.4120879811048508,4.7776954638153315
1788800328810378500,7.01737841796875,0.5506050070375204,-1.2695552409142254,4.50923040510118
1788800328820347600,7.02734765625,-1.2173501296415925,-1.6185960575997829,3.258655174466967
1788800328830317600,7.037317626953125,-4.1629336264267565,-2.4498130727410317,3.007208470571041
1788800328840287500,7.04728759765625,-4.279312519185245,-1.2415326770007609,2.1749059982806442
1788800328850256400,7.05725634765625,-2.8000296552076933,-0.1404097566872835,0.9047107058972119
1788800328860226300,7.067226318359375,-0.553725769406557,0.8493436234623193,-2.5984593273758887
1788800328870195500,7.077195556640625,2.4648598352253437,4.663738829767704,-9.821962135422229
1788800328880165600,7.08716552734375,2.349607316148281,-1.1074006854087113,-3.8692578463494773
1788800328890135600,7.097135498046875,-1.17306996614933,-1.6485311771363018,-2.6087545114189385
1788800328900104400,7.1071044921875,-0.7784146686278283,0.46411154945492744,-6.077390991449356
1788800328910074400,7.117074462890625,1.1206545731268822,1.3736363776355982,-6.206569744548201
1788800328920044500,7.12704443359375,2.0797733071684834,2.0993284869879485,-4.535039384618401
1788800328930013400,7.137013427734375,0.9367958430744707,2.359263617765903,-4.5376369998961685
1788800328939983400,7.1469833984375,-0.2615793908536434,1.1858125433444977,-4.550411725795269
1788800328949953500,7.15695361328125,0.21411489823684096,0.8537281221568584,-4.333050831374526
1788800328959922400,7.16692236328125,0.44577392873167987,0.7389443896353244,-4.3498412226557726
1788800328969892600,7.176892578125,0.5384324848152697,0.11266074901819229,-4.305711573550105
1788800328979861500,7.186861572265625,-0.04809219606108963,0.19295067578554154,-4.090318179810047
1788800328989831400,7.19683154296875,-0.7680758646387607,0.1625526149123907,-4.255531538364291
1788800328999801300,7.20680126953125,-0.4267419690687209,-1.1439344725579024,-4.401542768320441
1788800329009770500,7.2167705078125,-0.11114106517024337,-1.6509335621029138,-5.421772535276412
1788800329019740700,7.22674072265625,1.3068155887722968,-0.7884972328335046,-7.226961424067616
1788800329029710600,7.236710693359375,0.0577612840950489,-0.7574661347538232,-6.603101211205124
1788800329039679500,7.246679443359375,-0.4207517156779766,-3.1285674898296594,-3.6839153074800968
1788800329049649400,7.2566494140625,0.24767960644736883,-4.70930757176578,-1.8667326140344143
1788800329059619300,7.266619384765625,0.6893992913521826,-3.959498673766851,0.6356593717277049
1788800329069588500,7.27658837890625,0.9207505710721016,-3.8343151277840137,3.1289293088793753
1788800329079558400,7.286558349609375,0.9268180544175207,-4.011894046914577,4.921766665619612
1788800329089527300,7.29652734375,1.1314157672464846,-1.1207225237965583,6.9370297989547245
1788800329099497500,7.30649755859375,1.2069862642765044,2.099222688525915,8.548505210894346
1788800329109467400,7.31646728515625,-0.08446341305971145,4.23324664131999,8.1855837528944
1788800329119436500,7.3264365234375,-2.016774706941843,1.6780097850769757,6.611565672689676
1788800329129406500,7.336406494140625,-4.075322855252027,0.029623277108371256,4.475619811922312
1788800329139376400,7.34637646484375,-4.935733231651783,3.4656653552651404,1.0600964979201555
1788800329149345300,7.35634521484375,-3.3904373880624767,4.553857482334971,-0.11324117925465106
1788800329159315700,7.366315673828125,-2.49595639975667,2.7994030477419494,-1.3735796790122985
1788800329169285600,7.37628564453125,4.1889720307856795,9.03608414517641,-10.818366205632685
1788800329179254000,7.38625390625,-1.1672709244817494,5.590056387317181,-9.774165195980668
1788800329189224000,7.396223876953125,-6.281386792862415,7.025300203081965,-11.524490860205889
1788800329199193000,7.406193115234375,-4.457088129931688,6.613737756031751,-12.780926507306098
1788800329209163000,7.4161630859375,1.5248697261542081,6.147874978995323,-13.022977021825312
1788800329219133000,7.4261328125,2.2548902200996874,8.948938361164927,-6.191298525658249
1788800329229101800,7.436101806640625,2.4894144307672974,8.990069997498393,0.7566314374953508
1788800329239072000,7.446072021484375,2.3367232846558093,3.309189722178876,-3.3317566510349512
1788800329249042000,7.4560419921875,-1.2611135757833718,0.9123147511601447,-1.2277309461414814
1788800329259011000,7.466010986328125,0.06967851638197899,-5.2338592691361905,-4.169102378189564
1788800329268981000,7.47598095703125,3.3164252263903617,-9.681686818769574,-7.294620417320728
1788800329278951000,7.485950927734375,-0.04054075776822865,-5.775781203502416,6.991024423992633
1788800329288919800,7.495919921875,-1.3664122716009617,-3.271512902474403,11.513676036202908
1788800329298890000,7.505889892578125,0.2553016257584095,-2.7259713163062926,7.883792763161659
1788800329308860200,7.515860107421875,0.690078359657526,-1.5954814317330717,7.886908849355578
1788800329318829000,7.5258291015625,0.6495686546146869,-1.6028399778023361,8.30623316257894
1788800329328799000,7.535799072265625,-1.340706167936325,-1.8351947354763745,7.703820226892828
1788800329338768100,7.54576806640625,-1.9525603011846542,-2.097025763003528,7.290213706794381
1788800329348738000,7.555738037109375,-2.1464397822529078,-0.35118338167220353,6.4309273659884925
1788800329358708000,7.5657080078125,-0.8684785320430993,1.3802587183848023,5.938112869140506
1788800329368676900,7.5756767578125,1.0895062053430824,1.7797566336318849,6.428828347882628
1788800329378647000,7.58564697265625,1.8483599219977855,1.9102838787302374,5.432912937971949
1788800329388617000,7.595616943359375,1.1598030728191138,0.7307675129204988,3.643049044084549
1788800329398586000,7.605586181640625,-0.6100193190366029,0.25458383287787434,2.546718618744612
1788800329408556000,7.61555615234375,-1.4318477435857058,0.38363048402965066,2.622771346333623
1788800329418526000,7.62552587890625,-1.821789894980192,0.5129930692628025,3.2229888178020714
1788800329428494800,7.635494873046875,-1.393098033952713,-0.6013751170709729,3.0828964565008876
1788800329438464800,7.64546484375,-0.20411329031288622,-0.20168226377367973,2.802050055119395
1788800329448434000,7.655433837890625,0.01327683020234108,0.128998720356822,2.1957266679912806
1788800329458404000,7.665404052734375,-0.1925157914996147,0.9503262096464633,1.2329086410403252
1788800329468374000,7.6753740234375,-1.7144798593401909,0.05051262814104557,0.6162883163034916
1788800329478343000,7.685343017578125,-2.014447140777111,-2.173828432177007,1.0065016858547926
1788800329488312800,7.695312744140625,3.003353548708558,0.33305531204640865,1.0786930618405342
1788800329498283000,7.705282958984375,5.658797915109992,3.364867770259082,1.1233335830777882
1788800329508252000,7.715251953125,3.9202977132350205,2.2820003453433513,1.5005208823174236
1788800329518222000,7.72522216796875,1.4508172324717044,1.4210273666247724,1.7289719105511903
1788800329528192000,7.73519189453125,1.0532055693626403,1.7454530897527931,0.4029875109285116
1788800329538161200,7.7451611328125,-0.5444710343271494,1.7493565269321203,0.3958639426589012
1788800329548131000,7.755131103515625,-4.079990262541175,-0.10130874939858912,0.3547603633761406
1788800329558100000,7.765099853515625,-1.269487436375022,0.02792202614843845,0.8750129022479057
1788800329568070000,7.77506982421875,0.06301847397089004,-0.6604378391534089,1.343287416601181
1788800329578039800,7.785039794921875,-0.08422142099738121,-1.973693105584383,2.1734511232972142
1788800329588009000,7.795009033203125,0.26491869134418666,-2.9652409679353235,2.896110148563981
1788800329597979100,7.804979248046875,0.6953542542338371,-0.796491738718748,2.2569828084647656
1788800329607949000,7.814948974609375,0.13459098740592598,0.3933008141726255,1.2490192333638668
1788800329617918000,7.82491796875,1.5219886177599429,2.2464175753086804,0.12285305720865726
1788800329627887900,7.834887939453125,2.2370272311508654,3.6915170146554708,0.34787703360319133
1788800329637857800,7.84485791015625,0.12982180024273693,1.5803262404382228,0.802301301780343
1788800329647827000,7.854826904296875,-0.5949941107969731,2.182347546458244,0.35518706435561176
1788800329657797000,7.864797119140625,-3.0958775186270473,1.6923182964146137,0.09889584303796291
1788800329667766000,7.87476611328125,-3.2379046473830937,1.4255892677128315,-0.09549743277132511
1788800329677736000,7.88473583984375,-0.6172426944188774,1.2298621129512786,0.17177870841920376
1788800329687706000,7.8947060546875,2.0761540937580167,1.5303911199241875,0.04910568395256996
1788800329697675000,7.904675048828125,1.3204232583642006,0.9834873054921627,-0.4724029924601316
1788800329707645000,7.91464501953125,0.08427753509879111,1.0522872854739427,-1.667152875497937
1788800329717614800,7.92461474609375,-1.228590339449793,1.2105255443185567,-3.6513153526484965
1788800329727584000,7.934583984375,-1.64195603652969,1.9371599029570816,-5.960965336939692
1788800329737554200,7.94455419921875,-2.0790322795428335,2.2968659060418606,-7.588339744278788
1788800329747524000,7.954524169921875,-2.4620009386628863,2.099694397690892,-8.58820243051052
1788800329757493000,7.964492919921875,-2.4587936670541763,1.3032535123765467,-8.395926292985678
1788800329767463000,7.974462890625,-1.972165165364742,1.2303747386485338,-7.347567579132318
1788800329777432000,7.98443212890625,-1.4995295331925154,0.95186174865067,-6.371067648309469
1788800329787402000,7.994402099609375,-1.486376037108898,1.1070207461804151,-5.6637868094384665
1788800329797372000,8.004371826171875,-1.8250848448723553,0.799179370367527,-4.235644934633374
1788800329807340800,8.0143408203125,-0.12685294049978255,0.10997428641319275,-2.0368261458456516
1788800329817311000,8.02431103515625,0.14414192895293235,0.32448855923116204,-0.9095365186184644
1788800329827281000,8.034281005859375,0.05124912572205066,1.1412357349932194,-0.9031751668930054
1788800329837250000,8.04425,0.1590185225021094,1.3285083651423453,-1.6062071161478757
1788800329847220000,8.054219970703125,-0.12722637692205607,0.5759165584266186,-1.8514602261006832
1788800329857188900,8.06418896484375,0.5245885953146964,-0.4185737871170044,-1.5013298606127499
1788800329867158800,8.07415869140625,1.2054068861305713,-1.1679255889981985,-1.11363227327466
1788800329877129000,8.08412890625,0.3556307895351201,-1.6103192276418208,-0.6276052446097136
1788800329887098000,8.09409814453125,0.4119553188253194,-2.327753796258569,-0.05789397056400775
1788800329897068000,8.104068115234375,-0.06494213550984859,-2.972345246982574,0.20325755026638506
1788800329907038000,8.114037841796875,-0.9085182814866304,-3.590759469398856,0.40803953362107276
1788800329917006800,8.1240068359375,-1.8290975876450537,-3.9714766963303085,0.5006581960856914
1788800329926977000,8.13397705078125,-1.9157845219731329,-3.859363059800863,0.39111353326141834
1788800329936947000,8.143947021484376,-1.3144015138566494,-2.94794028904438,0.20355039573311803
1788800329946915800,8.153915771484375,-0.6317447555672377,-1.539185836276412,-0.3480839543521404
1788800329956886000,8.163885986328125,0.04444054168574512,-0.5872814175277948,-1.2887410028994082
1788800329966855200,8.173855224609374,-0.21188049024827776,-0.025182956573367117,-2.1198007816523314
1788800329976825000,8.1838251953125,-0.8977671703696251,0.6559586479127407,-2.777363942152262
1788800329986795000,8.193794921875,-1.5821429344713687,1.3913573277652262,-3.4015754526704547
1788800329996764000,8.203763916015625,-2.201075773934275,2.0207553010106087,-3.834112883210182
1788800330006733800,8.21373388671875,-1.95607868456915,2.591397718426585,-4.497911138707399
1788800330016704000,8.2237041015625,-2.0135059144042433,3.268691999834776,-4.880724461135268
1788800330026673200,8.233673095703125,-2.4668442870408294,3.8217578440278768,-4.468046746319532
1788800330036643000,8.24364306640625,-2.5420138020545244,4.032559233802557,-3.5629420726686716
1788800330046613000,8.253613037109375,-2.556183197182417,3.9996962441205977,-3.130843618068099
1788800330056582000,8.263581787109375,-1.5311502677284181,2.8158947483375667,-3.749654146325588
1788800330066551800,8.2735517578125,-0.9113372844301164,1.571013929952681,-3.862403158149123
1788800330076521000,8.28352099609375,-0.9199969762258231,0.9171069538727402,-2.9935294893085955
1788800330086491000,8.293490966796876,0.01698328350484371,0.7800900544941425,-1.6684668807059526
1788800330096461000,8.3034609375,0.9996912751875817,0.5360395983293652,-0.6325888782411814
1788800330106430000,8.313429931640625,1.0351062874399124,0.45098464911729097,-0.026468904730677603
1788800330116400000,8.323400146484374,0.5907960745852441,0.8282768700361252,0.5750573112487792
1788800330126370000,8.3333701171875,0.6676140874583274,1.2096683429673314,1.0287234545350075
1788800330136339000,8.3433388671875,0.8645044407803565,1.4954583382308482,1.3617512940526009
1788800330146308900,8.353308837890625,0.781157318399474,1.4952937953189014,1.840485243099928
1788800330156278000,8.363278076171875,-0.6493817537404596,1.320068161316216,2.03155025126934
1788800330166248200,8.373248291015624,-1.8336305548995733,1.1827984562203286,1.73689861189723
1788800330176218400,8.38321826171875,-2.6202579022079706,1.321961135455966,1.88276078877151
1788800330186187300,8.393187255859376,-2.5540163745373485,1.3257491295620798,2.882915151426196
1788800330196157400,8.403157470703125,-1.996785227358341,1.0672663895495236,4.234247927317023
1788800330206127400,8.41312744140625,-1.492474938505888,0.6667233491636813,5.654744840326905
1788800330216096500,8.423096435546874,-1.249414370161295,0.49928851516768336,6.937681540861726
1788800330226066400,8.43306640625,-1.4919149665355682,-0.4757207387059927,6.707888450369238
1788800330236036400,8.443036376953126,-2.2316180655837057,-1.2835859582237898,4.771814589083195
1788800330246005200,8.453005126953125,-2.1078981624126434,-0.5657926392972469,2.35373111808002
1788800330255975200,8.46297509765625,-1.562645622318983,0.9804444306649267,0.6312520766794681
1788800330265944300,8.4729443359375,-1.1286217526137827,2.5788302055373786,0.33756489842534065
1788800330275914500,8.48291455078125,-0.6632511430084705,3.234826555112004,1.2083826870709657
1788800330285884400,8.492884521484376,0.4162707708716392,2.4931892731308936,2.5400977393001316
1788800330295853300,8.502853271484375,0.8987456600129604,0.8881449171520769,3.601189093476534
1788800330305823200,8.5128232421875,0.2351800442278385,0.20881006982699035,4.345301241138578
1788800330315793200,8.522793212890624,0.13120529049038887,0.028680297169834373,5.385856003242731
1788800330325762300,8.53276220703125,0.29450317081212996,-0.35857583001106974,6.523277732905745
1788800330335732500,8.542732421875,-0.18117608510600403,-0.832159118296951,6.960647405907511
1788800330345701400,8.552701416015625,-1.1848001514315605,-1.0066559996336697,7.466056011390686
1788800330355671300,8.56267138671875,-1.0832897419810295,-2.126343335163593,7.953117643800377
1788800330365641500,8.572641357421874,-0.1391343299239874,-2.9712238417372108,6.6162067764937875
1788800330375610400,8.5826103515625,-0.027052860364783552,-2.317908547940105,3.733882576698065
1788800330385580300,8.592580322265626,-0.41441491387188434,-0.7778506050042807,1.951695208787918
1788800330395550200,8.60255029296875,-0.7640969510704279,0.0025099369943141934,2.7510318155437705
1788800330405519400,8.612519287109375,0.035996063543297346,-0.1121829023733735,4.114598050063848
1788800330415489500,8.622489501953124,0.28520229503605515,0.06450637444108724,4.192289192509651
1788800330425459500,8.63245947265625,-0.2544207512706518,0.3833779705733061,3.754757022422552
1788800330435428400,8.642428466796876,-0.7539052274018526,0.6576151829481125,2.9318723668187854
1788800330445398300,8.652398193359375,-1.036564815685153,0.7282461777493358,1.6396189718842507
1788800330455367400,8.662367431640625,-1.344126205512881,1.0607444404348731,0.21090309658348558
1788800330465337300,8.67233740234375,-1.3942717539072036,1.6216428779497742,-1.1145856284767388
1788800330475307500,8.6823076171875,-1.244618952578306,2.103030848637223,-1.8207015152215957
1788800330485276400,8.6922763671875,-0.8299626311659812,2.413170272259414,-1.341472476133704
1788800330495246300,8.702246337890625,-0.1120060845017433,2.2969500771939755,0.14723463427126407
1788800330505216300,8.71221630859375,0.2310322768986225,2.477488722912967,1.216746610790491
1788800330515185400,8.722185302734376,0.015346622213721274,3.2806232606470584,1.0536299322545528
1788800330525155300,8.7321552734375,-0.27204773950651284,4.636835625272989,0.44378480074107646
1788800330535124200,8.742124267578125,-0.49630000087618825,5.964710953208804,-0.14648586173057554
1788800330545094100,8.75209423828125,-0.7982209005989134,6.00498334236443,-0.8161912954449653
1788800330555064300,8.762064208984375,-1.337321932325512,2.1864298473358152,-0.3363730582922697
1788800330565033500,8.772033447265626,-0.6401881011985242,0.4585755426377058,-0.40221009681522846
1788800330575003400,8.78200341796875,-0.3115085200183093,-0.5587140792131423,-1.4692968920141458
1788800330584973300,8.791973388671876,-0.45826808412373066,-1.2207926713109016,-2.710399945425987
1788800330594942200,8.801942138671874,-0.0886513662688434,-0.9486649984359741,-4.048099917283654
1788800330604912400,8.811912353515625,-0.48207785264775155,0.048019642281532285,-5.674034647208452
1788800330614881300,8.82188134765625,-1.4139368238419294,0.9735650464147328,-6.792540663999318
1788800330624851500,8.8318515625,-1.0136809298343956,1.2537807486772536,-6.496385634326934
1788800330634821400,8.8418212890625,0.8528105689205229,1.196063888245821,-5.196850850212574
1788800330644790500,8.85179052734375,1.0164075783193112,1.2179109783947466,-4.315800421366095
1788800330654760400,8.861760498046875,-0.29164149777069687,1.513551044282317,-4.148023349803686
1788800330664730400,8.87173046875,-1.0912876088671386,1.2834066561341284,-3.995279596722126
1788800330674699300,8.88169921875,-1.593991631566733,0.8364753740608691,-3.7892116652101278
1788800330684669200,8.891669189453125,-1.6639308447115122,0.20500527071654795,-3.3787890358448025
1788800330694638300,8.901638427734374,-2.1764659410737455,-0.5492103378087282,-2.8667572128295897
1788800330704608500,8.9116083984375,-1.7992554070889948,-1.352056413990259,-2.158300900438428
1788800330714578400,8.921578369140626,-0.6982451533697545,-1.9268910223990678,-1.1413543929368257
1788800330724547300,8.93154736328125,-0.31780455142259595,-2.068369869622588,-0.2539899586379528
1788800330734517200,8.941517333984375,-0.4113562569536268,-2.1508862402677535,0.1611316421985626
1788800330744487200,8.951487060546874,-0.022981501006335017,-2.0128081413984296,0.5258136801302433
1788800330754456300,8.961456298828125,0.7049218546546995,-1.8773434398978948,0.5331430001050234
1788800330764426500,8.971426513671876,0.8880554853029549,-1.6108172402918337,0.0014665654212236404
1788800330774396400,8.981396484375,0.3694996673464775,-1.5206331114977598,-0.6525427019894122
1788800330784365300,8.991365234375,-0.24051263742744922,-1.6631752040386198,-1.1065887845039366
1788800330794335500,9.00133544921875,-0.3531650570087135,-1.6796031917482614,-1.332858377045393
1788800330804304400,9.011304443359375,0.0963609177328646,-1.1921668808072805,-1.6814157941281795
1788800330814274300,9.0212744140625,0.323799554053694,-0.4362923991590738,-2.553455818045139
1788800330824244200,9.031244140625,-0.5337830515742301,0.13401099556088447,-3.7832308372348544
1788800330834213400,9.04121337890625,-1.8998278050370514,0.08141688497066497,-4.540075040698051
1788800330844183600,9.05118359375,-2.3085716875351965,-0.4035492364645004,-4.688262445649505
1788800330854153500,9.061153564453125,-1.5474813709348438,-0.8583142809033394,-4.562149509862065
1788800330864122400,9.071122314453126,-1.4161756888099013,-0.8316291030734777,-4.326318892771005
1788800330874092300,9.08109228515625,-1.2548872486144305,-0.6616396161586046,-3.8903473961293695
1788800330884061400,9.0910615234375,-0.922067352759093,-0.666433864697814,-3.6226720264881846
1788800330894031400,9.10103125,-0.16878303373456,-0.8960627045392989,-3.3121979640841483
1788800330904001300,9.111001220703125,-0.1261808864571154,-0.757011376723647,-2.661429286029935
1788800330913970400,9.120970458984376,-0.13571955304443836,-0.18852701412439346,-1.5427338841468095
1788800330923940400,9.1309404296875,0.08196648167744279,0.291188931697607,-0.5991869593769311
1788800330933910300,9.14091015625,-0.17695859527513383,0.6180968270301819,-0.2295820780903101
1788800330943879400,9.15087939453125,-0.8300980941139161,0.7535989379316568,-0.5084165551275015
1788800330953849300,9.160849365234375,-1.3018483217537402,1.1139648662298918,-1.3303566233575344
1788800330963818200,9.170818359375,-1.8698524996206163,1.985474144271016,-2.356749004596472
1788800330973788200,9.1807880859375,-1.8728025815978646,2.027260737381875,-3.3386505022019146
1788800330983758300,9.19075830078125,-1.3405255506724119,1.5812404326736926,-3.758004041519761
1788800330993727500,9.2007275390625,-1.1644551364086568,1.3233061203241347,-3.507840947693586
1788800331003697400,9.210697509765625,-1.3718658608317373,1.2001198856383561,-3.304035115894675
1788800331013667300,9.220667236328126,-1.2883552184522151,1.1085820041477679,-3.2915596652030943
1788800331023636200,9.23063623046875,-0.7616559876590967,1.561229910302162,-3.386466730865836
1788800331033606400,9.2406064453125,-0.6457429588466882,2.499376437333226,-3.6837919733613727
1788800331043575300,9.2505751953125,-1.0468623378157615,3.41455563801378,-3.816313022625446
1788800331053545200,9.260545166015625,-1.8392394808225332,4.261406567877531,-3.440949431681633
1788800331063515400,9.270515380859376,-1.916872755601257,5.1019057906270024,-2.340634320619702
1788800331073484500,9.280484619140625,-1.1734784008197485,5.270339280271529,-0.8206079428434372
1788800331083454500,9.290454345703125,-0.43172319154739375,4.268963559128344,0.48254094011485577
1788800331093424400,9.30042431640625,0.5248533106654882,4.883848730635643,1.2864859174489973
1788800331103393300,9.310393310546875,0.8147073404975235,4.627517761829496,3.1684137625277042
1788800331113363200,9.32036328125,0.6961493501342833,3.442919854971766,4.7510085324198
1788800331123332400,9.330332275390624,0.918551015201211,2.454956280848384,5.580328189507126
1788800331133302500,9.340302490234375,0.682314155396819,1.474693782621622,5.823836501619219
1788800331143272400,9.3502724609375,0.21440737837739288,0.9668566348172724,5.890336972486972
1788800331153241300,9.360241455078125,0.09357092168815434,0.6444857983924448,6.035511751618981
1788800331163211300,9.370211181640625,0.4312812929987907,0.37093817571699617,6.248565304234623
1788800331173181700,9.380181640625,0.3644261634744704,0.7579296606123447,6.629806847301126
1788800331183150800,9.39015087890625,0.5665093361992388,0.6489844249859452,7.012011097919941
1788800331193121000,9.40012109375,1.078040735411644,-0.06554185496866703,7.058223398518562
1788800331203090000,9.41008984375,1.0406424403876064,-0.45119083921387787,6.620858986213803
1788800331213059800,9.420059814453126,0.9814216051340102,-0.6088827162221073,6.078693890741467
1788800331223029800,9.43002978515625,0.9570207388490438,-0.4722312891550362,5.500989279854298
1788800331232999000,9.4399990234375,1.3588076418161392,-0.4286868925914168,4.494232157933712
1788800331242968800,9.44996875,1.7177138728253543,-0.45542292382568117,3.1376234874665734
1788800331252938800,9.459938720703125,1.9596751016259193,-0.38724136800318953,1.980447840541601
1788800331262907600,9.46990771484375,1.713827679041773,0.17545345140919089,1.6103595596522091
1788800331272877800,9.4798779296875,1.5676001759864389,0.30422289305478334,1.7723995488673447
1788800331282847000,9.489846923828125,1.28193073836267,0.4820309447661042,2.3817232868552205
1788800331292817000,9.49981689453125,1.3701767387010155,0.20449746732488272,2.97679170499742
1788800331302786800,9.509786865234375,1.7915110765725373,-0.32942338528484105,2.914597406890988
1788800331312755700,9.519755615234375,1.9008786292642355,-0.6352101666554808,1.8881044878870248
1788800331322726000,9.529725830078124,1.534818727108091,-0.2982071398966014,0.740273007890582
1788800331332694800,9.53969482421875,1.3794905104912816,0.7132968842901289,0.3027098581433296
1788800331342665000,9.5496650390625,1.5014707303881645,1.5234469998747109,0.9526976149529218
1788800331352635000,9.559634765625,1.8767454740047453,1.7791621748700737,2.513578565686941
1788800331362603800,9.569603759765625,2.437538697579503,1.4552446935251355,3.945125280499458
1788800331372574000,9.579573974609374,2.5158386195734144,1.307121293720603,4.7460395118355745
1788800331382544000,9.5895439453125,2.27939220867157,1.0273580114006995,4.814691607779264
1788800331392512800,9.5995126953125,1.7595460586436091,0.6333662923544645,4.0380227599054574
1788800331402482700,9.609482666015625,1.0868681849896906,0.14107231224924324,2.433696635198593
1788800331412451800,9.619451904296875,0.2175298212468624,0.07864157503843307,0.34291444275975225
1788800331422422000,9.629422119140624,-0.8378823182493448,0.655081572817266,-1.8095190269500017
1788800331432392000,9.639391845703125,-1.6978588332764804,1.9532529596239327,-3.527473868924379
1788800331442360800,9.64936083984375,-1.5170131674349308,3.4621780976712704,-3.7826673581331964
1788800331452330800,9.659330810546875,-1.234216216507554,3.7239658705785867,-4.4073108303278685
1788800331462300700,9.66930078125,-0.8355904079198837,4.137676727834344,-6.911628231194615
1788800331472269800,9.679269775390624,-0.7046525361940265,4.474101808574796,-8.339899285337328
1788800331482240000,9.689239990234375,-0.4959475341767072,2.9299180178806186,-7.954834969112277
1788800331492209000,9.699208984375,-0.13094663955420255,1.1933461537197232,-6.914422830349206
1788800331502178800,9.7091787109375,0.2738800695002079,-0.6128443133294582,-5.335885811415315
1788800331512148700,9.719148681640625,0.4100727930143475,-1.758941224618256,-4.673765133741497
1788800331522118000,9.729117919921874,0.1992936150714755,-1.8922206910341977,-4.571373849803209
1788800331532087800,9.739087890625,-0.2799810167238116,-1.5169924169078468,-4.951110249003768
1788800331542057700,9.7490576171875,-0.5778600937098264,-1.5637147128552198,-5.373872719982266
1788800331552026600,9.759026611328125,-0.3350578840404749,-1.8700778328090906,-5.49897034124732
1788800331561997000,9.7689970703125,0.18560791180729866,-1.683273989215493,-5.142295084160566
1788800331571966000,9.778966064453124,0.22319763775020837,-1.0389590173453092,-4.575585330018401
1788800331581935900,9.788935791015625,-0.3509498651772737,-0.5531041303768753,-4.166975887554884
1788800331591905800,9.79890576171875,-0.5261027262046933,-0.48140141469091174,-3.7906554342776535
1788800331601875000,9.808875,0.1791869388490915,-0.6363333254665136,-3.2093484149843454
1788800331611844900,9.818844970703125,0.9782388834446668,-0.5190849563971162,-2.4814345379292964
1788800331621813800,9.828813720703126,1.1536147395730019,0.10098170940130949,-1.6918676300376652
1788800331631784000,9.838783935546875,1.2452952444046734,0.5754281903877854,-0.9688783499032259
1788800331641753900,9.84875390625,1.426429225668311,0.8615268132090568,-0.3689110538035631
1788800331651723000,9.858722900390624,1.3835571754083036,1.0980760999634862,0.03354395768344402
1788800331661693000,9.86869287109375,0.9748547939643263,1.1287716824784875,0.26762977693378925
1788800331671662800,9.878662841796874,0.20182021093964575,1.1644818782851099,0.4249561816304922
1788800331681631700,9.8886318359375,-0.39777752119526266,1.5812652748540044,0.7785901713252067
1788800331691601700,9.8986015625,-0.42682168324142694,1.7785151091381906,1.2936509867727757
1788800331701570800,9.90857080078125,0.05147182856202125,1.3470619667038322,1.6262299134790896
1788800331711541000,9.918541015625,0.37440672861039637,0.8590889185376465,1.503513634392619
1788800331721511000,9.928510986328124,0.31037659337893125,0.5990946049183606,1.361120594933629
1788800331731479800,9.938479736328125,0.6462883177697658,0.6011879239358008,1.9015677805721758
1788800331741449700,9.94844970703125,1.0574851463779806,0.7377218621030449,3.001176204669475
1788800331751420000,9.958419921875,0.9330683469839394,1.011582934641838,4.159024051767587
1788800331761388800,9.968388916015625,0.5316828644245862,1.3651504349716006,5.165815075957775
1788800331771359000,9.97835888671875,0.5852963811904192,1.1829190138600767,5.650281431177258
1788800331781328000,9.988327880859375,0.8244564349651337,0.3911281463086605,5.10612545414865
1788800331791297800,9.9982978515625,0.7211258243501186,0.0405194957844913,3.7120343175053594
1788800331801268000,10.00826806640625,0.33881650592163204,0.08337240295261145,1.9006570954680442
1788800331811236900,10.01823681640625,0.4161855768062174,0.03562587852403521,0.48143093304634094
1788800331821206800,10.028206787109376,1.0338387517221272,-0.016340747817605732,0.07688742484748363
1788800331831175700,10.03817578125,0.8655705356419086,0.5446178954519331,0.6468547194808721
1788800331841145900,10.048145751953125,-0.08166866777464747,1.8083572896942495,1.8151397894412278
1788800331851116000,10.058115966796874,0.24960312185585498,1.9417678351439533,2.5744535978883505
1788800331861085000,10.0680849609375,1.1352782878935337,0.9212208189323544,2.9311633417665957
1788800331871054800,10.078054931640626,1.5228979876898228,0.1976788733512163,3.127393185353279
1788800331881024800,10.088024658203125,1.420214150545746,-0.020104338134825227,2.585181328129768
1788800331890994000,10.097993896484375,0.9901170988954603,0.11956921323239803,1.766716242533922
1788800331900963800,10.1079638671875,1.0049265454925596,0.2713382760629058,1.2594091099530458
1788800331910932700,10.1179326171875,0.7160666412644088,0.4001099096655845,1.1755308033049106
1788800331920903000,10.12790283203125,0.5872440081268548,0.3479468839690089,1.393843883883953
1788800331930872800,10.137872802734375,0.6227170341767371,0.15887421866059304,1.8897505015283822
1788800331940842000,10.147842041015625,0.44768005461394783,-0.07343669987171889,1.928884242042899
1788800331950812000,10.15781201171875,0.5155179115653038,-0.40903205178976054,1.4613742823213338
1788800331960781800,10.16778173828125,0.6053478200942277,-0.4934054484784603,0.7355985863387584
1788800331970750700,10.177750732421876,0.5834902085512876,-0.41350773589909073,-0.23738310723006725
1788800331980720600,10.187720703125,0.5129819633468985,-0.37609307426214217,-1.1708569662749766
1788800331990689800,10.197689697265625,0.4781289688915014,-0.48501171414256095,-2.140595732399821
1788800332000660000,10.207659912109374,0.2258003675945103,-0.7552589800983667,-2.972302576884627
1788800332010630000,10.2176298828125,-0.007713789247721433,-1.0517936567381023,-3.5754935112059116
1788800332020598800,10.227598876953126,-0.3039797319486737,-1.315836222834885,-3.8378579149574037
1788800332030569000,10.23756884765625,-0.4798936404764652,-1.2438269254177807,-3.8543636440783735
1788800332040537900,10.247537841796875,-0.48152650237530464,-0.7864069825559854,-3.8664655852824446
1788800332050507800,10.2575078125,-0.6364210037499666,-0.12245850493311881,-4.248830579420924
1788800332060478000,10.26747802734375,-0.6666149203531444,0.5632023305431008,-4.864646017515659
1788800332070446800,10.27744677734375,-0.4329487878195941,0.7301528881534933,-5.223948700496554
1788800332080417000,10.2874169921875,0.2896247511208057,0.5063382875487208,-4.981516493183374
1788800332090386000,10.297385986328125,0.6338134516000747,0.5087526552140712,-3.943887263137102
1788800332100355800,10.30735595703125,0.0416577060341835,0.8930757976830005,-2.7360277231574055
1788800332110325800,10.31732568359375,-0.2916302457243204,0.9669111414834857,-2.0228017121464013
1788800332120295000,10.327294921875,-0.3395022962287068,0.8627218682125211,-1.6132365763932466
1788800332130264800,10.337264892578125,-0.3989167543582618,0.6336442325130105,-1.3189566929429768
1788800332140235000,10.347235107421875,-0.5016331785976886,0.25823534112274643,-1.0050438882619142
1788800332150204000,10.357203857421876,-0.45680824070423837,-0.08923515750616788,-0.8187602691501379
1788800332160173800,10.367173828125,-0.10781126316040754,-0.21425883675217627,-0.7565940280944109
1788800332170143000,10.37714306640625,-0.026063684930652378,-0.12474866169691085,-0.891847717192769
1788800332180112400,10.3871123046875,0.1059517528988421,0.022213293112814426,-0.9525672665715217
1788800332190082300,10.397082275390625,0.011601005944609642,0.10934183372855186,-0.5256880079239606
1788800332200051200,10.40705126953125,0.17307576249241827,0.11972615735977887,0.3475128764659166
1788800332210021400,10.417021484375,0.31092472878098487,0.09704816934466362,1.1382792232751846
1788800332219990500,10.426990478515625,0.033548049336671826,0.18485913926661013,1.7920061666131017
1788800332229960400,10.43696044921875,-0.23234277497529982,0.185172735260427,2.2731933540314433
1788800332239930400,10.446930419921875,-0.07985095082819461,0.11104016207903623,2.5356203016251326
1788800332249899300,10.456899169921876,0.18759177910089492,-0.028205519264936446,2.621211841931939
1788800332259869400,10.466869384765625,0.18939035295546053,-0.17671674934327603,2.798610728320479
1788800332269839400,10.47683935546875,0.4080981319405138,-0.5602300367340445,2.8584277759015557
1788800332279808300,10.486808349609374,0.6601438246428966,-0.9921052039727568,2.612628722503781
1788800332289778400,10.4967783203125,0.5266555377818644,-0.9131599698126316,2.2096698531478642
1788800332299747600,10.50674755859375,0.2422537820063531,-0.5098232070550323,1.9595178652375935
1788800332309717500,10.516717529296875,-0.14547113173007964,-0.22304683110266924,2.099806041371822
1788800332319687400,10.5266875,-0.3035929245881736,-0.07724544450491666,2.6007670197963715
1788800332329656300,10.53665625,-0.24671660663411019,-0.033005613023042675,2.5190216335237023
1788800332339626200,10.546626220703125,-0.40116307198032736,0.37829029204547404,1.7977561084419489
1788800332349595400,10.556595458984376,-0.26328078794404863,0.6106427116319537,0.9152005357295274
1788800332359565600,10.566565673828125,0.189570385697484,0.41165129437744613,0.16412088714241982
1788800332369535500,10.576535400390625,0.4313315618813038,0.32276217382997274,-0.09456745844483375
1788800332379504400,10.58650439453125,0.0724647860996425,0.5063315655469894,-0.11523732150793074
1788800332389474300,10.596474365234375,-0.0637391894608736,0.7682879730194807,-0.08058043414652347
1788800332399443500,10.606443359375,0.10931742993965744,1.077397176811099,-0.03151566672623157
1788800332409413400,10.616413330078124,0.1321358493387699,1.3138304359704256,0.1801899784117937
1788800332419383300,10.62638330078125,0.29620588307678697,0.9269237067490815,0.5874959370613098
1788800332429352200,10.636352294921876,0.7500720789797604,0.25261340958774087,0.7650736871480941
1788800332439322400,10.646322265625,0.6977345734991133,0.2132403073593974,0.4315262076705694
1788800332449292500,10.65629248046875,0.05613762841597199,0.8496101654440164,0.07591945659816264
1788800332459261400,10.666261474609374,-0.5980592705212533,1.3342863640218972,-0.0379804788261652
1788800332469231400,10.6762314453125,-0.14279226790964603,0.9975602545082568,-0.15342179847359658
1788800332479200300,10.6862001953125,0.4475993905931711,0.9205123784020542,-0.24754618932604788
1788800332489170400,10.69617041015625,0.5734951764985918,1.0412021200969814,-0.16287819360494613
1788800332499140600,10.706140625,0.6392801925733685,1.1467200116232037,0.22470716553032397
1788800332509109500,10.716109619140624,0.9287176044285297,0.8581704885184764,0.6377478684395551
1788800332519079400,10.726079345703125,1.3277581312969327,0.26731910354942084,0.9045107994109391
1788800332529048300,10.73604833984375,0.6396190691389143,0.10691577562540769,0.971024714282155
1788800332539018500,10.7460185546875,-0.2470217270605266,-0.33790713599175215,0.6346247679829597
1788800332548988400,10.755988525390626,-0.11847250403687357,-1.2086632575780152,-0.1584831735163927
1788800332558957300,10.765957275390624,0.9275656579144298,-1.5896902811110019,-1.5287836847275496
1788800332568927200,10.77592724609375,0.9778561677373945,-0.7008233332946896,-3.4097038140684366
1788800332578896400,10.785896484375,0.04123012827187776,0.7114341591581702,-4.4548657777070995
1788800332588866600,10.795866455078125,0.23490502667874097,1.6568559378892183,-4.022095707455277
1788800332598836500,10.80583642578125,0.6478823089629411,1.6276663760229944,-2.8427620047360658
1788800332608805400,10.815805419921874,0.09624036009311676,1.0270040833964944,-1.664866810387373
1788800332618775300,10.825775390625,-0.17971446985453365,0.6880871858403086,-0.7681734067291021
1788800332628744400,10.835744384765626,0.03529284717738628,0.6859957665190101,-0.6565402471929788
1788800332638714400,10.84571435546875,0.48673868406563997,0.44477322725653645,-1.0765145487576722
1788800332648684500,10.8556845703125,1.140695344506204,-0.14943068301081658,-1.5354489878356457
1788800332658653400,10.8656533203125,1.2644967884808778,-0.17326836245507002,-1.9813257924199104
1788800332668623400,10.875623291015625,0.9627484688460827,0.34492227545082565,-2.46053963393867
1788800332678593300,10.88559326171875,1.1250205132514237,0.6149500534370541,-2.927818707513809
1788800332688562400,10.8955625,1.4449503862649202,0.4899608609825372,-3.0046406659096476
1788800332698532400,10.905532470703125,1.17648298946321,0.4850403557151556,-2.2677269053190945
1788800332708501200,10.915501220703124,0.3614554771006107,0.6083852880939841,-0.7597416784703731
1788800332718471200,10.92547119140625,0.30680852563381195,-0.016902911745011805,0.8013432704031467
1788800332728441600,10.935441650390626,1.1136579922378063,-0.6757949827611446,1.7986790685057639
1788800332738410500,10.945410400390625,0.936242154714465,-0.30744945388585326,2.1449965977072716
1788800332748380400,10.95538037109375,0.07794862433820962,0.675488401030004,1.9218933602422474
1788800332758349300,10.965349365234376,-0.13849895462989806,0.6416644573614001,1.3594623063325881
1788800332768319500,10.975319580078125,0.8311258297264575,-0.43152182375639675,0.8466390406787395
1788800332778289400,10.985289306640626,2.071682355171442,-0.8503013625785708,0.16534838311076164
1788800332788258300,10.99525830078125,1.4048217894941568,0.5930889347627759,-0.5251484942197799
1788800332798228500,11.005228515625,0.4006928241200745,1.8339847751647234,-0.6515823325246572
1788800332808197400,11.015197265625,0.49607671351432797,1.778382130408287,-0.07189736147522927
1788800332818167600,11.02516748046875,0.7495154680103063,1.2335676894709466,0.7184662497520447
1788800332828137500,11.035137451171876,0.6364218805328011,0.7789207184538245,1.145482871043682
1788800332838106400,11.0451064453125,0.3102121965974569,1.0631149689584969,0.605462970906496
1788800332848076300,11.055076171875,-0.23161095356941222,1.315437286645174,-0.32104221816956996
1788800332858045400,11.06504541015625,0.12845336143374442,0.8332350769653916,-0.45749183905422686
1788800332868015400,11.075015380859375,1.0308248107284308,-0.023047698110342026,0.28847791917324067
1788800332877985500,11.084985595703126,1.1444172876387835,-0.34161768094748257,1.0389110865503548
1788800332887954400,11.094954345703124,0.29817586797550316,0.11353285567760467,0.9465420149326323
1788800332897924400,11.10492431640625,-0.36177754866182804,0.5529504011198878,0.5695236425191164
1788800332907893500,11.1148935546875,-0.1642262472130358,0.35009354060888287,0.7359305947721004
1788800332917863400,11.124863525390625,0.5413754063993692,-0.433289417950809,0.9441004669994115
1788800332927833300,11.134833251953125,0.4566555343605578,-0.5743161374926566,0.8880547546505928
1788800332937802200,11.14480224609375,0.054765609410405154,-0.3765019473239779,1.1361977408260107
1788800332947772400,11.1547724609375,-0.21530176993384956,-0.1975871034145355,1.9397382290124892
1788800332957741600,11.164741455078126,-0.4598449780516326,-0.2789420290648937,2.674976749867201
1788800332967711500,11.17471142578125,-0.07835062926784157,-1.21347533403486,2.064024533894658
1788800332977681400,11.184681396484375,0.4391495421558618,-1.8024477733895181,0.42565877694189547
1788800332987650300,11.194650390625,0.5081178644418716,-1.5498054299682378,-1.1000216810733079
1788800332997620200,11.2046201171875,0.10351984957680106,-1.024675640448928,-1.6734084287613629
1788800333007589400,11.21458935546875,0.5459742784969508,-0.8877095944747329,-1.3481015388846396
1788800333017559300,11.224559326171875,-0.18160729786381125,0.051854398138821124,-1.012422308075428
1788800333027529500,11.234529541015625,-1.2992834397017956,1.03312022818923,-0.9281313289731741
1788800333037498400,11.244498291015624,-1.2014677931159734,0.8017153185859323,-0.653942047393322
1788800333047468500,11.254468505859375,0.04843874447643757,-0.17473960405141115,-0.2811912692964077
1788800333057437400,11.2644375,0.19862287620306013,-0.3321934345200658,-0.24867080944180486
1788800333067407400,11.274407470703125,-0.5590881732225418,0.3010448475405574,-0.3510129935413599
1788800333077377300,11.284377197265625,-1.0737458146966994,0.8179387236341834,-0.6207610778033733
1788800333087346400,11.294346435546874,-0.9222630214616656,0.7921586779505014,-0.7281856797337531
1788800333097316600,11.304316650390625,0.12642843147739768,0.1663601905018091,-0.9227472978472709
1788800333107285500,11.314285400390625,0.1594378438927233,0.009549918633699417,-1.198067044761777
1788800333117255400,11.32425537109375,-0.3924854061365127,0.26880992662906644,-1.7032681449741125
1788800333127225300,11.334225341796875,-0.8151970237106084,0.762542999626696,-2.459592708477378
1788800333137194500,11.344194580078126,-0.9273960004359483,0.550682163926959,-2.607067581245303
1788800333147164400,11.354164306640625,-0.570609684190154,-0.22349662069678305,-1.9313252054542303
1788800333157133300,11.36413330078125,-0.5916968958824873,-0.4389893831580877,-1.551121773263812
1788800333167103200,11.374103271484374,-0.8680699512422084,0.10977291862219571,-1.4959493366181849
1788800333177073200,11.3840732421875,-0.45970951510369773,0.6199459620282054,-1.1822487133830786
1788800333187042300,11.394042236328126,-0.0725233844190836,0.777722448579967,-0.42796354675292964
1788800333197012200,11.40401220703125,0.37308863174915313,0.17774346204251049,0.41281916911303995
1788800333206982400,11.413982421875,0.23460253660082817,-0.031276305012404915,1.1584423058599234
1788800333216951300,11.423951416015624,-0.2551749306388199,0.39200405236035585,1.9924568427652118
1788800333226921200,11.433921142578125,-1.0329308430969715,0.8063906169205903,2.8571856668859716
1788800333236890400,11.443890380859376,-0.8835843312382697,0.16219781012535095,3.6567239336937662
1788800333246860300,11.4538603515625,0.39933834077119823,-1.512538360108435,3.323051366531849
1788800333256830200,11.463830322265625,0.8336435116358101,-1.7780694111973046,1.7119202379852532
1788800333266799000,11.473799072265624,-0.022918957164138554,-0.5750701707303524,-0.05149228682816028
1788800333276769300,11.483769287109375,-0.20629574891850352,-0.03695815004110336,-0.7078641917169094
1788800333286738200,11.49373828125,1.1277876398772,-0.40825200732797384,-0.44386195763051506
1788800333296708400,11.503708251953125,0.32961072455048557,0.25736381898522376,-0.4372755649775266
1788800333306677200,11.51367724609375,-1.4017694161862133,1.39583564222306,-0.15445815578401087
1788800333316647200,11.523647216796874,-1.1490407096557318,1.1588108469113707,0.9940893635272979
1788800333326617300,11.533617431640625,-0.3708027127690613,0.2625868143305182,1.4770838926285503
1788800333336586200,11.543586181640626,-0.911872268089652,0.24538725772649048,0.5473796152502298
1788800333346556200,11.55355615234375,-1.6054858161360024,1.0244096829891205,-0.6171387956529856
1788800333356525000,11.563525146484375,-1.6373825911343096,1.8078174837291239,-1.33467273299098
1788800333366495500,11.57349560546875,-1.0215716830842196,2.3085203957393765,-1.7082348274707793
1788800333376465400,11.58346533203125,-0.1348065298527479,2.597030171355605,-1.8490502423495052
1788800333386434300,11.593434326171876,0.1739439236290753,2.7407594278544187,-1.5354028106063604
1788800333396404200,11.603404296875,-0.1872143240906298,2.635589619113505,-1.0386638337910175
1788800333406373400,11.613373291015625,-0.7790589578807353,2.5031413428246974,-0.9815683201283216
1788800333416343300,11.62334326171875,-1.2255601779736578,2.6546993932530283,-0.6299754808723926
1788800333426313200,11.633313232421875,-1.072295323627442,2.377282089537382,0.3618704876422882
1788800333436282000,11.6432822265625,-0.6027985740028321,1.5781152863904833,1.055205218747258
1788800333446252300,11.653252197265624,-0.5284082266680896,1.1515864486157894,1.0678355677396059
1788800333456221400,11.663221435546875,-0.17999124096930025,1.0757394727319478,0.8126099298268556
1788800333466191400,11.67319140625,-0.40462285704538226,1.4906550296023486,0.6887906579345464
1788800333476161300,11.683161376953125,-0.4178827361129224,1.5680962889403103,1.3576122945517302
1788800333486130200,11.693130126953125,0.1804202800363302,0.6096063543215393,2.025436152303219
1788800333496100000,11.70310009765625,0.4655737309619784,-0.1674915326192975,2.389730652222037
1788800333506069200,11.7130693359375,0.5459405223578214,-0.432194608451426,2.4170097042918206
1788800333516039400,11.723039306640626,0.11693477307558059,-0.38886896920502184,2.1656325585007665
1788800333526009300,11.73300927734375,-0.2783196593828499,0.012378127796947955,2.0628952376037835
1788800333535978200,11.742978271484375,-0.8039953923471271,0.22057021185606718,1.8438368916153907
1788800333545948200,11.7529482421875,-0.49156829617917536,-0.12970774540901184,1.3336954123914242
1788800333555917300,11.762917236328125,0.09861132700815796,-0.1719789071664214,0.6851748055249453
1788800333565887200,11.77288720703125,-0.011792144602537155,0.3075374244302511,0.0812111332654953
1788800333575857200,11.782857177734375,-0.4990345404066145,0.7425617033496499,-0.48366556023061275
1788800333585826000,11.792825927734375,-0.8947707650326192,1.0588082116752862,-1.0024661467283964
1788800333595796200,11.802796142578124,-0.9651179744563996,1.3961577137842773,-1.252105508941412
1788800333605765400,11.812765380859375,-0.6240424375616014,1.3607827412813902,-1.1216191803753375
1788800333615735300,11.8227353515625,-0.1643206474982202,1.184847497704625,-0.13889935212433338
1788800333625705200,11.832705322265625,0.09603168577849865,0.7866217943504452,1.2019856795102357
1788800333635674000,11.842674072265625,-0.6552694966048002,0.88201722805202,1.885423870500922
1788800333645644300,11.852644287109374,-0.9985619788967073,1.1845046756163238,1.4259335511058568
1788800333655613200,11.86261328125,-0.934291605168581,1.3350997262313962,0.4117962558060884
1788800333665583400,11.872583251953126,-0.34592999118864537,1.5040569474890828,-0.035551205852627756
1788800333675553300,11.88255322265625,0.05627250684201717,1.3165408639729022,-0.4379401663661003
1788800333685522400,11.8925224609375,-0.2655563316605985,1.3417436942905188,-0.7716431286662817
1788800333695492400,11.902492431640624,-0.5920242281407118,1.56630648291409,-0.7212403906404972
1788800333705461200,11.912461181640625,-1.6744279810674487,2.2492262029886243,-0.8993857114821672
1788800333715431200,11.92243115234375,-1.6335802762418985,2.4416107693240043,-0.5861334165364503
1788800333725400300,11.932400390625,-0.3064870385944843,1.33084031522125,0.06978080771267414
1788800333735370200,11.942370361328125,0.11413827422484756,0.7720636921659112,1.1812760689586401
1788800333745340400,11.95234033203125,-0.872506618515402,1.4290394081667064,2.2377432704657316
1788800333755309300,11.962309326171875,-1.8482408256627618,1.9536440047681332,2.618179342368245
1788800333765279200,11.972279296875,-1.139699611467123,1.6305705730319022,2.203618298023939
1788800333775248400,11.982248291015624,0.3051889616079628,1.0389604786500335,1.3748136047214268
1788800333785218300,11.99221826171875,1.1431215487398207,0.678597472961247,0.610851093685627
1788800333795188200,12.002188232421876,0.5119640184760094,0.7691165327981114,-0.3055763534903526
1788800333805157000,12.0121572265625,-0.7033676109500229,1.0121654107049107,-1.1783382619410752
1788800333815127300,12.022127197265625,-0.4933306296765804,1.1441340867832301,-1.282995152723789
1788800333825096400,12.032096435546874,-0.02900397616624832,1.357543320968747,-1.2051485274553297
1788800333835066400,12.04206640625,-0.673294982638955,2.3554010971188544,-0.8003092511802912
1788800333845036300,12.052036376953126,-0.8517775726109743,2.872515922486782,0.10770926409065723
1788800333855005200,12.062005126953125,-0.028146920945495365,2.0153876364976164,0.8930290359318256
1788800333864975000,12.07197509765625,0.7910475018382072,1.2550900777101517,1.7924474806398152
1788800333874944300,12.0819443359375,0.5674637873798608,0.9332721989929675,2.686778246819973
1788800333884914200,12.0919140625,-0.1204547638952732,0.651765580137074,3.656009647944569
1788800333894884400,12.10188427734375,-0.1793662409387529,0.4364455438941717,4.303065442955494
1788800333904853200,12.111853271484375,-0.28983225639164445,0.6700514706730842,3.8687230088204143
1788800333914823200,12.1218232421875,-0.2806708986841142,0.6766784875974059,2.4232068053662776
1788800333924792300,12.131792236328126,0.28182752137333156,0.05969663607180118,1.031467784807086
1788800333934762200,12.14176220703125,0.4399830703705549,-0.19425357507765292,-0.3206476658940315
1788800333944731100,12.151731201171875,-0.4283014004051685,0.6187938693836331,-1.9473095410495995
1788800333954701300,12.161701416015624,-0.8587579330176115,1.7101693026646971,-3.3639760821163653
1788800333964671500,12.17167138671875,-0.8473812373481691,2.3131638376310466,-3.8843607229351993
1788800333974640400,12.181640380859376,-0.27468407935947176,1.718226060131192,-3.3701842891067266
1788800333984610300,12.1916103515625,-0.18206687819957731,1.554844008657336,-2.087875949603319
1788800333994579200,12.2015791015625,-0.18647358872592448,1.6141332329720257,-0.6192296304523944
1788800334004549400,12.21154931640625,-0.20309797579050062,0.9437968078777194,0.07758242137432098
1788800334014519300,12.221519287109375,-0.2918178772509098,0.9405588488698005,0.3943640594899654
1788800334024488200,12.23148828125,-0.3579544832423329,1.2264420753747225,0.5320137038141489
1788800334034458000,12.2414580078125,-0.2788775855265558,1.4865318121924995,0.6852192291885614
1788800334044427300,12.25142724609375,-0.09186930540204048,1.5663281102240085,0.5661924522697925
1788800334054397400,12.2613974609375,-0.0020499182671308517,1.513092194598913,-0.11486205845475196
1788800334064367400,12.271367431640625,-0.20564999836087225,1.6837334234207868,-0.9641191726773977
1788800334074336300,12.281336181640626,-0.5214892410598695,2.0103899743407965,-1.0346721338063478
1788800334084306200,12.29130615234375,-0.25369243699610233,1.703849159732461,-0.7300310153394937
1788800334094275300,12.301275390625,-0.349960854139924,1.5113105718791484,-0.8928414044052362
1788800334104245200,12.311245361328124,0.48797757821083065,1.2161056825384498,-0.9444067564696073
1788800334114215400,12.32121533203125,1.0728808684304356,1.3351891580805182,-0.3995277258634567
1788800334124184300,12.331184326171876,0.6874526873290538,2.033819072984159,0.8455062372565268
1788800334134154200,12.341154296875,0.6066247081622481,1.7859028813019393,2.3285487460285426
1788800334144123400,12.351123291015625,1.013765247116983,0.4213134412139654,3.6341976291090248
1788800334154093300,12.36109326171875,1.0267243896722793,-0.30489743131548164,4.254243252119422
1788800334164062200,12.371062255859375,0.766454035590589,-0.2322676639124751,3.8390485860466956
1788800334174032100,12.3810322265625,-0.18555851970762013,0.21097762312442064,2.5671950050622225
1788800334184002000,12.391001953125,-0.9235510154455899,0.582504704645276,1.54955876173079
1788800334193971200,12.40097119140625,-0.458603015166521,0.3374006477743387,1.0310638801813126
1788800334203941000,12.410941162109374,0.58579848549366,0.04110562510937452,0.11281447827517986
1788800334213910000,12.420909912109375,0.4685815344758332,0.6887424348786473,-1.2801830179125069
1788800334223880000,12.4308798828125,-0.39040070881694555,1.6033271767973898,-2.625478851726651
1788800334233850000,12.44085009765625,-0.9696275608353316,2.349939324581623,-3.5942753685653206
1788800334243819000,12.450819091796875,0.3558640868343413,1.8095757255733012,-3.1188638419389725
1788800334253789200,12.4607890625,0.7846861501127481,1.4411469023287296,-1.1807599361300467
1788800334263758000,12.470758056640625,-0.13129355329573153,1.8348107045948505,0.9618032969504594
1788800334273728300,12.480728271484375,-0.34033231731206176,1.2091837743207812,1.6992244225412607
1788800334283697200,12.490697265625,0.22612141624242066,0.46844870187640186,1.2148597741305827
1788800334293667000,12.5006669921875,0.6469098106689751,0.6147896021783351,0.4429261380851269
1788800334303637000,12.510636962890626,0.07508534386157989,1.253832478864491,0.22003625110983846
1788800334313606100,12.520606201171875,-1.361961721932888,2.2205106883749366,0.7655214309155941
1788800334323576300,12.530576416015625,-1.440725608176738,2.3325059592217205,0.8249041787326336
1788800334333545200,12.540545166015624,-0.6555699408560991,1.8882079482614993,-0.42289106579422947
1788800334343515100,12.55051513671875,-0.4004297892697155,2.1285750397384167,-1.26893155605793
1788800334353485000,12.560485107421876,-0.4992233409769833,2.502925946508348,-0.9703583593279123
1788800334363454200,12.5704541015625,-0.94697996795848,2.156340414020419,-1.0115893643826246
1788800334373424000,12.580424072265625,-0.7385188576996325,1.8104165603116154,-1.0308329940348864
1788800334383393000,12.59039306640625,0.030449644929915663,1.7886814061045646,-0.4987777891665697
1788800334393363000,12.600363037109375,0.40454993793964383,1.387176534949243,0.04886953710913658
1788800334403332000,12.61033203125,0.5628678378917277,1.1543018450543283,0.8192565282344818
