time,seconds_elapsed,z,y,x
1788800321841642800,0.048642822265625,-0.2828966975212097,-0.6058180928230286,-1.843981146812439
1788800321851612000,0.05861181640625,-0.3045782744884491,-0.15990503132343292,-1.4022260904312134
1788800321861581800,0.068581787109375,-0.3020886778831482,0.285168319940567,-0.9080244302749634
1788800321871550700,0.07855078125,-0.25021693110466003,0.6460745930671692,-0.39656537771224976
1788800321881520600,0.088520751953125,-0.15810327231884003,0.7884095907211304,0.0786203145980835
1788800321891489800,0.09848974609375,-0.05361093580722809,0.7085299491882324,0.4543214738368988
1788800321901460000,0.1084599609375,0.06947300583124161,0.5340901017189026,0.7382940649986267
1788800321911428900,0.118428955078125,0.1809915453195572,0.41268348693847656,0.9236851930618286
1788800321921398000,0.12839794921875,0.2570771276950836,0.3390093743801117,0.9683780670166016
1788800321931368000,0.138367919921875,0.3002978265285492,0.3407899737358093,0.8748952746391296
1788800321941336800,0.1483369140625,0.33684244751930237,0.400316059589386,0.674156129360199
1788800321951306800,0.158306640625,0.3754391074180603,0.47521933913230896,0.39364752173423767
1788800321961276000,0.16827587890625,0.40062466263771057,0.4892981946468353,0.0625748559832573
1788800321971245800,0.178245849609375,0.39391082525253296,0.4214528501033783,-0.3022254705429077
1788800321981214700,0.188214599609375,0.3462578356266022,0.2596021890640259,-0.6879808306694031
1788800321991185000,0.198184814453125,0.2955866754055023,0.004385060630738735,-1.0843894481658936
1788800322001154000,0.208154052734375,0.275327205657959,-0.31175240874290466,-1.4637926816940308
1788800322011124000,0.2181240234375,0.30538713932037354,-0.5841245651245117,-1.7265838384628296
1788800322021092900,0.2280927734375,0.3755031228065491,-0.7193577885627747,-1.7556577920913696
1788800322031062800,0.238062744140625,0.46751853823661804,-0.6942276954650879,-1.530280351638794
1788800322041032000,0.248031982421875,0.5719325542449951,-0.5610195994377136,-1.09064519405365
1788800322051000800,0.258000732421875,0.6673833727836609,-0.34416115283966064,-0.4951472282409668
1788800322060970800,0.267970703125,0.7603940963745117,-0.066165030002594,0.1614171862602234
1788800322070940000,0.27793994140625,0.8197277784347534,0.18138563632965088,0.7489975690841675
1788800322080910000,0.28791015625,0.828464686870575,0.30018895864486694,1.1660802364349365
1788800322090879000,0.29787890625,0.8137984275817871,0.2969113886356354,1.384891152381897
1788800322100849000,0.307848876953125,0.7564765214920044,0.2216597944498062,1.4056097269058228
1788800322110817800,0.31781787109375,0.6553888320922852,0.16297046840190887,1.2747150659561157
1788800322120788000,0.3277880859375,0.5334769487380981,0.1770981103181839,1.0567638874053955
1788800322130756900,0.3377568359375,0.4196566939353943,0.23479709029197693,0.790860116481781
1788800322140726800,0.347726806640625,0.3215825855731964,0.25827738642692566,0.5246870517730713
1788800322150695700,0.35769580078125,0.2434118092060089,0.1783287227153778,0.2791115939617157
1788800322160665900,0.367665771484375,0.20318396389484406,0.045889995992183685,0.09015657752752304
1788800322170635300,0.37763525390625,0.18185585737228394,0.004461299628019333,0.005079315043985844
1788800322180605200,0.387605224609375,0.1721317321062088,0.1067563146352768,0.03602449968457222
1788800322190574000,0.397573974609375,0.182673841714859,0.2671566307544708,0.15357322990894318
1788800322200544000,0.4075439453125,0.21545876562595367,0.3606572151184082,0.30811765789985657
1788800322210513200,0.41751318359375,0.25416088104248047,0.3164958655834198,0.45274409651756287
1788800322220482000,0.42748193359375,0.2785103917121887,0.1871136873960495,0.576600968837738
1788800322230452000,0.437451904296875,0.2772667109966278,0.07773047685623169,0.6863397359848022
1788800322240421000,0.447421142578125,0.2613481879234314,0.027259310707449913,0.7880913615226746
1788800322250391300,0.457391357421875,0.2401847392320633,-0.01075645349919796,0.8719044327735901
1788800322260360200,0.467360107421875,0.23338596522808075,-0.04699009284377098,0.9287368059158325
1788800322270330000,0.477330078125,0.24997985363006592,-0.04534297436475754,0.94435054063797
1788800322280299300,0.48729931640625,0.2835022509098053,0.03686026856303215,0.920831024646759
1788800322290269200,0.497269287109375,0.32785719633102417,0.15531261265277863,0.881236732006073
1788800322300238000,0.507238037109375,0.36828330159187317,0.23072728514671326,0.8432896137237549
1788800322310208000,0.5172080078125,0.4006550908088684,0.20464907586574554,0.7697275280952454
1788800322320177200,0.52717724609375,0.3883368968963623,0.04507432505488396,0.6033787727355957
1788800322330147000,0.53714697265625,0.31526827812194824,-0.19154061377048492,0.3051188588142395
1788800322340116200,0.5471162109375,0.20682461559772491,-0.35962018370628357,-0.08047650009393692
1788800322350086100,0.557086181640625,0.1130722388625145,-0.39676275849342346,-0.4583086669445038
1788800322360055300,0.56705517578125,0.049004312604665756,-0.3218347430229187,-0.7544375061988831
1788800322370025200,0.577025146484375,-0.002591934287920594,-0.20521055161952972,-0.944135844707489
1788800322379994000,0.586994140625,-0.04631181061267853,-0.10197976976633072,-1.0188853740692139
1788800322389964000,0.596964111328125,-0.06733320653438568,-0.04633861035108566,-0.9803215265274048
1788800322399933200,0.60693310546875,-0.045156121253967285,-0.041911013424396515,-0.8391492366790771
1788800322409903000,0.616903076171875,0.03621490299701691,-0.04030192643404007,-0.5968223810195923
1788800322419872000,0.6268720703125,0.15211033821105957,-0.015482598915696144,-0.266071081161499
1788800322429841200,0.636841064453125,0.2619399130344391,0.026425303891301155,0.10772750526666641
1788800322439811300,0.646811279296875,0.3288941979408264,0.08075439929962158,0.47693970799446106
1788800322449780200,0.6567802734375,0.3482940196990967,0.132180318236351,0.7987105846405029
1788800322459750100,0.666750244140625,0.3271743357181549,0.1460488736629486,1.054945945739746
1788800322469719300,0.67671923828125,0.2813091278076172,0.11828169971704483,1.245082974433899
1788800322479689200,0.686689208984375,0.2229752391576767,0.06818098574876785,1.362012505531311
1788800322489658000,0.696658203125,0.1332969069480896,0.006832978222519159,1.3944183588027954
1788800322499628000,0.7066279296875,0.010251941159367561,-0.07267044484615326,1.3349006175994873
1788800322509597200,0.71659716796875,-0.1464785635471344,-0.14289453625679016,1.1804835796356201
1788800322519567400,0.7265673828125,-0.3145131766796112,-0.19321931898593903,0.9684855937957764
1788800322529536300,0.736536376953125,-0.47033071517944336,-0.20335398614406586,0.7460504174232483
1788800322539506200,0.746506103515625,-0.5768941640853882,-0.19282756745815277,0.548828661441803
1788800322549475000,0.75647509765625,-0.6229869723320007,-0.17411461472511292,0.38867828249931335
1788800322559445200,0.7664453125,-0.6320164203643799,-0.12516172230243683,0.2627373933792114
1788800322569414100,0.7764140625,-0.6345351338386536,-0.029918890446424484,0.18433210253715515
1788800322579384000,0.786384033203125,-0.6513176560401917,0.08428401499986649,0.1619570553302765
1788800322589353000,0.79635302734375,-0.69209223985672,0.17253558337688446,0.17136892676353455
1788800322599323100,0.8063232421875,-0.7457677721977234,0.20809857547283173,0.15360765159130096
1788800322609292000,0.8162919921875,-0.7888806462287903,0.18027040362358093,0.08095449209213257
1788800322619262200,0.82626220703125,-0.8207083344459534,0.09540586173534393,-0.052650175988674164
1788800322629231000,0.836231201171875,-0.845493733882904,0.008770996704697609,-0.22552277147769928
1788800322639201300,0.846201171875,-0.869699239730835,-0.024245010688900948,-0.3936571776866913
1788800322649170200,0.856170166015625,-0.8934404850006104,0.01462731882929802,-0.5206237435340881
1788800322659140000,0.86614013671875,-0.9086552858352661,0.10530130565166473,-0.5705322623252869
1788800322669109000,0.87610888671875,-0.911954402923584,0.19292622804641724,-0.5365610122680664
1788800322679079200,0.8860791015625,-0.9085970520973206,0.2080397605895996,-0.450339138507843
1788800322689048000,0.896048095703125,-0.9016451239585876,0.15162602066993713,-0.3542275130748749
1788800322699018200,0.906018310546875,-0.911548376083374,0.02166285738348961,-0.30026474595069885
1788800322708987100,0.915987060546875,-0.9123803377151489,-0.11977948993444443,-0.29387181997299194
1788800322718957300,0.925957275390625,-0.910290539264679,-0.1985916942358017,-0.2898540496826172
1788800322728926200,0.93592626953125,-0.9125073552131653,-0.12010326981544495,-0.2099514901638031
1788800322738896100,0.945896240234375,-0.8793134689331055,0.1798144429922104,-0.012094508856534958
1788800322748865000,0.955864990234375,-0.7901604175567627,0.6575143933296204,0.2905084788799286
1788800322758835200,0.965835205078125,-0.6693640947341919,1.0639283657073975,0.6372765898704529
1788800322768804000,0.97580419921875,-0.5290778279304504,1.266658067703247,0.9552047252655029
1788800322778774300,0.985774169921875,-0.3834262788295746,1.2226742506027222,1.1938787698745728
1788800322788743200,0.9957431640625,-0.2848999500274658,0.8649529218673706,1.2880393266677856
1788800322798713000,1.005713134765625,-0.007739740889519453,0.17164380848407745,1.267063856124878
1788800322808682200,1.01568212890625,-0.034171879291534424,-0.5167292952537537,1.0064280033111572
1788800322818652200,1.025652099609375,-0.30142974853515625,-1.1042239665985107,0.3787076771259308
1788800322828621000,1.03562109375,-0.5315942764282227,-1.467936396598816,-0.4194331765174866
1788800322838591000,1.045591064453125,-0.7104485630989075,-1.5883561372756958,-1.210282802581787
1788800322848560000,1.05556005859375,-0.8481553196907043,-1.5128214359283447,-1.8547449111938477
1788800322858530000,1.065530029296875,-0.9366641044616699,-1.3742121458053589,-2.229466676712036
1788800322868499000,1.0754990234375,-0.9277254343032837,-1.2716140747070312,-2.2666192054748535
1788800322878469000,1.08546923828125,-0.8170093894004822,-1.2434709072113037,-1.9696727991104126
1788800322888438300,1.095438232421875,-0.6126152276992798,-1.1522797346115112,-1.4725061655044556
1788800322898408200,1.105408203125,-0.5377642512321472,-0.9464131593704224,-0.9035316705703735
1788800322908377000,1.115377197265625,-0.5041607022285461,-0.760478138923645,-0.3464069366455078
1788800322918347000,1.125346923828125,-0.4835536777973175,-0.6077408194541931,0.1469215601682663
1788800322928316200,1.135316162109375,-0.4646581709384918,-0.5098757743835449,0.5078215599060059
1788800322938286000,1.1452861328125,-0.44642671942710876,-0.5331069231033325,0.7103993892669678
1788800322948255000,1.1552548828125,-0.3847936987876892,-0.6795264482498169,0.7596455216407776
1788800322958225200,1.16522509765625,-0.30123409628868103,-0.8887702226638794,0.6824932098388672
1788800322968194300,1.1751943359375,-0.2464766651391983,-1.027354121208191,0.537938117980957
1788800322978164200,1.185164306640625,-0.2471991330385208,-1.0053750276565552,0.41503220796585083
1788800322988133000,1.195133056640625,-0.2928987145423889,-0.8098881244659424,0.38256266713142395
1788800322998103000,1.20510302734375,-0.3402099609375,-0.43833470344543457,0.4513110816478729
1788800323008072200,1.215072265625,-0.3649904131889343,0.015271424315869808,0.5852941870689392
1788800323018042000,1.2250419921875,-0.31395474076271057,0.15061019361019135,0.7626232504844666
1788800323028011000,1.235010986328125,-0.08031347393989563,0.5008611679077148,1.0538142919540405
1788800323037981000,1.24498095703125,0.1083693653345108,0.6031721830368042,1.3507652282714844
1788800323047950000,1.2549501953125,0.1353176236152649,0.16018599271774292,1.4635837078094482
1788800323057920300,1.264920166015625,-0.010303819552063942,-0.8198858499526978,1.2591800689697266
1788800323067890200,1.27489013671875,-0.22283445298671722,-1.655554175376892,1.035522699356079
1788800323077859000,1.284859130859375,-0.411105215549469,-2.363750696182251,0.8070380091667175
1788800323087829000,1.2948291015625,-0.49265575408935547,-2.842618227005005,0.5435065031051636
1788800323097798100,1.304798095703125,-0.510696530342102,-2.7280948162078857,0.22958722710609436
1788800323107768000,1.31476806640625,-0.44479334354400635,-1.8076423406600952,-0.06467210501432419
1788800323117737000,1.324737060546875,-0.2612972855567932,-0.865915834903717,-0.1988459974527359
1788800323127707100,1.33470703125,-0.05869678035378456,-0.15865427255630493,-0.3589749336242676
1788800323137676300,1.34467626953125,0.10078661888837814,0.2706978917121887,-0.5747418403625488
1788800323147646200,1.354646240234375,0.20347370207309723,0.5373249053955078,-0.7774863243103027
1788800323157615000,1.364614990234375,0.28249117732048035,0.706411600112915,-0.99092036485672
1788800323167585000,1.3745849609375,0.3674345910549164,0.8105792999267578,-1.230080246925354
1788800323177553700,1.3845537109375,0.46162912249565125,0.8755518198013306,-1.4361224174499512
1788800323187523800,1.39452392578125,0.5656463503837585,0.8570852279663086,-1.5653939247131348
1788800323197492700,1.40449267578125,0.6682321429252625,0.7990826368331909,-1.5921908617019653
1788800323207463000,1.414462890625,0.8019419312477112,0.7695978879928589,-1.5392694473266602
1788800323217431800,1.424431884765625,0.9329785108566284,0.8022434115409851,-1.4314374923706055
1788800323227401700,1.434401611328125,0.9902081489562988,0.8427588939666748,-1.2801527976989746
1788800323237370600,1.44437060546875,0.9877034425735474,0.9409102201461792,-1.0284204483032227
1788800323247340800,1.4543408203125,0.9304184913635254,1.0739892721176147,-0.7049327492713928
1788800323257309700,1.464309814453125,0.8374056816101074,1.1544485092163086,-0.34603798389434814
1788800323267280000,1.47427978515625,0.7452191114425659,1.149013876914978,0.01790323667228222
1788800323277249800,1.484249755859375,0.6743835806846619,1.0237102508544922,0.3495602607727051
1788800323287218700,1.49421875,0.6114585995674133,0.8192720413208008,0.623091459274292
1788800323297188900,1.50418896484375,0.5952974557876587,0.6337863802909851,0.823785126209259
1788800323307157800,1.51415771484375,0.6400947570800781,0.44278547167778015,0.9411636590957642
1788800323317127700,1.524127685546875,0.6980350017547607,0.25196731090545654,0.9889509081840515
1788800323327096600,1.5340966796875,0.7637878656387329,0.1457621157169342,0.9782509207725525
1788800323337067000,1.54406689453125,0.7988414168357849,0.05139647796750069,0.9051644206047058
1788800323347036000,1.554035888671875,0.7937756776809692,-0.07744492590427399,0.7867578268051147
1788800323357005800,1.564005859375,0.727301836013794,-0.1887027472257614,0.6416832208633423
1788800323366974700,1.573974609375,0.6131376028060913,-0.29371213912963867,0.46806058287620544
1788800323376945000,1.58394482421875,0.4649193584918976,-0.44125765562057495,0.2688859701156616
1788800323386913800,1.593913818359375,0.30108919739723206,-0.6212727427482605,0.061671141535043716
1788800323396883700,1.6038837890625,0.13495509326457977,-0.7367178201675415,-0.12469474226236343
1788800323406852600,1.6138525390625,0.0009524151682853699,-0.8251489996910095,-0.26868245005607605
1788800323416822800,1.62382275390625,-0.10732745379209518,-0.9315998554229736,-0.38542690873146057
1788800323426793000,1.63379296875,-0.1989368200302124,-0.9243583679199219,-0.47910276055336
1788800323436761900,1.643761962890625,-0.2711798846721649,-0.7862931489944458,-0.5393868684768677
1788800323446731800,1.653731689453125,-0.30769920349121094,-0.5480273365974426,-0.5447909235954285
1788800323456701000,1.663700927734375,-0.2888312339782715,-0.3409671187400818,-0.545418381690979
1788800323466670800,1.6736708984375,-0.2278415560722351,-0.12321179360151291,-0.5119105577468872
1788800323476639700,1.6836396484375,-0.21162638068199158,0.009628554806113243,-0.4799978733062744
1788800323486609700,1.693609619140625,-0.360042929649353,-0.005535757169127464,-0.49551457166671753
1788800323496578800,1.703578857421875,-0.6015061736106873,-0.035396452993154526,-0.5140525698661804
1788800323506549000,1.713549072265625,-0.7384783029556274,0.041052110493183136,-0.43641576170921326
1788800323516518000,1.723517822265625,-0.7417606711387634,0.12474088370800018,-0.247249573469162
1788800323526487800,1.73348779296875,-0.6719183921813965,0.25309106707572937,-0.02340325526893139
1788800323536456700,1.743456787109375,-0.5818923711776733,0.364448219537735,0.2191675752401352
1788800323546427000,1.753427001953125,-0.526542603969574,0.32349416613578796,0.5013437867164612
1788800323556395800,1.763395751953125,-0.47267216444015503,0.16270262002944946,0.8434740304946899
1788800323566365700,1.77336572265625,-0.3766140639781952,-0.07803995162248611,1.2404236793518066
1788800323576335600,1.783335693359375,-0.4074324369430542,-0.45683547854423523,1.4376304149627686
1788800323586304800,1.7933046875,-0.5442824959754944,-0.9118399620056152,1.2600764036178589
1788800323596275000,1.80327490234375,-0.521234393119812,-1.083701491355896,0.9948346614837646
1788800323606243800,1.813243896484375,-0.3871138095855713,-0.9588920474052429,0.8026662468910217
1788800323616213800,1.8232138671875,-0.31187203526496887,-0.7752026319503784,0.6501685976982117
1788800323626183000,1.833182861328125,-0.27973586320877075,-0.636780321598053,0.5108938217163086
1788800323636152800,1.84315283203125,-0.2266172617673874,-0.5645385980606079,0.38583844900131226
1788800323646121700,1.853121826171875,-0.13297882676124573,-0.4800589978694916,0.28740760684013367
1788800323656091600,1.863091552734375,-0.04099990427494049,-0.4494217336177826,0.13587559759616852
1788800323666060800,1.873060791015625,0.013026895001530647,-0.46036842465400696,-0.08649882674217224
1788800323676031000,1.883031005859375,0.032264240086078644,-0.44647738337516785,-0.31049489974975586
1788800323686001000,1.8930009765625,0.09332723170518875,-0.4292975068092346,-0.41550561785697937
1788800323695969800,1.9029697265625,0.1877456158399582,-0.5405334830284119,-0.3441864252090454
1788800323705939700,1.912939697265625,0.2765960395336151,-0.691029965877533,-0.11706487089395523
1788800323715908900,1.922908935546875,0.34472155570983887,-0.8464416861534119,0.12893584370613098
1788800323725878800,1.932878662109375,0.4237644076347351,-1.077694296836853,0.26472318172454834
1788800323735847700,1.94284765625,0.5073538422584534,-1.3818345069885254,0.2475130259990692
1788800323745817600,1.952817626953125,0.5723390579223633,-1.6357169151306152,0.09137751162052155
1788800323755786800,1.962786865234375,0.596867024898529,-1.7220627069473267,-0.16543804109096527
1788800323765757000,1.9727568359375,0.594647228717804,-1.6024284362792969,-0.49139299988746643
1788800323775725800,1.982725830078125,0.593673825263977,-1.247223138809204,-0.8980547785758972
1788800323785695700,1.99269580078125,0.6182970404624939,-0.7959208488464355,-1.3008962869644165
1788800323795665700,2.002665771484375,0.6897818446159363,-0.38059762120246887,-1.5660909414291382
1788800323805634800,2.012634765625,0.7958284616470337,-0.12725494801998138,-1.6359646320343018
1788800323815604700,2.022604736328125,0.6909918189048767,0.0042117382399737835,-1.546796441078186
1788800323825573600,2.03257373046875,0.4400769770145416,0.14243118464946747,-1.4369158744812012
1788800323835543800,2.042543701171875,0.6062585115432739,-0.33115503191947937,-1.3814533948898315
1788800323845513000,2.052512939453125,0.924019992351532,-1.0614469051361084,-1.093700647354126
1788800323855483000,2.06248291015625,1.1671078205108643,-1.7438271045684814,-0.7080653309822083
1788800323865451800,2.07245166015625,1.4476206302642822,-2.2877516746520996,-0.2689874768257141
1788800323875421700,2.082421630859375,1.7497777938842773,-2.54017972946167,0.22411353886127472
1788800323885390800,2.092390869140625,2.048327684402466,-2.6932129859924316,0.6126099228858948
1788800323895360800,2.10236083984375,2.2709882259368896,-2.8676223754882812,0.9737681150436401
1788800323905330700,2.11233056640625,2.467829942703247,-3.189409017562866,1.3037294149398804
1788800323915299600,2.122299560546875,2.5925447940826416,-3.9172286987304688,1.6356613636016846
1788800323925269800,2.132269775390625,2.6523497104644775,-4.962662220001221,2.031511068344116
1788800323935239000,2.142239013671875,2.5168004035949707,-6.105319023132324,2.5502569675445557
1788800323945208800,2.152208740234375,2.0060343742370605,-7.280622482299805,3.1792519092559814
1788800323955177700,2.162177734375,1.4704902172088623,-7.881668567657471,3.801542282104492
1788800323965147600,2.172147705078125,1.244691252708435,-7.219964027404785,4.072607517242432
1788800323975116800,2.18211669921875,1.3403416872024536,-6.310148239135742,4.1236491203308105
1788800323985086700,2.192086669921875,1.6836613416671753,-5.12487268447876,3.789968729019165
1788800323995055600,2.2020556640625,2.4145586490631104,-4.075171947479248,3.275973081588745
1788800324005025800,2.21202587890625,3.467949151992798,-3.1297340393066406,2.906273126602173
1788800324014995700,2.22199560546875,4.685221195220947,-2.233206033706665,2.7077877521514893
1788800324024964900,2.23196484375,5.718267440795898,-1.5954363346099854,2.4841439723968506
1788800324034934800,2.241934814453125,6.623183250427246,-1.1660261154174805,2.025351047515869
1788800324044903700,2.251903564453125,7.308420658111572,-0.6792879104614258,1.404310941696167
1788800324054873600,2.26187353515625,7.696296215057373,-0.43330851197242737,0.8035526871681213
1788800324064842800,2.2718427734375,7.63603401184082,-0.31157979369163513,0.4648304581642151
1788800324074813000,2.28181298828125,7.412548542022705,-0.2942756414413452,0.4866095185279846
1788800324084781800,2.29178173828125,7.352973937988281,-0.10649450123310089,0.7384355664253235
1788800324094751700,2.301751708984375,7.239326000213623,-0.2798106372356415,1.0800634622573853
1788800324104721700,2.3117216796875,7.053040027618408,-0.7559140920639038,1.6489832401275635
1788800324114690800,2.32169091796875,6.707785606384277,-1.1868256330490112,2.3425707817077637
1788800324124660700,2.33166064453125,6.081418514251709,-1.4254599809646606,3.0209906101226807
1788800324134629600,2.341629638671875,5.144330024719238,-1.592817783355713,3.6308302879333496
1788800324144599600,2.351599609375,4.120429039001465,-1.7292190790176392,4.099542140960693
1788800324154568700,2.361568603515625,3.3856377601623535,-1.9099774360656738,4.2539448738098145
1788800324164538600,2.37153857421875,3.002073049545288,-1.8124134540557861,4.197340965270996
1788800324174507500,2.381507568359375,2.7891812324523926,-1.7322604656219482,4.015235424041748
1788800324184477400,2.3914775390625,2.443713426589966,-1.6486122608184814,3.8365540504455566
1788800324194448000,2.40144775390625,1.6206501722335815,-1.7324403524398804,3.6493890285491943
1788800324204416800,2.411416748046875,0.37615957856178284,-1.9156967401504517,2.7293925285339355
1788800324214386700,2.42138671875,-1.1614375114440918,-3.10994553565979,0.6782981753349304
1788800324224355600,2.43135546875,-1.4731251001358032,-2.2116758823394775,-0.15011799335479736
1788800324234325800,2.44132568359375,-0.659159779548645,-0.6411328911781311,-0.028066392987966537
1788800324244294700,2.451294677734375,-0.031239507719874382,0.2600708603858948,0.002219920977950096
1788800324254264600,2.4612646484375,0.105647012591362,0.2591155171394348,-0.08582985401153564
1788800324264233500,2.4712333984375,0.04280431196093559,-0.11415623128414154,0.003958371467888355
1788800324274203600,2.48120361328125,0.06438816338777542,-0.43634703755378723,0.3261057734489441
1788800324284173800,2.491173828125,0.21907809376716614,-0.9283473491668701,0.6747277975082397
1788800324294142700,2.501142822265625,0.3942943811416626,-1.3895528316497803,0.8875718712806702
1788800324304112600,2.511112548828125,0.45127153396606445,-1.609285831451416,1.110363245010376
1788800324314081800,2.521081787109375,0.44099122285842896,-1.7787542343139648,1.308823585510254
1788800324324051700,2.5310517578125,0.39150968194007874,-2.0148398876190186,1.4714031219482422
1788800324334020600,2.5410205078125,0.23959152400493622,-2.1696527004241943,1.6613272428512573
1788800324343990500,2.550990478515625,0.004657715559005737,-2.3087055683135986,1.904630184173584
1788800324353959700,2.560959716796875,-0.22109098732471466,-2.3831944465637207,2.1631340980529785
1788800324363929900,2.570929931640625,-0.36593466997146606,-2.4559755325317383,2.172691583633423
1788800324373899800,2.580899658203125,-0.4009499251842499,-2.3070242404937744,1.8181430101394653
1788800324383868700,2.59086865234375,-0.21982835233211517,-1.8909550905227661,1.0446845293045044
1788800324393838600,2.600838623046875,-0.19721199572086334,-1.1910995244979858,0.32054412364959717
1788800324403807700,2.610807861328125,-0.0938907191157341,-0.8496475219726562,-0.24071753025054932
1788800324413777700,2.620777587890625,-0.09946844726800919,-0.8365607857704163,-0.5275881290435791
1788800324423746600,2.63074658203125,-0.2480001002550125,-0.8049194812774658,-0.6102967858314514
1788800324433716500,2.640716552734375,-0.38980811834335327,-0.8164299726486206,-0.7440705895423889
1788800324443686700,2.650686767578125,-0.5808634161949158,-0.7506103515625,-0.8899241089820862
1788800324453655800,2.66065576171875,-0.7179959416389465,-0.4800712466239929,-1.0262881517410278
1788800324463625700,2.670625732421875,-0.6820852160453796,-0.2296314239501953,-1.1116427183151245
1788800324473594600,2.6805947265625,-0.5129387974739075,0.16808584332466125,-1.0370609760284424
1788800324483564500,2.690564453125,0.23368656635284424,0.38743510842323303,-1.1094173192977905
1788800324493533700,2.70053369140625,0.6299161911010742,0.5081585645675659,-0.8554120063781738
1788800324503503600,2.710503662109375,0.6126638054847717,-0.19475997984409332,-0.3463137447834015
1788800324513472500,2.720472412109375,0.47961387038230896,-1.1662068367004395,0.1565943956375122
1788800324523442700,2.730442626953125,0.20608000457286835,-2.015000343322754,0.2917631268501282
1788800324533412600,2.74041259765625,-0.10301926732063293,-2.307494640350342,0.1622309684753418
1788800324543381800,2.7503818359375,-0.214621901512146,-1.785046100616455,-0.24226471781730652
1788800324553351700,2.7603515625,-0.2776895761489868,-1.572569489479065,-0.6869199275970459
1788800324563320600,2.770320556640625,-0.4454016089439392,-1.3901985883712769,-0.9487307667732239
1788800324573290500,2.78029052734375,-0.697858452796936,-0.8822922110557556,-1.1427409648895264
1788800324583259600,2.790259765625,-0.5143880844116211,-1.139890193939209,-1.2084134817123413
1788800324593229600,2.8002294921875,-0.12306395173072815,-1.631388783454895,-0.9980458617210388
1788800324603199700,2.81019970703125,0.03640356287360191,-1.7596811056137085,-0.8688063025474548
1788800324613168600,2.820168701171875,0.1308285892009735,-1.5205225944519043,-0.9487935304641724
1788800324623138600,2.830138671875,0.4395977258682251,-1.200537919998169,-1.0362895727157593
1788800324633107700,2.840107666015625,0.785620391368866,-0.8406392931938171,-1.1260035037994385
1788800324643077600,2.85007763671875,1.015934705734253,-0.47248807549476624,-1.3107423782348633
1788800324653046500,2.860046630859375,1.1687383651733398,0.1647203415632248,-1.6100726127624512
1788800324663016400,2.870016357421875,1.1284034252166748,0.6093159914016724,-1.9134573936462402
1788800324672986600,2.879986572265625,0.9513478875160217,0.6391361951828003,-2.0416064262390137
1788800324682955800,2.889955810546875,0.7311076521873474,0.3849681615829468,-1.9237052202224731
1788800324692925700,2.89992578125,0.5955101251602173,-0.062403757125139236,-1.5058702230453491
1788800324702894600,2.90989453125,0.6630925536155701,-0.5171712040901184,-1.114168405532837
1788800324712864500,2.919864501953125,0.8038435578346252,-0.8459288477897644,-0.9922693967819214
1788800324722833700,2.929833740234375,0.8638964295387268,-0.9650565385818481,-0.9856311678886414
1788800324732803600,2.939803466796875,0.9616983532905579,-0.6172977685928345,-0.9253755807876587
1788800324742773500,2.9497734375,1.1390926837921143,-0.14967209100723267,-0.9146509766578674
1788800324752742700,2.95974267578125,1.202834129333496,0.24165917932987213,-1.015163779258728
1788800324762712800,2.969712890625,1.250502586364746,0.73293536901474,-1.1916521787643433
1788800324772681700,2.979681640625,1.3036580085754395,0.8552277684211731,-1.344677209854126
1788800324782651600,2.989651611328125,1.4238677024841309,0.5427441000938416,-1.3276238441467285
1788800324792620500,2.99962060546875,1.6045857667922974,-0.05927014350891113,-1.0945796966552734
1788800324802590700,3.0095908203125,1.7456618547439575,-0.4555048644542694,-0.7781208753585815
1788800324812560600,3.019560546875,1.9531135559082031,-0.5149303674697876,-0.6020593047142029
1788800324822529500,3.029529541015625,2.192237138748169,-0.2931807339191437,-0.4521682858467102
1788800324832499700,3.039499755859375,2.290626287460327,0.07040359079837799,-0.3387671709060669
1788800324842468900,3.04946875,2.2608673572540283,0.41532576084136963,-0.10635194927453995
1788800324852438800,3.059438720703125,2.125185251235962,0.5640348792076111,0.21177569031715393
1788800324862408700,3.06940869140625,2.053426742553711,0.5958690643310547,0.5223178267478943
1788800324872377600,3.079377685546875,2.052591562271118,0.6380218863487244,0.6317607164382935
1788800324882347500,3.089347412109375,2.087108612060547,0.609804630279541,0.4927203059196472
1788800324892316700,3.099316650390625,2.0967416763305664,0.4164872467517853,0.3693099617958069
1788800324902286600,3.10928662109375,1.9022932052612305,0.17662625014781952,0.3166854679584503
1788800324912255700,3.119255859375,1.482406735420227,-1.1582469940185547,1.0181628465652466
1788800324922225700,3.1292255859375,0.793547511100769,-1.3308340311050415,1.1145390272140503
1788800324932195600,3.139195556640625,0.6705544590950012,-1.1664443016052246,1.0242758989334106
1788800324942164700,3.149164794921875,0.7571585774421692,-1.0845853090286255,1.1091132164001465
1788800324952134700,3.159134765625,0.7875391244888306,-0.798471212387085,1.2487627267837524
1788800324962103600,3.169103515625,0.8065083026885986,-0.42482903599739075,1.342147707939148
1788800324972073500,3.179073486328125,0.851231038570404,-0.0992296040058136,1.3592323064804077
1788800324982042600,3.189042724609375,0.8714157342910767,0.32206717133522034,1.223224401473999
1788800324992012800,3.1990126953125,0.7704771161079407,0.8352609872817993,0.9877335429191589
1788800325001982700,3.208982666015625,0.6414307355880737,1.5883829593658447,0.6492456793785095
1788800325011951600,3.21895166015625,0.47766920924186707,2.3593790531158447,0.20002099871635437
1788800325021921500,3.228921630859375,0.19283336400985718,2.7122602462768555,-0.22854425013065338
1788800325031890700,3.238890625,-0.14784911274909973,2.3859591484069824,-0.4723595976829529
1788800325041860600,3.248860595703125,-0.472199946641922,1.7996766567230225,-0.3264320194721222
1788800325051830500,3.25883056640625,-0.7257158160209656,1.3335719108581543,0.05281407758593559
1788800325061799700,3.268799560546875,-0.738390326499939,0.8948796987533569,0.3413698375225067
1788800325071769600,3.27876953125,-0.5312840342521667,0.5133259296417236,0.418683797121048
1788800325081738800,3.28873876953125,-0.2150871306657791,0.24132899940013885,0.4332616329193115
1788800325091708700,3.298708740234375,0.12470134347677231,0.2838048040866852,0.4280189275741577
1788800325101677600,3.308677490234375,0.9004780054092407,-0.4261358678340912,0.22120633721351624
1788800325111647500,3.3186474609375,1.3018038272857666,-0.47150281071662903,0.22712548077106476
1788800325121617700,3.32861767578125,1.392051339149475,-0.05074561759829521,0.13361385464668274
1788800325131586600,3.338586669921875,1.5734943151474,-0.03603591397404671,-0.08426200598478317
1788800325141556700,3.348556640625,1.9143311977386475,-0.28944090008735657,-0.15881483256816864
1788800325151525600,3.358525634765625,2.3440871238708496,-0.1975266933441162,-0.057977162301540375
1788800325161495800,3.368495849609375,2.5833020210266113,0.02997872233390808,0.12275557965040207
1788800325171466200,3.37846630859375,2.562182664871216,0.37221115827560425,0.16422978043556213
1788800325181435400,3.388435302734375,2.398881673812866,0.7951022982597351,0.06839584559202194
1788800325191405300,3.3984052734375,2.2039618492126465,1.0790855884552002,-0.11380431801080704
1788800325201374200,3.408374267578125,2.0304291248321533,1.289792776107788,-0.4222312569618225
1788800325211344100,3.41834423828125,1.8187320232391357,1.425685167312622,-0.6805448532104492
1788800325221313300,3.428313232421875,1.574629306793213,1.4804646968841553,-0.7725899815559387
1788800325231283500,3.438283447265625,1.287575364112854,1.6997557878494263,-0.774726927280426
1788800325241253400,3.44825341796875,0.941139817237854,2.1578269004821777,-0.6549357175827026
1788800325251222300,3.45822216796875,0.6070191264152527,2.6485610008239746,-0.4516528844833374
1788800325261192400,3.4681923828125,0.3018335700035095,3.129927396774292,-0.22950446605682373
1788800325271161300,3.478161376953125,0.020516134798526764,3.418041944503784,-0.12447365373373032
1788800325281131300,3.48813134765625,-0.17517390847206116,3.7206835746765137,-0.06769455224275589
1788800325291101400,3.498101318359375,-0.18522919714450836,3.828080415725708,-0.011576421558856964
1788800325301070300,3.5080703125,0.1494949460029602,3.271533727645874,0.26474514603614807
1788800325311040500,3.51804052734375,0.7134560346603394,2.5226733684539795,0.640930712223053
1788800325321009400,3.528009521484375,1.329594373703003,1.7340482473373413,0.9906218647956848
1788800325330979300,3.537979248046875,1.5608904361724854,1.3183884620666504,0.8684091567993164
1788800325340949200,3.54794921875,1.3055542707443237,1.3262921571731567,0.23781557381153107
1788800325350918400,3.55791845703125,0.9956669211387634,2.114750623703003,-0.4616772532463074
1788800325360888300,3.567888427734375,0.9015148282051086,4.027161121368408,-0.9497957229614258
1788800325370857200,3.577857177734375,1.4267266988754272,3.5212674140930176,-2.2900712490081787
1788800325380827400,3.587827392578125,1.355247974395752,3.496516704559326,-2.1594038009643555
1788800325390796500,3.597796630859375,0.13049860298633575,3.126312017440796,-1.1878910064697266
1788800325400766500,3.607766357421875,-0.8886287212371826,1.6950567960739136,-0.06937182694673538
1788800325410736400,3.617736328125,-1.1897385120391846,1.8692575693130493,-0.425044447183609
1788800325420705300,3.627705322265625,-1.2426764965057373,0.8088605403900146,-0.6018814444541931
1788800325430675200,3.63767529296875,-1.2476928234100342,-0.34092167019844055,-0.7624785900115967
1788800325440644400,3.647644287109375,-1.1720038652420044,-0.846618115901947,-1.0837963819503784
1788800325450614500,3.657614501953125,-1.1882742643356323,-1.2203397750854492,-1.124266505241394
1788800325460584400,3.66758447265625,-1.3230003118515015,-1.0923742055892944,-1.0620149374008179
1788800325470553300,3.67755322265625,-1.5332610607147217,-0.9557316899299622,-1.0978296995162964
1788800325480523300,3.687523193359375,-1.8034696578979492,-1.1173101663589478,-1.0373727083206177
1788800325490492400,3.697492431640625,-1.973744511604309,-1.5114936828613281,-0.9775483012199402
1788800325500462300,3.70746240234375,-1.4726706743240356,-2.653209924697876,-0.7640624642372131
1788800325510431200,3.71743115234375,-0.8703451752662659,-2.5073957443237305,-1.2082242965698242
1788800325520401200,3.727401123046875,-0.8640482425689697,-1.5435214042663574,-1.2298636436462402
1788800325530371300,3.737371337890625,-0.855810284614563,-1.1307854652404785,-0.7248828411102295
1788800325540340500,3.747340576171875,-0.805625319480896,-0.968691349029541,-0.13411448895931244
1788800325550310400,3.757310302734375,-0.904474139213562,-0.5767395496368408,0.19068650901317596
1788800325560279300,3.767279296875,-0.9996618628501892,0.3128918409347534,0.135496124625206
1788800325570249200,3.777249267578125,-1.068407416343689,0.8431077599525452,0.1663733422756195
1788800325580219400,3.787219482421875,-1.0471500158309937,0.8398945927619934,0.29860779643058777
1788800325590188300,3.797188232421875,-0.9951198101043701,0.7005598545074463,0.26291292905807495
1788800325600158500,3.807158447265625,-0.9922164678573608,0.5797821283340454,0.23111583292484283
1788800325610127400,3.81712744140625,-0.9552270174026489,0.7238266468048096,0.30463504791259766
1788800325620097300,3.82709716796875,-0.8213372826576233,0.9482841491699219,0.4436168074607849
1788800325630067500,3.8370673828125,-0.6891220211982727,0.7408132553100586,0.5372521877288818
1788800325640036400,3.847036376953125,-0.5203471183776855,0.45566654205322266,0.5854788422584534
1788800325650006300,3.85700634765625,-0.2552768588066101,0.1320541501045227,0.564738392829895
1788800325659975200,3.86697509765625,0.05285652354359627,0.26091501116752625,0.6032491326332092
1788800325669945300,3.8769453125,0.12943224608898163,0.3799268901348114,0.534069299697876
1788800325679915500,3.88691552734375,0.14550469815731049,0.47387078404426575,0.5810633301734924
1788800325689884400,3.896884521484375,0.10297694057226181,0.5315330028533936,0.5730304718017578
1788800325699854300,3.906854248046875,0.1112239807844162,0.5721886157989502,0.6376672983169556
1788800325709823500,3.916823486328125,0.053374528884887695,0.5873204469680786,0.6433366537094116
1788800325719793400,3.92679345703125,0.039642177522182465,0.7046160697937012,0.6203100681304932
1788800325729762300,3.93676220703125,0.04905325919389725,0.7830701470375061,0.5830950736999512
1788800325739732200,3.946732177734375,-0.06663918495178223,0.5959029793739319,0.3538697063922882
1788800325749702400,3.956702392578125,-0.02015530690550804,0.5274448394775391,0.08447736501693726
1788800325759671600,3.966671630859375,0.046032559126615524,0.43313366174697876,-0.14524951577186584
1788800325769641500,3.976641357421875,0.19891904294490814,0.3001766800880432,-0.2722204923629761
1788800325779610400,3.9866103515625,0.4980691373348236,0.25716033577919006,-0.24253787100315094
1788800325789580300,3.996580322265625,0.7042707800865173,0.4788067042827606,-0.22001045942306519
1788800325799550200,4.00655029296875,1.0098963975906372,0.4269556701183319,-0.20451246201992035
1788800325809519400,4.016519287109375,1.158016324043274,0.3323058784008026,-0.21780776977539062
1788800325819489300,4.0264892578125,1.3515949249267578,0.08621352910995483,-0.08925795555114746
1788800325829458200,4.036458251953125,1.3401715755462646,-0.10886701196432114,-0.03321013227105141
1788800325839428400,4.046428466796875,1.330670714378357,-0.5899622440338135,-0.3119315803050995
1788800325849398300,4.056398193359375,1.3176965713500977,-0.629599928855896,-0.33727315068244934
1788800325859367400,4.066367431640625,1.5031570196151733,-0.5837132334709167,-0.2703942656517029
1788800325869337300,4.07633740234375,1.5524126291275024,-0.8281109929084778,-0.06677455455064774
1788800325879306200,4.08630615234375,1.4637149572372437,-1.073642373085022,0.08225797861814499
1788800325889276200,4.096276123046875,1.5385218858718872,-1.0545605421066284,-0.12878954410552979
1788800325899246300,4.106246337890625,1.5082582235336304,-0.7693607211112976,-0.18941199779510498
1788800325909215500,4.116215576171875,1.4872368574142456,-0.6932606101036072,-0.04642900452017784
1788800325919185400,4.126185302734375,1.727141261100769,-0.7209627032279968,0.14379723370075226
1788800325929154300,4.136154296875,2.29280686378479,-0.5890270471572876,0.3126744031906128
1788800325939124200,4.146124267578125,2.5331737995147705,-0.4001952111721039,0.1832200288772583
1788800325949094400,4.156094482421875,2.60970139503479,-0.1895013451576233,0.05970180779695511
1788800325959063300,4.166063232421875,2.4917523860931396,0.023981817066669464,0.18626002967357635
1788800325969033200,4.176033203125,2.281733274459839,0.17211349308490753,0.5700290203094482
1788800325979002000,4.186002197265625,1.9590092897415161,0.42184844613075256,1.3243234157562256
1788800325988972500,4.19597265625,1.9846371412277222,0.3075743317604065,0.8216478228569031
1788800325998942500,4.2059423828125,2.057861804962158,-0.8774805068969727,-0.5475114583969116
1788800326008911400,4.215911376953125,1.3263144493103027,-0.8930032849311829,-0.4734702408313751
1788800326018881300,4.22588134765625,0.6088475584983826,-0.26265591382980347,0.31074512004852295
1788800326028851200,4.235851318359375,0.5888413786888123,0.18503184616565704,0.860889196395874
1788800326038820400,4.2458203125,1.0496073961257935,0.031482528895139694,0.4303567707538605
1788800326048790500,4.25579052734375,1.4486289024353027,-0.4924350082874298,0.18988902866840363
1788800326058759400,4.265759521484375,1.1535249948501587,-0.327487975358963,0.4669058918952942
1788800326068729300,4.275729248046875,0.3955983519554138,-0.4316929578781128,0.5411638617515564
1788800326078699300,4.28569921875,0.09998093545436859,-1.2509628534317017,-0.19517819583415985
1788800326088668400,4.29566845703125,-0.23362232744693756,-1.1037861108779907,-0.4669974744319916
1788800326098638300,4.305638427734375,-0.5808662176132202,-0.27584171295166016,-0.29380032420158386
1788800326108607200,4.315607177734375,-1.0512912273406982,-0.17006973922252655,-0.19110776484012604
1788800326118577200,4.3255771484375,-1.5252182483673096,-0.019773375242948532,0.015419375151395798
1788800326128547300,4.33554736328125,-1.7511520385742188,0.11113883554935455,0.2379957139492035
1788800326138516500,4.3455166015625,-1.749670386314392,0.22116658091545105,0.28055375814437866
1788800326148486400,4.355486328125,-1.7518140077590942,0.3489386737346649,0.30468547344207764
1788800326158455300,4.365455322265625,-1.7389017343521118,0.34860631823539734,0.3034069836139679
1788800326168425200,4.37542529296875,-1.7977160215377808,0.4864203631877899,0.3316732347011566
1788800326178395400,4.3853955078125,-1.9545228481292725,0.6433942914009094,0.4241541028022766
1788800326188364500,4.395364501953125,-1.995362401008606,0.7154016494750977,0.42628172039985657
1788800326198334500,4.40533447265625,-1.9604458808898926,0.7048622965812683,0.3760567009449005
1788800326208304400,4.415304443359375,-1.9294685125350952,0.49160245060920715,0.31701040267944336
1788800326218273300,4.425273193359375,-2.163191795349121,0.1352233588695526,-0.035580553114414215
1788800326228243700,4.43524365234375,-2.192516326904297,0.43420422077178955,-0.25150033831596375
1788800326238212600,4.445212646484375,-1.8307253122329712,0.9122463464736938,-0.14278042316436768
1788800326248182500,4.4551826171875,-1.8404604196548462,1.094251036643982,-0.3347296416759491
1788800326258152400,4.46515234375,-1.832470178604126,1.3562451601028442,-0.5359205603599548
1788800326268121600,4.47512158203125,-2.0668184757232666,1.3006566762924194,-0.26049908995628357
1788800326278091500,4.485091552734375,-2.096126079559326,0.6749842762947083,-0.27560797333717346
1788800326288060400,4.495060302734375,-2.0126304626464844,0.28860464692115784,-0.4354090988636017
1788800326298030300,4.5050302734375,-1.8415782451629639,0.08880747109651566,-0.43520432710647583
1788800326308000500,4.51500048828125,-1.7342171669006348,-0.005996265448629856,-0.3619287610054016
1788800326317969700,4.5249697265625,-1.6118862628936768,0.065628282725811,-0.2528577446937561
1788800326327939600,4.534939697265625,-1.5307624340057373,0.20714734494686127,-0.2464597374200821
1788800326337908500,4.544908447265625,-1.487522840499878,0.34223297238349915,-0.36378568410873413
1788800326347878400,4.55487841796875,-1.3551949262619019,0.44146662950515747,-0.4794006943702698
1788800326357848300,4.564848388671875,-1.185140609741211,0.8207694888114929,-0.5120896697044373
1788800326367817500,4.5748173828125,-0.9932627081871033,1.2254225015640259,-0.7413479089736938
1788800326377787600,4.58478759765625,-1.3308000564575195,1.3671281337738037,-0.454414963722229
1788800326387757600,4.594757568359375,-1.1277433633804321,0.43385666608810425,-0.39090922474861145
1788800326397726500,4.6047265625,-1.4109100103378296,-0.015930667519569397,-0.16999775171279907
1788800326407696400,4.6146962890625,-1.706068992614746,-0.371477872133255,0.022683274000883102
1788800326417665500,4.62466552734375,-1.6117918491363525,-0.45389577746391296,0.0034462413750588894
1788800326427635500,4.634635498046875,-1.376318335533142,-0.36124518513679504,0.020233210176229477
1788800326437605400,4.64460546875,-1.416538953781128,-0.8416940569877625,0.036729320883750916
1788800326447574300,4.65457421875,-1.7061539888381958,-1.5868120193481445,-0.20381031930446625
1788800326457544400,4.66454443359375,-1.7651556730270386,-2.221785306930542,-0.5351376533508301
1788800326467513600,4.674513671875,-1.410833477973938,-1.6184002161026,-0.48552587628364563
1788800326477483500,4.6844833984375,-1.1789977550506592,-1.6519309282302856,-0.22530658543109894
1788800326487453400,4.694453369140625,-1.0366065502166748,-1.340469479560852,-0.1514669805765152
1788800326497422300,4.70442236328125,-0.9858916401863098,-1.1152287721633911,-0.11378704011440277
1788800326507392500,4.714392578125,-0.9241383075714111,-0.8926191926002502,-0.04079272225499153
1788800326517362700,4.72436279296875,-0.7399935126304626,-0.7951255440711975,0.030866757035255432
1788800326527331600,4.73433154296875,-0.49142682552337646,-0.7534417510032654,0.060071248561143875
1788800326537301500,4.744301513671875,-0.29913079738616943,-0.6807824373245239,0.012522515840828419
1788800326547270700,4.754270751953125,-0.3114950656890869,-0.7561080455780029,-0.14814332127571106
1788800326557240600,4.764240478515625,-0.3983841836452484,-1.0372352600097656,-0.2764595150947571
1788800326567210500,4.77421044921875,-0.3735981285572052,-1.0936614274978638,-0.31488707661628723
1788800326577179400,4.784179443359375,-0.3595661222934723,-0.8265060186386108,-0.2636834383010864
1788800326587149300,4.7941494140625,-0.184992715716362,-0.7578086853027344,-0.2133435606956482
1788800326597119500,4.804119384765625,0.03013068437576294,-0.4053571820259094,-0.10838529467582703
1788800326607088600,4.814088623046875,0.22355607151985168,-0.2901704013347626,0.022271256893873215
1788800326617058600,4.82405859375,0.3190838098526001,-0.25252920389175415,0.0676809623837471
1788800326627027500,4.83402734375,0.4898507595062256,-0.043351467698812485,0.05371987447142601
1788800326636997400,4.843997314453125,0.761485755443573,0.49517685174942017,0.24974317848682404
1788800326646967300,4.85396728515625,0.8600379228591919,0.7498080730438232,0.4063359797000885
1788800326656936400,4.8639365234375,0.9143369793891907,0.8865755796432495,0.4889625608921051
1788800326666906600,4.87390673828125,0.9469884037971497,0.8928369283676147,0.6225174069404602
1788800326676876500,4.88387646484375,0.9511528611183167,0.8560702800750732,0.7447683215141296
1788800326686845400,4.893845458984375,0.8869685530662537,0.8821242451667786,0.832610547542572
1788800326696815600,4.903815673828125,0.7865328192710876,0.9160337448120117,0.8909162878990173
1788800326706784500,4.913784423828125,0.585667073726654,0.9089409112930298,0.9320314526557922
1788800326716754400,4.92375439453125,0.36543843150138855,0.7621261477470398,0.8116450309753418
1788800326726724400,4.933724365234375,0.02192901447415352,1.0067733526229858,0.6546005606651306
1788800326736693500,4.943693603515625,-0.4700385630130768,1.3170933723449707,0.5083112716674805
1788800326746663700,4.95366357421875,-1.0552074909210205,1.3875459432601929,0.27971112728118896
1788800326756633600,4.963633544921875,-1.4330670833587646,1.2697291374206543,0.06281595677137375
1788800326766602500,4.9736025390625,-1.3857301473617554,1.1721564531326294,-0.13187070190906525
1788800326776572400,4.983572509765625,-1.0451977252960205,0.6379649043083191,-0.3060365319252014
1788800326786541600,4.99354150390625,-0.820927619934082,0.11232960224151611,-0.2347029447555542
1788800326796511500,5.003511474609375,-0.7710137963294983,-0.24773679673671722,-0.2686568796634674
1788800326806481400,5.0134814453125,-1.1179227828979492,-0.62651526927948,-0.345159113407135
1788800326816450600,5.023450439453125,-1.5883694887161255,-0.7496705651283264,-0.2883981764316559
1788800326826420500,5.03342041015625,-1.8878173828125,-0.6015831232070923,-0.16672925651073456
1788800326836390400,5.043390380859375,-1.796790361404419,-0.41089513897895813,-0.049406323581933975
1788800326846359600,5.053359619140625,-1.2082514762878418,-0.07269950956106186,0.0975026935338974
1788800326856329500,5.06332958984375,-0.4743012487888336,0.24495328962802887,0.1627831608057022
1788800326866298400,5.07329833984375,0.09330199658870697,0.24343955516815186,0.08979497104883194
1788800326876268300,5.083268310546875,0.38216570019721985,0.09993355721235275,-0.0051941825076937675
1788800326886238500,5.093238525390625,0.5317802429199219,-0.006745216436684132,0.018393702805042267
1788800326896207600,5.10320751953125,0.6089615821838379,-0.3214988112449646,0.1526516079902649
1788800326906177500,5.113177490234375,0.5456627607345581,-0.3787948489189148,0.41916584968566895
1788800326916147500,5.1231474609375,0.5354111790657043,-0.28935468196868896,0.4810119569301605
1788800326926116400,5.133116455078125,0.5562648177146912,-0.10433076322078705,0.3506757915019989
1788800326936086500,5.14308642578125,0.5102962255477905,0.0967722237110138,0.24977895617485046
1788800326946056400,5.153056396484375,0.5061856508255005,0.20178624987602234,0.3031873106956482
1788800326956025300,5.163025390625,0.6548988819122314,0.05654546990990639,0.40987882018089294
1788800326965995500,5.17299560546875,0.8945854902267456,0.04778793081641197,0.41563284397125244
1788800326975964700,5.182964599609375,1.1956144571304321,0.1503211408853531,0.31807801127433777
1788800326985934600,5.1929345703125,1.511879563331604,0.15031687915325165,0.2841317653656006
1788800326995904500,5.202904541015625,1.6882503032684326,0.04820520058274269,0.24850553274154663
1788800327005873400,5.212873291015625,1.1577848196029663,-0.3262357711791992,0.33931535482406616
1788800327015843300,5.22284326171875,0.8836813569068909,-0.9435428380966187,0.5195668339729309
1788800327025813500,5.2328134765625,0.7445346713066101,-1.2098476886749268,0.40428635478019714
1788800327035782700,5.24278271484375,0.4040997326374054,-1.342039704322815,0.1277446746826172
1788800327045752600,5.252752685546875,0.1159031018614769,-1.5299712419509888,-0.00028280774131417274
1788800327055721500,5.262721435546875,-0.20860165357589722,-1.2163501977920532,0.026651963591575623
1788800327065691400,5.27269140625,-0.15238259732723236,-0.8668516278266907,0.0050606513395905495
1788800327075661300,5.282661376953125,0.06719183176755905,-0.6673490405082703,0.10999822616577148
1788800327085630500,5.29263037109375,0.0928439274430275,-0.5221846699714661,0.04488420486450195
1788800327095600400,5.302600341796875,-0.04026554524898529,-0.47899967432022095,0.012197757139801979
1788800327105570600,5.312570556640625,-0.08701840043067932,-0.3528875410556793,0.0822647213935852
1788800327115539500,5.32253955078125,-0.11226392537355423,-0.2842814028263092,-0.041277818381786346
1788800327125509400,5.33250927734375,-0.3325568735599518,-0.0500558577477932,-0.2148647904396057
1788800327135478500,5.342478515625,-0.45128804445266724,-0.052037034183740616,-0.14125104248523712
1788800327145448400,5.352448486328125,-0.3910878300666809,-0.23054713010787964,-0.08291929960250854
1788800327155418400,5.36241845703125,-0.5432661175727844,-0.6862038373947144,-0.063080795109272
1788800327165387500,5.372387451171875,-0.6136646270751953,-0.908443808555603,-0.05224252864718437
1788800327175357000,5.38235693359375,-0.6420015096664429,-0.7741439938545227,-0.057733699679374695
1788800327185326800,5.392326904296875,-1.0286357402801514,-0.7007328867912292,-0.16328862309455872
1788800327195295700,5.402295654296875,-1.1386916637420654,-1.0295777320861816,-0.32858359813690186
1788800327205266000,5.412265869140625,-1.3790488243103027,-1.261563777923584,-0.5824465155601501
1788800327215235800,5.42223583984375,-1.4793378114700317,-1.152025818824768,-0.8060416579246521
1788800327225205000,5.432205078125,-1.4212324619293213,-0.7938088178634644,-1.0134166479110718
1788800327235175000,5.4421748046875,-1.4003750085830688,-0.3413478136062622,-1.1733115911483765
1788800327245143800,5.452143798828125,-1.407968282699585,-0.26717373728752136,-1.3133747577667236
1788800327255113700,5.46211376953125,-1.0735942125320435,-1.0332646369934082,-1.4566844701766968
1788800327265084000,5.472083984375,-0.9030930995941162,-1.181746482849121,-1.5910362005233765
1788800327275052800,5.482052734375,-1.1540406942367554,-1.6517152786254883,-1.5955251455307007
1788800327285023000,5.49202294921875,-1.3783576488494873,-2.0321035385131836,-1.6074600219726562
1788800327294993000,5.501992919921875,-1.2698968648910522,-1.8454594612121582,-1.505448818206787
1788800327304961800,5.5119619140625,-1.0830868482589722,-1.670495629310608,-1.3235788345336914
1788800327314932000,5.521931884765625,-1.0224945545196533,-1.8847508430480957,-1.1526687145233154
1788800327324902000,5.53190185546875,-0.9494589567184448,-2.1557438373565674,-0.9623533487319946
1788800327334870800,5.541870849609375,-0.8709664344787598,-2.3887476921081543,-0.6631956100463867
1788800327344841000,5.551841064453125,-0.9112065434455872,-2.2852158546447754,-0.3636573553085327
1788800327354810000,5.56181005859375,-0.9056488275527954,-1.9686048030853271,-0.15420964360237122
1788800327364780000,5.571780029296875,-0.9172437191009521,-1.8791780471801758,-0.003996166866272688
1788800327374750000,5.58175,-1.0021766424179077,-1.7733993530273438,0.11139025539159775
1788800327384718800,5.59171875,-1.0687191486358643,-1.1065728664398193,0.0651596412062645
1788800327394688800,5.601688720703125,-1.0840429067611694,-0.4844728112220764,-0.07162756472826004
1788800327404658700,5.61165869140625,-0.9720416069030762,-0.23006823658943176,-0.18363212049007416
1788800327414627800,5.6216279296875,-0.7414008378982544,-0.22112956643104553,-0.1291118562221527
1788800327424598000,5.631597900390625,-0.4916522800922394,-0.3852010667324066,-0.052101220935583115
1788800327434568000,5.64156787109375,-0.2569684088230133,-0.47063180804252625,-0.11722909659147263
1788800327444536800,5.651536865234375,-0.19305597245693207,-0.30764445662498474,-0.2973029315471649
1788800327454506800,5.6615068359375,-0.3773127794265747,-0.11805209517478943,-0.2988831400871277
1788800327464476000,5.671475830078125,-0.5273948907852173,-0.17843660712242126,-0.1698937565088272
1788800327474445800,5.68144580078125,-0.5040721893310547,-0.12417899817228317,-0.18357932567596436
1788800327484416000,5.691416015625,-0.4026308059692383,-0.05769877880811691,-0.22577258944511414
1788800327494385000,5.701385009765625,-0.27308735251426697,-0.014020987786352634,-0.19658614695072174
1788800327504355000,5.71135498046875,-0.11385029554367065,0.25956448912620544,-0.26635217666625977
1788800327514325000,5.721324951171875,0.007403171621263027,0.5479498505592346,-0.27518635988235474
1788800327524294000,5.7312939453125,0.10381945967674255,0.7098585963249207,-0.20566031336784363
1788800327534263800,5.741263916015625,0.11160475760698318,0.6840300559997559,-0.07077936828136444
1788800327544233700,5.751233642578125,0.09131306409835815,0.7161927819252014,0.03415637090802193
1788800327554203000,5.761202880859375,0.11784722656011581,0.7731494307518005,0.09072034060955048
1788800327564173000,5.771173095703125,0.296273410320282,0.8665124177932739,0.11300833523273468
1788800327574142000,5.781141845703125,0.4972933828830719,0.9041607975959778,0.13581304252147675
1788800327584111900,5.79111181640625,0.6190041303634644,0.9817836880683899,0.20685552060604095
1788800327594081800,5.801081787109375,0.6189914345741272,1.1371536254882812,0.371515691280365
1788800327604051000,5.811051025390625,0.5216246843338013,1.2595850229263306,0.5636845827102661
1788800327614020900,5.821020751953125,0.48159515857696533,1.113352656364441,0.8066391348838806
1788800327623991000,5.830990966796875,0.35633471608161926,0.6863906383514404,1.0946152210235596
1788800327633960000,5.8409599609375,0.29881352186203003,0.46805259585380554,1.2898759841918945
1788800327643929900,5.850929931640625,0.26374316215515137,0.2744940519332886,1.3486348390579224
1788800327653900000,5.860900146484375,0.1927613615989685,0.11895456165075302,1.3309732675552368
1788800327663869000,5.870868896484375,-0.09931416809558868,0.28096288442611694,1.2145040035247803
1788800327673838800,5.8808388671875,-0.10297729820013046,0.429404616355896,1.3638226985931396
1788800327683807700,5.890807861328125,-0.04819740727543831,0.20734518766403198,1.6859639883041382
1788800327693778000,5.90077783203125,0.26121464371681213,-0.03527402877807617,1.988169550895691
1788800327703748000,5.910748046875,0.8378468155860901,-0.3384439945220947,2.0662481784820557
1788800327713717000,5.920717041015625,1.257091760635376,-0.3968105912208557,1.7314125299453735
1788800327723687000,5.93068701171875,0.9081451892852783,-0.11480285227298737,1.2425475120544434
1788800327733656800,5.94065673828125,0.4088192284107208,0.3264472186565399,0.9380455613136292
1788800327743626000,5.9506259765625,0.3223855495452881,0.5062678456306458,0.9267687201499939
1788800327753596000,5.960595947265625,0.4742932617664337,0.5048775672912598,0.8134133219718933
1788800327763565800,5.97056591796875,0.5953546762466431,0.4691249132156372,0.5475616455078125
1788800327773535000,5.980534912109375,0.7608627080917358,0.3994517922401428,0.3843218982219696
1788800327783505000,5.9905048828125,0.8706624507904053,0.29644662141799927,0.47219690680503845
1788800327793474000,6.00047412109375,0.8210643529891968,0.03391344100236893,0.7254981994628906
1788800327803444000,6.01044384765625,0.7365966439247131,-0.08964231610298157,0.9252462387084961
1788800327813414000,6.020413818359375,0.581492006778717,-0.1372232586145401,1.0487476587295532
1788800327823382800,6.0303828125,0.41749849915504456,-0.29671862721443176,1.045059084892273
1788800327833352700,6.040352783203125,0.4246003031730652,-0.3851679861545563,0.8869738578796387
1788800327843323000,6.050322998046875,0.5421716570854187,-0.042238328605890274,0.6511791944503784
1788800327853292000,6.0602919921875,0.63276606798172,0.27151474356651306,0.45258840918540955
1788800327863262000,6.070261962890625,0.6406514048576355,0.3972865343093872,0.3447658121585846
1788800327873232000,6.08023193359375,0.5079448223114014,0.36827030777931213,0.3661302626132965
1788800327883200800,6.09020068359375,0.5450724959373474,0.28058597445487976,0.4030291736125946
1788800327893171000,6.1001708984375,0.594355046749115,0.18961921334266663,0.4075884521007538
1788800327903139800,6.110139892578125,0.6132922172546387,0.03277581185102463,0.37692826986312866
1788800327913109800,6.12010986328125,0.5939040184020996,-0.15334577858448029,0.34867119789123535
1788800327923080000,6.130079833984375,0.6287562847137451,-0.07827045768499374,0.24887749552726746
1788800327933049000,6.140049072265625,0.6384430527687073,0.0866854339838028,0.13590092957019806
1788800327943019000,6.15001904296875,0.6190859079360962,0.10364098101854324,0.1223856508731842
1788800327952989000,6.159989013671875,0.6081572771072388,-0.09147746860980988,0.22922149300575256
1788800327962957800,6.169957763671875,0.5806849002838135,-0.28006550669670105,0.34613534808158875
1788800327972927700,6.179927734375,0.5028587579727173,-0.14593973755836487,0.41538169980049133
1788800327982898000,6.18989794921875,0.4542158246040344,-0.08276555687189102,0.533578634262085
1788800327992867000,6.1998671875,0.48976626992225647,-0.08780408650636673,0.5630937814712524
1788800328002837000,6.2098369140625,0.42901611328125,-0.1138833537697792,0.5258771777153015
1788800328012806000,6.219805908203125,0.2912420928478241,-0.2527558207511902,0.4911273419857025
1788800328022775800,6.22977587890625,0.17528271675109863,-0.31355607509613037,0.40302541851997375
1788800328032745700,6.239745849609375,0.10087442398071289,-0.18078555166721344,0.292157918214798
1788800328042715000,6.24971484375,-0.019928956404328346,-0.04219678416848183,0.2912617623806
1788800328052684800,6.259684814453125,-0.03076709806919098,-0.250004380941391,0.2902402877807617
1788800328062655000,6.269655029296875,-0.062227021902799606,-0.5395486354827881,0.20162492990493774
1788800328072623900,6.279623779296875,-0.14892490208148956,-0.8369548916816711,0.03769799694418907
1788800328082593800,6.28959375,-0.34861111640930176,-0.8992204070091248,-0.12083704769611359
1788800328092564000,6.29956396484375,-0.5827062726020813,-0.6806139349937439,-0.28568679094314575
1788800328102532900,6.309532958984375,-0.6624255776405334,-0.16375002264976501,-0.48639699816703796
1788800328112502800,6.319502685546875,-0.618929922580719,0.21651692688465118,-0.668413519859314
1788800328122473000,6.329472900390625,-0.5437991619110107,0.27080199122428894,-0.7804747819900513
1788800328132442000,6.339442138671875,-0.4845820367336273,0.08992782980203629,-0.7923632264137268
1788800328142412000,6.349412109375,-0.44201353192329407,-0.1682874709367752,-0.7222366333007812
1788800328152381000,6.359380859375,-0.3997552692890167,-0.23839612305164337,-0.6342140436172485
1788800328162350800,6.369350830078125,-0.6147195100784302,-0.10383112728595734,-0.6167272329330444
1788800328172321500,6.379321533203125,-1.074816346168518,-0.0008611560333520174,-0.6529396176338196
1788800328182290400,6.38929052734375,-1.559440016746521,-0.21364958584308624,-0.8816342949867249
1788800328192260600,6.399260498046875,-1.9857922792434692,-0.5992509126663208,-1.2427623271942139
1788800328202230500,6.40923046875,-2.076047420501709,-0.63152015209198,-1.5935522317886353
1788800328212199400,6.419199462890625,-2.0113511085510254,-0.42481791973114014,-1.749051570892334
1788800328222169300,6.42916943359375,-1.9240615367889404,-0.4742145240306854,-1.7955178022384644
1788800328232138500,6.439138427734375,-1.92287278175354,-0.8404830098152161,-1.8076130151748657
1788800328242108700,6.449108642578125,-1.8728116750717163,-1.5074021816253662,-1.818747878074646
1788800328252078600,6.45907861328125,-1.7491121292114258,-2.2224795818328857,-1.8381226062774658
1788800328262047500,6.469047607421875,-1.5007926225662231,-2.6414639949798584,-1.8418124914169312
1788800328272017400,6.479017333984375,-1.2626309394836426,-2.2589592933654785,-1.764139175415039
1788800328281987300,6.4889873046875,-1.0875505208969116,-1.4338655471801758,-1.508739709854126
1788800328291956500,6.49895654296875,-0.909125804901123,-0.40681079030036926,-1.3566641807556152
1788800328301926400,6.508926513671875,-0.8597404360771179,0.7355883717536926,-1.3947789669036865
1788800328311896600,6.518896484375,-1.005616545677185,1.4512368440628052,-1.523655652999878
1788800328321865500,6.528865478515625,-1.2635629177093506,1.6984200477600098,-1.4784178733825684
1788800328331835400,6.53883544921875,-1.4394313097000122,1.3674659729003906,-1.2248886823654175
1788800328341805600,6.5488056640625,-1.5087859630584717,0.7536084651947021,-0.7847381830215454
1788800328351774500,6.5587744140625,-0.8797171115875244,0.6595503091812134,-0.5983703136444092
1788800328361744400,6.568744384765625,-0.8048779964447021,2.194836139678955,-0.7571144104003906
1788800328371713300,6.57871337890625,-1.989426612854004,5.435888767242432,-0.7343983054161072
1788800328381683700,6.58868359375,-1.3503262996673584,2.661292552947998,-0.32450395822525024
1788800328391653600,6.598653564453125,-0.979141116142273,-0.11532706022262573,-0.2907065451145172
1788800328401622500,6.60862255859375,-0.8062081933021545,-0.3863159418106079,-0.03262975066900253
1788800328411592400,6.618592529296875,-0.5164778828620911,0.09037932008504868,0.25374242663383484
1788800328421562400,6.628562255859375,-0.18509861826896667,0.20388589799404144,0.3351256847381592
1788800328431531500,6.638531494140625,0.08103866875171661,0.257934033870697,0.31391701102256775
1788800328441501400,6.64850146484375,0.32214128971099854,0.26550137996673584,0.31620973348617554
1788800328451471600,6.6584716796875,0.4429933726787567,0.20138396322727203,0.40925997495651245
1788800328461440500,6.6684404296875,0.46297532320022583,0.2139974981546402,0.44790270924568176
1788800328471410400,6.678410400390625,0.3518165647983551,0.3349064290523529,0.4410117566585541
1788800328481380400,6.68838037109375,0.38605546951293945,0.34730610251426697,0.31240078806877136
1788800328491349500,6.698349609375,0.4295739233493805,0.5861679911613464,0.16775858402252197
1788800328501319400,6.7083193359375,0.4856705069541931,0.8776648044586182,0.07904842495918274
1788800328511288300,6.718288330078125,0.33068129420280457,0.8756614327430725,0.07693511247634888
1788800328521258500,6.728258544921875,0.13030612468719482,0.7946374416351318,0.19027258455753326
1788800328531228400,6.738228515625,0.11463234573602676,0.8862960338592529,0.18900543451309204
1788800328541197600,6.748197509765625,0.07518640160560608,1.0252888202667236,0.15132303535938263
1788800328551167500,6.75816748046875,0.06439770013093948,0.8080269694328308,0.19145692884922028
1788800328561137400,6.768137451171875,0.16910892724990845,0.7055554389953613,0.2295806109905243
1788800328571106600,6.7781064453125,0.4693668782711029,0.5976219773292542,0.300952672958374
1788800328581076500,6.788076416015625,0.8999611735343933,0.7257506847381592,0.3306970000267029
1788800328591046700,6.798046630859375,1.334255337715149,0.9114489555358887,0.28057000041007996
1788800328601015600,6.808015625,1.6151444911956787,0.5889707803726196,0.2556483745574951
1788800328610985500,6.8179853515625,1.69858980178833,0.1837998628616333,0.2849578559398651
1788800328620954600,6.82795458984375,1.5414795875549316,0.48128244280815125,0.44556671380996704
1788800328630924500,6.837924560546875,1.6900497674942017,0.6419236063957214,0.546246349811554
1788800328640894500,6.84789453125,1.9912793636322021,0.6505831480026245,0.6449300050735474
1788800328650863400,6.85786328125,2.1550121307373047,0.725543200969696,0.7485225200653076
1788800328660833500,6.86783349609375,2.3048110008239746,0.4274364113807678,0.7666709423065186
1788800328670803500,6.877803466796875,2.478624105453491,0.0822935625910759,0.800632655620575
1788800328680772600,6.887772705078125,2.7139780521392822,0.030456464737653732,0.8396082520484924
1788800328690742500,6.897742431640625,3.0006072521209717,0.05633050575852394,0.7861868143081665
1788800328700712400,6.90771240234375,3.147874116897583,0.03690434247255325,0.6583119630813599
1788800328710681300,6.917681396484375,3.1797444820404053,-0.06801918894052505,0.4180932939052582
1788800328720651300,6.9276513671875,3.215291738510132,-0.035413842648267746,0.07777965068817139
1788800328730620400,6.937620361328125,3.0201239585876465,-0.10852441191673279,-0.23747700452804565
1788800328740590600,6.947590576171875,2.4717907905578613,-0.7286971807479858,-0.2513813376426697
1788800328750560500,6.957560546875,1.8758717775344849,-1.0311081409454346,-0.018417436629533768
1788800328760529400,6.967529296875,1.9354517459869385,-0.6964126825332642,0.15972699224948883
1788800328770499600,6.97749951171875,1.8068372011184692,0.14677168428897858,0.405645489692688
1788800328780469500,6.987469482421875,2.2356064319610596,0.528165340423584,0.4371320307254791
1788800328790438400,6.9974384765625,2.5508065223693848,0.5757961273193359,0.6522849202156067
1788800328800408300,7.007408203125,2.838439464569092,0.30419471859931946,0.6827045679092407
1788800328810378500,7.01737841796875,2.985414743423462,-0.07848381251096725,0.5839929580688477
1788800328820347600,7.02734765625,3.2313625812530518,0.6001790761947632,0.6213690638542175
1788800328830317600,7.037317626953125,3.383530378341675,1.8693962097167969,0.46680280566215515
1788800328840287500,7.04728759765625,3.411339282989502,2.768582582473755,0.3865865468978882
1788800328850256400,7.05725634765625,3.2938711643218994,2.909782886505127,0.4356229305267334
1788800328860226300,7.067226318359375,2.1544747352600098,1.9638702869415283,0.4834730327129364
1788800328870195500,7.077195556640625,1.7856813669204712,1.0433783531188965,0.5673395991325378
1788800328880165600,7.08716552734375,1.9354043006896973,0.8841227293014526,0.5484684705734253
1788800328890135600,7.097135498046875,1.7204232215881348,1.366687536239624,0.4943734109401703
1788800328900104400,7.1071044921875,1.4267308712005615,1.4158939123153687,0.4202653467655182
1788800328910074400,7.117074462890625,1.306753396987915,0.8773869276046753,0.3886750638484955
1788800328920044500,7.12704443359375,1.1766259670257568,0.5328966379165649,0.2924606204032898
1788800328930013400,7.137013427734375,0.8553369045257568,0.5130336284637451,0.21227946877479553
1788800328939983400,7.1469833984375,0.44304341077804565,0.4995388686656952,0.20261245965957642
1788800328949953500,7.15695361328125,0.006648717448115349,0.3686242699623108,0.2932717800140381
1788800328959922400,7.16692236328125,-0.37254494428634644,0.25259992480278015,0.283304363489151
1788800328969892600,7.176892578125,-0.6885305047035217,0.3711051344871521,0.18337173759937286
1788800328979861500,7.186861572265625,-1.0220948457717896,0.8156493306159973,0.1972779780626297
1788800328989831400,7.19683154296875,-1.3518807888031006,1.2205841541290283,0.3061476945877075
1788800328999801300,7.20680126953125,-1.5110845565795898,1.3972712755203247,0.3168858289718628
1788800329009770500,7.2167705078125,-1.508180856704712,0.19330157339572906,-0.21082642674446106
1788800329019740700,7.22674072265625,-1.9634578227996826,-0.7317825555801392,-0.4779433310031891
1788800329029710600,7.236710693359375,-2.579982042312622,-0.7236003875732422,-0.496812641620636
1788800329039679500,7.246679443359375,-3.074263095855713,-0.727576732635498,-0.44542431831359863
1788800329049649400,7.2566494140625,-3.4565091133117676,-0.7421441674232483,-0.3835536241531372
1788800329059619300,7.266619384765625,-3.612813711166382,-0.6173372268676758,-0.45744648575782776
1788800329069588500,7.27658837890625,-3.793180465698242,-0.4072377681732178,-0.5366170406341553
1788800329079558400,7.286558349609375,-4.037845134735107,0.15831349790096283,-0.4254303276538849
1788800329089527300,7.29652734375,-4.043117523193359,0.5561059713363647,-0.3017866909503937
1788800329099497500,7.30649755859375,-3.7940070629119873,0.7740521430969238,-0.2583127021789551
1788800329109467400,7.31646728515625,-3.491934061050415,1.1991994380950928,-0.31311240792274475
1788800329119436500,7.3264365234375,-3.042478084564209,1.9632041454315186,-0.23627251386642456
1788800329129406500,7.336406494140625,-2.3128676414489746,2.7294766902923584,0.11951786279678345
1788800329139376400,7.34637646484375,-1.4188055992126465,2.5410666465759277,0.6729884743690491
1788800329149345300,7.35634521484375,-0.6549213528633118,2.84951114654541,1.1741551160812378
1788800329159315700,7.366315673828125,-0.5486345887184143,1.9138771295547485,1.0614279508590698
1788800329169285600,7.37628564453125,0.05332055315375328,0.8439684510231018,0.9276039004325867
1788800329179254000,7.38625390625,0.4359126687049866,0.9004202485084534,0.8329833745956421
1788800329189224000,7.396223876953125,0.7831690311431885,1.612082839012146,0.602294385433197
1788800329199193000,7.406193115234375,0.9963502883911133,1.5591706037521362,0.356208473443985
1788800329209163000,7.4161630859375,0.9667853713035583,0.7119240760803223,0.31520020961761475
1788800329219133000,7.4261328125,1.904066801071167,0.7556723952293396,0.22419947385787964
1788800329229101800,7.436101806640625,2.2731502056121826,-0.17494072020053864,0.34377309679985046
1788800329239072000,7.446072021484375,2.3719630241394043,-0.16837336122989655,0.17650020122528076
1788800329249042000,7.4560419921875,1.5445538759231567,-0.1427639275789261,-0.17492666840553284
1788800329259011000,7.466010986328125,0.15723763406276703,-0.8050957918167114,-0.35719284415245056
1788800329268981000,7.47598095703125,-0.5832787156105042,-0.8382493257522583,-0.3621824383735657
1788800329278951000,7.485950927734375,-0.28795382380485535,-0.7137798070907593,-0.15402792394161224
1788800329288919800,7.495919921875,-0.27829140424728394,-0.705110490322113,-0.09213665127754211
1788800329298890000,7.505889892578125,-0.4805707633495331,-0.4643769860267639,-0.03426429629325867
1788800329308860200,7.515860107421875,-0.6333593726158142,-0.5702527761459351,-0.06039031222462654
1788800329318829000,7.5258291015625,-0.8254973888397217,-0.38207173347473145,-0.02110416255891323
1788800329328799000,7.535799072265625,-0.9358486533164978,0.005635540932416916,0.07553582638502121
1788800329338768100,7.54576806640625,-1.0199060440063477,0.39067161083221436,0.10344522446393967
1788800329348738000,7.555738037109375,-1.085564136505127,0.6170118451118469,0.17303526401519775
1788800329358708000,7.5657080078125,-0.9180775880813599,0.5808599591255188,0.16589319705963135
1788800329368676900,7.5756767578125,-0.6448376178741455,0.2132789045572281,0.12354062497615814
1788800329378647000,7.58564697265625,-0.4639221727848053,-0.22030769288539886,0.08014653623104095
1788800329388617000,7.595616943359375,-0.3686683177947998,-0.46583935618400574,0.029608599841594696
1788800329398586000,7.605586181640625,-0.2783903479576111,-0.41475751996040344,-0.07194732129573822
1788800329408556000,7.61555615234375,-0.06041385978460312,-0.13223208487033844,-0.1527530401945114
1788800329418526000,7.62552587890625,0.03845492750406265,0.07125205546617508,-0.1737334132194519
1788800329428494800,7.635494873046875,0.14170630276203156,0.22477096319198608,-0.19406867027282715
1788800329438464800,7.64546484375,0.23759740591049194,0.18888381123542786,-0.14902077615261078
1788800329448434000,7.655433837890625,0.26050394773483276,0.1699521392583847,-0.06228146702051163
1788800329458404000,7.665404052734375,0.0626705065369606,0.5745680928230286,0.272041916847229
1788800329468374000,7.6753740234375,0.21628499031066895,1.5391823053359985,0.796516478061676
1788800329478343000,7.685343017578125,0.7600420713424683,1.4132721424102783,0.8440712094306946
1788800329488312800,7.695312744140625,1.498146414756775,0.2015651911497116,0.5503412485122681
1788800329498283000,7.705282958984375,2.019526720046997,-1.128848910331726,0.2715517282485962
1788800329508252000,7.715251953125,2.221484899520874,-1.8812795877456665,0.2633640170097351
1788800329518222000,7.72522216796875,2.027845621109009,-2.044621229171753,0.07073571532964706
1788800329528192000,7.73519189453125,2.101174831390381,-2.4921817779541016,-0.878933846950531
1788800329538161200,7.7451611328125,2.4476819038391113,-0.8910156488418579,-1.0367172956466675
1788800329548131000,7.755131103515625,2.445505380630493,0.3415789008140564,-0.49072155356407166
1788800329558100000,7.765099853515625,2.263655424118042,0.8547186255455017,0.3000897169113159
1788800329568070000,7.77506982421875,2.1034207344055176,1.525897741317749,0.7826810479164124
1788800329578039800,7.785039794921875,1.949450135231018,2.191861867904663,0.9120318293571472
1788800329588009000,7.795009033203125,1.832903265953064,2.1406917572021484,0.5850371718406677
1788800329597979100,7.804979248046875,1.7376604080200195,1.9508259296417236,0.22483375668525696
1788800329607949000,7.814948974609375,1.7497665882110596,1.783485770225525,-0.030151931568980217
1788800329617918000,7.82491796875,1.5108531713485718,0.4905988574028015,-0.9767728447914124
1788800329627887900,7.834887939453125,1.3601446151733398,0.8831774592399597,-1.171005368232727
1788800329637857800,7.84485791015625,1.184915542602539,0.6277757883071899,-1.3285102844238281
1788800329647827000,7.854826904296875,0.9880914688110352,1.150626301765442,-1.1830044984817505
1788800329657797000,7.864797119140625,0.7810456156730652,1.9717837572097778,-0.6761913895606995
1788800329667766000,7.87476611328125,0.6340917348861694,2.2094979286193848,-0.0400104746222496
1788800329677736000,7.88473583984375,0.5045696496963501,1.516541600227356,0.23116616904735565
1788800329687706000,7.8947060546875,0.476084440946579,0.9246363639831543,0.1840987503528595
1788800329697675000,7.904675048828125,0.4885890483856201,0.7613670229911804,-0.10191302746534348
1788800329707645000,7.91464501953125,0.585768461227417,0.5229286551475525,-0.39451172947883606
1788800329717614800,7.92461474609375,0.6637383699417114,0.09325500577688217,-0.6752217411994934
1788800329727584000,7.934583984375,0.6982231140136719,-0.18818633258342743,-0.9531153440475464
1788800329737554200,7.94455419921875,0.6726232171058655,-0.08054322004318237,-1.166398525238037
1788800329747524000,7.954524169921875,0.5705612897872925,0.06988035142421722,-1.2791740894317627
1788800329757493000,7.964492919921875,0.6177866458892822,0.13113252818584442,-1.2760142087936401
1788800329767463000,7.974462890625,0.5823226571083069,-0.06026739999651909,-1.1098405122756958
1788800329777432000,7.98443212890625,0.3025277853012085,-0.16740795969963074,-0.629462718963623
1788800329787402000,7.994402099609375,-0.1662503480911255,0.05668102577328682,-0.12290945649147034
1788800329797372000,8.004371826171875,-0.4841066300868988,0.13968242704868317,-0.001510851550847292
1788800329807340800,8.0143408203125,-0.6480110287666321,0.07423125952482224,-0.15968389809131622
1788800329817311000,8.02431103515625,-0.5980056524276733,0.010303149931132793,-0.4052755534648895
1788800329827281000,8.034281005859375,-0.4759708046913147,-0.07762369513511658,-0.497944712638855
1788800329837250000,8.04425,-0.4501360058784485,0.08394362777471542,-0.5012081265449524
1788800329847220000,8.054219970703125,-0.49926331639289856,0.16207540035247803,-0.50016850233078
1788800329857188900,8.06418896484375,-0.5482468605041504,-0.04147639870643616,-0.5255563855171204
1788800329867158800,8.07415869140625,-0.5511237978935242,-0.07934534549713135,-0.49275997281074524
1788800329877129000,8.08412890625,-0.5592256188392639,-0.19947628676891327,-0.41297832131385803
1788800329887098000,8.09409814453125,-0.6015565991401672,-0.29754599928855896,-0.28646039962768555
1788800329897068000,8.104068115234375,-0.6946969628334045,-0.2810804843902588,-0.14545799791812897
1788800329907038000,8.114037841796875,-0.8328506946563721,-0.010235789231956005,-0.015747539699077606
1788800329917006800,8.1240068359375,-1.032880425453186,0.33203259110450745,0.07997658848762512
1788800329926977000,8.13397705078125,-1.2670435905456543,0.5170508623123169,0.09964308142662048
1788800329936947000,8.143947021484376,-1.4671099185943604,0.5396368503570557,0.05351180210709572
1788800329946915800,8.153915771484375,-1.5970854759216309,0.4454742670059204,-0.05169326812028885
1788800329956886000,8.163885986328125,-1.6744502782821655,0.5106216073036194,-0.1311955451965332
1788800329966855200,8.173855224609374,-1.7431588172912598,0.7228856086730957,-0.1105390340089798
1788800329976825000,8.1838251953125,-1.8726017475128174,0.7979893684387207,0.03919107839465141
1788800329986795000,8.193794921875,-2.014993190765381,0.6776832342147827,0.34171366691589355
1788800329996764000,8.203763916015625,-2.170670509338379,0.43561190366744995,0.7076119184494019
1788800330006733800,8.21373388671875,-2.2852320671081543,0.27086395025253296,0.9975285530090332
1788800330016704000,8.2237041015625,-2.328554391860962,0.38294896483421326,1.1023796796798706
1788800330026673200,8.233673095703125,-2.3277604579925537,0.40900325775146484,0.985460638999939
1788800330036643000,8.24364306640625,-2.157869815826416,0.24557732045650482,0.8042184114456177
1788800330046613000,8.253613037109375,-1.9655872583389282,-0.07026947289705276,0.5586163401603699
1788800330056582000,8.263581787109375,-1.8882766962051392,-0.5110844373703003,0.2453061193227768
1788800330066551800,8.2735517578125,-1.934984803199768,-0.5452245473861694,-0.08159959316253662
1788800330076521000,8.28352099609375,-2.025339365005493,-0.5517205595970154,-0.2674664258956909
1788800330086491000,8.293490966796876,-2.0896434783935547,-0.71658855676651,-0.331292062997818
1788800330096461000,8.3034609375,-2.1813926696777344,-0.9111721515655518,-0.2764911353588104
1788800330106430000,8.313429931640625,-2.314840078353882,-0.9261680841445923,-0.12792707979679108
1788800330116400000,8.323400146484374,-2.407074451446533,-0.7966103553771973,0.012250799685716629
1788800330126370000,8.3333701171875,-2.3927154541015625,-0.7010094523429871,0.09982654452323914
1788800330136339000,8.3433388671875,-2.218527317047119,-0.8653882741928101,0.12803366780281067
1788800330146308900,8.353308837890625,-1.975762128829956,-1.1286852359771729,0.1557423621416092
1788800330156278000,8.363278076171875,-1.8167812824249268,-1.3235005140304565,0.10685817152261734
1788800330166248200,8.373248291015624,-1.700252652168274,-1.285806655883789,-0.026085175573825836
1788800330176218400,8.38321826171875,-1.5174399614334106,-1.186599612236023,-0.17317582666873932
1788800330186187300,8.393187255859376,-1.2867459058761597,-1.2207942008972168,-0.2720142602920532
1788800330196157400,8.403157470703125,-1.0488537549972534,-1.1527674198150635,-0.3286868631839752
1788800330206127400,8.41312744140625,-0.7587490677833557,-0.9960165619850159,-0.306001752614975
1788800330216096500,8.423096435546874,-0.5579259395599365,-0.9134119749069214,-0.1654403656721115
1788800330226066400,8.43306640625,-0.6323457956314087,-0.6467491984367371,0.06932449340820312
1788800330236036400,8.443036376953126,-0.7941709160804749,-0.22749146819114685,0.27255216240882874
1788800330246005200,8.453005126953125,-0.7806504368782043,-0.01742839813232422,0.38474705815315247
1788800330255975200,8.46297509765625,-0.5811426639556885,-0.028070122003555298,0.415377140045166
1788800330265944300,8.4729443359375,-0.32459238171577454,-0.0003538059536367655,0.41391292214393616
1788800330275914500,8.48291455078125,-0.18168368935585022,0.04085567966103554,0.49603310227394104
1788800330285884400,8.492884521484376,-0.07360639423131943,-0.07528316229581833,0.5953030586242676
1788800330295853300,8.502853271484375,0.04484301805496216,-0.16629083454608917,0.6212835311889648
1788800330305823200,8.5128232421875,0.13366815447807312,-0.11997142434120178,0.5650742053985596
1788800330315793200,8.522793212890624,0.22047816216945648,-0.11307436972856522,0.5126293897628784
1788800330325762300,8.53276220703125,0.3136318325996399,-0.030688712373375893,0.5096365809440613
1788800330335732500,8.542732421875,0.44581010937690735,0.34139272570610046,0.5142587423324585
1788800330345701400,8.552701416015625,0.670267641544342,0.8142361044883728,0.574315071105957
1788800330355671300,8.56267138671875,0.9511392712593079,0.8779442310333252,0.6476649045944214
1788800330365641500,8.572641357421874,1.1499686241149902,0.7265436053276062,0.620091438293457
1788800330375610400,8.5826103515625,1.2470237016677856,0.5695750117301941,0.46898290514945984
1788800330385580300,8.592580322265626,1.3436356782913208,0.7381070852279663,0.25996118783950806
1788800330395550200,8.60255029296875,1.4766112565994263,0.6680899262428284,0.2377733439207077
1788800330405519400,8.612519287109375,1.616965651512146,0.5772576332092285,0.2809235453605652
1788800330415489500,8.622489501953124,1.7843431234359741,0.5092521905899048,0.3112364411354065
1788800330425459500,8.63245947265625,2.0128166675567627,0.43797019124031067,0.33786994218826294
1788800330435428400,8.642428466796876,2.259467124938965,0.39118272066116333,0.36516574025154114
1788800330445398300,8.652398193359375,2.3913068771362305,0.3713069260120392,0.38634875416755676
1788800330455367400,8.662367431640625,2.4167351722717285,0.47889944911003113,0.3201686441898346
1788800330465337300,8.67233740234375,2.408407211303711,0.691556453704834,0.22638669610023499
1788800330475307500,8.6823076171875,2.4385433197021484,0.7987790107727051,0.1830887645483017
1788800330485276400,8.6922763671875,2.549736976623535,0.7621844410896301,0.23062455654144287
1788800330495246300,8.702246337890625,2.656851291656494,0.6664600968360901,0.34430187940597534
1788800330505216300,8.71221630859375,2.7019736766815186,0.5781510472297668,0.48028862476348877
1788800330515185400,8.722185302734376,2.5762038230895996,0.5872963666915894,0.5912671089172363
1788800330525155300,8.7321552734375,2.3222007751464844,0.7000678777694702,0.6379557251930237
1788800330535124200,8.742124267578125,2.017085313796997,0.8293477892875671,0.6239248514175415
1788800330545094100,8.75209423828125,1.8201134204864502,0.9318921566009521,0.6910720467567444
1788800330555064300,8.762064208984375,1.7417075634002686,1.0848788022994995,0.6199795007705688
1788800330565033500,8.772033447265626,1.7125117778778076,1.127848505973816,0.3343803584575653
1788800330575003400,8.78200341796875,1.7452521324157715,1.1244990825653076,-0.0584992915391922
1788800330584973300,8.791973388671876,1.8109936714172363,0.9105793833732605,-0.4672446846961975
1788800330594942200,8.801942138671874,1.8523850440979004,0.5000467300415039,-0.7673837542533875
1788800330604912400,8.811912353515625,1.7741420269012451,0.37456074357032776,-0.8547129034996033
1788800330614881300,8.82188134765625,1.565093755722046,0.43499186635017395,-0.8091805577278137
1788800330624851500,8.8318515625,1.3406347036361694,0.09461992233991623,-0.767937421798706
1788800330634821400,8.8418212890625,1.191699504852295,-0.4747175872325897,-0.708536684513092
1788800330644790500,8.85179052734375,1.078465223312378,-0.6479572057723999,-0.5587624907493591
1788800330654760400,8.861760498046875,0.9495115280151367,-0.49685215950012207,-0.3585612177848816
1788800330664730400,8.87173046875,0.7880746126174927,-0.2911038398742676,-0.1994888335466385
1788800330674699300,8.88169921875,0.6645106077194214,-0.26192596554756165,-0.10675197839736938
1788800330684669200,8.891669189453125,0.549297571182251,-0.19827304780483246,-0.03300226479768753
1788800330694638300,8.901638427734374,0.41112980246543884,-0.04148077592253685,0.00248116091825068
1788800330704608500,8.9116083984375,0.2752078175544739,-0.026245540007948875,-0.01836591772735119
1788800330714578400,8.921578369140626,0.21233750879764557,0.03517894074320793,-0.03600936010479927
1788800330724547300,8.93154736328125,0.1199648454785347,0.22026114165782928,-0.05161347985267639
1788800330734517200,8.941517333984375,0.04233423247933388,0.3155288100242615,-0.08502896130084991
1788800330744487200,8.951487060546874,-0.011839316226541996,0.26566582918167114,-0.12600360810756683
1788800330754456300,8.961456298828125,-0.039666686207056046,0.1667405664920807,-0.1028708666563034
1788800330764426500,8.971426513671876,-0.05773371830582619,0.19500501453876495,-0.030780311673879623
1788800330774396400,8.981396484375,-0.12435135990381241,0.3660278916358948,0.003651965409517288
1788800330784365300,8.991365234375,-0.2563532888889313,0.5896041989326477,-0.032048698514699936
1788800330794335500,9.00133544921875,-0.36928194761276245,0.550284206867218,-0.08818893134593964
1788800330804304400,9.011304443359375,-0.4428776204586029,0.25508758425712585,-0.06043427810072899
1788800330814274300,9.0212744140625,-0.49813902378082275,-0.05579917132854462,0.04660003259778023
1788800330824244200,9.031244140625,-0.5566191077232361,-0.13988551497459412,0.21717678010463715
1788800330834213400,9.04121337890625,-0.6830838322639465,-0.11434871703386307,0.40094712376594543
1788800330844183600,9.05118359375,-0.8824838995933533,-0.20288541913032532,0.48056912422180176
1788800330854153500,9.061153564453125,-1.1077615022659302,-0.1587107628583908,0.46773001551628113
1788800330864122400,9.071122314453126,-1.3058156967163086,-0.09976378828287125,0.4724574387073517
1788800330874092300,9.08109228515625,-1.4829233884811401,-0.06290963292121887,0.5354808568954468
1788800330884061400,9.0910615234375,-1.6631871461868286,-0.048832252621650696,0.6067625284194946
1788800330894031400,9.10103125,-1.848373532295227,-0.07320470362901688,0.6528448462486267
1788800330904001300,9.111001220703125,-1.9773980379104614,0.00031688064336776733,0.6427782773971558
1788800330913970400,9.120970458984376,-2.0537781715393066,-0.08972592651844025,0.6159219145774841
1788800330923940400,9.1309404296875,-2.1010091304779053,-0.1945582777261734,0.5695128440856934
1788800330933910300,9.14091015625,-2.1785809993743896,-0.09366469830274582,0.4638068974018097
1788800330943879400,9.15087939453125,-2.2735044956207275,-0.04391955956816673,0.36356034874916077
1788800330953849300,9.160849365234375,-2.3130881786346436,0.03107238933444023,0.2665882408618927
1788800330963818200,9.170818359375,-2.2886767387390137,0.12241862714290619,0.1704164296388626
1788800330973788200,9.1807880859375,-2.185473680496216,0.0644296333193779,0.10318014025688171
1788800330983758300,9.19075830078125,-2.0653254985809326,-0.057931337505578995,0.11018083989620209
1788800330993727500,9.2007275390625,-1.9977383613586426,-0.12914294004440308,0.26980671286582947
1788800331003697400,9.210697509765625,-2.0741333961486816,-0.1014302521944046,0.508786141872406
1788800331013667300,9.220667236328126,-2.176530599594116,-0.2569383680820465,0.6399627923965454
1788800331023636200,9.23063623046875,-2.2371747493743896,-0.4847748875617981,0.5745445489883423
1788800331033606400,9.2406064453125,-2.2630791664123535,-0.6279072761535645,0.4066751003265381
1788800331043575300,9.2505751953125,-2.2255895137786865,-0.6773119568824768,0.28768718242645264
1788800331053545200,9.260545166015625,-2.0793228149414062,-0.6620203852653503,0.2875971794128418
1788800331063515400,9.270515380859376,-1.8461614847183228,-0.7643074989318848,0.36907389760017395
1788800331073484500,9.280484619140625,-1.6806249618530273,-0.8695814609527588,0.49226507544517517
1788800331083454500,9.290454345703125,-1.566804051399231,-1.078738808631897,0.5533049702644348
1788800331093424400,9.30042431640625,-1.4502837657928467,-1.2504132986068726,0.4809303879737854
1788800331103393300,9.310393310546875,-1.3392781019210815,-1.158600091934204,0.4638362228870392
1788800331113363200,9.32036328125,-1.2836867570877075,-1.0434032678604126,0.5682350397109985
1788800331123332400,9.330332275390624,-1.248439908027649,-0.965356171131134,0.7894262075424194
1788800331133302500,9.340302490234375,-1.13596510887146,-0.9038150310516357,0.9664896130561829
1788800331143272400,9.3502724609375,-0.9197893738746643,-0.8009194135665894,0.9767403602600098
1788800331153241300,9.360241455078125,-0.7234675288200378,-0.7246981859207153,0.8714315295219421
1788800331163211300,9.370211181640625,-0.6184787750244141,-0.6073235273361206,0.7333748936653137
1788800331173181700,9.380181640625,-0.5670728087425232,-0.4444211721420288,0.6439488530158997
1788800331183150800,9.39015087890625,-0.5263024568557739,-0.3198964595794678,0.6079440116882324
1788800331193121000,9.40012109375,-0.4526948034763336,-0.11042659729719162,0.5929836630821228
1788800331203090000,9.41008984375,-0.350021630525589,0.14037084579467773,0.5845524668693542
1788800331213059800,9.420059814453126,-0.19229939579963684,0.466154009103775,0.5798909068107605
1788800331223029800,9.43002978515625,-0.0061964839696884155,0.6441616415977478,0.5511230230331421
1788800331232999000,9.4399990234375,0.16464662551879883,0.7297806739807129,0.46707579493522644
1788800331242968800,9.44996875,0.2690727710723877,0.6907716989517212,0.38630762696266174
1788800331252938800,9.459938720703125,0.3525839149951935,0.6452543139457703,0.30065369606018066
1788800331262907600,9.46990771484375,0.4181177616119385,0.559590220451355,0.23503218591213226
1788800331272877800,9.4798779296875,0.4345089793205261,0.6107457876205444,0.166032075881958
1788800331282847000,9.489846923828125,0.42455968260765076,0.7451142072677612,0.16600145399570465
1788800331292817000,9.49981689453125,0.45340412855148315,0.828355073928833,0.22034591436386108
1788800331302786800,9.509786865234375,0.5813904404640198,0.8288035988807678,0.25221848487854004
1788800331312755700,9.519755615234375,0.721247673034668,0.8465428948402405,0.17630214989185333
1788800331322726000,9.529725830078124,0.892829418182373,0.8910782337188721,-0.03152390569448471
1788800331332694800,9.53969482421875,1.0833595991134644,0.8529806137084961,-0.3186395764350891
1788800331342665000,9.5496650390625,1.2654047012329102,0.7614046931266785,-0.5932211875915527
1788800331352635000,9.559634765625,1.4497740268707275,0.5732805728912354,-0.7405821084976196
1788800331362603800,9.569603759765625,1.6610254049301147,0.41953563690185547,-0.7807489037513733
1788800331372574000,9.579573974609374,1.8482320308685303,0.28283610939979553,-0.7239921689033508
1788800331382544000,9.5895439453125,1.9737815856933594,0.13294079899787903,-0.566214919090271
1788800331392512800,9.5995126953125,1.9753552675247192,0.0003060526214540005,-0.324464350938797
1788800331402482700,9.609482666015625,1.7991622686386108,0.012816579081118107,-0.06527802348136902
1788800331412451800,9.619451904296875,1.4771091938018799,0.33638426661491394,0.1690537929534912
1788800331422422000,9.629422119140624,1.1367050409317017,0.7714306116104126,0.3134072721004486
1788800331432392000,9.639391845703125,0.9743252396583557,1.0673426389694214,0.2527199685573578
1788800331442360800,9.64936083984375,1.0234531164169312,1.1066584587097168,0.15031744539737701
1788800331452330800,9.659330810546875,0.9437726736068726,1.0941275358200073,0.01281018927693367
1788800331462300700,9.66930078125,0.69633948802948,1.1869709491729736,-0.18914978206157684
1788800331472269800,9.679269775390624,0.42421820759773254,1.2294985055923462,-0.24811136722564697
1788800331482240000,9.689239990234375,0.15823447704315186,1.0669276714324951,-0.18125857412815094
1788800331492209000,9.699208984375,-0.059945520013570786,0.8148630857467651,-0.07261917740106583
1788800331502178800,9.7091787109375,-0.20340655744075775,0.5822871327400208,0.02227138727903366
1788800331512148700,9.719148681640625,-0.25763675570487976,0.383480042219162,0.08931832760572433
1788800331522118000,9.729117919921874,-0.2541310489177704,0.2642010748386383,0.11106667667627335
1788800331532087800,9.739087890625,-0.3079937696456909,0.2314785271883011,0.11147920042276382
1788800331542057700,9.7490576171875,-0.4919467866420746,0.28464996814727783,0.09005467593669891
1788800331552026600,9.759026611328125,-0.7308962345123291,0.2248942106962204,0.03175780922174454
1788800331561997000,9.7689970703125,-0.8790242075920105,0.05664229020476341,-0.107207290828228
1788800331571966000,9.778966064453124,-0.9187436103820801,-0.07138597965240479,-0.264235258102417
1788800331581935900,9.788935791015625,-0.9149254560470581,-0.07512997835874557,-0.328972727060318
1788800331591905800,9.79890576171875,-0.9203513860702515,-0.12510766088962555,-0.2985868453979492
1788800331601875000,9.808875,-0.9532601237297058,-0.29735898971557617,-0.26023367047309875
1788800331611844900,9.818844970703125,-1.0050644874572754,-0.4540572762489319,-0.2589010000228882
1788800331621813800,9.828813720703126,-1.0776962041854858,-0.5776712894439697,-0.2931934595108032
1788800331631784000,9.838783935546875,-1.1527470350265503,-0.6949158906936646,-0.35427358746528625
1788800331641753900,9.84875390625,-1.1939547061920166,-0.8371485471725464,-0.3941124677658081
1788800331651723000,9.858722900390624,-1.187442660331726,-0.9234647750854492,-0.3697240650653839
1788800331661693000,9.86869287109375,-1.145727276802063,-0.9114044904708862,-0.27924826741218567
1788800331671662800,9.878662841796874,-1.1050102710723877,-0.7549371123313904,-0.20549893379211426
1788800331681631700,9.8886318359375,-1.0327963829040527,-0.5521445274353027,-0.20590265095233917
1788800331691601700,9.8986015625,-0.9375953078269958,-0.46741417050361633,-0.22285820543766022
1788800331701570800,9.90857080078125,-0.8249332904815674,-0.5449129343032837,-0.18981166183948517
1788800331711541000,9.918541015625,-0.6948325634002686,-0.6069603562355042,-0.15931127965450287
1788800331721511000,9.928510986328124,-0.5766718983650208,-0.6641642451286316,-0.1941644251346588
1788800331731479800,9.938479736328125,-0.5174797177314758,-0.7702504992485046,-0.2825981378555298
1788800331741449700,9.94844970703125,-0.46404993534088135,-0.8175310492515564,-0.3346351981163025
1788800331751420000,9.958419921875,-0.4016081392765045,-0.717732846736908,-0.332914799451828
1788800331761388800,9.968388916015625,-0.322514146566391,-0.5462940335273743,-0.2894730865955353
1788800331771359000,9.97835888671875,-0.22516308724880219,-0.3732234239578247,-0.19668854773044586
1788800331781328000,9.988327880859375,-0.05975671485066414,-0.20751896500587463,-0.13484765589237213
1788800331791297800,9.9982978515625,0.13029977679252625,-0.030122868716716766,-0.11844310909509659
1788800331801268000,10.00826806640625,0.268777996301651,0.09001335501670837,-0.12875065207481384
1788800331811236900,10.01823681640625,0.34716787934303284,0.10191848129034042,-0.18891625106334686
1788800331821206800,10.028206787109376,0.40725672245025635,0.018513262271881104,-0.20754379034042358
1788800331831175700,10.03817578125,0.4708663523197174,0.0905589610338211,-0.19719980657100677
1788800331841145900,10.048145751953125,0.5084142088890076,0.18958495557308197,-0.20587854087352753
1788800331851116000,10.058115966796874,0.536769688129425,0.25380203127861023,-0.19907896220684052
1788800331861085000,10.0680849609375,0.6112496256828308,0.2799958288669586,-0.16756674647331238
1788800331871054800,10.078054931640626,0.7090006470680237,0.19574777781963348,-0.12390289455652237
1788800331881024800,10.088024658203125,0.7895816564559937,0.20450840890407562,-0.09727593511343002
1788800331890994000,10.097993896484375,0.8414661884307861,0.18584629893302917,-0.11276621371507645
1788800331900963800,10.1079638671875,0.8218407034873962,0.18577377498149872,-0.18688689172267914
1788800331910932700,10.1179326171875,0.7672456502914429,0.20812222361564636,-0.2692001461982727
1788800331920903000,10.12790283203125,0.7282489538192749,0.22302016615867615,-0.3180673122406006
1788800331930872800,10.137872802734375,0.7040077447891235,0.27770018577575684,-0.28860265016555786
1788800331940842000,10.147842041015625,0.6708002090454102,0.32628506422042847,-0.15626515448093414
1788800331950812000,10.15781201171875,0.6212784647941589,0.3975251317024231,0.0005577509291470051
1788800331960781800,10.16778173828125,0.5756155848503113,0.4846915900707245,0.10317831486463547
1788800331970750700,10.177750732421876,0.5398365259170532,0.5433807969093323,0.11427944153547287
1788800331980720600,10.187720703125,0.504607081413269,0.5517034530639648,0.016666783019900322
1788800331990689800,10.197689697265625,0.44587403535842896,0.5408958196640015,-0.15945124626159668
1788800332000660000,10.207659912109374,0.35386162996292114,0.4820292592048645,-0.3168666362762451
1788800332010630000,10.2176298828125,0.22744429111480713,0.394160658121109,-0.4110221862792969
1788800332020598800,10.227598876953126,0.08712604641914368,0.3733801543712616,-0.41679510474205017
1788800332030569000,10.23756884765625,-0.02611183375120163,0.3522607386112213,-0.3817415237426758
1788800332040537900,10.247537841796875,-0.10184695571660995,0.3206332325935364,-0.33439943194389343
1788800332050507800,10.2575078125,-0.13760337233543396,0.2647675573825836,-0.30084094405174255
1788800332060478000,10.26747802734375,-0.17047640681266785,0.16806618869304657,-0.2964545488357544
1788800332070446800,10.27744677734375,-0.23386310040950775,-0.020356711000204086,-0.2873593270778656
1788800332080417000,10.2874169921875,-0.3295634090900421,-0.26604124903678894,-0.24056503176689148
1788800332090386000,10.297385986328125,-0.42023658752441406,-0.39145854115486145,-0.15477102994918823
1788800332100355800,10.30735595703125,-0.47110986709594727,-0.4242599904537201,-0.0725720077753067
1788800332110325800,10.31732568359375,-0.4826602637767792,-0.43702879548072815,-0.04959239065647125
1788800332120295000,10.327294921875,-0.46916624903678894,-0.3981708288192749,-0.07910071313381195
1788800332130264800,10.337264892578125,-0.4303506910800934,-0.3817894756793976,-0.10737390071153641
1788800332140235000,10.347235107421875,-0.3952231705188751,-0.3073657155036926,-0.10585255175828934
1788800332150204000,10.357203857421876,-0.3827292323112488,-0.32710427045822144,-0.09060515463352203
1788800332160173800,10.367173828125,-0.3771432340145111,-0.3573036193847656,-0.06674354523420334
1788800332170143000,10.37714306640625,-0.3804261088371277,-0.4375755488872528,-0.027009714394807816
1788800332180112400,10.3871123046875,-0.4084204435348511,-0.48123082518577576,-0.00579863041639328
1788800332190082300,10.397082275390625,-0.4592146575450897,-0.5706038475036621,0.0019580931402742863
1788800332200051200,10.40705126953125,-0.5164462924003601,-0.6671559810638428,-0.00566453579813242
1788800332210021400,10.417021484375,-0.5559521913528442,-0.7010442018508911,0.0011222632601857185
1788800332219990500,10.426990478515625,-0.5730634331703186,-0.5977953672409058,0.024486064910888672
1788800332229960400,10.43696044921875,-0.5449047684669495,-0.4785427153110504,0.054217591881752014
1788800332239930400,10.446930419921875,-0.5047115683555603,-0.39303848147392273,0.062092430889606476
1788800332249899300,10.456899169921876,-0.4415033161640167,-0.2740471065044403,0.045725975185632706
1788800332259869400,10.466869384765625,-0.3685826063156128,-0.20542608201503754,0.03504664823412895
1788800332269839400,10.47683935546875,-0.28868138790130615,-0.18174952268600464,0.06866639107465744
1788800332279808300,10.486808349609374,-0.20444205403327942,-0.1827709972858429,0.13387207686901093
1788800332289778400,10.4967783203125,-0.10518151521682739,-0.16560161113739014,0.17907017469406128
1788800332299747600,10.50674755859375,-0.05107048526406288,-0.06876593083143234,0.17384469509124756
1788800332309717500,10.516717529296875,-0.0400303490459919,0.08428620547056198,0.13619771599769592
1788800332319687400,10.5266875,-0.027716349810361862,0.1948137730360031,0.1417776644229889
1788800332329656300,10.53665625,0.006034954451024532,0.30409473180770874,0.18028829991817474
1788800332339626200,10.546626220703125,0.054387710988521576,0.3847680389881134,0.21426236629486084
1788800332349595400,10.556595458984376,0.10154243558645248,0.4081228971481323,0.23475565016269684
1788800332359565600,10.566565673828125,0.1569156050682068,0.3608931005001068,0.180190309882164
1788800332369535500,10.576535400390625,0.23342077434062958,0.3003149628639221,0.13570299744606018
1788800332379504400,10.58650439453125,0.32583048939704895,0.28848928213119507,0.12178147584199905
1788800332389474300,10.596474365234375,0.4406745135784149,0.28402024507522583,0.0897737443447113
1788800332399443500,10.606443359375,0.5524348616600037,0.2917897403240204,0.05279361829161644
1788800332409413400,10.616413330078124,0.6492101550102234,0.3405913710594177,0.07936850935220718
1788800332419383300,10.62638330078125,0.7136465311050415,0.3052494525909424,0.18393553793430328
1788800332429352200,10.636352294921876,0.7370471954345703,0.20839987695217133,0.3132154941558838
1788800332439322400,10.646322265625,0.7217382788658142,0.19516856968402863,0.4175959527492523
1788800332449292500,10.65629248046875,0.6786283254623413,0.3163943290710449,0.44122031331062317
1788800332459261400,10.666261474609374,0.5917993783950806,0.37574905157089233,0.3961997926235199
1788800332469231400,10.6762314453125,0.5088294148445129,0.31302016973495483,0.3171883225440979
1788800332479200300,10.6862001953125,0.4185642898082733,0.254550576210022,0.25047218799591064
1788800332489170400,10.69617041015625,0.3618243336677551,0.23259012401103973,0.23466844856739044
1788800332499140600,10.706140625,0.30902668833732605,0.24832621216773987,0.22495174407958984
1788800332509109500,10.716109619140624,0.27248066663742065,0.22706006467342377,0.19493791460990906
1788800332519079400,10.726079345703125,0.2899758815765381,0.33210569620132446,0.1235639899969101
1788800332529048300,10.73604833984375,0.32895976305007935,0.5483335852622986,0.10757197439670563
1788800332539018500,10.7460185546875,0.3485390543937683,0.8034420609474182,0.12760239839553833
1788800332548988400,10.755988525390626,0.35064032673835754,0.8485867381095886,0.14050230383872986
1788800332558957300,10.765957275390624,0.2902371883392334,0.70542973279953,0.1609835922718048
1788800332568927200,10.77592724609375,0.17436783015727997,0.6437594294548035,0.1838074028491974
1788800332578896400,10.785896484375,0.04032024368643761,0.542910099029541,0.1252889484167099
1788800332588866600,10.795866455078125,-0.11504138261079788,0.28829753398895264,-0.03025510162115097
1788800332598836500,10.80583642578125,-0.2859536409378052,0.130410298705101,-0.11312433332204819
1788800332608805400,10.815805419921874,-0.43454551696777344,0.0889803022146225,-0.10007936507463455
1788800332618775300,10.825775390625,-0.45573246479034424,0.10986164212226868,-0.07723464071750641
1788800332628744400,10.835744384765626,-0.3916051387786865,0.1719018518924713,-0.05613042414188385
1788800332638714400,10.84571435546875,-0.3345922529697418,0.21393080055713654,-0.019393811002373695
1788800332648684500,10.8556845703125,-0.36298608779907227,0.17071914672851562,0.013717271387577057
1788800332658653400,10.8656533203125,-0.4042308032512665,0.12617246806621552,0.00427706865593791
1788800332668623400,10.875623291015625,-0.3784162402153015,-0.013557211495935917,-0.051882341504096985
1788800332678593300,10.88559326171875,-0.2995641529560089,-0.24294503033161163,-0.12566454708576202
1788800332688562400,10.8955625,-0.23622992634773254,-0.48032164573669434,-0.17119766771793365
1788800332698532400,10.905532470703125,-0.24168890714645386,-0.5783417820930481,-0.19152377545833588
1788800332708501200,10.915501220703124,-0.29137176275253296,-0.5569288730621338,-0.19977106153964996
1788800332718471200,10.92547119140625,-0.34294769167900085,-0.6192595362663269,-0.23332297801971436
1788800332728441600,10.935441650390626,-0.3404741585254669,-0.5997294783592224,-0.301154762506485
1788800332738410500,10.945410400390625,-0.22030703723430634,-0.449646919965744,-0.33554041385650635
1788800332748380400,10.95538037109375,-0.10254765301942825,-0.18669943511486053,-0.3773626983165741
1788800332758349300,10.965349365234376,-0.06085807830095291,-0.04053588956594467,-0.43893009424209595
1788800332768319500,10.975319580078125,-0.05616958439350128,-0.16604986786842346,-0.4688384532928467
1788800332778289400,10.985289306640626,-0.005528770387172699,-0.26031962037086487,-0.4123210906982422
1788800332788258300,10.99525830078125,0.030915522947907448,-0.21463680267333984,-0.33949562907218933
1788800332798228500,11.005228515625,-0.01385862659662962,-0.1718825399875641,-0.32308489084243774
1788800332808197400,11.015197265625,-0.07033335417509079,-0.17901475727558136,-0.3469124734401703
1788800332818167600,11.02516748046875,-0.07773052901029587,-0.20322126150131226,-0.3413911759853363
1788800332828137500,11.035137451171876,0.022694606333971024,-0.21245524287223816,-0.3323470652103424
1788800332838106400,11.0451064453125,0.13087914884090424,-0.12204612791538239,-0.31533828377723694
1788800332848076300,11.055076171875,0.14628474414348602,-0.034010276198387146,-0.35248807072639465
1788800332858045400,11.06504541015625,0.10240446776151657,-0.09790469706058502,-0.3991710841655731
1788800332868015400,11.075015380859375,0.067722387611866,-0.24477644264698029,-0.39734068512916565
1788800332877985500,11.084985595703126,0.05376415699720383,-0.3751731216907501,-0.30840110778808594
1788800332887954400,11.094954345703124,0.047679100185632706,-0.32224041223526,-0.22104758024215698
1788800332897924400,11.10492431640625,0.02710653655230999,-0.22745010256767273,-0.24514947831630707
1788800332907893500,11.1148935546875,0.0034488788805902004,-0.2730138599872589,-0.3160819709300995
1788800332917863400,11.124863525390625,-0.025424059480428696,-0.36726558208465576,-0.3418094515800476
1788800332927833300,11.134833251953125,-0.06512673199176788,-0.3486809730529785,-0.32907262444496155
1788800332937802200,11.14480224609375,-0.11132422834634781,-0.20798392593860626,-0.3134864568710327
1788800332947772400,11.1547724609375,-0.11215939372777939,0.017709653824567795,-0.33707326650619507
1788800332957741600,11.164741455078126,-0.09977392852306366,0.10636565089225769,-0.3710800111293793
1788800332967711500,11.17471142578125,-0.05125805735588074,0.09347275644540787,-0.38360485434532166
1788800332977681400,11.184681396484375,0.008546100929379463,0.03913872316479683,-0.3881748914718628
1788800332987650300,11.194650390625,0.06374543905258179,0.10366924107074738,-0.4081893563270569
1788800332997620200,11.2046201171875,0.07449217140674591,0.022572821006178856,-0.42603799700737
1788800333007589400,11.21458935546875,0.07699021697044373,-0.044416334480047226,-0.41412514448165894
1788800333017559300,11.224559326171875,0.05903974547982216,-0.021662402898073196,-0.34806543588638306
1788800333027529500,11.234529541015625,0.00894861575216055,0.07344440370798111,-0.3122333884239197
1788800333037498400,11.244498291015624,-0.030038438737392426,0.014037085697054863,-0.28428441286087036
1788800333047468500,11.254468505859375,-0.05088859423995018,-0.08611135929822922,-0.21530002355575562
1788800333057437400,11.2644375,-0.060963332653045654,-0.09808972477912903,-0.13715116679668427
1788800333067407400,11.274407470703125,-0.1023925319314003,0.0015799175016582012,-0.09681782126426697
1788800333077377300,11.284377197265625,-0.1523793637752533,0.1513456106185913,-0.11277366429567337
1788800333087346400,11.294346435546874,-0.1446055918931961,0.10340923815965652,-0.1224457323551178
1788800333097316600,11.304316650390625,-0.06956485658884048,0.005301465280354023,-0.09770125150680542
1788800333107285500,11.314285400390625,0.024007434025406837,-0.06746994704008102,0.023064851760864258
1788800333117255400,11.32425537109375,0.06999081373214722,-0.11977159976959229,0.10445739328861237
1788800333127225300,11.334225341796875,0.07197246700525284,-0.08191902935504913,0.08741476386785507
1788800333137194500,11.344194580078126,0.08539452403783798,-0.10367389023303986,0.08872659504413605
1788800333147164400,11.354164306640625,0.09556300938129425,-0.2029661387205124,0.13861453533172607
1788800333157133300,11.36413330078125,0.07817969471216202,-0.2387526035308838,0.1803717315196991
1788800333167103200,11.374103271484374,0.02711198665201664,-0.3009595274925232,0.14920449256896973
1788800333177073200,11.3840732421875,-0.02928379736840725,-0.37098178267478943,0.07655014842748642
1788800333187042300,11.394042236328126,-0.07951048761606216,-0.5172743201255798,0.08706910908222198
1788800333197012200,11.40401220703125,-0.13602229952812195,-0.6125656962394714,0.17290665209293365
1788800333206982400,11.413982421875,-0.18301136791706085,-0.5977356433868408,0.265248566865921
1788800333216951300,11.423951416015624,-0.2210264503955841,-0.38604193925857544,0.30098575353622437
1788800333226921200,11.433921142578125,-0.24813981354236603,-0.02635219693183899,0.2638506591320038
1788800333236890400,11.443890380859376,-0.26849400997161865,0.0026074235793203115,0.27217283844947815
1788800333246860300,11.4538603515625,-0.18221555650234222,-0.0650738850235939,0.3220338821411133
1788800333256830200,11.463830322265625,-0.05408906564116478,0.05912327766418457,0.326725035905838
1788800333266799000,11.473799072265624,0.000839694170281291,0.27070102095603943,0.3004886507987976
1788800333276769300,11.483769287109375,-0.0070443893782794476,0.13237403333187103,0.20492736995220184
1788800333286738200,11.49373828125,-0.019976699724793434,-0.0820208191871643,0.10507028549909592
1788800333296708400,11.503708251953125,-0.012499075382947922,-0.030726471915841103,0.12928427755832672
1788800333306677200,11.51367724609375,-0.024680642411112785,0.10287792235612869,0.14063280820846558
1788800333316647200,11.523647216796874,-0.022046446800231934,0.05688302591443062,0.08204792439937592
1788800333326617300,11.533617431640625,-0.005421663634479046,0.019135648384690285,0.07647658884525299
1788800333336586200,11.543586181640626,0.006770651787519455,0.14412054419517517,0.12257858365774155
1788800333346556200,11.55355615234375,0.009071356616914272,0.31920498609542847,0.16423708200454712
1788800333356525000,11.563525146484375,-0.0016610733000561595,0.3625026047229767,0.15150944888591766
1788800333366495500,11.57349560546875,0.026282943785190582,0.17969603836536407,0.10611801594495773
1788800333376465400,11.58346533203125,0.15055063366889954,-0.05272732302546501,0.10572319477796555
1788800333386434300,11.593434326171876,0.26480984687805176,-0.2134333848953247,0.16695672273635864
1788800333396404200,11.603404296875,0.30738741159439087,-0.3181620240211487,0.24658282101154327
1788800333406373400,11.613373291015625,0.31873461604118347,-0.2970631420612335,0.25180503726005554
1788800333416343300,11.62334326171875,0.34728190302848816,-0.17611311376094818,0.23011040687561035
1788800333426313200,11.633313232421875,0.36179929971694946,-0.12334176152944565,0.2637251019477844
1788800333436282000,11.6432822265625,0.329053670167923,-0.08111552894115448,0.33273831009864807
1788800333446252300,11.653252197265624,0.2548665404319763,-0.09469019621610641,0.3697405457496643
1788800333456221400,11.663221435546875,0.19260448217391968,-0.1031060516834259,0.3511841595172882
1788800333466191400,11.67319140625,0.14800000190734863,-0.04995574429631233,0.3019484281539917
1788800333476161300,11.683161376953125,0.10979717969894409,-0.1091475784778595,0.3058262765407562
1788800333486130200,11.693130126953125,0.08230271190404892,-0.16510112583637238,0.3521844446659088
1788800333496100000,11.70310009765625,0.06454633921384811,-0.30007630586624146,0.3919978737831116
1788800333506069200,11.7130693359375,0.09207543730735779,-0.30566492676734924,0.3893248438835144
1788800333516039400,11.723039306640626,0.12141361087560654,-0.21974660456180573,0.3364850580692291
1788800333526009300,11.73300927734375,0.11989720910787582,-0.05438613146543503,0.2701675295829773
1788800333535978200,11.742978271484375,0.09433624148368835,0.0700155645608902,0.26479512453079224
1788800333545948200,11.7529482421875,0.08885865658521652,0.10996511578559875,0.2710857689380646
1788800333555917300,11.762917236328125,0.09875527769327164,0.10531315952539444,0.25301557779312134
1788800333565887200,11.77288720703125,0.09885407984256744,0.1274096667766571,0.21736037731170654
1788800333575857200,11.782857177734375,0.03563159331679344,0.16264204680919647,0.1818224936723709
1788800333585826000,11.792825927734375,-0.0551622249186039,0.17453572154045105,0.1312972754240036
1788800333595796200,11.802796142578124,-0.1491374969482422,0.0873231440782547,0.0908915102481842
1788800333605765400,11.812765380859375,-0.17572569847106934,0.01512218452990055,0.10876664519309998
1788800333615735300,11.8227353515625,-0.16569890081882477,-0.07033822685480118,0.15217021107673645
1788800333625705200,11.832705322265625,-0.16119444370269775,-0.05547671765089035,0.20682093501091003
1788800333635674000,11.842674072265625,-0.18883927166461945,-0.013092338107526302,0.23269020020961761
1788800333645644300,11.852644287109374,-0.1972852200269699,0.08106371760368347,0.21734586358070374
1788800333655613200,11.86261328125,-0.1372014433145523,0.142706960439682,0.1880878508090973
1788800333665583400,11.872583251953126,-0.030390562489628792,0.06368964165449142,0.19160401821136475
1788800333675553300,11.88255322265625,0.022757351398468018,0.03195660933852196,0.2171609103679657
1788800333685522400,11.8925224609375,0.05256132036447525,-0.039427824318408966,0.22048667073249817
1788800333695492400,11.902492431640624,0.046080294996500015,-0.03836144134402275,0.18761970102787018
1788800333705461200,11.912461181640625,0.025193655863404274,-0.010964704677462578,0.11661209911108017
1788800333715431200,11.92243115234375,0.020824046805500984,-0.12942436337471008,0.1170974150300026
1788800333725400300,11.932400390625,0.02766490913927555,-0.2397705763578415,0.164522185921669
1788800333735370200,11.942370361328125,0.0253159012645483,-0.20971225202083588,0.16633160412311554
1788800333745340400,11.95234033203125,-0.037855081260204315,0.018184293061494827,0.11934252828359604
1788800333755309300,11.962309326171875,-0.10317710041999817,0.24768446385860443,0.14339767396450043
1788800333765279200,11.972279296875,-0.07515744864940643,0.3334824740886688,0.19271862506866455
1788800333775248400,11.982248291015624,0.044292569160461426,0.24282777309417725,0.18751102685928345
1788800333785218300,11.99221826171875,0.18742789328098297,0.1279456615447998,0.16523155570030212
1788800333795188200,12.002188232421876,0.24286624789237976,0.15695345401763916,0.19644972681999207
1788800333805157000,12.0121572265625,0.2551862895488739,0.1943647414445877,0.19445902109146118
1788800333815127300,12.022127197265625,0.2729206383228302,0.03613512963056564,0.16262510418891907
1788800333825096400,12.032096435546874,0.2842039167881012,0.008821217343211174,0.10537325590848923
1788800333835066400,12.04206640625,0.2854214608669281,0.05182039737701416,0.06879174709320068
1788800333845036300,12.052036376953126,0.22899067401885986,0.04002099484205246,0.0920800268650055
1788800333855005200,12.062005126953125,0.14901100099086761,-0.04555335268378258,0.09999483078718185
1788800333864975000,12.07197509765625,0.07657593488693237,-0.09764185547828674,0.11307042092084885
1788800333874944300,12.0819443359375,0.020760225132107735,0.07316339015960693,0.15319053828716278
1788800333884914200,12.0919140625,-0.043144986033439636,0.22077254951000214,0.17074955999851227
1788800333894884400,12.10188427734375,-0.07964689284563065,0.27473369240760803,0.17367033660411835
1788800333904853200,12.111853271484375,-0.05851577967405319,0.40812769532203674,0.1308661550283432
1788800333914823200,12.1218232421875,0.018601274117827415,0.5421828031539917,0.10823261737823486
1788800333924792300,12.131792236328126,0.1311882734298706,0.48861438035964966,0.14727669954299927
1788800333934762200,12.14176220703125,0.1829536259174347,0.46790626645088196,0.19021418690681458
1788800333944731100,12.151731201171875,0.15855135023593903,0.4493240416049957,0.20320135354995728
1788800333954701300,12.161701416015624,0.10788273066282272,0.41355589032173157,0.14687445759773254
1788800333964671500,12.17167138671875,0.07683799415826797,0.18658266961574554,0.09359206259250641
1788800333974640400,12.181640380859376,0.06801952421665192,-0.002788427285850048,0.04453982040286064
1788800333984610300,12.1916103515625,0.10151249915361404,-0.1526319980621338,0.013744356110692024
1788800333994579200,12.2015791015625,0.08153815567493439,-0.21747583150863647,0.029240939766168594
1788800334004549400,12.21154931640625,0.04159339889883995,-0.20422260463237762,0.027141302824020386
1788800334014519300,12.221519287109375,0.020380958914756775,-0.1149560883641243,-0.002749678213149309
1788800334024488200,12.23148828125,0.012581093236804008,0.02795126475393772,-0.025885092094540596
1788800334034458000,12.2414580078125,0.02631293050944805,0.15367189049720764,-0.0010968232527375221
1788800334044427300,12.25142724609375,0.012500712648034096,0.19869396090507507,0.05739418417215347
1788800334054397400,12.2613974609375,-0.008673547767102718,0.1758704036474228,0.1094113141298294
1788800334064367400,12.271367431640625,-0.016910281032323837,0.29237663745880127,0.1369541585445404
1788800334074336300,12.281336181640626,-0.021068161353468895,0.24466675519943237,0.15898016095161438
1788800334084306200,12.29130615234375,-0.06965380162000656,0.1665479838848114,0.1688104271888733
1788800334094275300,12.301275390625,-0.11163774132728577,-0.008689617738127708,0.16888925433158875
1788800334104245200,12.311245361328124,-0.12388242036104202,-0.28522321581840515,0.14418897032737732
1788800334114215400,12.32121533203125,-0.13122595846652985,-0.45356735587120056,0.06925884634256363
1788800334124184300,12.331184326171876,-0.16530057787895203,-0.4683481752872467,-0.03745588660240173
1788800334134154200,12.341154296875,-0.19134800136089325,-0.40909409523010254,-0.06950528919696808
1788800334144123400,12.351123291015625,-0.18349406123161316,-0.3762642443180084,-0.00019465479999780655
1788800334154093300,12.36109326171875,-0.08990234136581421,-0.4223427474498749,0.06593034416437149
1788800334164062200,12.371062255859375,-0.0057717543095350266,-0.27016785740852356,0.02716749906539917
1788800334174032100,12.3810322265625,0.011757892556488514,0.15234240889549255,-0.060470934957265854
1788800334184002000,12.391001953125,-0.017286542803049088,0.47584113478660583,-0.1101711168885231
1788800334193971200,12.40097119140625,-0.03705698624253273,0.46618959307670593,-0.10601285099983215
1788800334203941000,12.410941162109374,-0.013733021914958954,0.4564645290374756,-0.08149605989456177
1788800334213910000,12.420909912109375,-0.014305690303444862,0.4068746268749237,-0.09065379947423935
1788800334223880000,12.4308798828125,-0.06902220100164413,0.3737345039844513,-0.1991557776927948
