time,seconds_elapsed,z,y,x
1789058863825440300,0.060440185546875,-0.14786182625889777,-1.7739903251901268,-1.1209790558408945
1789058863835451400,0.070451416015625,-1.5519582240879535,5.55139610953331,-2.649781810595095
1789058863845462300,0.080462158203125,4.382805919146538,0.829338361787796,-1.8684239281222224
1789058863855474200,0.09047412109375,6.606940350976586,-4.352077311144769,1.2147675658024846
1789058863865485300,0.1004853515625,0.9524357491463422,-2.139583632747829,-0.6388289416745304
1789058863875496400,0.110496337890625,-1.0822136371821165,-4.384985309012234,-0.38219102581106124
1789058863885507300,0.12050732421875,-6.85870795738995,4.67951419878751,-0.6274748962283134
1789058863895518200,0.130518310546875,-6.1905275412857526,5.856059439831972,-1.9042890222296118
1789058863905529300,0.140529296875,1.1799047806054352,-5.4474470747590065,1.1399205607414244
1789058863915541200,0.150541259765625,1.1535773301720618,-3.48752413585186,0.07926383512262254
1789058863925552400,0.160552490234375,3.900322846698761,-6.3949161414086815,0.08983264847528188
1789058863935563300,0.170563232421875,2.3160586822897193,5.101472075384855,-0.42292113213893023
1789058863945574400,0.180574462890625,5.313605590546131,6.679775870084762,-0.7203563012823462
1789058863955585300,0.190585205078125,4.606681894549727,1.8556766747519373,1.1991046441812068
1789058863965596200,0.20059619140625,2.2402783419013024,-7.627635981878638,1.040638421799615
1789058863975608300,0.2106083984375,-5.003832369887829,-7.7355054049670695,-0.7891577425688505
1789058863985619200,0.220619140625,-8.01372671854198,-1.9955141845092177,-1.4983502602800727
1789058863995630300,0.23063037109375,-6.621766748708486,8.82725785486698,-0.4653907025452703
1789058864005641200,0.24064111328125,4.2437814793378115,-1.1045578631982207,2.402034545738995
1789058864015652000,0.250652099609375,6.405966527733207,-2.0396736442312595,0.5999356588523834
1789058864025663500,0.26066357421875,4.9062528701454395,-4.202678776837885,-2.118398513638973
1789058864035675400,0.27067529296875,1.6187258214592932,-0.10303104314655065,-2.8390160962060094
1789058864045686300,0.280686279296875,-2.9185277320772407,7.158933597502112,-1.5796848737947642
1789058864055697200,0.290697265625,-1.2180185304224491,3.8758784335330128,1.0920471950627864
1789058864065708300,0.300708251953125,5.984204758229851,-8.007879746079444,2.017794113117456
1789058864075719400,0.310719482421875,3.2322949908077714,-5.799167339786887,-0.4509006971608847
1789058864085729300,0.320729248046875,-1.823918139180541,-1.0075126164630055,-1.7937800444178282
1789058864095741400,0.330741455078125,-7.039758936545252,5.203452440434694,-0.9133119455039501
1789058864105752600,0.340752685546875,-5.755691770675778,0.8790057712763547,-0.5130044674396514
1789058864115763500,0.350763427734375,-2.211056339070201,-0.2127604148879647,-1.5014588938198983
1789058864125774300,0.3607744140625,4.443194044613838,-5.7120671484828,-1.1132622709184885
1789058864135785200,0.37078515625,5.928963348001242,-0.2611129423856735,1.5735793965265155
1789058864145796600,0.380796630859375,4.3644449175477025,3.0357346000924705,1.283892686085403
1789058864155807500,0.390807373046875,-3.0575790598928925,1.3538669705435633,-1.7658226546950637
1789058864165819400,0.4008193359375,-8.775042514461278,1.4323495556280017,-1.54615962081179
1789058864175830300,0.410830322265625,-5.069423324695229,-4.066878852033615,0.6134682173814624
1789058864185841700,0.420841552734375,2.421861235976219,-1.177185877035558,2.0118159154906867
1789058864195852500,0.4308525390625,4.914801502782106,3.1603675264552233,0.0491109994485043
1789058864205863400,0.440863525390625,10.62706271253228,-5.200407081389427,-0.2922351893475279
1789058864215875300,0.450875244140625,1.1388730975151062,-2.8420865896925327,-0.995412574955076
1789058864225886500,0.460886474609375,-4.859482935664057,-4.571854034535587,0.251335644736886
1789058864235897600,0.470897705078125,-7.155790623301267,4.758918282631039,0.6154822606176138
1789058864245908500,0.480908447265625,-1.7719594038844106,3.197230691689253,0.4474570229804143
1789058864255919400,0.49091943359375,3.8355069679170843,1.3692387271985411,-0.5041039160927757
1789058864265930500,0.500930419921875,4.381512372204661,-0.8975421294420957,-0.9343572177506982
1789058864275941400,0.51094140625,5.78149899662733,-4.977838681453466,0.7159894113097339
1789058864285953500,0.52095361328125,3.025168490153551,0.7975652131691574,0.9241669553868472
1789058864295964400,0.53096435546875,-5.4938557747125625,2.542693308751285,0.14045313003812915
1789058864305975600,0.5409755859375,-14.59824013365507,8.521289871710538,2.461819152355194
1789058864315986400,0.550986328125,-1.9973826087296007,-9.104734487554431,1.7029652165047824
1789058864325997300,0.560997314453125,1.543200917136669,-2.882103542782366,0.6171224290400743
1789058864336008400,0.571008544921875,6.7545859041363,0.07442074247300624,-0.4287937504993751
1789058864346020400,0.581020263671875,8.772592783221603,3.4341263076633215,1.7437411712683737
1789058864356031500,0.591031494140625,3.181243433484435,4.218535978922247,0.890371653290838
1789058864366042400,0.60104248046875,-1.4327841476529837,-1.5624211659133433,1.1431224985878914
1789058864376053200,0.61105322265625,-8.60909148928225,-1.1895049681216479,0.6008488281745463
1789058864386064600,0.621064697265625,-5.388237345421314,-0.7555544559136033,0.3772748679252341
1789058864396075500,0.631075439453125,-0.9743880532354116,3.3569612349182365,0.5895622219413519
1789058864406087400,0.64108740234375,3.35986397062242,-0.3883928761258721,1.3611398841559885
1789058864416098300,0.651098388671875,-0.6875251680433749,2.649844646698236,0.48272553943414237
1789058864426109400,0.661109375,-4.618007006162404,5.140245750415325,-0.7626208141032605
1789058864436120600,0.67112060546875,1.1369985358148813,-2.797298184417188,-0.6178012050844729
1789058864446131500,0.68113134765625,4.546694751098752,-4.585266473816335,-1.3737889378488064
1789058864456142300,0.691142333984375,8.401606676709651,-7.031894194519519,0.6256555718466639
1789058864466154200,0.701154296875,5.377383942973613,-2.786236692176759,1.087071744737774
1789058864476165600,0.71116552734375,-2.3197177893191574,2.2428578370004892,-0.2721499212393537
1789058864486176500,0.721176513671875,-8.993211802655457,5.600614021688699,2.028641962607205
1789058864496187400,0.7311875,-6.609853608074784,0.20954466771185398,1.5820746915407478
1789058864506198500,0.741198486328125,-2.4080852240800854,1.0743366201967,1.2672991325505076
1789058864516209400,0.75120947265625,3.196924402219057,-1.9564692913219333,1.1351038081094622
1789058864526221600,0.7612216796875,5.592889564916491,-0.5188903106078505,-0.20498364340662956
1789058864536232400,0.771232421875,5.991546937686205,-3.361929086458683,-0.33822347193192687
1789058864546243300,0.781243408203125,3.625491760084033,-3.89931688452661,-0.6895655878297984
1789058864556254500,0.79125439453125,-0.5725426980793475,1.0257149203687905,0.7815747400939465
1789058864566265300,0.801265380859375,-6.943299965265393,0.3317202640503645,0.559131245179288
1789058864576276500,0.8112763671875,-9.796921217668055,1.9696251254931092,-1.2384558999039232
1789058864586287600,0.82128759765625,-5.73739272839725,-0.5796694812193512,-3.184374717247486
1789058864596299500,0.831299560546875,4.0743063716858625,0.14195172543227672,-3.2192005314350127
1789058864606310400,0.841310302734375,15.668366442680359,-3.9426466154262423,-0.46957405264452096
1789058864616321500,0.851321533203125,7.027448905548453,2.437790334253013,-0.20584921072740106
1789058864626332400,0.86133251953125,-10.904779583716392,0.8584858380779623,-3.2152333813697096
1789058864636343600,0.871343505859375,-12.359279304093121,-2.734512350158393,-2.0539063138537106
1789058864646354400,0.8813544921875,-2.1713135267466304,-0.4140118860289454,-1.544998906469345
1789058864656366300,0.891366455078125,11.439689593493938,-5.934792200285196,-1.145485282196477
1789058864666377500,0.90137744140625,11.37978077597618,1.0473343392416834,-1.1114948228545487
1789058864676388600,0.911388671875,4.526505365028977,-2.3724992391750215,-1.351434628830105
1789058864686399500,0.9213994140625,-4.2811131388664245,0.7945984723180533,-1.3202047933079302
1789058864696410400,0.931410400390625,-0.08370996434390544,0.3951134165525436,-0.6053645885659381
1789058864706421200,0.941421142578125,1.4727315426379441,0.4206646219164133,-2.3249482373185453
1789058864716433400,0.951433349609375,-3.0113012928426266,5.6459957166820764,-3.190171128566563
1789058864726444500,0.961444580078125,-2.313994735497236,-1.9927000038713216,-2.1980403517611324
1789058864736455400,0.971455322265625,-0.419874348321557,-2.377386718955636,-0.33396212469302117
1789058864746466300,0.98146630859375,2.2351526694506405,-3.751550919857621,0.933719065977633
1789058864756477400,0.9914775390625,-2.5727029548287392,6.305086817401647,-1.7221161994375287
1789058864766488600,1.001488525390625,-2.4034715928047894,2.074019273686409,-0.7691352374985814
1789058864776500500,1.01150048828125,-1.5741478440642356,-2.644194658112526,0.8643700738109648
1789058864786511400,1.021511474609375,-1.6409341461360454,-4.126281181333959,0.137513633386977
1789058864796522500,1.0315224609375,3.834124573647976,-2.9997587390869853,0.4125508735656738
1789058864806533400,1.041533447265625,1.2015683308809995,5.282700749194622,-1.2850656753875314
1789058864816544500,1.05154443359375,3.799833596989512,1.9458119959682225,-0.5206257926309481
1789058864826555400,1.061555419921875,-0.41778117543458937,6.94528207899332,-0.5779262542812154
1789058864836566500,1.07156640625,-1.4745622651964425,1.147443065200746,-1.7977236674770711
1789058864846578400,1.081578369140625,1.424748725235462,-8.144531611537932,-1.152309648323804
1789058864856589600,1.091589599609375,-1.0245347706735133,-7.773229278683662,1.2730989048704504
1789058864866600400,1.101600341796875,-5.349637273392081,0.825621387091279,-1.6428288738414645
1789058864876611600,1.111611572265625,-6.528314558029175,9.260663300412892,-0.5193704953402281
1789058864886622500,1.12162255859375,-0.20377309857308865,2.8217013887897133,0.20892039833366868
1789058864896633300,1.13163330078125,1.0625310315907002,0.4044491079136729,-0.7933391199067235
1789058864906645500,1.1416455078125,4.0530677688241,-5.870253969401121,1.1269103455860168
1789058864916656400,1.151656494140625,6.428616166436671,-3.7790173111930487,0.5730467751439661
1789058864926667500,1.16166748046875,3.5475293994814154,3.261907162000239,-2.632509773276746
1789058864936678400,1.171678466796875,2.299108716532588,-0.6563757042810321,-0.30611133714988825
1789058864946689300,1.181689208984375,-6.662741148653626,2.660392051936686,-0.5943855504445731
1789058864956700700,1.19170068359375,-3.9223306803673506,-5.455983432435989,0.861870000623539
1789058864966712600,1.201712646484375,-4.016193205413222,4.51984181548655,-1.6244792704194784
1789058864976723500,1.211723388671875,2.5667420005977153,-2.454697045390308,-2.5157971185192465
1789058864986734300,1.221734375,3.3040935680836436,-1.515880364012718,-0.82814199161008
1789058864996745500,1.231745361328125,2.7332769631445406,-5.009564191538095,2.183953081958741
1789058865006756600,1.241756591796875,1.680637210971117,0.2936024225801229,-0.5295199142370373
1789058865016767500,1.251767578125,-0.24811025294959543,6.4449938852638,-3.1204508188694713
1789058865026778400,1.2617783203125,-2.620343826925754,4.2585894646301865,-1.3886397393696008
1789058865036790300,1.271790283203125,-2.5138012685269118,-0.9662342651352286,0.8227766651846468
1789058865046801700,1.2818017578125,1.6756652677774428,-7.772222731989622,0.8378770575523375
1789058865056812500,1.2918125,1.610658250337839,-1.9523492887824772,-1.2385475237101315
1789058865066823400,1.301823486328125,1.4392764322817324,2.2469065278694034,-2.2770909459918736
1789058865076834600,1.31183447265625,-4.927841601619124,9.704329443210362,-2.067471605608612
1789058865086845700,1.321845703125,-9.075032592251896,1.3335337920889259,1.7159036085329948
1789058865096857600,1.331857666015625,-7.625913395869731,-4.468375832143425,2.854579868301749
1789058865106868500,1.341868408203125,2.9873487548470496,-9.592960487568378,0.46457354094348846
1789058865116879400,1.35187939453125,13.645354887175559,-4.025021239513158,-2.2382652485132217
1789058865126890500,1.361890380859375,14.780498735034465,0.4241279141128063,-0.6062515640009194
1789058865136901600,1.371901611328125,0.3242459826469421,8.903129380670189,1.82670835442096
1789058865146912500,1.38191259765625,-7.555888842529058,1.1049918707013129,1.7067067411206662
1789058865156924400,1.39192431640625,-4.575724446228146,-2.753312619957328,1.3587056427463888
1789058865166935600,1.401935546875,-0.39125966373383997,-5.327174681693315,-0.21979155563376843
1789058865176946700,1.41194677734375,-10.274363373339176,4.63397176027447,-2.3129978334143755
1789058865186957600,1.42195751953125,-7.669119500389694,2.2370146639302373,0.46231330439392476
1789058865196968400,1.431968505859375,0.972483096396923,-0.7636749262660741,0.9174054984278976
1789058865206979600,1.4419794921875,11.143614058798551,-5.197719449740648,1.6064403403818606
1789058865216990500,1.451990478515625,13.347706988596915,-0.49009530101716514,0.9941418243668972
1789058865227002600,1.462002685546875,7.647897264140844,2.263878705458343,-0.8865224305167794
1789058865237013500,1.472013427734375,-0.8571142574638128,2.553963475306332,-1.6965740541629493
1789058865247024600,1.482024658203125,-9.175460467162727,-0.48482758974730966,-1.029550553008914
1789058865257035500,1.492035400390625,-11.91852524935007,-0.27489772211015223,-0.2949613263757899
1789058865267046400,1.50204638671875,-5.579296508371829,-1.9591002243474125,1.0741057340502738
1789058865277057500,1.5120576171875,3.1975165228933093,-0.5626283300474286,0.8845975999340414
1789058865287069400,1.5220693359375,8.930404925608634,-0.8045651550590992,0.3000533522851765
1789058865297080600,1.53208056640625,9.101593851441145,1.1768182127669453,-0.746471424139291
1789058865307091500,1.542091552734375,6.218143862485885,-1.2017515784934163,-0.7533428442787379
1789058865317102300,1.552102294921875,2.084323225557804,-0.5110895737290382,-0.08871507915481924
1789058865327113700,1.56211376953125,-7.46089994380176,2.0246490935787556,-0.04428104027509689
1789058865337124600,1.57212451171875,-9.042509794309735,4.074842378258705,1.162434078909829
1789058865347136500,1.582136474609375,-2.3137854766607284,0.08138853565901517,1.9964668090589344
1789058865357147400,1.5921474609375,6.319461964234709,-5.5716264121353625,0.4653131437970325
1789058865367158500,1.602158447265625,3.709692722815275,-1.780935322022438,-0.6943864321149885
1789058865377169700,1.612169677734375,-3.44550519528985,-0.8162567618966102,0.1550476461097598
1789058865387180500,1.6221806640625,-8.188856490954755,4.6196679251119495,0.5686180354489013
1789058865397191400,1.63219140625,-5.018689162757992,4.514559491169452,1.6804101242169738
1789058865407202600,1.64220263671875,1.8317431337177752,-1.2516925442263482,0.7539008434876799
1789058865417214700,1.652214599609375,5.517306208404898,-2.5853321347773073,1.0630019370380788
1789058865427225600,1.6622255859375,7.854947192427516,-7.695784219953417,-0.010527321431646123
1789058865437236500,1.672236572265625,2.070243846800923,-0.1864709583774209,-0.8719577524609863
1789058865447247600,1.68224755859375,-4.340165631815791,0.2298845681682229,1.4273191602453588
1789058865457258500,1.692258544921875,-10.630288104319572,8.918264405959844,-0.20255161222042514
1789058865467269400,1.702269287109375,-1.0206085371404885,-1.299133217576146,-0.7393104464687407
1789058865477280500,1.712280517578125,4.746816925948858,-4.164027851404249,0.3230415387606248
1789058865487292400,1.72229248046875,5.161055898731947,-0.9444345212593674,0.026695306498231364
1789058865497303600,1.732303466796875,1.1610498580098152,3.9641999833256003,-0.453637684376724
1789058865507314400,1.742314453125,2.1667267834782598,-1.2488003299161792,0.5882863933192566
1789058865517325600,1.75232568359375,2.6328987725943325,-1.8124261465683578,-0.4066687567245215
1789058865527336700,1.762336669921875,0.5505494774580002,-1.9911115656360983,-0.2852041947321966
1789058865537347600,1.77234765625,-7.226295069113373,3.54689665453583,-1.3589037956669925
1789058865547359500,1.782359375,-11.880249586969613,6.611248861825466,0.3368336980739608
1789058865557370400,1.792370361328125,-4.153839927127957,-0.7832128626897931,1.1934000758640468
1789058865567381500,1.802381591796875,-0.2609913618326187,-2.216952703632414,-0.055516573908179996
1789058865577392600,1.812392578125,4.800341595387459,-0.9021274114057422,0.2549348200063221
1789058865587403500,1.822403564453125,8.533270816883444,0.4426078659161925,-1.0495535496611148
1789058865597414400,1.832414306640625,9.456006424292921,-0.09768091429024935,-1.0696709664732218
1789058865607426600,1.842426513671875,3.245504016470909,-3.2360435296863317,0.7019729417212307
1789058865617437700,1.852437744140625,-8.021618933096528,2.732662922899425,0.1806638795338571
1789058865627448600,1.862448486328125,-10.253227061808108,4.311077776758372,-0.05351739944759756
1789058865637459500,1.87245947265625,-0.6619131724029779,-2.3988889411896466,0.5940786399198695
1789058865647470600,1.882470703125,3.3617671738952395,-0.439505515986681,0.14070632848106324
1789058865657481500,1.8924814453125,7.9783514537781475,-4.247863195693492,0.805660256819427
1789058865667492600,1.90249267578125,6.268780409267545,0.3354556511864066,0.8360045416787266
1789058865677504500,1.91250439453125,-0.6590525222748518,4.182243891574442,0.865493744078651
1789058865687515400,1.922515380859375,-7.052004085612297,3.0570851388961073,1.6395801011785864
1789058865697526500,1.932526611328125,-7.604518725663423,0.4186085661694407,0.9000518472407013
1789058865707537700,1.94253759765625,2.6107909856826064,-8.679497735416888,0.8538318017270415
1789058865717548500,1.952548583984375,4.27375517731905,-5.684517462778091,1.5618524261146782
1789058865727559700,1.9625595703125,0.42881285705864425,2.6709283512592314,0.176531675099954
1789058865737571600,1.972571533203125,-3.526851353111863,6.136173435285687,0.06188073864523321
1789058865747582500,1.98258251953125,0.19005261625647543,1.7598577549412846,-0.046711336161941286
1789058865757593600,1.992593505859375,4.642358772608637,-8.359301320421695,0.07212170828301459
1789058865767604500,2.0026044921875,-0.04255611617863178,-3.0037197516724468,0.7782821282893418
1789058865777615600,2.01261572265625,-2.589201085165143,2.0590949685379862,2.5852213678792118
1789058865787626500,2.02262646484375,-1.1649059489160776,4.074136568076908,0.8321621870368718
1789058865797637400,2.032637451171875,4.131963026362658,-3.0041020289883016,-0.9336072761662304
1789058865807649500,2.0426494140625,2.2109622310459613,-5.0862897038221355,-1.0879687666427345
1789058865817660700,2.05266064453125,-5.702387465989589,2.142078956694901,-0.6683626408033072
1789058865827671600,2.062671630859375,-6.827158388394117,4.293607294258475,-0.2602852593898773
1789058865837682400,2.072682373046875,2.807632239165902,-1.3092492456600069,0.6168993608739227
1789058865847693600,2.082693603515625,2.7526509411782025,1.5439257242798805,-0.19586663629747927
1789058865857704700,2.09270458984375,2.178839830598235,-0.012887830884754658,-0.7707475680660456
1789058865867716600,2.102716552734375,1.3910311645507811,-1.47236621645689,-1.1026312059845775
1789058865877727500,2.1127275390625,3.1356951497524976,-1.679480442151427,-2.6141908572539685
1789058865887738400,2.12273828125,4.318199299201369,-5.660770676487684,-0.020402773092128335
1789058865897749500,2.13274951171875,-1.143045414763689,1.1928177459314464,0.5716922917950898
1789058865907760600,2.1427607421875,-3.66400941452682,1.4669088278338311,0.7965813897635787
1789058865917771500,2.152771484375,-3.1621319057792423,1.934316788485646,0.3461415881127119
1789058865927782700,2.16278271484375,-1.03541389208436,0.44975247697383164,-0.6777291656941175
1789058865937794600,2.172794677734375,-0.7232868017762899,3.987987393887341,-0.26924207096863534
1789058865947805700,2.1828056640625,4.308534814277291,-2.3648645065128804,1.3183929215803742
1789058865957816600,2.192816650390625,3.821158709090948,-1.5918132646143435,0.47440866972673684
1789058865967827500,2.202827392578125,1.4163374552428722,-3.368262381133437,-0.044634712550975376
1789058865977838600,2.212838623046875,-5.781856139501929,3.4972044028669593,0.09471147002540528
1789058865987849500,2.222849365234375,-7.165179798415303,4.430663356603682,0.4834018312605098
1789058865997860400,2.2328603515625,-1.9623148024797439,1.0748495381549,0.5439461336702108
1789058866007872500,2.24287255859375,4.968676300832629,-1.7401351096004247,-0.7345606946583837
1789058866017883600,2.252883544921875,2.2676614388674494,-0.870937323372066,-1.2945204630836844
1789058866027894500,2.26289453125,-1.1036240894794462,-1.0069310171827672,0.4605050493955612
1789058866037905400,2.272905517578125,-2.348618889632821,0.3999573494523763,-0.15242712488044052
1789058866047916500,2.28291650390625,1.194743453297019,-2.2569588430672884,-0.6927548853904009
1789058866057927700,2.292927734375,-1.70853176459074,0.3707730482831597,-1.9174208910033106
1789058866067939600,2.302939697265625,-2.9389538495123384,2.8087013297021386,1.2780498052760958
1789058866077950500,2.312950439453125,-2.2326439015001056,-0.4076309528201818,1.8120039756335318
1789058866087961900,2.3229619140625,3.2456361184179783,-4.297987409038842,-0.7036559263721108
1789058866097973000,2.332972900390625,4.214400486552715,-1.2238447523579001,-3.048546735392511
1789058866107984000,2.34298388671875,6.873860518336295,-4.4756727111533285,-1.537347953324765
1789058866117994800,2.352994873046875,-1.0400246007502079,7.413608031272887,0.11482874070703983
1789058866128005600,2.363005615234375,-1.804930530115962,0.9760758601918816,1.1049756502188741
1789058866138017800,2.373017822265625,-5.823700308018922,3.403443584629893,-1.00207926630266
1789058866148029000,2.38302880859375,-5.984784019422531,-2.0561761584818363,-0.7287360801581293
1789058866158039800,2.393039794921875,-4.531635129132867,0.013589257152378558,1.1489306003447621
1789058866168050700,2.40305078125,3.4173896923959255,-3.3609733931690453,1.2951346494592726
1789058866178061800,2.413061767578125,2.052073399338126,0.7824500616237521,-1.2282172683537005
1789058866188073000,2.423072998046875,1.3505617915183306,-0.28363544757813214,-0.9876580153055489
1789058866198084900,2.4330849609375,2.091446209305525,0.6797913589209318,0.04713241111822426
1789058866208095700,2.443095703125,5.6242251989006995,-1.0636375315278768,1.0830262687392531
1789058866218106600,2.453106689453125,-0.3022352263689041,1.010282957959175,-0.14566486420389263
1789058866228118000,2.463117919921875,-2.5039813007801768,2.949943445560336,-0.7213316491205245
1789058866238129000,2.47312890625,1.8220786487936973,-1.5098597885489462,-0.05436976022692397
1789058866248139800,2.483139892578125,1.8628011198043821,-1.3196414603367448,-1.2047349782183765
1789058866258151000,2.49315087890625,0.5035790519684553,-1.9127081832677124,-0.9498283431269228
1789058866268162800,2.503162841796875,-1.6459019976764917,2.362600653234124,-0.6049925038505345
1789058866278174000,2.513174072265625,3.2136674472272393,-2.479274145025015,-0.25258560826536264
1789058866288184800,2.523184814453125,1.7046961319506166,1.2871981573715805,0.4842161798506975
1789058866298195700,2.53319580078125,0.16678163078427313,0.005276479098200798,0.07320510133923962
1789058866308206800,2.543206787109375,-4.963994865018129,1.5512491990357637,-1.3228127838492392
1789058866318217700,2.5532177734375,-0.5970674830049276,-3.052879796160757,-0.7284392161034047
1789058866328228600,2.563228515625,2.408528291672468,-2.841666318453848,0.5235854461541399
1789058866338240800,2.57324072265625,2.0979554450690747,1.8095187346890567,1.9309046419546008
1789058866348252000,2.583251953125,-0.029882512566447257,4.59452588507086,-0.133159137105057
1789058866358262800,2.5932626953125,1.1442284870684145,-0.8209642089352012,-0.03108600660469383
1789058866368273700,2.603273681640625,0.11850362982749939,-2.6194877946183084,0.0022192834846675395
1789058866378285000,2.61328515625,-1.715130432203412,-3.5359532357171175,0.5086178863858803
1789058866388296000,2.6232958984375,-6.868778685027361,3.562125787849724,-0.777167591176182
1789058866398307800,2.633307861328125,-5.923421495965123,3.28471403709203,-1.6031307774424552
1789058866408318700,2.643318603515625,-1.1558306620568037,0.8883198353275656,-0.33590847298782317
1789058866418329600,2.65332958984375,2.8036791176259515,-5.149856459325552,1.644260075688362
1789058866428341000,2.663341064453125,-0.010678045880794525,2.976183509971201,1.0710815639235078
1789058866438352000,2.673351806640625,2.932720508080721,0.3793579212769866,1.3942058490641414
1789058866448362800,2.68336279296875,4.541852571764588,0.4587555753797292,-0.12179086220408789
1789058866458374000,2.693373779296875,4.947568046352267,-0.5837737016677856,-0.7784272358484565
1789058866468386000,2.703385986328125,-2.6331530396163463,0.8562453656747937,-2.1160811766073104
1789058866478397000,2.71339697265625,-7.355663207304477,-1.3182538053706288,-1.131037800779566
1789058866488407800,2.72340771484375,-5.153824778434634,-0.929759514696896,0.6744658530492336
1789058866498418700,2.733418701171875,1.1940227378070354,-3.2917847061306236,1.708199025505036
1789058866508429800,2.743429931640625,0.18333821330964564,4.204383242668211,-1.8869608708098529
1789058866518440700,2.753440673828125,4.581660266017914,-0.7371388015180825,-3.675127313129604
1789058866528452900,2.763452880859375,4.117476235848665,1.4516443309456109,-0.3941068333258852
1789058866538463700,2.773463623046875,5.8878737972438335,-3.2835081684336065,1.563214362117648
1789058866548475000,2.783474853515625,-0.04019640130996704,2.596343650396168,-0.9315648836184293
1789058866558485800,2.79348583984375,-4.039180697768926,1.3991764770835637,-1.647302950515598
1789058866568497000,2.803496826171875,-5.848769282823801,2.6476991591021415,-1.45418714729622
1789058866578507800,2.8135078125,1.5064870972454547,-3.308265593071282,-0.19608334778808056
1789058866588519000,2.823518798828125,2.930998506593704,1.9673168485507369,-0.05307628635028377
1789058866598530800,2.83353076171875,3.713198685109615,-3.0268793857246634,1.7133530472673475
1789058866608541700,2.843541748046875,-2.0815449930161236,2.7907772582158445,0.43306445008851585
1789058866618552800,2.853552734375,-0.02221709250509739,-0.4110942450165748,-0.16780107349250464
1789058866628564000,2.86356396484375,1.526371362888813,0.4789756488487124,0.3555641905723139
1789058866638574800,2.873574951171875,2.4853859059035774,0.02007774238884449,0.4079263555701822
1789058866648585700,2.883585693359375,5.318210453993082,-3.614111118891835,2.0439232644997536
1789058866658596900,2.893596923828125,-2.0935896510750056,-0.16450170315355062,0.5872518626397475
1789058866668609000,2.903609130859375,-7.234008419969678,1.9282327923968434,-0.6011114976987242
1789058866678620000,2.913619873046875,-8.346391569966077,4.630114208063483,-0.07788525851210579
1789058866688630800,2.923630859375,1.7750749055564403,-3.9417511278912425,2.9407790191128846
1789058866698641700,2.9336416015625,0.7160884147047996,-0.6547282293349505,1.904745533825457
1789058866708652800,2.94365283203125,-1.6784592824101447,1.064753968337178,1.247111792307347
1789058866718664000,2.953663818359375,1.196647825613618,0.23765023373365401,0.7773120411481708
1789058866728674800,2.9636748046875,6.3199482864469285,-5.230017206755281,0.8682977686487138
1789058866738686700,2.973686767578125,1.3260440208554267,1.4589374105632305,2.0148919619351626
1789058866748697900,2.98369775390625,-5.106729849782586,0.693010029195249,1.6627430962316692
1789058866758708700,2.993708740234375,-3.0992659920215604,-1.6360788150593637,0.3664416314827278
1789058866768720000,3.003719970703125,-0.5089876330137253,-2.0657354294657706,1.18523459732607
1789058866778730800,3.013730712890625,-1.402560858824849,2.0253663019374013,2.040923059770465
1789058866788742000,3.023741943359375,-0.9217553642004728,6.3366697041451925,2.454051148702204
1789058866798753800,3.03375390625,5.158948112797737,-0.5591825735077262,0.6068074077853932
1789058866808765000,3.043764892578125,12.292053441560268,-8.407661154443025,-1.0952009829185902
1789058866818775800,3.05377587890625,3.92257325695157,-1.4664926482483744,0.5731252106750384
1789058866828787000,3.063786865234375,-7.565417718374729,6.57789487375617,1.0271266137976198
1789058866838797800,3.0737978515625,-9.772306416371464,6.156331841695308,0.059807366437278686
1789058866848808700,3.08380859375,-0.9047323332071304,-1.1757996833741664,-0.33899825569670644
1789058866858819800,3.09381982421875,2.4799440071105954,-6.6352101676493875,-1.0662716063585131
1789058866868832000,3.10383203125,-0.13527648545205592,2.838943323230743,1.5687220196232199
1789058866878843000,3.1138427734375,2.194165994545817,3.144115479834378,0.9276009484235197
1789058866888853800,3.123853759765625,5.869052192395925,-0.2822027844265103,-1.4634553263790904
1789058866898864600,3.13386474609375,3.69071563514471,-4.440164759920537,-0.5776098452758044
1789058866908876000,3.1438759765625,-3.768686179053783,-1.022580713996291,0.5098018720060586
1789058866918887000,3.153886962890625,-8.36337952964604,2.8866239428162572,-0.25547785910814996
1789058866928897800,3.163897705078125,-2.1805302679032086,0.5979606324523687,0.37517950308118014
1789058866938909700,3.17390966796875,1.655899660077691,1.9115172199174761,-0.49773646342009303
1789058866948920800,3.1839208984375,6.432045556363463,-2.528843354836106,0.6541147005464881
1789058866958932000,3.193931884765625,1.3012509403824806,0.9557891512274742,1.8423977987229823
1789058866968942800,3.20394287109375,-0.11780512616932391,-1.7317434210911393,0.7279749595925211
1789058866978953700,3.21395361328125,-6.581351151689887,2.651083248582482,0.5604952635414898
1789058866988964900,3.22396484375,-8.572838272640109,3.562677868774533,1.3108885372996328
1789058866998975700,3.233975830078125,-0.5220400068104267,-2.4259140184983607,1.2954613971956073
1789058867008988000,3.24398779296875,7.130065230414271,-7.058546639123558,0.7667274457044899
1789058867018998800,3.253998779296875,5.212435372835397,-3.5309751550436017,-0.22423874430097637
1789058867029010000,3.264010009765625,0.8272709078639745,1.701170880433917,1.438980956466496
1789058867039020800,3.274020751953125,3.3425171145021912,-1.1948860766381024,1.9996112445645033
1789058867049031700,3.28403173828125,2.431419337916374,0.346855581600964,0.5562498810566961
1789058867059042800,3.294042724609375,-3.006909779885411,-1.3823244187429546,-0.25358218155466017
1789058867069054700,3.3040546875,-12.057827337056398,6.073946403953433,0.7600539592899381
1789058867079065900,3.31406591796875,-2.3276526739716528,-5.26300820673108,2.9535975841537114
1789058867089076700,3.32407666015625,5.740380804297327,-5.6097413309961555,-0.9265150528829544
1789058867099087600,3.334087646484375,2.490984456562996,-1.0556599767774344,-2.366468726839125
1789058867109098800,3.3440986328125,-6.33924744567871,10.339373897910118,0.041778117543458934
1789058867119110000,3.35410986328125,1.0511854617118834,-0.9444877127513289,-0.8177451738234609
1789058867129120800,3.364120849609375,4.945507022169232,-1.7346119622647762,-0.8096137436855584
1789058867139132700,3.374132568359375,7.941257694658637,-6.685595954540371,0.8521206869602203
1789058867149143800,3.384143798828125,-4.37289827311635,8.3645889054358,-0.11435557023733854
1789058867159155000,3.394155029296875,-4.598204573583603,-0.15064707306325434,1.7865267122887074
1789058867169165800,3.404165771484375,-1.5828379309982061,-5.464364307290316,-0.35758141214624045
1789058867179176700,3.4141767578125,1.7655530439734457,-10.31338956182599,-2.7213597308576105
1789058867189187800,3.424187744140625,-5.785823289567232,4.124756163723767,1.0961308841798454
1789058867199198700,3.43419873046875,1.9235294370114802,-0.5578890265658497,1.9404117443598805
1789058867209211000,3.4442109375,5.525422294843197,2.291031208539009,1.2069253278695047
1789058867219221800,3.4542216796875,7.217860418245196,-3.9490444997698066,-0.5454105801995843
1789058867229233000,3.46423291015625,-1.5750655434310434,3.462447562262416,-0.6598368045203388
1789058867239243800,3.474243896484375,-1.238753859937191,-3.276828544539213,3.116031541122496
1789058867249254700,3.484254638671875,1.9915438195735216,-3.2180650976642964,2.0363960838653146
1789058867259265800,3.494265869140625,2.752911053419113,-2.3835975562945007,0.5234456358246505
1789058867269277000,3.50427685546875,-3.05141118491292,4.107695723329484,0.8331965715859084
1789058867279288800,3.514288818359375,-5.625591811078786,4.165127044817805,-0.9769476745903491
1789058867289299700,3.5242998046875,0.6989882268220186,-3.421062243428826,1.2093732324782758
1789058867299310600,3.534310546875,1.3147265080273152,-1.318991764256358,0.4457797739505768
1789058867309322000,3.544322021484375,-0.2974678658366203,-1.0750459375098347,-0.4910307552363723
1789058867319332900,3.554332763671875,1.9739526333034036,0.3151563750013709,1.5079444564469158
1789058867329343700,3.56434375,3.1543560110807416,1.084933709795773,-1.1716149450354278
1789058867339355600,3.574355712890625,-3.097583153501153,6.079880470177531,-1.2302052273005246
1789058867349366800,3.58436669921875,-4.860686466234922,1.99578949431926,-2.4903099183022976
1789058867359378000,3.5943779296875,-1.9145938508838414,-3.5305694968521593,-2.8509444344088433
1789058867369388800,3.604388916015625,-0.8531962072372437,-3.2707451329723,2.0138214100942013
1789058867379399700,3.614399658203125,0.7914771254271269,3.1606901825383305,1.2260377323575318
1789058867389410800,3.624410888671875,5.206776031899452,-1.7794865845188497,-0.34558979944884777
1789058867399421700,3.634421630859375,7.356544081792235,-3.6722669552624225,-1.552590969033539
1789058867409433900,3.644433837890625,2.7457804708868263,-1.7057763284027576,-2.8260177906841037
1789058867419444700,3.65444482421875,-7.783169073417782,9.560663315075635,-0.6271059167854488
1789058867429456000,3.664455810546875,0.49768531775474545,-6.358617916581034,1.6087397033654152
1789058867439466800,3.674466796875,-2.1144179195702075,-1.9072586856901645,-0.725325394931808
1789058867449477600,3.6844775390625,-3.090983901366591,-3.073742551447451,-1.2239780233487487
1789058867459488800,3.69448876953125,-2.9801719950854775,5.756723451811075,0.9299196736946701
1789058867469500000,3.7045,6.941024421548843,-2.618346515628695,0.239461411341466
1789058867479511800,3.71451171875,12.490309238016605,-4.53563793503344,-0.466980675150454
1789058867489522700,3.724522705078125,0.9393816217839718,0.218765208260715,1.174919247277826
1789058867499533800,3.734533935546875,-10.549393781918287,6.952117477971315,0.7896110392943024
1789058867509545000,3.744544921875,-3.4789088677197695,-4.000297132623196,1.2651073215946553
1789058867519555800,3.754555908203125,-0.22111469399631023,-2.1030653354287145,-1.001220092190057
1789058867529566700,3.764566650390625,-1.9010674298346042,-1.0721259584099054,-1.788870791196823
1789058867539577600,3.77457763671875,-1.701017735698819,0.7621113302111625,0.4117902644567191
1789058867549589800,3.78458984375,3.087363372781873,-0.3512874265685677,0.716053562587127
1789058867559601000,3.794600830078125,3.562029049476981,-2.8984570039510724,1.0319722271978855
1789058867569611800,3.80461181640625,-2.7071909202516076,1.9234575408190488,0.1890222502954304
1789058867579622700,3.81462255859375,-1.7105892816424368,1.0279290892869233,0.8219929674610496
1789058867589633800,3.8246337890625,2.330434998166561,-1.4960615648210047,1.9314017778217791
1789058867599645000,3.83464501953125,6.665802289789915,-3.2080645126536487,0.3392219083847478
1789058867609655800,3.84465576171875,3.970494699555635,0.13443740427941084,-1.8959046402439474
1789058867619667700,3.854667724609375,0.9049760788351296,-1.675105295807123,0.708896165113151
1789058867629678800,3.864678955078125,-2.02679575021863,-1.547874754166603,2.457934419876337
1789058867639689700,3.874689697265625,-4.770972877562046,-0.8112754663527011,-0.7679135867491365
1789058867649700900,3.884700927734375,-6.805830938205123,3.6908123735174536,-0.9227217980798333
1789058867659711700,3.894711669921875,1.0052817886710166,-1.719992485281825,-0.2909237048901617
1789058867669723000,3.904722900390625,6.274815013256669,-3.3817645445242523,-1.1887993040703235
1789058867679733800,3.914733642578125,11.263734476172923,-4.457500510124862,-0.1984524515395984
1789058867689745700,3.92474560546875,3.385795115214586,3.0730399561360477,0.9979556835666298
1789058867699756800,3.9347568359375,-7.720375640374422,6.832482213765382,1.4704516150072215
1789058867709768000,3.944767822265625,-8.584774794149398,1.4853230209246278,0.40179921445939687
1789058867719778800,3.95477880859375,0.23182781119048593,-4.108703731328249,0.9728401662062853
1789058867729789700,3.964789794921875,-0.3121066320419311,-3.0193899067521093,-1.409463185559213
1789058867739800600,3.974800537109375,-2.0329899286836386,2.3355329058274625,0.5380176934693008
1789058867749812000,3.98481201171875,-0.4109264872342348,1.360986447159946,-0.1476277983073145
1789058867759824000,3.994823974609375,2.1311218016117808,-2.4602102558538315,-1.0219011342342943
1789058867769834800,4.004834716796875,-2.1135148332506417,0.6512620145291089,1.2118655607506632
1789058867779845600,4.014845703125,-0.7511153044223785,1.3120046818479896,1.5499229188680648
1789058867789856800,4.024856689453125,4.524576442793012,0.31394173851460216,-0.16558343397565184
1789058867799868000,4.034867919921875,6.657056088754534,-1.7148521997839212,-0.7536751449730247
1789058867809878800,4.044878662109375,3.9060599290460347,-4.318476654838025,0.41687845444120464
1789058867819889700,4.0548896484375,-4.278506755760312,0.807182059559226,-0.3352387570327148
1789058867829901600,4.064901611328125,-9.086927028185128,2.3096470616817473,0.5887732269881293
1789058867839913000,4.074912841796875,-3.9018022716015577,-4.671731289826333,0.9620390054024756
1789058867849923800,4.084923828125,2.4615584555923937,-6.188586928611993,-2.2061706128552556
1789058867859934700,4.094934814453125,9.264805807045102,-0.9184159906446934,-1.9151807108610868
1789058867869945900,4.10494580078125,8.58434049438536,2.983849806815386,-0.5313103047851473
1789058867879956700,4.114956787109375,-1.9144909750312566,3.9689761116862297,0.48725171162169423
1789058867889967600,4.124967529296875,-11.39052428830862,-0.0473480266302824,-0.10860948259970173
1789058867899979800,4.134979736328125,-15.170989752483367,0.6319269072011113,-1.0323545045137406
1789058867909991000,4.144990966796875,-7.4561401820540425,-0.23978841480612753,-0.3738934453260153
1789058867920001800,4.155001708984375,7.522849911758303,-4.878543025442958,0.5595459634600207
1789058867930012700,4.1650126953125,8.60965146125257,0.2971250437483191,-0.454825359791331
1789058867940023800,4.17502392578125,6.723752958977222,-0.2754813672170043,-0.9962501217577606
1789058867950035000,4.185034912109375,1.746363774856925,0.7827046209067106,0.18005320028960703
1789058867960045800,4.1950458984375,1.640315721976757,-4.614790089942515,1.4958210340633988
1789058867970057700,4.2050576171875,-1.1440794339865445,-1.9172244916483758,-0.10401106715984641
1789058867980068600,4.215068603515625,-3.526014317765832,3.3295459892481563,-1.3623438531182706
1789058867990080000,4.225080078125,0.2386047579795122,3.1027336681321263,-1.1170865784469992
1789058868000091000,4.2350908203125,9.763757783734798,-5.479016517499089,1.2382349506296217
1789058868010101800,4.245101806640625,-2.1184405992150306,0.4180088467106223,3.304556217159331
1789058868020112600,4.255112548828125,-12.967503556406497,6.699518681430816,-0.995028251812607
1789058868030123800,4.265123779296875,-2.7760212953716517,-3.00192351590544,-1.873581164754927
1789058868040136000,4.275135986328125,11.858373270726203,-9.297717312043904,0.9916345177210867
1789058868050146800,4.285146728515625,14.27858030975461,-7.196970190429687,0.9664790336765349
1789058868060157700,4.29515771484375,5.382807721588016,7.071109768098593,-0.05694083912421483
1789058868070168800,4.3051689453125,-3.4545050788253544,4.303999508935213,-0.3893459755996242
1789058868080179700,4.3151796875,-7.902099404224753,-1.3981579476907848,-0.17835819640737025
1789058868090190600,4.325190673828125,-9.836476982986927,1.8256892405062912,-1.3306054835520684
1789058868100201700,4.33520166015625,-6.289726751184463,0.17668109350800512,-0.6393716702491045
1789058868110213600,4.345213623046875,2.212790615516901,-2.018876063135266,1.4576055774375796
1789058868120224500,4.355224609375,6.07926613767147,1.4397975335463882,-0.49763548726364965
1789058868130235400,4.3652353515625,7.581015100479125,-3.3358509346112606,-0.027419581635191568
1789058868140246500,4.37524658203125,3.4043975243538616,0.7938812639594077,-0.1754372309267521
1789058868150257700,4.385257568359375,3.2281039688587185,-3.7772570235222576,-0.15362997959787025
1789058868160268500,4.3952685546875,-4.089817829072476,6.9886009962379925,-0.18234870908195153
1789058868170279400,4.405279541015625,-5.178704368147254,1.5925295961901544,0.7500305048603564
1789058868180291300,4.415291259765625,-8.979707008916138,-2.2030416671797632,-1.1727036901202053
1789058868190302700,4.425302734375,-2.9706647465497253,-7.445789468431473,-0.12189816763661801
1789058868200313600,4.435313720703125,2.4600895520836112,-3.0481670884251595,0.778203144768998
1789058868210324500,4.445324462890625,2.452484337776899,2.87638925678879,2.2363389566257594
1789058868220335400,4.45533544921875,4.371492497971654,5.398986702972651,0.280950519343093
1789058868230346500,4.465346435546875,3.186994544357061,4.557640508005023,-0.20065440029697493
1789058868240357600,4.475357666015625,2.0912755289137364,-5.1336394840180875,1.1822545586019755
1789058868250369500,4.48536962890625,-1.89044432901144,-2.7228485081106424,0.6976051019005477
1789058868260380400,4.49538037109375,-7.08819768102169,3.462525888195634,0.7998828424617648
1789058868270391600,4.5053916015625,-6.746729929938912,4.85891887204051,3.025494653367996
1789058868280402400,4.51540234375,0.7807271833539009,-2.0948311755686997,1.43518258709684
1789058868290413600,4.52541357421875,6.325481955176591,-3.9937680231153965,-1.0702284542255103
1789058868300424400,4.535424560546875,-3.745791625678539,11.2862701331079,-0.6716016957897692
1789058868310435600,4.545435546875,-1.4568220258444546,4.523081528060138,0.5601385590583086
1789058868320447500,4.555447509765625,9.572091887062788,-12.278318346196412,1.7777074460171163
1789058868330458600,4.565458740234375,10.530753378856181,-11.587528038877249,2.7610046357646585
1789058868340469500,4.575469482421875,-3.640840720385313,6.767316206371784,1.6688941662073133
1789058868350480600,4.585480712890625,-10.308981097733973,5.910009641206264,0.4433250012096017
1789058868360491500,4.595491455078125,-9.526135607051849,10.05991632053852,-0.18922981036519632
1789058868370502400,4.60550244140625,-0.2965215248972177,-4.255023588842153,1.802097352516651
1789058868380513500,4.615513427734375,-0.22110943329930305,-2.94299815646708,0.7756305908672511
1789058868390525700,4.625525634765625,9.453200719222426,-8.334965336066483,2.101232128652185
1789058868400536600,4.63553662109375,10.249193860769271,0.9182447257310151,1.2396440867751837
1789058868410547500,4.64554736328125,5.517347709459066,3.502408693511784,-2.804626043087244
1789058868420558300,4.655558349609375,-5.797161845183372,7.047301607009768,-3.251251620212197
1789058868430569700,4.66556982421875,-3.832365162760019,-3.9038375768214464,-0.03862348943743855
1789058868440580600,4.67558056640625,-0.5327431871324777,-6.7903668270915745,2.033125976153463
1789058868450591500,4.685591552734375,-3.3366040910661217,0.9070265816241502,2.634972071737051
1789058868460603400,4.695603271484375,-10.681695635473728,12.078528764301538,-1.390306065146625
1789058868470614500,4.705614501953125,3.710026484814286,-4.939393507725,-4.423655231407285
1789058868480625700,4.715625732421875,12.257183203709126,-12.616551937663555,-2.326419625045359
1789058868490636500,4.725636474609375,4.863253101852536,-3.2605639306977388,-0.2826925224385224
1789058868500647400,4.7356474609375,-5.986204992136359,8.242389928221701,-1.7870519052065907
1789058868510658600,4.745658447265625,-3.7285418001919983,2.4059987731948493,-0.4163886981628835
1789058868520669400,4.75566943359375,-4.867334818208217,2.4444728807568548,-1.2764905931353567
1789058868530681600,4.765681640625,0.49700610331892964,-5.449498746591806,-1.3213681379988789
1789058868540692500,4.7756923828125,7.195524083274602,-6.189663617932796,-0.6734739194024354
1789058868550703600,4.78570361328125,2.487106153824925,1.6211168082490564,-2.4173216928504404
1789058868560714500,4.795714599609375,-4.950138773623109,5.380777092543244,-2.951776213945448
1789058868570725400,4.805725341796875,-1.3304583301663397,0.7356389183491469,-1.7492204794622956
1789058868580736500,4.815736572265625,4.897143096494674,-6.208295253166556,0.10984307951526716
1789058868590747600,4.82574755859375,0.49831309426426884,1.0012465418055654,-0.16189893677663056
1789058868600759600,4.835759521484375,-0.9801549461990594,-2.8332290372371673,-0.4403100738352164
1789058868610770400,4.8457705078125,-8.574895789691805,4.168666909381747,-1.2272839330263434
1789058868620781300,4.85578125,-4.740854218152165,3.300726721999049,-0.6716079063348471
1789058868630792700,4.865792724609375,4.472677328729629,1.0566311598971485,1.6937904147937892
1789058868640803600,4.875803466796875,9.8810596365571,-5.987332534861564,0.08842647147178649
1789058868650814500,4.885814453125,2.2311223910212514,0.7933174925968051,-2.814152288584411
1789058868660825600,4.89582568359375,0.306448460149765,0.8087509163111448,-0.41648141794763505
1789058868670837800,4.905837646484375,1.2480243771076203,-2.6898823503151537,-1.2320204600289464
1789058868680848600,4.9158486328125,-3.8806583612859247,-0.7527361836224794,-2.1010149787701664
1789058868690859500,4.925859619140625,-8.085222513478994,5.54938009353578,1.0159547199852763
1789058868700870400,4.935870361328125,-6.272264744251966,8.577267194998264,0.35997787882871923
1789058868710881500,4.945881591796875,4.259139791989326,-3.6159850960701703,-1.1643687002342193
1789058868720892400,4.955892333984375,11.056285319435595,-6.179797472956777,-1.8405863653868435
1789058868730903600,4.965903564453125,8.934220684504508,-1.888699238909781,-0.6253617765318602
1789058868740915500,4.97591552734375,-4.549945861849189,8.575555714905262,-1.3226057169698178
1789058868750926600,4.985926513671875,-5.587891318237781,-1.6656527000680565,-1.5076979343399404
1789058868760937500,4.9959375,-5.412712445986271,-3.2053026467248795,-0.21177016174159943
1789058868770948600,5.005948486328125,-2.5013468606233595,-3.534684238694608,0.0799001237321645
1789058868780959500,5.01595947265625,-0.5512701929479837,4.722230766224861,-1.113119720642641
1789058868790970600,5.025970703125,4.472198605301976,1.500134221087396,-1.8072510820180177
1789058868800981500,5.0359814453125,2.1259119580090045,1.724787318342924,-1.679584048656374
1789058868810993400,5.045993408203125,-1.1748691245257854,-1.1807739646553992,-0.310670388693735
1789058868821004500,5.056004638671875,-1.870804393517971,-1.9097505025058983,0.058849371592700477
1789058868831015700,5.066015625,0.5079290638715028,0.7057771563097834,-0.7461816474124788
1789058868841026600,5.076026611328125,0.20497136844694613,3.5538916279897093,-2.559019881913066
1789058868851037400,5.086037353515625,0.11482055740058421,-1.0579241223171352,-1.1848231669809668
1789058868861048600,5.096048583984375,4.200299480485916,-5.532070062294602,1.411437262111157
1789058868871059500,5.1060595703125,2.286480705627799,1.8573156741306185,0.2357072099070996
1789058868881071600,5.116071533203125,-3.378659856507182,4.578453871192038,-1.3752230623051522
1789058868891082500,5.12608251953125,-4.40048069204688,4.313597942885756,-2.0510116153255105
1789058868901093400,5.13609326171875,0.5657388632833957,-3.6248674907058476,1.7706190951913594
1789058868911104500,5.1461044921875,-3.1455946124762293,-1.144136424870789,1.2681662707738577
1789058868921115600,5.15611572265625,-1.3740005347728728,-1.5003461102724074,-0.952644277330488
1789058868931126500,5.16612646484375,4.675672428667545,0.3427148285344243,-2.32781181005612
1789058868941137700,5.1761376953125,5.91217997098267,0.7686667432039975,0.14471249538250266
1789058868951148500,5.1861484375,-2.5405571735054253,2.764490724314749,0.4564350234776735
1789058868961160400,5.196160400390625,-5.317573909655213,-1.5979977984681724,-2.1628727383986113
1789058868971171600,5.206171630859375,-1.0876748251974582,-2.260292079143226,-0.6567956832587719
1789058868981182500,5.216182373046875,-1.0945762751489878,0.7136249472007155,-0.5979343289673328
1789058868991193600,5.226193603515625,-5.4287353600263595,4.780342763453722,-1.9564004638694226
1789058869001204500,5.23620458984375,2.2321605018973347,-3.818517254671454,0.09447503092102706
1789058869011215400,5.24621533203125,9.685514268103242,-4.9243087513178585,2.003885999274254
1789058869021226800,5.256226806640625,-0.41691549851596355,0.7756845130115747,-1.5166986946582792
1789058869031238700,5.26623876953125,-8.047316853454708,7.699633296597003,-3.4301126881077884
1789058869041249500,5.27624951171875,2.7297937972038984,-1.5299980289533734,1.4867356642015277
1789058869051260400,5.286260498046875,8.624211317002773,-6.80930475179553,2.684264218172431
1789058869061271600,5.296271484375,3.263925808346271,-3.9241616951867937,-1.0884511433321982
1789058869071282700,5.30628271484375,-3.947421282482147,5.71092674627602,-3.3685689628645776
1789058869081293600,5.31629345703125,3.046123015376925,-2.194897815951705,-0.8344188799224793
1789058869091304400,5.326304443359375,-4.00698406304121,2.73141350736022,-0.5527583126138895
1789058869101316600,5.336316650390625,-4.650677103620767,1.2604121495157479,-1.8745596543982623
1789058869111327700,5.34632763671875,-4.649691599714756,1.259796647965908,-1.8657494482159613
1789058869121338600,5.356338623046875,4.55561338609159,-3.2132232105910776,-0.3512940024398267
1789058869131350800,5.366350830078125,-0.3733768010407686,1.4194316218659282,-1.636527727870643
1789058869141361700,5.376361572265625,-6.093046241220832,8.781711909222603,-3.255638456994295
1789058869151372500,5.38637255859375,0.5728285292834043,-1.8264838980153202,2.72059576074779
1789058869161383700,5.3963837890625,-2.182420027172565,-0.937454453113675,1.0296822896298021
1789058869171394600,5.40639453125,-4.5839054145962,0.08816548244804144,-2.365462326275557
1789058869181405400,5.416405517578125,3.7844548260718582,-3.2317876258075233,-0.8027695038139819
1789058869191416800,5.426416748046875,6.787025699970126,-5.819309379583597,-0.350404798515141
1789058869201428700,5.4364287109375,0.11097498788833618,-1.011331005707383,-3.5157582966893908
1789058869211439600,5.446439697265625,-3.2392718440830706,4.109430292037129,-0.5209378177221864
1789058869221450500,5.456450439453125,-1.1069716463416814,4.122743362596631,0.6507417900472879
1789058869231462000,5.4664619140625,1.0622340944707394,0.5217378089934587,-1.0986420632831753
1789058869241472800,5.47647265625,4.9840311063528056,-3.473740232910216,0.10074797371067107
1789058869251483600,5.486483642578125,7.357683899477124,-4.903578097978234,-1.0977508865971117
1789058869261494500,5.49649462890625,2.3038918591558932,-4.329610627792776,-2.8971254630863665
1789058869271506400,5.50650634765625,-11.775398050397634,6.067094638362526,-3.1848692227661606
1789058869281517800,5.516517822265625,-11.2392348256886,4.282919019244611,0.7598374669950455
1789058869291528700,5.52652880859375,-0.4507628230601549,0.8917258443787693,2.0038605725720524
1789058869301539600,5.53653955078125,9.733692900338768,-5.486439945498109,2.9709923710688946
1789058869311550700,5.54655078125,6.040968847981095,-0.8468725571736693,-0.2815128294009715
1789058869321561600,5.5565615234375,1.113600709092617,1.5919389368206263,-3.5773344628974795
1789058869331572700,5.56657275390625,0.5006394913852215,-1.4244959195181726,-3.3594717564344405
1789058869341583600,5.57658349609375,-0.3095557785153389,-1.3484005218312143,-1.1216392002500593
1789058869351595500,5.586595458984375,-2.562575528568029,-2.648642285171151,0.005494359632581472
1789058869361606700,5.596606689453125,-5.427359395498037,1.9745465075433253,-0.5854657464079559
1789058869371617500,5.606617431640625,-3.9013977824538943,2.1017247344747183,-0.3868712195165455
1789058869381628700,5.616628662109375,1.9102870936006306,0.1561231663867831,0.8530387516532093
1789058869391639800,5.626639892578125,8.581927588024735,-2.364702886210382,1.7792542370676994
1789058869401650700,5.636650634765625,7.933540252149105,-5.665990456962585,-0.5419937574934214
1789058869411661600,5.64666162109375,-5.387029138675332,3.1658219924688336,-2.592252289429307
1789058869421673700,5.656673828125,-6.45756402850151,-0.5865417050763965,-0.710310488890484
1789058869431684600,5.6666845703125,-4.64455482134819,-0.2781085008502006,0.6104987731166184
1789058869441695700,5.67669580078125,0.3104407446563244,-2.802466234704852,0.8495585813872516
1789058869451706600,5.68670654296875,0.7400760240137577,3.1276889534294603,0.7171352934092283
1789058869461716700,5.696716796875,6.68313745547235,-4.458764830972254,0.324485088632442
1789058869471727600,5.7067275390625,2.0005887112945318,0.14568740482926368,0.768240626746416
1789058869481739800,5.71673974609375,-10.707157408988476,9.341990169012545,-2.891777087795734
1789058869491750700,5.726750732421875,-9.327842401194571,5.669701586440206,-0.7212414135538041
1789058869501761800,5.73676171875,5.578126295548677,-5.910730941218137,-0.011841171376034616
1789058869511772700,5.746772705078125,5.4126469795346255,-3.878604643626511,-0.36275665935967116
1789058869521783600,5.756783447265625,1.7743226258844136,-1.8701941526651382,1.055151442733407
1789058869531794400,5.76679443359375,2.225377125367522,-1.1988178631290793,-0.5200399555670098
1789058869541805800,5.776805908203125,-3.040259676301479,3.6877521091639993,-0.4173716447856277
1789058869551817700,5.786817626953125,-4.353461751240491,1.3820251435354352,0.7344723587878048
1789058869561828600,5.79682861328125,0.49778527099788183,-2.888075310668349,0.000007927578128874301
1789058869571839500,5.806839599609375,3.951352776712179,-4.9608127278506755,0.2776360610328615
1789058869581851000,5.816850830078125,-2.8406647401958702,4.274524992647767,-0.7170199234012514
1789058869591861800,5.82686181640625,-1.3820090691834688,2.5203824004828927,-1.4658473360821604
1789058869601872600,5.83687255859375,5.050390707445144,-2.4205907776489854,-0.6675174221508204
1789058869611883500,5.846883544921875,4.015535618287324,0.025138240648806095,0.029990649116039273
1789058869621895400,5.8568955078125,-3.82615286411643,4.838753159107267,-2.5519708401843904
1789058869631906800,5.86690673828125,-2.931805731323361,-5.234156206256151,0.5603185552677139
1789058869641917700,5.876917724609375,-4.839348494651913,-1.6016767792418598,-0.6272493438441306
1789058869651928600,5.886928466796875,0.29039573549330233,-3.0588463033497333,-1.9122275601439176
1789058869661939700,5.896939697265625,6.056627604883909,-2.357711127626896,-0.004634089541435241
1789058869671950600,5.90695068359375,4.356781251052022,-2.8072289190620183,-0.017735599709488452
1789058869681961700,5.916961669921875,-4.605778808230162,6.836810598358512,-2.08032100417912
1789058869691973600,5.9269736328125,2.118581468990445,-3.9203459362909197,0.5180557594798505
1789058869701984800,5.93698486328125,1.8664391840457915,-2.223463985222578,0.18478384554069488
1789058869711995600,5.94699560546875,-0.1466179636776447,-0.6055173314422369,-1.4898251546494663
1789058869722006500,5.957006591796875,-3.1526667428195476,4.186247281996906,-1.650110555282235
1789058869732017700,5.967017578125,4.057934498077631,-2.597283561594784,-0.6337680050231516
1789058869742028800,5.97702880859375,4.698780917054415,-1.889064565090835,-0.6960096494026482
1789058869752039700,5.987039794921875,-1.9097785595566033,0.6153156718790531,-2.5745629034817217
1789058869762050600,5.997050537109375,-6.532106936049461,4.755341593188047,-3.7220004157245157
1789058869772062500,6.0070625,-3.5633290261596438,-2.8928637139886617,-1.3700570578441023
1789058869782073900,6.017073974609375,-0.013307809862494469,-1.9210911039486527,2.5351392401099204
1789058869792084700,6.027084716796875,9.298598186531663,-6.006666180884838,1.0075255490098147
1789058869802095600,6.037095703125,1.5206138222754,6.461918716579675,-1.8452261540167032
1789058869812106500,6.0471064453125,-5.762972575333714,5.98012304187417,-2.7340029393315315
1789058869822117600,6.05711767578125,-3.9791304259538647,0.5047063024327159,-0.7100687160238623
1789058869832128800,6.067128662109375,5.506852618929743,-10.69388876209259,2.9914629121676084
1789058869842140700,6.077140625,4.370501733368635,-2.0228499352023004,0.5725803997412323
1789058869852151600,6.087151611328125,1.0082195956885813,1.4852783050000666,-1.4807006218209862
1789058869862162700,6.09716259765625,-4.63080862006843,4.932851538735628,-2.284716034042835
1789058869872173600,6.107173583984375,-1.6861095049023627,1.9934625126764176,1.60007708896026
1789058869882184700,6.117184814453125,2.8621231232881543,-2.658508722408116,2.0520967802137133
1789058869892195600,6.127195556640625,3.3810528891235587,-4.231398090843856,0.9457761451266705
1789058869902206700,6.137206787109375,-1.4546610484182834,0.7803451982989906,-0.5636084636585786
1789058869912218600,6.147218505859375,-0.5944318738043308,5.721458077162504,-0.4550310384312644
1789058869922229800,6.157229736328125,0.16171908669769763,-3.913241072721779,1.2095752578563987
1789058869932240600,6.16724072265625,-8.087666984021663,-1.2075836456477642,1.330783470467478
1789058869942251800,6.177251708984375,-4.331902245861292,1.5679706167340277,1.0494237858016042
1789058869952262700,6.1872626953125,3.5092870548486705,-3.5009506036579605,1.3842377050183712
1789058869962273500,6.1972734375,1.53422850612998,-0.04251899903863668,-0.33831330563984807
1789058869972284700,6.20728466796875,2.405173136025667,2.6149536583200095,-0.7282998806979507
1789058869982295800,6.2172958984375,0.3694616734236479,5.568131555756926,-0.2902831236979924
1789058869992307700,6.2273076171875,3.986705829644203,-4.158805732841789,0.6442607574649155
1789058870002318600,6.237318603515625,2.3260738803476095,-2.543134915038943,0.9523173103984445
1789058870012329500,6.24732958984375,-4.9394344242572785,-0.1945247932344675,-1.233404900124669
1789058870022340900,6.2573408203125,-10.24261097524762,4.373409145247936,-2.0523041393540797
1789058870032351700,6.267351806640625,3.4967864697158335,-1.7954340952351688,0.5993013064716011
1789058870042362600,6.277362548828125,10.062132827544211,-4.637851232056319,1.1859333932451903
1789058870052373800,6.287373779296875,3.5537995657920836,0.3993675668656826,0.8440642948199063
1789058870062385700,6.2973857421875,2.0041589709967376,0.16757745733708143,-0.8700354060962796
1789058870072396800,6.307396728515625,-2.4981740758061406,-0.9283107771933078,-2.398333499263972
1789058870082407700,6.31740771484375,-12.694190473139285,3.88224329238981,0.006422260732995346
1789058870092419000,6.327419189453125,-10.871134503746033,6.8721677429437635,2.4942323524430394
1789058870102430200,6.33743017578125,5.662080005520582,-6.847315041238069,1.4795841850116849
1789058870112441000,6.347441162109375,11.475055505907536,-6.940853156635165,-0.5983742912871762
1789058870122452000,6.357451904296875,7.639182042765617,2.741038829317689,-0.7099678129326552
1789058870132463000,6.367463134765625,-0.6408487570643424,4.425591752427816,-2.292622423253208
1789058870142475000,6.37747509765625,-5.846075805956125,1.9763141017377375,-0.4667122334726155
1789058870152486100,6.387486083984375,0.585645340758562,-4.825798108205199,1.4746294852137565
1789058870162497000,6.3974970703125,0.9406675699412822,-4.177795972254872,0.517301470513828
1789058870172508000,6.4075078125,0.6571241845607757,-1.8431588462233541,0.341335722200945
1789058870182519000,6.41751904296875,1.4103835152745245,4.747675880865752,0.6292852335859089
1789058870192530000,6.427530029296875,5.7200224914014335,-1.5060478290453552,0.02618321052393876
1789058870202541000,6.437541015625,2.252809906694293,-4.161218054680526,0.2502887112335302
1789058870212553000,6.447552978515625,-0.5611439367085695,-1.1313029545217752,1.0116898290824143
1789058870222564000,6.457564208984375,-4.615975792595743,2.245799151149392,-0.13017357282247394
1789058870232575000,6.467574951171875,-11.74483690791726,6.540728049400449,-0.23146882341867311
1789058870242586000,6.477586181640625,-2.8531869526386258,1.983187786899507,1.1466957539647817
1789058870252597000,6.487596923828125,7.863670012587308,-8.037323282706737,0.49720337945669885
1789058870262608100,6.497608154296875,3.6151340321987866,-3.245108587412536,0.009967705654352902
1789058870272619000,6.507618896484375,-1.3339946875989437,7.804094372546673,-0.14245565636642277
1789058870282631000,6.517630859375,-2.6182822182208296,3.7374928761497137,-0.05020337952878326
1789058870292642000,6.52764208984375,1.3383324245423078,-9.110141899555922,-0.21350047439923509
1789058870302653200,6.537653076171875,1.9940227769076824,-4.616586910231411,-0.15707042064163834
1789058870312664000,6.5476640625,-5.443735360759496,8.142472925442457,-1.0371794404521584
1789058870322675000,6.557675048828125,-1.6668214515864848,6.995778925043344,0.629059973462671
1789058870332685800,6.567685791015625,8.611360603258014,-5.363190582448244,0.991729940919578
1789058870342697200,6.577697265625,3.068727061372995,-6.974303590816259,-3.5197821453779934
1789058870352708000,6.5877080078125,-5.13236697986424,-0.0032800445839762686,-1.2040144819241017
1789058870362720000,6.597719970703125,-3.4048896917849776,3.1421573315039275,1.8986796579152345
1789058870372731000,6.60773095703125,2.7167741566330195,2.4460271244615317,-0.6279618029624223
1789058870382742000,6.617741943359375,-2.183931600779295,5.162644629228115,-1.7836314292386173
1789058870392753200,6.627753173828125,-1.4312363336890934,-0.3580915536254644,0.2506305834737606
1789058870402764000,6.637763916015625,4.374810244217515,-6.795533416074514,0.9692445528671145
1789058870412775000,6.64777490234375,-2.893616578182578,-1.5455536177426576,-0.4560138023909181
1789058870422786000,6.6577861328125,-10.278633890265226,13.213241235005855,-0.233515289353393
1789058870432798200,6.667798095703125,2.5970015297830105,-0.41416853789538144,-0.5398347893612458
1789058870442809000,6.67780908203125,10.753486613965034,-8.915411939138174,-2.968330166122317
1789058870452820000,6.687820068359375,12.456043395799398,-5.216735700377821,-1.3426947114050387
1789058870462831000,6.6978310546875,1.4748264690905808,7.072142033755779,-0.34922654851600526
1789058870472842000,6.707842041015625,-8.384781798636913,6.804223503008484,-0.6624973289664834
1789058870482852900,6.717852783203125,-13.631071510279178,4.789571779569983,0.4322088927051052
1789058870492864300,6.7278642578125,-6.573589285516738,-6.696568014931678,0.09531186533765867
1789058870502875100,6.737875244140625,1.6888982588380574,-9.301621333745121,-1.934138947700709
1789058870512887000,6.747886962890625,10.165193389046191,-3.9456852524697776,-0.4035912489753216
1789058870522898000,6.75789794921875,7.692468811795115,7.572400416868924,-0.3777829270452261
1789058870532908800,6.76790869140625,-1.454702549472451,5.529249159654975,0.09129004420936107
1789058870542920200,6.777920166015625,-5.88634994867742,2.0754022524774074,1.8337886680707334
1789058870552931000,6.78793115234375,2.7587849138885736,-7.405277425301074,2.0216823527276513
1789058870562942000,6.79794189453125,-1.3400935889959336,-5.462739336436987,-0.3231421861235052
1789058870572953000,6.807953125,-6.484695781055092,4.37344860047549,-2.6587100901991128
1789058870582965200,6.81796533203125,3.501448031786084,3.726796417829394,-1.246545098335296
1789058870592976100,6.82797607421875,4.729626721695065,-1.20759124443233,-0.7100666701972485
1789058870602987000,6.837987060546875,-0.8203326330333948,0.5576598939850926,1.630033251284808
1789058870612998000,6.847997802734375,1.1461825437456368,-0.4050575952008366,0.39710049871653313
1789058870623009000,6.858009033203125,2.9369699822187423,-4.042883643940091,-1.6435172944970429
1789058870633020000,6.86802001953125,-5.506216659113765,3.042839171400666,-0.49086080549694594
1789058870643031000,6.878031005859375,-5.9823149989604945,2.3668016120553017,0.28075711566284295
1789058870653042200,6.888042236328125,-0.6627309185266494,-1.5343752211242914,-0.4477899447292089
1789058870663054000,6.89805419921875,4.052008615159989,-2.2350480400323867,-0.025256405402068048
1789058870673065000,6.90806494140625,7.239122401982545,-0.34410160671770573,-0.7429240338560194
1789058870683076000,6.918076171875,5.180407080411911,2.1902152110934257,-0.5807999465540051
1789058870693087000,6.9280869140625,1.7142437124967573,-1.406104522781074,1.532516441515088
1789058870703098000,6.93809814453125,-1.5621107847899198,1.3474430749759077,0.8339753739386796
1789058870713109000,6.94810888671875,-7.009618649825454,0.18823446091860532,-1.4294446279667317
1789058870723119900,6.958119873046875,-15.2835745136559,10.570018052273989,0.7023091879382729
1789058870733132000,6.968132080078125,0.9467904367357491,-1.8716113259866833,0.45149033361710605
1789058870743143200,6.97814306640625,5.749854150563478,-5.510350982439518,-0.3735535458471626
1789058870753154000,6.988154052734375,1.8823159676134584,-3.680917586968839,0.40780440969094633
1789058870763165000,6.9981650390625,1.0969693077653646,2.478386548535526,0.33558841072060164
1789058870773176000,7.008176025390625,6.235826818692684,-2.8594834224343297,1.58525069122836
1789058870783187200,7.018187255859375,1.634106930464506,0.7321653970196843,1.472317993400991
1789058870793198000,7.028197998046875,-6.849981045576929,5.330979334673285,-0.5094729688452556
1789058870803209000,7.038208984375,-3.2433173200815912,-1.2046572368070483,-1.412374981352687
1789058870813220900,7.048220947265625,-0.3357657400488853,-2.298755957572162,2.7837422450125215
1789058870823232000,7.05823193359375,-5.239544913557172,5.471245298975706,4.167335660777986
1789058870833243100,7.0682431640625,-0.05959083760976791,2.1452260225489734,1.127490264365822
1789058870843254000,7.07825390625,4.9887300778239965,-0.9304276232168078,-1.4112163128368556
1789058870853265200,7.08826513671875,8.568634391209482,-3.7205978554502126,1.5294097076714037
1789058870863276000,7.098276123046875,0.7406944481730461,-0.8051049610242247,2.2008853659287095
1789058870873287000,7.108286865234375,-5.453356591063738,0.6446010953351855,0.9709124860793351
1789058870883299000,7.118299072265625,0.9162760560065507,0.04464753549993038,1.1915446572557091
1789058870893310000,7.12831005859375,4.069416261556745,-3.2303175532549617,-2.0990292117804286
1789058870903321000,7.138321044921875,-3.447131919708848,3.9212542833074924,0.3059976111097261
1789058870913332000,7.14833203125,-1.1951882744550704,7.707353077194094,1.210976210695505
1789058870923342800,7.1583427734375,4.407243025788665,-2.2120435965418817,0.7262392949063331
1789058870933354200,7.168354248046875,4.282200934103131,-5.823974448785186,1.7693145884640513
1789058870943365000,7.178365234375,3.458084690877795,-2.500874274675548,-0.503392845213972
1789058870953376000,7.1883759765625,-1.6263497404664753,4.548652607168257,-0.1878300448361784
1789058870963388000,7.198387939453125,-6.778713798698782,2.1400778460055587,0.1862820482091978
1789058870973399000,7.20839892578125,-8.909865995448827,1.2419967873811721,1.889212156867981
1789058870983410200,7.21841015625,-3.117921008130908,-1.3687196717604995,-0.3955803399445489
1789058870993421000,7.228421142578125,3.9576463238984343,-6.576560994803905,-0.8232426752611994
1789058871003432000,7.238431884765625,5.039571791788935,-0.204434485091269,0.410869386752136
1789058871013443000,7.248443115234375,0.5025169756948947,5.889045763632655,-0.3125044722530991
1789058871023454000,7.258453857421875,-1.9334242235600947,0.17659692235589025,-0.655531800802797
1789058871033466000,7.268466064453125,0.6207330207526683,-4.607610699832439,0.33623090987522153
1789058871043477000,7.27847705078125,-0.5868488713294268,-1.9535031349927185,0.0779545791549608
1789058871053488000,7.288488037109375,-6.819496475464105,5.963314530414342,0.33432277469895777
1789058871063499000,7.2984990234375,-1.973612441563606,1.2896566564396024,0.7438683289688081
1789058871073510000,7.308510009765625,2.1624849081248043,-3.4212682873949407,0.7886263391058892
1789058871083521000,7.31852099609375,-1.1536655929774045,-1.0011661700457335,-0.7596395332701503
1789058871093531600,7.32853173828125,-0.17145605233609676,1.3023434117943047,-0.048623964850232
1789058871103542800,7.338542724609375,9.464293191123009,-2.7464251985311505,2.2781135670378805
1789058871113554700,7.3485546875,4.1337423109948634,-0.10792378362417221,0.32964429802652445
1789058871123565600,7.358565673828125,-5.9708548627913,5.102155965995788,-1.6899517134137452
1789058871133576700,7.36857666015625,-5.05041759545207,2.78507875431329,-0.13884097300060091
1789058871143587600,7.378587646484375,3.3404186809182166,-6.560598286518454,0.09137951259110122
1789058871153598700,7.3885986328125,0.5467290423870086,0.748680478490889,1.4549407421424985
1789058871163609900,7.39860986328125,-1.278809975993633,7.940749745136499,-0.07551109499298035
1789058871173620700,7.408620849609375,7.133920736798643,-0.6099664198055863,1.584619992109388
1789058871183631600,7.418631591796875,3.222781312531233,-4.560608125638962,0.9121073189545422
1789058871193643800,7.428643798828125,-10.101737692701816,4.72333258998692,-3.5995816582798956
1789058871203654700,7.438654541015625,-6.241509540504217,1.2374714189112186,0.25400435248948633
1789058871213665800,7.448665771484375,-2.169969710922241,-0.8990002192959189,0.5741039560467004
1789058871223676700,7.4586767578125,-3.0948715564548968,1.6320491211518644,0.12536891248710452
1789058871233687600,7.4686875,6.746912885290384,-2.126588249835372,-0.0564745687527582
1789058871243698700,7.47869873046875,8.94917626157403,-4.830169747418165,-0.14283102901745587
1789058871253709800,7.488709716796875,-1.2938894717037677,-0.8014718652188777,1.2363014983490108
1789058871263721700,7.4987216796875,-4.542870224374532,1.4727476169899105,0.7777006751395762
1789058871273732600,7.508732666015625,-0.4150222321152687,-0.5327200985178351,-0.4263058426737785
1789058871283743700,7.51874365234375,-2.1507821953713893,-0.41575580708682536,-0.9814847334980964
1789058871293755000,7.5287548828125,1.6552438265174627,-2.11005826305598,-0.27284152023270725
1789058871303765800,7.538765869140625,7.55963387427628,-3.1296763278543946,-0.10045337467826902
1789058871313776600,7.548776611328125,4.273377576178312,2.1228248056486247,0.04925411597993225
1789058871323787800,7.558787841796875,-4.617282783541083,7.913539082127809,2.024111917962134
1789058871333798700,7.568798583984375,-3.404471174111962,-1.8168363642260432,1.327544780807197
1789058871343810800,7.578810791015625,-5.815346905693412,-3.2201018641889094,-0.5776087858298793
1789058871353821700,7.58882177734375,-5.906885371705889,-0.4598132677391171,1.9304190503947436
1789058871363832800,7.598832763671875,-0.11261690987646579,0.5761538743138312,1.7548681299604474
1789058871373843700,7.60884375,6.531077593001723,0.509346237193048,-0.513742499390617
1789058871383854600,7.6188544921875,1.5827490836709737,10.02724271594882,-0.5532140204921364
1789058871393865500,7.628865478515625,4.868942837926745,-2.928132011246681,1.293351711565256
1789058871403876900,7.638876953125,1.6730162145733833,-2.8434359584748745,0.530515208884701
1789058871413887700,7.6488876953125,-0.18936404947042465,-1.4066764774501324,0.5308939060039818
1789058871423899600,7.658899658203125,-4.512292715281248,4.892036421005428,2.516496791221201
1789058871433910500,7.66891064453125,-1.7655933759838343,-0.6610857816681266,2.4564424277529118
1789058871443922000,7.678921875,-1.0664227783322333,0.5369865237906575,-0.4844253656219691
1789058871453932800,7.688932861328125,2.2803046473413704,1.7666911080926655,-0.9445304559145122
1789058871463943700,7.698943603515625,5.92935731575489,-2.507834469076991,-0.31146321957185863
1789058871473954600,7.70895458984375,0.7435474995166063,-2.2720909457474945,1.2358930636785923
1789058871483965700,7.718965576171875,-7.243654200193285,6.307977862668037,0.7842385524757206
1789058871493977900,7.728977783203125,-4.656756131273508,-1.2645818364158272,3.428484794645011
1789058871503988700,7.73898876953125,-1.4291612809807062,-6.743701522028446,2.406046119467914
1789058871513999600,7.74899951171875,-3.01858677367568,0.4839245034277439,-1.2022829088911413
1789058871524010800,7.7590107421875,-0.8917425032526254,6.701994716155529,-0.8487526718318462
1789058871534021600,7.769021728515625,3.25702786552608,0.4440893366456031,0.5323788107994943
1789058871544032800,7.77903271484375,-0.7567857512742281,-0.3497439965188503,-0.37177915658578276
1789058871554043600,7.789043701171875,-0.09454875374436378,1.192772153224051,1.7957652268856763
1789058871564054800,7.7990546875,6.604944208723306,-6.32037440290451,2.0980903234951196
1789058871574066700,7.809066650390625,2.0777257269889113,-1.2283610607385635,0.18890972983166573
1789058871584077600,7.81907763671875,-1.505772226974368,4.3956405585393306,0.08328202125541866
1789058871594088700,7.829088623046875,-3.5153175671845673,7.89636173735559,-0.5508496294483542
1789058871604099800,7.839099853515625,0.05967734684944152,-3.654505380861461,0.040751989366114134
1789058871614110700,7.84911083984375,1.0707558391004801,-4.954212891194224,-0.7023107223082333
1789058871624121600,7.85912158203125,1.6267653355300427,-2.669920343260467,1.272737670342624
1789058871634132700,7.8691328125,-1.5041840810000895,1.2117524557650088,5.2823985513776535
1789058871644143600,7.8791435546875,-1.3425292917102574,3.0437931111246344,2.897562977720797
1789058871654155800,7.88915576171875,1.4656038827151059,0.39394524955600496,-2.538976041793823
1789058871664166700,7.899166748046875,-0.4463309780925512,1.785685439158976,-0.7273802816350012
1789058871674177500,7.909177490234375,-3.4357062703311443,0.7807192923083901,0.8593767955683171
1789058871684188700,7.919188720703125,-7.487821268475055,3.8562323605597015,-0.27346352458857
1789058871694199800,7.92919970703125,-6.372919413655996,-0.8763567180722951,-0.8667980316102504
1789058871704210700,7.939210693359375,-1.2663649204403162,-1.6298337831899523,0.08627667302675544
1789058871714221800,7.949221923828125,9.43657574763596,-6.374003701761365,0.8834095591932535
1789058871724232700,7.959232666015625,9.562775777184962,1.0823638593077658,-0.28194775021951646
1789058871734244600,7.96924462890625,1.0577005426943302,5.803340241557359,-0.6452712496817111
1789058871744255700,7.979255859375,-4.5222184814900155,5.0998237236559385,-0.5390774316553026
1789058871754266600,7.9892666015625,0.4921586632877588,-5.871946744793653,-0.556165600306727
1789058871764277800,7.99927783203125,-4.52030826395452,-4.5523552610784765,-0.8282394606351852
1789058871774288600,8.00928857421875,-7.6454627304703,0.4705117718860507,-0.31307675571572036
1789058871784299500,8.019299560546875,6.478126339536905,-3.7181998543977737,0.2877710860781371
1789058871794311000,8.029310791015625,7.434848972222208,1.5844254924505947,-0.9482517414599656
1789058871804322800,8.03932275390625,2.5370693313896653,1.387717217697203,0.06816402016580105
1789058871814333700,8.049333740234376,-2.3483657916545866,5.159281290274858,-0.06772646899875254
1789058871824344600,8.059344482421874,2.931452095580101,-5.966510696107148,-0.6908163185432553
1789058871834355700,8.069355712890625,-4.825568391102552,3.2260204405829307,-1.7621717309720812
1789058871844366800,8.079366943359375,-3.6302684729665518,-1.4701567237138746,0.078155654685013
1789058871854377700,8.089377685546875,2.149742330929637,3.3302892088308926,-1.2554236935786902
1789058871864388600,8.099388671875,7.617997215917706,-1.696265572735667,-0.08469513945635408
1789058871874399700,8.109399658203126,-3.6474241904288527,5.687905936172604,-0.3494928713019937
1789058871884412000,8.119411865234374,-5.272068880543112,0.7006292720273136,-1.0733587881404907
1789058871894422800,8.1294228515625,-2.0423001933425664,-0.5504655985668301,-0.2591198140733875
1789058871904433700,8.13943359375,0.8005775467276572,-0.7417363584414124,-2.918107753099501
1789058871914444800,8.14944482421875,2.5107757832258937,-2.0762837114870547,0.5415719518847764
1789058871924455700,8.15945556640625,4.585274364861846,-2.198830479225516,4.208066899617016
1789058871934466600,8.169466552734375,-1.5062024350851773,4.095268787954748,-2.046430863406509
1789058871944477700,8.179477783203126,-6.286022051447629,2.8367177561357617,-0.38734797018282113
1789058871954488800,8.18948876953125,-3.681396602657437,0.1036564815685153,1.2205948837164788
1789058871964500700,8.199500732421875,4.9036067395508285,-7.548018839806318,-0.2308159124678932
1789058871974511600,8.20951171875,2.3549960234493015,-3.024636575233936,0.9906722485601901
1789058871984522500,8.2195224609375,-1.6644354332327842,0.8379258651301265,0.2413232962232083
1789058871994534000,8.229533935546876,0.7894862438708543,2.0333271978139877,0.8366364098414778
1789058872004544800,8.239544677734376,-3.561985794857144,8.11238290760517,-0.4341668218398467
1789058872014555600,8.2495556640625,-4.273686203736067,3.288764481526613,1.939198861438781
1789058872024566500,8.25956640625,1.7420120093882083,-6.464545557951927,2.519133861726522
1789058872034577700,8.26957763671875,5.725421135574579,-5.374245060425997,-0.12485281619112938
1789058872044589800,8.27958984375,2.155903776168823,-0.1421466634824872,-0.504639447741583
1789058872054600700,8.2896005859375,-4.683573411050439,6.7608233372211455,-0.4338405855601653
1789058872064611600,8.299611572265626,-0.05842004026472568,1.6986738029211759,1.0750244563303888
1789058872074622700,8.309622802734374,-0.18557225597202776,0.15584201135784387,0.32466406192854047
1789058872084633600,8.319633544921874,-0.31445407195091246,1.7957243103533982,0.4462234260648489
1789058872094644200,8.329644287109375,2.3203853133171797,-2.2570795468375087,1.168856732368469
1789058872104655400,8.3396552734375,-0.0793681357473135,2.462468263913691,0.09381528837066143
1789058872114666200,8.349666259765625,-3.015892127764225,2.424196400925517,-1.1773214861139654
1789058872124678400,8.359678466796876,-2.617338215368986,-1.3119108660846948,0.08195314727183431
1789058872134689300,8.369689208984376,3.841489549458027,-4.724062073305249,1.5048130265533923
1789058872144700400,8.379700439453124,3.4514924530059097,1.327170102275908,1.0299499275900423
1789058872154711300,8.389711181640624,-0.5038514391690493,5.899328088194132,0.23777959573436527
1789058872164722400,8.399722412109375,-0.18648820177316663,-0.4865966452464461,-0.8572267048623412
1789058872174733300,8.4097333984375,0.08814064026772975,-3.1148744800418613,-0.03540978808794171
1789058872184744400,8.419744384765625,-7.3498513061553234,0.3638885494664311,0.3167616182409227
1789058872194755300,8.42975537109375,-5.712483328068256,-0.7352198161542415,0.24271836731079965
1789058872204767200,8.439767333984374,4.158445375096798,-2.6776930230885743,0.8082032923657446
1789058872214778400,8.4497783203125,3.0464655452042817,-0.26423399701565503,-0.06728519150465727
1789058872224789500,8.45978955078125,0.6552998917430639,2.474290511393547,-0.06473799123987554
1789058872234800400,8.46980029296875,5.248030417829752,-2.3469743372961878,1.6803000879712402
1789058872244811300,8.479811279296875,4.573217431843281,-0.562405627207458,0.970321534448862
1789058872254822100,8.489822265625,-1.6787386838734148,1.2451412228867411,-0.5754524115135893
1789058872264833300,8.499833251953126,-4.603213926178217,-0.3154790310844779,0.5476055329605937
1789058872274845400,8.509845458984374,-3.4929531751632688,0.7598819637238979,0.8710380072675645
1789058872284856300,8.519856201171875,-0.6053571724444627,-1.3451625628232955,-0.836360953900963
1789058872294867200,8.5298671875,-4.289721392735839,5.080711026906967,-0.566249808480218
1789058872304878300,8.53987841796875,-0.06979308267235755,-0.48576808546781536,0.9456387824825941
1789058872314889500,8.549889404296875,1.5754963360637426,1.3033616489261388,-0.33574575670678164
1789058872324900400,8.559900390625,4.491759045818448,1.862508566598594,-1.7892264727666973
1789058872334911200,8.5699111328125,8.823038775867223,-4.753970012573897,-1.6879188924118875
1789058872344922400,8.57992236328125,3.346283189037442,-2.838158894854784,0.6551192744791507
1789058872354934300,8.589934326171875,-11.883162844067812,5.585181474757194,3.083807726126909
1789058872364945400,8.5999453125,-12.967978188180922,6.9086705504328005,1.816536212235689
1789058872374956300,8.609956298828125,-0.9364917455613613,-3.5028307183161376,-1.5038348291710018
1789058872384967400,8.619967529296876,6.001444062322378,-2.436851592098176,-1.7302802166707814
1789058872394978300,8.629978271484376,4.664624964952469,1.703181343473494,0.013055113743059336
1789058872404989200,8.6399892578125,8.226471643599867,-3.1667326775729654,1.564734411291778
1789058872415000300,8.650000244140625,1.2256044555068015,-0.5096963658049702,1.361299750892818
1789058872425011500,8.660011474609375,-6.190981130272149,1.153911092171073,1.4037258109509945
1789058872435023400,8.6700234375,-6.890763722342252,7.5084806101441375,-0.8067585003849118
1789058872445034200,8.6800341796875,3.3740935715049503,-5.7775289239525796,-0.28409071706496175
1789058872455045000,8.690045166015626,1.260544835984707,-2.9474177264750003,2.6702193262070417
1789058872465056500,8.700056396484374,0.3980021237313747,1.5676000298559665,0.9798328015726059
1789058872475067400,8.7100673828125,4.346761961340904,-2.9765134725779294,0.6462903635963797
1789058872485078300,8.720078369140625,5.518852268803119,-4.666344336090981,-1.1717442705035208
1789058872495089400,8.73008935546875,-5.544571231949329,5.1150487653166055,-0.9320632615946233
1789058872505100300,8.740100341796875,-6.777313284251093,6.425269194096327,-0.1624757502838969
1789058872515112400,8.750112548828126,-4.518353038233518,0.8348299449414014,0.021820056011527776
1789058872525123300,8.760123291015624,-2.5555758789390324,-2.4807459711432456,-1.2244986131567508
1789058872535134200,8.77013427734375,2.394664016970992,-1.4213649280160665,-1.7869040211685001
1789058872545145300,8.780145263671875,6.207787888166308,0.6196317815124989,0.7659930670153349
1789058872555156200,8.79015625,8.054861277484893,-2.620461608086526,0.2477302954549901
1789058872565167400,8.80016748046875,-1.8633219288080929,3.9987139550849795,-1.132929386679828
1789058872575178500,8.810178466796875,-4.728605561953783,1.9653215830802917,-0.44149899135883897
1789058872585189400,8.820189453125,-1.1318331158757209,-3.046404462666809,-0.7721239709857851
1789058872595201300,8.830201171875,3.5249610093206165,-6.4139411598742,-1.393817580398917
1789058872605212200,8.840212158203125,1.5712012692183255,0.7008335624277592,-0.03313323972439393
1789058872615223300,8.850223388671875,-7.7807643503636115,8.180987657275795,-1.6214683981657028
1789058872625234400,8.860234375,-9.219559136608243,6.656287442469597,-1.0582730818852781
1789058872635245300,8.870245361328125,3.6752398335933685,-2.52910609742552,-0.3408160457083955
1789058872645256200,8.880256103515626,12.729016287326813,-11.06028812533617,-0.025517750618839635
1789058872655267300,8.890267333984376,7.584873529472946,-4.376053230015933,0.6838037363674492
1789058872665278500,8.900278564453124,-2.438777299463749,7.1417620979487895,-0.22294150756467132
1789058872675290400,8.910290283203125,-3.7636236349672076,5.435635056412219,-0.6705898883987218
1789058872685301200,8.92030126953125,-9.097077250799536,3.3502480010151863,-0.6827579536415637
1789058872695312400,8.9303125,-7.434459096121787,-2.802328579799831,-0.49039983692169187
1789058872705323300,8.9403232421875,1.312680681413412,-3.1541704253807663,0.6424803037889302
1789058872715334400,8.95033447265625,10.814087505400181,-6.571320171540975,2.014350402404368
1789058872725345300,8.96034521484375,2.8892683198451996,3.600969605506956,-0.9819441677033901
1789058872735356400,8.9703564453125,-0.40682372809052464,5.461777213406562,-0.9755582660585641
1789058872745367300,8.9803671875,0.5464134005665778,0.7880828068137169,-0.4119561225429177
1789058872755379500,8.99037939453125,-0.20742986751496792,-3.4619407817840573,-0.44907877896334975
1789058872765390300,9.000390380859375,-4.252224898034334,1.5196221808895467,-0.10200836730161682
1789058872775401500,9.0104013671875,0.4807727613985538,-0.257648773406446,1.7588969470851121
1789058872785412400,9.020412353515624,0.28416414762735365,0.3649652387872338,2.319009202658385
1789058872795423200,9.03042333984375,1.1233856055259703,-4.710280216190219,0.7806708500567823
1789058872805434000,9.04043408203125,-1.9817378803521393,1.9441987155526876,-1.7248438708357512
1789058872815445500,9.050445556640625,6.535329989749193,-6.820225958782434,0.14724194079488515
1789058872825456400,9.060456298828125,2.201631508120894,2.5398256443604827,0.07765053644077852
1789058872835468300,9.07046826171875,-3.548715978917479,4.935398300608992,0.8806517118524759
1789058872845479200,9.080479248046874,-9.483287229928374,7.253762921753525,0.0019103408330818636
1789058872855490300,9.090490234375,-4.787219078963995,-2.141930780395865,0.5615324976347387
1789058872865501400,9.10050146484375,5.797671548271179,-10.402740746927261,0.8747066127777099
1789058872875512300,9.11051220703125,3.965124112433195,1.7065496508628129,0.8221276266913861
1789058872885523200,9.120523193359375,3.506194349530339,0.0907724500760436,-0.2505471064413898
1789058872895534300,9.130534423828125,-1.4945178425103425,5.697395649051666,-0.29814941835999487
1789058872905545200,9.140545166015626,1.0249655633062125,-2.5672686548203227,-0.4372509054603055
1789058872915557400,9.150557373046874,-3.4466444284528492,-0.9290551658198237,-0.8693585297480225
1789058872925568300,9.160568359375,-3.5131852313309904,-0.293027837562561,1.307584673448652
1789058872935579400,9.170579345703125,-0.40750703417956824,2.7141122439473864,0.8290243274025618
1789058872945590300,9.18059033203125,3.405830772027373,0.8188803883984684,0.2629128314144909
1789058872955601200,9.19060107421875,0.7346978381067514,-0.24062018945515154,-0.6215659644454717
1789058872965612300,9.2006123046875,-0.5682271729677916,-0.8627747674435376,0.05024021354098804
1789058872975623400,9.21062353515625,1.6347399676710366,-3.031839930741489,0.18200974118486046
1789058872985634300,9.22063427734375,0.38183950895965096,-0.8459083883166313,0.7616944199733435
1789058872995646200,9.230646240234375,-0.06074409929811954,-1.9509762468636034,1.4842393173411488
1789058873005657300,9.2406572265625,-1.2862819193094968,4.188601151646673,-0.5494978495132178
1789058873015668500,9.25066845703125,1.6671756718516348,-0.33656916538625953,0.5042111393269151
1789058873025679400,9.260679443359376,0.372098451668024,1.655041581943631,1.1137485931307076
1789058873035690200,9.270690185546876,-2.390418634486198,2.0857783928021787,-1.0043955073557793
1789058873045701400,9.280701416015624,-4.148125641134381,-1.1368158727243542,-0.7824606560830026
1789058873055712300,9.290712158203124,-1.4746809231400488,-4.072542284622788,0.1903763683181256
1789058873065723400,9.300723388671875,5.9718333524346345,-3.0084760062888263,0.039340725195547564
1789058873075735300,9.3107353515625,5.922425470665097,7.2430147332459685,0.4003992480009794
1789058873085746200,9.32074609375,-0.7113228077381849,5.136531698328256,0.8283807688020169
1789058873095757600,9.330757568359376,-3.533671554520726,-4.1392777332901955,-0.43896132610738275
1789058873108272600,9.343272705078125,-2.249751103645563,-2.3577321704149243,-1.2502408841133117
1789058873118283500,9.353283447265625,-2.250319843444228,-2.3567177326753734,-1.2748178376175463
1789058873128294400,9.36329443359375,-1.3378332428485153,3.262634307231009,-0.9596299714993685
1789058873138305500,9.373305419921875,2.3900638296991583,2.477009122702479,-1.1841947328843176
1789058873148316700,9.383316650390626,5.815466732680798,-3.462398462423682,-0.0429839314029552
1789058873158327600,9.39332763671875,1.8955021969228982,-1.2124001060187817,-1.2872361512944102
1789058873168338400,9.40333837890625,0.6597644699364901,-1.403133398015797,-2.3317254763685167
1789058873178349600,9.413349609375,0.2783756273537874,3.637629357123375,-0.9149874775007366
1789058873188361700,9.42336181640625,0.366442033341527,2.435313422745466,-0.2882678566191345
1789058873198372600,9.43337255859375,-2.7191011382758616,1.4431763623297214,-1.2268832432709633
1789058873208383500,9.443383544921875,-5.384027618771791,-1.937895816016197,-0.7615946859259158
1789058873218394600,9.45339453125,-3.501038866463303,-2.8693200490549207,-0.8261069786511361
1789058873228405500,9.463405517578124,2.6660896790564057,-2.0996496817663313,-1.1411118163526057
1789058873238416400,9.47341650390625,2.823262354496121,4.568558792382478,-1.2377226171933113
1789058873248427500,9.483427490234375,3.5309605419963597,-2.236281965741515,-1.054774426114559
1789058873258438700,9.493438720703125,-0.9951303970128297,2.5364383400097488,-0.14225578641276806
1789058873268450600,9.503450439453125,-1.0453466725558043,0.6779261495709419,0.24973376249819992
1789058873278461400,9.51346142578125,-3.4633506485819816,1.8921534710168837,-1.5133783180639147
1789058873288472300,9.523472412109374,-1.1042962896525859,-3.44096375246793,-0.1312932975674048
1789058873298483700,9.533483642578124,1.2076906131535767,-0.9884913973897695,-0.06627042497154324
1789058873308494600,9.54349462890625,2.873810053950548,2.8630761862292884,-0.6470449813559651
1789058873318505500,9.55350537109375,-0.16210954732000826,1.7335437485113738,-2.0876512009367345
1789058873328516600,9.5635166015625,-1.9066414305746555,-1.588201796118915,-2.5682944907367227
1789058873338527500,9.573527587890625,-1.1147978099226952,-2.1945684378668666,-0.8740611544810235
1789058873348539600,9.58353955078125,-2.112652663463354,-0.8744345178380608,0.8218392382040619
1789058873358550500,9.593550537109374,-3.3148248054563996,4.688984330183267,-1.2588625819861887
1789058873368561400,9.6035615234375,4.264931234872341,3.0416967233672736,-0.9385280736945569
1789058873378572500,9.613572509765625,8.164781203362345,-2.7627389122113586,1.005615989061445
1789058873388583400,9.62358349609375,1.033972461104393,-4.373660197399556,-0.6926733445867895
1789058873398594600,9.633594482421875,-7.624607573968172,1.0065148375973105,-2.318467204736173
1789058873408605700,9.643605712890626,-10.066623124700785,5.308846997842192,0.4884470954187214
1789058873418616600,9.653616455078126,-1.6041712264060972,-2.709206936249137,2.0074251331858335
1789058873428627500,9.66362744140625,2.030404003843665,-3.371776234473288,0.4069772016191855
1789058873438638300,9.673638427734375,6.80294456911385,0.33665362879931926,0.17179076418317854
1789058873448649700,9.683649658203125,11.949696632683276,-2.0809055260688067,-0.11147683646325021
1789058873458660600,9.69366064453125,2.6747049471884963,2.315557162508368,-1.4604377321235835
1789058873468671500,9.70367138671875,-8.164030677255989,3.8531606980293986,-2.518373691008985
1789058873478683400,9.713683349609376,-7.839734425726532,3.1484087931141254,-0.07137176669854671
1789058873488694500,9.723694580078124,-1.0026467639923096,-8.128620341178774,3.738796359963715
1789058873498705700,9.73370556640625,-3.008427783232927,-0.602825900401175,1.807169102822989
1789058873508716500,9.743716552734375,1.6049854653984308,0.9224994605660438,-0.6882794204767793
1789058873518727400,9.7537275390625,7.131115616250038,-0.6217679167583584,-0.18679737732019275
1789058873528738600,9.763738525390625,3.1816175274938345,-1.4426187284469603,-1.6032245932057498
1789058873538749400,9.77374951171875,-1.9384160404980182,-0.003877718216180801,-0.34761381608974184
1789058873548760300,9.78376025390625,-1.1248971791326998,1.8813439077109098,0.023687749579548834
1789058873558771700,9.793771728515624,-0.009256488645076751,-2.9029294731900093,0.4899444213043898
1789058873568783600,9.80378369140625,-3.410883379241824,2.001587951464951,0.6570492196284234
1789058873578794500,9.81379443359375,0.7834253363966941,-1.3549778543949127,0.18616404785271734
1789058873588805400,9.823805419921875,-0.5610194335460662,3.5696094216033813,-0.19065014375820755
1789058873598816500,9.83381640625,-2.0383540860652922,-1.8565084494009614,-2.044524299132824
1789058873608827600,9.84382763671875,-2.223829311403632,1.5248060132682322,-2.7013959702372548
1789058873618838500,9.853838623046874,4.186023117852211,-2.3252660710960624,1.7783286466553807
1789058873628849400,9.863849365234374,7.244006082370877,0.3988829982191324,3.2184961825579403
1789058873638860500,9.873860595703125,5.983530219969153,-0.5119812618717551,-1.8814440070845186
1789058873648872700,9.883872802734375,0.9013719168633222,-2.40535433781147,-1.9297851364053784
1789058873658883600,9.893883544921875,-6.09608984670043,-0.08351765664219855,-0.3694855657558888
1789058873668894500,9.90389453125,-8.067372384011746,-0.6129246850892901,-1.5365822296492755
1789058873678905600,9.913905517578126,-3.432567387783527,1.2490572272866964,0.8570878078483044
1789058873688916500,9.92391650390625,0.8818640833169221,2.893582675912976,1.880473116225749
1789058873698927600,9.933927734375,0.30993980939686294,3.6137151053115724,-1.7122110376253723
1789058873708938500,9.9439384765625,1.0134411297291517,-3.307000395441055,-2.5407348681598902
1789058873718949600,9.95394970703125,5.072818812352419,-7.416801858878135,-0.8032466198064386
1789058873728961500,9.96396142578125,1.2951660675108432,2.8646877130791544,0.6447470796771347
1789058873738972400,9.973972412109376,0.1986333975970745,3.821064893327653,-0.2638288868134841
1789058873748983600,9.983983642578124,-0.49584991902112957,2.210947910259664,-1.9419545898877084
1789058873758994700,9.99399462890625,0.3134159610748291,-3.155403766568005,-1.2003664808105676
1789058873769005600,10.004005615234375,-3.64362538266778,2.1006340166285633,-1.9003651267841457
1789058873779016400,10.014016357421875,0.11640753433108329,-0.9898644393086433,-0.7472410202722995
1789058873789027300,10.02402734375,5.0114416758477685,-1.634929352763295,-0.6310648104790598
1789058873799038700,10.034038818359376,6.718910779643059,-4.25772554127723,-0.2405806611623615
1789058873809050600,10.044050537109374,-6.7658075553745025,3.2701407373383637,-2.953167668303847
1789058873819061500,10.0540615234375,-13.271468967568874,4.823960955905914,-3.328558147254586
1789058873829072400,10.064072265625,-1.819680940002203,0.5102683204740286,1.1132266150832175
1789058873839083500,10.07408349609375,5.808805521225929,1.8562538901180028,0.2286378560427576
1789058873849094700,10.0840947265625,8.269818617895245,-3.125473907728493,-0.6846585265658796
1789058873859105500,10.09410546875,4.9566626224339005,-3.148238112722337,-0.5924055190758779
1789058873869116700,10.10411669921875,2.0019541544288395,-2.451046706189215,-0.529755476558581
1789058873879127600,10.11412744140625,-7.254676529467106,3.32131475199759,-1.2514694029949605
1789058873889138400,10.124138427734374,-7.3371373705327505,0.6638032239332795,-1.9895015000909566
1789058873899150600,10.134150634765625,-0.7219681203931569,-0.9440992979556322,1.1313051464788615
1789058873909161500,10.144161376953125,3.9598955641299485,2.0545169930979608,0.5484432989589869
1789058873919172600,10.154172607421875,0.7408265501201152,6.563772824901342,-0.9009894934169947
1789058873929183500,10.16418359375,4.4092491049140685,-1.5651488373115658,1.1356032820641995
1789058873939194400,10.1741943359375,4.744206451189518,-4.986203189694881,-0.0032112901967018843
1789058873949205800,10.184205810546874,0.07729425208270549,-1.041629990120232,0.39823724766150115
1789058873959216600,10.194216552734375,-2.8757231940954924,-0.10562924294620751,0.16113997163549065
1789058873969227500,10.2042275390625,1.652779482230544,-2.2767551381662487,0.34142120852731167
1789058873979239400,10.214239501953125,0.17756489060521125,2.8764518006309867,-0.07628883789982646
1789058873989250300,10.224250244140626,-6.556573268786073,5.715749636387825,-0.5859904278691858
1789058873999261700,10.23426171875,-0.9465285709291696,-7.124853048723936,1.5461941076032817
1789058874009272600,10.2442724609375,0.8167688030719756,-5.659093098664283,-0.19213630892904474
1789058874019283500,10.254283447265625,-5.017889536812901,3.7537338168546555,-0.7014156731646508
1789058874029294600,10.264294677734375,-4.652953231859207,7.069709253650903,0.5405621172551065
1789058874039305500,10.274305419921875,7.101284541609883,-1.7431693627297877,1.3881794283814728
1789058874049316600,10.284316650390625,6.027374037870764,-0.6526534688875079,-0.4954244966832921
1789058874059328500,10.29432861328125,0.6489911469876766,-0.9636793199554086,-1.8731522718183695
1789058874069339400,10.30433935546875,-1.8186556886076926,-0.33513737901747226,1.7282541176706552
1789058874079350500,10.3143505859375,-2.239687974792719,-0.02132598888427019,0.32427455115430054
1789058874089361400,10.324361328125,-2.483790745666623,1.868450816129148,-0.7249768737550825
1789058874099372300,10.334372314453125,2.2256150257766247,-3.801436063750088,1.2136248985733835
1789058874109383400,10.344383544921875,1.79316585804224,-1.2597215369030832,0.6634612786278128
1789058874119394300,10.354394287109375,-6.060338734361529,4.400763600641489,-1.3339264446683228
1789058874129405200,10.3644052734375,-2.5876895115584135,1.0742328675612807,-1.24279319845587
1789058874139416300,10.374416259765624,7.163624970188737,-5.7142322175621985,1.7563409789919853
1789058874149428500,10.384428466796875,5.435035336953401,-2.4725451290309426,3.608432196472585
1789058874159439400,10.394439453125,-5.3036202031046145,5.238033924472331,-1.1382992431499064
1789058874169450200,10.4044501953125,-4.361400143024325,3.024209289732575,-0.859524387345463
1789058874179461000,10.414461181640625,3.4305677383989095,-1.3513599561586975,0.7718832210324704
1789058874189472500,10.424472412109376,1.0293255120813847,-0.5024588157668709,0.3984091336296871
1789058874199483400,10.4344833984375,1.0888380237579345,-2.7534032208502293,0.6058764105455949
1789058874209494300,10.444494384765624,-1.7461907563775776,2.776929057866335,0.6301848858393728
1789058874219505400,10.45450537109375,-3.59129255336225,1.8160723941162227,2.3904648117154834
1789058874229516300,10.464516357421875,-4.285380148661137,1.6885718033626675,0.24991215127240865
1789058874239528400,10.474528564453125,2.0699340501993895,-4.22228948623687,-0.4375982210606336
1789058874249539300,10.484539306640626,1.5523814179360866,-0.9122519150570034,0.30250134822549296
1789058874259550200,10.49455029296875,-1.3823977762401103,3.512634027189016,0.40209838006906207
1789058874269561300,10.504561279296874,4.408498578807711,-3.8692467404335735,-1.10452644514665
1789058874279572200,10.514572265625,3.0952807217776774,-2.102426745264232,-0.34719730771072205
1789058874289583000,10.5245830078125,0.6414519836544991,0.8404898703992366,-0.3627103359999135
1789058874299594500,10.534594482421875,-0.7328162621438503,-2.446018356633186,-0.7221996641267091
1789058874309605400,10.54460546875,-1.143380930328369,-2.6775352021783587,-0.6273208016451448
1789058874319617300,10.5546171875,0.3699392278075218,0.6200955996319651,0.09821015319558792
1789058874329628200,10.564628173828124,-0.6330582493185997,2.8350393015295263,-3.0325659069284794
1789058874339639600,10.5746396484375,2.757569692879915,-3.104205494250357,-2.562282683101296
1789058874349650400,10.584650390625,1.3247060502499342,0.3026385464727878,-0.15817447289340197
1789058874359661300,10.594661376953125,-3.9332980645835396,3.263827608668804,-0.7740067890577018
1789058874369672200,10.604672119140625,-1.8806898277163504,-1.7651082228153943,0.1355720343325287
1789058874379683300,10.614683349609376,6.115576637458801,-4.028923507648706,0.04149087983360514
1789058874389694200,10.624694091796876,7.834509969076514,-1.70328188123852,-2.3377152183026073
1789058874399705300,10.634705322265624,-1.3618588460803032,2.9535876472815867,-1.889829119722545
1789058874409717200,10.64471728515625,-0.5245750782459974,-4.627672367869318,-0.9399692124135792
1789058874419728400,10.654728271484375,-3.002596592861414,0.7773258504778147,-0.545308215803653
1789058874429739300,10.6647392578125,-8.905252364173531,11.683092691665887,-0.2981891841148026
1789058874439750400,10.67475048828125,-3.453029161053896,0.3076853084683418,0.6164283092960715
1789058874449761300,10.68476123046875,2.0951018092036247,-7.276818218648433,0.17972807825477793
1789058874459772400,10.6947724609375,2.894879145464301,-3.322392025840282,0.19606215886957942
1789058874469783300,10.704783203125,-4.0453386358767744,4.718508530831337,-0.8884550060145556
1789058874479794200,10.714794189453125,-0.13635901999175548,-1.9857883247867225,-1.417466167011857
1789058874489806300,10.724806396484375,2.9893332066625353,1.2952099066525697,0.16880203069597483
1789058874499817500,10.7348173828125,7.134106614759564,-3.7431446183010935,1.553227513371408
1789058874509828400,10.744828369140626,2.411540332970023,-2.4553803514793513,0.5313898728273808
1789058874519839200,10.754839111328126,0.7798433862566947,-3.0113036309301853,0.5304764843095093
1789058874529850400,10.764850341796874,-6.469205366456508,5.851519458314776,-0.5803286757804453
1789058874539861500,10.774861572265625,-7.895593675592541,1.3015385251522062,-0.8677089359100908
1789058874549872400,10.784872314453125,-2.9616280381351707,-1.7861428275376556,0.0415866226925049
1789058874559883300,10.79488330078125,8.62266934825778,-3.3480876081109043,1.3238481182463466
1789058874569894400,10.804894287109375,7.076212644195556,1.9066376311823725,1.3145672258123755
1789058874579906300,10.81490625,-2.5145734219431874,3.8200817275092005,-1.2272919702023266
1789058874589917400,10.82491748046875,-2.8133272359371184,-1.9609788777008652,-2.1249229469716546
1789058874599928300,10.83492822265625,-2.9859120000422,3.081862729538977,-0.1261463996656239
1789058874609939500,10.844939453125,0.5239531469553709,-1.6834189506441353,1.143627671631053
1789058874619950300,10.854950439453125,0.9948059873640537,1.670724596504867,-1.1986344693861901
1789058874629961200,10.864961181640625,0.23196751192212103,0.8255833931684493,0.3592782791920006
1789058874639972000,10.87497216796875,-0.3600713292658329,-1.2665803167566656,-0.16775407427931202
1789058874649983500,10.8849833984375,-0.5042705413639545,-3.3494214870631693,0.5052592236077412
1789058874659995400,10.894995361328125,1.440336754989624,0.697855423399806,1.225664953522384
1789058874670006300,10.90500634765625,4.370355018374323,5.902244852423667,0.68787697715573
1789058874680017200,10.91501708984375,5.450317077237368,-2.23584415884614,0.5604569042924791
1789058874690028500,10.925028564453125,-2.8130419892549514,-2.763235755817592,1.6626843517817556
1789058874700039400,10.935039306640626,-7.94544637852013,0.8904325896978378,0.43627376752384006
1789058874710050300,10.94505029296875,-4.535892202055454,5.663478181880712,-0.8701476342990994
1789058874720061200,10.955061279296874,5.543540719857812,-7.514096111938357,1.5546420563444494
1789058874730072300,10.965072265625,4.873790277957916,-4.601768988066912,2.9016075769364833
1789058874740083200,10.975083251953125,0.5775152257949113,-2.463120882603526,-0.7469446676742285
1789058874750095400,10.985095458984375,-0.302828516086936,0.46012511016726493,-1.5402099186271427
1789058874760106200,10.995106201171875,-0.7943594028651714,0.927943112924695,0.7538076853115111
1789058874770117400,11.005117431640626,-5.595270322573184,6.167559338152408,1.0906829209722577
1789058874780128300,11.015128173828124,-4.208115122672916,4.47740406499058,-0.15128244835734367
1789058874790139400,11.025139404296874,4.492819953048229,-4.677264081773162,1.5270159444026647
1789058874800150300,11.035150390625,0.9536918866872787,-1.794419365234673,1.5301761619992553
1789058874810161400,11.045161376953125,-2.0297949320346116,-1.1896437920704483,-1.4565205586798489
1789058874820172300,11.05517236328125,-0.04867606036365032,-1.3119473987028003,-1.1255901298329234
1789058874830183200,11.06518310546875,4.386517048624158,-2.9196511831492185,0.8541003164701163
1789058874840195300,11.0751953125,-0.7208090134859084,4.643554704394936,1.0989821088925003
1789058874850206500,11.08520654296875,-3.46152518672049,5.829752447664737,0.6179558841895312
1789058874860217300,11.09521728515625,-1.696849510103464,-0.46343204275816674,0.02361413635406643
1789058874870228200,11.105228271484375,-3.1232612001150843,-2.0989652066335083,0.7654784685567021
1789058874880239400,11.1152392578125,-3.5739673245519397,1.1225012239068746,0.3125103905372321
1789058874890250200,11.125250244140625,4.707518934783339,-2.729313612471521,0.2680211143389344
1789058874900261400,11.135261474609376,8.185802364081145,-5.701350524157285,0.6148769882008432
1789058874910272300,11.145272216796876,1.4547826289713381,-1.5041510555133222,-0.8722197643980384
1789058874920284200,11.1552841796875,-4.9970045696944,5.47108864710927,-0.8690005100905894
1789058874930295300,11.16529541015625,1.7791788337439298,0.6652677435278892,-0.40461613504365085
1789058874940306400,11.175306396484375,4.12112365244031,2.3797020101606843,1.6316465317003428
1789058874950317300,11.1853173828125,2.402642740765214,2.4892834978640077,0.9183455557569861
1789058874960328400,11.195328369140626,1.3386100724399088,-3.1674653757616875,-1.0958646344590932
1789058874970339300,11.20533935546875,-2.9078268898427484,-3.8170784540399905,-0.09588307108804583
1789058874980350200,11.21535009765625,-6.327068347585201,1.7457737000092863,-1.2150956287130712
1789058874990361000,11.225361083984374,-0.7242167761027812,0.82218790551126,0.3395821930645034
1789058875000372500,11.23537255859375,5.9853889995783565,2.7459736553713676,-0.8978646393947303
1789058875010384400,11.24538427734375,7.025007942137122,-3.3112980926349755,0.11796258175335823
1789058875020395300,11.255395263671875,-4.262909958177804,1.037499173925817,1.4788653692178428
1789058875030406100,11.26540625,-5.670011967563629,0.14586626852750778,-0.5315194905564189
1789058875040417500,11.27541748046875,-5.3746302603513,1.5756974115937947,0.006276011529564857
1789058875050428400,11.285428466796875,0.28163433688879014,-2.937124880519509,0.05886153695452958
1789058875060439300,11.295439208984375,5.284776386424899,-3.1266967275217175,-0.9464484914302825
1789058875070450400,11.305450439453125,7.560885335642099,2.0992066141739487,-2.254795819814503
1789058875080461300,11.31546142578125,1.4741186130821704,-1.0274772538661956,-1.9632272411495446
1789058875090472200,11.32547216796875,-8.352904897382855,2.6379355977177616,-1.085464017280191
1789058875100484000,11.335484130859374,-3.5510710176110267,-0.333614114972949,-0.11900832794662564
1789058875110495000,11.345494873046874,-1.2525930001974106,2.6571865338936447,0.7279330201469362
1789058875120506000,11.355506103515625,3.4167087243944403,-2.9617388050332663,0.24532968232035635
1789058875130517000,11.36551708984375,4.113313270950317,-2.5636820285052058,-1.2676931003041565
1789058875140527900,11.37552783203125,5.806179264375567,-1.326599608911574,-1.3320660576239227
1789058875150539300,11.385539306640625,-0.2943061869353056,-1.3986866477400064,0.09351385773867368
1789058875160550100,11.395550048828126,-7.186058920314908,1.8218726048275826,1.6147260842986404
1789058875170561000,11.40556103515625,-10.04703112000227,3.7431156844675537,1.5364279158703982
1789058875180572200,11.415572265625,-6.15224369559884,2.8352704799368977,0.6827863029532134
1789058875190584000,11.425583984375,2.4736761788874864,-2.8367966665908693,0.15111253515053538
1789058875200595200,11.43559521484375,8.426662207511066,-3.1172359484761953,-1.0840962360583246
1789058875210606000,11.445606201171875,7.615072852903604,2.3694871978774668,0.12164603777276352
1789058875220617000,11.455616943359376,0.27699323308467866,4.4601223830610515,-0.4911859457980841
1789058875230628000,11.465628173828126,-9.48431832654178,3.265076439686119,-1.3445553907103835
1789058875240639000,11.475638916015624,-3.979589275637269,-3.6195194076761603,0.8626831436373293
1789058875250650000,11.485650146484375,4.431685393127799,-6.585781243091821,1.1964271686002612
1789058875260661200,11.4956611328125,6.664213559293747,-1.5474331478789447,1.4656841083444654
1789058875270672100,11.505672119140625,4.835555532109737,3.4809053022339937,-0.5521836545310914
1789058875280684000,11.51568408203125,-0.4246463850289583,7.795422405791282,-0.887981397153437
1789058875290695200,11.525695068359376,-0.46827568339705467,-2.5981276112034917,-1.863399962480366
1789058875300706000,11.5357060546875,-1.186117663770914,-8.895859681928158,-0.5712704861864447
1789058875310717200,11.54571728515625,-4.159627862879634,0.19082827680408954,1.1398095746476202
1789058875320728000,11.55572802734375,-1.279998308995366,3.5946772273644805,1.079464192343503
1789058875330739000,11.565739013671875,0.32578912043571473,1.0143246345654129,0.8118027781624346
1789058875340750000,11.57575,-2.323795998543501,-0.9046405632704496,-2.670101252785325
1789058875350761200,11.58576123046875,-5.12568881727457,5.718478184568881,-2.1332097138017416
1789058875360773000,11.595773193359374,3.532904661801457,-7.354474289780855,-2.6030767580434677
1789058875370784000,11.605783935546874,5.428146746483445,-5.7035570942908524,0.4458017665866762
1789058875380795000,11.615794921875,1.1562275524199008,4.363915340715646,2.316807016438991
1789058875390806000,11.625805908203125,-1.043081065711379,4.109514170928299,-0.6810141787141561
1789058875400817200,11.635817138671875,-2.270931254318356,-2.0800646913304925,1.1489644295491277
1789058875410828000,11.645828125,-5.282501427230239,0.4453165403530001,-0.9737895028203726
1789058875420839200,11.655839111328126,-4.392719410395622,2.7796082139477134,-1.129887827026844
1789058875430850000,11.66585009765625,5.011556242138147,-3.0234105405703184,-0.2954210893746465
1789058875440861000,11.67586083984375,8.810817592197656,-4.084701508972048,1.458041046245396
1789058875450873000,11.685873046875,4.850198389968276,-0.031388533215224744,1.3540442268066109
1789058875460884000,11.695884033203125,-0.6807125654190779,-0.26200696861594913,1.1675706380806863
1789058875470895000,11.70589501953125,-5.408979104676843,-1.5145149208784103,0.6803318955384194
1789058875480906000,11.715906005859376,-9.685667997360229,7.153299391007423,0.12972292471183464
1789058875490916900,11.725916748046876,-6.884767696797847,8.2663582483083,-1.136995320944488
1789058875500928300,11.73592822265625,2.005502786821127,-7.486654562783241,-1.3141340950921176
1789058875510939100,11.745939208984375,-1.0168711041778324,-3.616139994370937,1.3156081131674349
1789058875520950000,11.755949951171875,-2.506650227728486,1.6550278456792233,0.9389682186774909
1789058875530961200,11.765961181640625,3.1734535102605816,2.3663921544715762,-1.7038960676141082
1789058875540973300,11.775973388671876,11.799583228105305,-2.412780980680883,-1.4484826520442962
1789058875550984200,11.785984130859376,6.040453884196281,5.400151070576906,-0.4635356857957318
1789058875560995000,11.7959951171875,-4.494578194892406,3.5613939664438363,-1.0544727397542446
1789058875571006000,11.806005859375,-5.472502605560422,-1.8344596992000937,-0.769806049432233
1789058875581017000,11.81601708984375,-4.2052819450736045,-6.076605978551506,0.6221064279977232
1789058875591028000,11.826028076171875,-6.847709008991718,3.2331597909435628,0.28547917574867604
1789058875601039000,11.8360390625,1.93688342410326,-0.3160974552437663,-1.6389084855273366
1789058875611050200,11.84605029296875,12.574361147665977,-4.56379113958925,-1.9938651021279394
1789058875621061000,11.85606103515625,6.92377868771553,-0.4648129757225513,-0.9021975540325045
1789058875631073000,11.866072998046874,-3.7744746993273495,1.9165160511180757,-0.8171987919870763
1789058875641084000,11.876083984375,-3.8259301612764594,-0.31822979109734295,1.282878978998214
1789058875651095000,11.886094970703125,-4.488850464895368,0.6959770623072982,-0.29504354303283614
1789058875661106200,11.896106201171875,-1.2538631662636994,0.4923869190856814,-0.536732658627443
1789058875671117000,11.906116943359375,3.339651203677058,0.3067883596286177,-0.15264096856052056
1789058875681128000,11.9161279296875,3.1895009742200373,1.520350787425041,-1.172904254193604
1789058875691139000,11.92613916015625,-5.403756401592493,2.4879472808241845,1.4277933536283671
1789058875701150200,11.936150146484374,-4.956320677128434,-3.8789094717919825,1.822818507375568
1789058875711161000,11.9461611328125,3.645723231729865,-4.247591977536678,-0.7886452630020677
1789058875721172000,11.956171875,5.600056387805938,1.206513678328693,-1.7729491455741226
1789058875731184000,11.96618408203125,4.577415468055009,5.578364195957779,-1.0828648676324635
1789058875741195000,11.976195068359376,7.08661187313497,-3.690324297739565,-0.4508275953920558
1789058875751206100,11.9862060546875,2.8732968437314033,0.0820104669496417,0.41575631854347883
1789058875761217000,11.996217041015624,-3.15844298813343,0.35130993066132066,1.1844708464119582
1789058875771228200,12.006228271484375,-3.289633665576577,-1.9565473249942062,-1.3641767676338552
1789058875781239000,12.016239013671875,-10.808110184556245,3.152071991796791,-0.322283304271847
1789058875791250000,12.02625,-20.75628579353094,7.635183328518271,-2.0961554099097848
1789058875801261300,12.03626123046875,-7.853417498642206,-2.7663062493041157,-1.5948687066622078
1789058875811272200,12.046272216796876,11.753292601573467,-7.979873548778891,0.05200758853969164
1789058875821284000,12.0562841796875,9.931522580337523,4.57553886052817,0.1386361346108839
1789058875831295000,12.066294921875,5.219564201802015,6.575876519671082,-0.04734312212630175
1789058875841305900,12.076305908203125,4.3413615636020895,0.16582038453668355,0.28488573990017174
1789058875851317200,12.086317138671875,5.031605342954397,-7.46250445638895,2.3272226119913157
1789058875861328100,12.096328125,-4.302437666445971,-1.0904513041734696,1.0153073619924484
1789058875871339000,12.106339111328126,-6.762803697383403,-0.6715355717509984,1.4168098950602113
1789058875881350100,12.11635009765625,-8.31423351368308,4.681795295462012,-1.9577841733127832
1789058875891361000,12.126361083984374,-4.814310499507188,5.68910712865591,-1.8498903464354575
1789058875901372000,12.136371826171874,3.5343957771420476,-1.6487439431041477,0.6347878495901823
1789058875911384000,12.146384033203125,9.042309887823462,-7.154891628634929,2.201888697752356
1789058875921395000,12.15639501953125,3.611723931494355,1.6494830710336565,-0.33152222072761506
1789058875931406000,12.166406005859375,2.59396201595664,3.7942061124965547,-1.7629665346115826
1789058875941417000,12.1764169921875,-2.955327476686239,0.8257029278948903,-0.6094920072268695
1789058875951428000,12.186427978515624,-4.670222346568107,-1.3591764751285313,-0.8155042630288749
1789058875961439200,12.196439208984375,0.2116179668545723,-4.646427629482746,-0.8961994826614856
1789058875971450000,12.2064501953125,2.5640099452853202,-1.694391303296387,0.25739618688486515
1789058875981461000,12.2164609375,1.4424731824964283,1.6016992833346126,0.6710569944538176
1789058875991472000,12.22647216796875,2.28287946626544,2.3656734848082066,-0.6611583354476839
1789058876001483000,12.23648291015625,8.546794315323233,-2.4025422030001877,0.02297937298133038
1789058876011495200,12.2464951171875,6.65846244842112,-2.946384584034979,0.12191645221197978
1789058876021506000,12.256506103515624,-10.536246715575455,8.355388530892133,-0.4275115652017295
1789058876031517000,12.266516845703125,-7.9520590746581545,5.187431279960275,-1.4849572563521563
1789058876041528000,12.276528076171875,5.553648272374272,-2.1959677832707762,-0.453064779859595
1789058876051539200,12.286539306640625,1.9809394234508275,-7.197514964830875,-1.3163130465663968
1789058876061550000,12.296550048828125,-8.901270601060986,-1.7035963540151715,-1.8910576386041937
1789058876071561200,12.306561279296876,-8.015264011111855,-1.929365303558111,-1.9022493330955503
1789058876081572000,12.316572021484374,-4.910796943315863,0.128133335699141,1.3778591098971664
1789058876091583000,12.3265830078125,2.5098884789973495,-0.5192652814000844,2.9172055435627695
1789058876101595100,12.33659521484375,7.969685916763543,0.5112774975165725,0.8256784510407597
1789058876111606300,12.346606201171875,1.7149129900604485,1.407005271013081,-1.8508590453371405
1789058876121617400,12.356617431640625,-4.895900987479091,5.1669280056357385,-1.8668530255436897
1789058876131628300,12.366628173828126,-0.5077466930419207,-4.04964626994282,-1.9669206888400017
1789058876141639200,12.37663916015625,2.2453005539774895,-2.427356910783052,0.46644813917633143
1789058876151650300,12.386650390625,5.439957595786452,0.8773448523268103,1.913330114558339
1789058876161661400,12.396661376953125,5.11584196152091,-3.3735525964960456,2.2360350052431226
1789058876171672300,12.40667236328125,-9.608860067489744,2.2939649239033457,0.421953419617936
1789058876181683200,12.41668310546875,-10.207297669804095,6.13495587618947,-0.8738356751620769
1789058876191695000,12.426695068359376,1.7618308085799217,-1.0770897182971237,0.20376842239797113
1789058876201706200,12.436706298828126,11.81568914425373,-7.400000361680984,1.4163346787638962
1789058876211717400,12.44671728515625,8.310865498554707,-2.944956597058475,1.1696099618885665
1789058876221728300,12.456728271484375,2.316305350527167,3.4443706383019683,-1.9519873236022889
1789058876231739400,12.466739501953125,2.3964964930951593,1.5386103744760156,-0.9773241066873073
1789058876241750300,12.476750244140625,-5.152567471849918,6.734365538406371,0.7583695863995701
1789058876251761200,12.48676123046875,-2.0809593020826576,3.2187828905448317,-1.2925862801507115
1789058876261772300,12.496772216796876,2.9016777195632457,-3.6970097668528554,0.5432578226124868
1789058876271783400,12.506783447265626,-2.848231960579753,-4.567956150314211,1.6139628448411822
1789058876281794300,12.516794189453124,-9.02924173193574,4.119665270325541,-1.2011005672387778
1789058876291806200,12.52680615234375,-2.218665060508251,5.571018509370088,0.06583590601179748
1789058876301817000,12.536817138671875,2.8468168330848216,0.6462371721044182,2.4460204024598
1789058876311828500,12.546828369140625,5.167697820964455,-3.470902963657677,2.5285914259016513
1789058876321839400,12.55683935546875,13.622956008362769,-11.12737253357172,-1.0176485182911157
1789058876331850200,12.566850341796876,6.11943915810585,-2.5003791846349834,1.4290361932963132
1789058876341861400,12.576861328125,-6.233534323841333,0.20168372507840393,3.766718970634043
1789058876351872300,12.586872314453124,-5.50713786561191,0.8002049140229821,-0.20251418455317616
1789058876361883100,12.596883056640625,-8.752929466852546,3.335332171434164,-1.8968411904416977
1789058876371894300,12.606894287109375,-6.553787437459826,2.2020485644891856,1.2107625679448246
1789058876381906200,12.61690625,4.243942222857475,-2.3117966409310697,0.5363660538047552
1789058876391917300,12.626917236328126,4.529246188169718,-2.7785432150647043,0.2955308516257442
1789058876401928200,12.63692822265625,-5.497856242525577,5.9552890448689455,1.0658031851291656
1789058876411939300,12.646939208984374,-4.29290820607841,3.082017335578799,2.201607542723417
1789058876421950500,12.656950439453125,-2.148736953279376,-2.7484289395689965,-2.0881201336227355
1789058876431961300,12.66696142578125,-2.560942374408245,2.951481614913046,-2.592466808962822
1789058876441972200,12.67697216796875,3.739323890969157,-2.305712352581322,-0.876694937050715
1789058876451983000,12.686983154296875,5.304959342753887,-2.8692180499851703,-0.15286997327711432
1789058876461994200,12.696994140625,3.2748803330808878,0.8508677642896771,2.0313288636036217
1789058876472005400,12.70700537109375,-4.263490972936153,9.41602395799458,0.052146586018428205
1789058876482017300,12.717017333984375,1.4467659112542868,-4.841557695133984,1.072875169342011
