time,seconds_elapsed,z,y,x
1789058863817932300,0.052932373046875,-0.9426116943359375,-0.5524444580078125,-0.0738983154296875
1789058863827943400,0.062943359375,-1.0853424072265625,0.1936492919921875,-0.227752685546875
1789058863837954300,0.072954345703125,-0.480224609375,-0.28753662109375,-0.146514892578125
1789058863847965200,0.082965087890625,-0.2537689208984375,-0.814910888671875,0.1689453125
1789058863857976300,0.092976318359375,-0.83087158203125,-0.587921142578125,-0.0191192626953125
1789058863867987500,0.102987548828125,-1.038543701171875,-0.8162994384765625,0.0078277587890625
1789058863877999400,0.112999267578125,-1.62725830078125,0.107330322265625,-0.0162353515625
1789058863888010200,0.12301025390625,-1.5587615966796875,0.226531982421875,-0.145416259765625
1789058863898021000,0.133021240234375,-0.8071441650390625,-0.9261627197265625,0.165374755859375
1789058863908032300,0.1430322265625,-0.8099822998046875,-0.725860595703125,0.05767822265625
1789058863918043400,0.15304345703125,-0.530059814453125,-1.0218658447265625,0.0590972900390625
1789058863928054300,0.16305419921875,-0.6914825439453125,0.150146484375,0.0070037841796875
1789058863938065400,0.1730654296875,-0.38555908203125,0.3104400634765625,-0.0233306884765625
1789058863948077300,0.183077392578125,-0.4576873779296875,-0.1814727783203125,0.1716766357421875
1789058863958088400,0.19308837890625,-0.699310302734375,-1.147796630859375,0.15484619140625
1789058863968099300,0.203099365234375,-1.4384765625,-1.1576690673828125,-0.032196044921875
1789058863978110200,0.213110107421875,-1.7452392578125,-0.5727691650390625,-0.1045989990234375
1789058863988121300,0.223121337890625,-1.6030426025390625,0.5300750732421875,-0.0002593994140625
1789058863998132200,0.23313232421875,-0.4950103759765625,-0.4830474853515625,0.2903594970703125
1789058864008144400,0.243144287109375,-0.27471923828125,-0.5781402587890625,0.1048126220703125
1789058864018155300,0.2531552734375,-0.4281005859375,-0.797698974609375,-0.1735076904296875
1789058864028166400,0.26316650390625,-0.7634124755859375,-0.3795318603515625,-0.247650146484375
1789058864038177300,0.27317724609375,-1.22564697265625,0.35980224609375,-0.1199798583984375
1789058864048188200,0.283188232421875,-1.0519866943359375,0.0242156982421875,0.15093994140625
1789058864058199000,0.293198974609375,-0.317840576171875,-1.187103271484375,0.243377685546875
1789058864068211200,0.303211181640625,-0.599029541015625,-0.9606170654296875,-0.0101318359375
1789058864078222300,0.313222412109375,-1.1148529052734375,-0.4715423583984375,-0.14837646484375
1789058864088232400,0.323232421875,-1.6466522216796875,0.1614837646484375,-0.0601654052734375
1789058864098243600,0.33324365234375,-1.515380859375,-0.2804412841796875,-0.02069091796875
1789058864108254500,0.34325439453125,-1.15362548828125,-0.3925933837890625,-0.1222381591796875
1789058864118265300,0.353265380859375,-0.47515869140625,-0.9532470703125,-0.0835723876953125
1789058864128277500,0.363277587890625,-0.323760986328125,-0.39727783203125,0.1885528564453125
1789058864138288400,0.373288330078125,-0.4834136962890625,-0.060943603515625,0.157073974609375
1789058864148299500,0.383299560546875,-1.240081787109375,-0.23297119140625,-0.1554412841796875
1789058864158310400,0.393310302734375,-1.8226470947265625,-0.2261810302734375,-0.13427734375
1789058864168321300,0.4033212890625,-1.4444122314453125,-0.7879638671875,0.0842132568359375
1789058864178332700,0.413332763671875,-0.6800384521484375,-0.4945831298828125,0.2248687744140625
1789058864188344600,0.423344482421875,-0.425689697265625,-0.052703857421875,0.0230865478515625
1789058864198355500,0.43335546875,0.156341552734375,-0.9042205810546875,-0.0136260986328125
1789058864208366300,0.443366455078125,-0.811676025390625,-0.6625823974609375,-0.0868988037109375
1789058864218377500,0.45337744140625,-1.4236297607421875,-0.83831787109375,0.038177490234375
1789058864228388600,0.463388671875,-1.6574859619140625,0.112335205078125,0.0730743408203125
1789058864238399500,0.4733994140625,-1.10833740234375,-0.0473480224609375,0.0534210205078125
1789058864248411400,0.483411376953125,-0.5363922119140625,-0.2341461181640625,-0.045867919921875
1789058864258422300,0.49342236328125,-0.4808502197265625,-0.4649810791015625,-0.09161376953125
1789058864268433400,0.503433349609375,-0.338409423828125,-0.880279541015625,0.0744781494140625
1789058864278444500,0.513444580078125,-0.6199493408203125,-0.2901763916015625,0.09375
1789058864288455400,0.523455322265625,-1.4884033203125,-0.112823486328125,0.011505126953125
1789058864298466600,0.533466552734375,-2.416351318359375,0.495758056640625,0.2453765869140625
1789058864308478500,0.543478515625,-1.1312713623046875,-1.301910400390625,0.164947509765625
1789058864318489600,0.553489501953125,-0.76995849609375,-0.667999267578125,0.0519866943359375
1789058864328500500,0.56350048828125,-0.23876953125,-0.365875244140625,-0.057281494140625
1789058864338511400,0.573511474609375,-0.033203125,-0.02264404296875,0.1615753173828125
1789058864348522500,0.5835224609375,-0.6034698486328125,0.0577392578125,0.0718536376953125
1789058864358533400,0.593533447265625,-1.0738983154296875,-0.5317840576171875,0.09490966796875
1789058864368545500,0.603545654296875,-1.8055877685546875,-0.493804931640625,0.0367584228515625
1789058864378556400,0.613556396484375,-1.476959228515625,-0.4498291015625,0.011016845703125
1789058864388567600,0.623567626953125,-1.026580810546875,-0.03094482421875,0.02947998046875
1789058864398578400,0.633578369140625,-0.5843963623046875,-0.413055419921875,0.1042633056640625
1789058864408589300,0.64358935546875,-0.9964599609375,-0.1045074462890625,0.011016845703125
1789058864418600400,0.653600341796875,-1.396453857421875,0.1478118896484375,-0.1192779541015625
1789058864428611600,0.663611572265625,-0.8092193603515625,-0.6622314453125,-0.1072540283203125
1789058864438623500,0.67362353515625,-0.461517333984375,-0.8443450927734375,-0.186279296875
1789058864448634400,0.68363427734375,-0.068939208984375,-1.0923309326171875,0.015716552734375
1789058864458645200,0.693645263671875,-0.3781280517578125,-0.6572265625,0.0614013671875
1789058864468656600,0.70365673828125,-1.163482666015625,-0.1431427001953125,-0.0778961181640625
1789058864478667500,0.71366748046875,-1.8439483642578125,0.199249267578125,0.1559906005859375
1789058864488678400,0.723678466796875,-1.600616455078125,-0.3511199951171875,0.10968017578125
1789058864498690300,0.733690185546875,-1.171630859375,-0.2641754150390625,0.0771331787109375
1789058864508701400,0.743701416015625,-0.6000213623046875,-0.5733795166015625,0.063690185546875
1789058864518712600,0.753712646484375,-0.3557891845703125,-0.4266815185546875,-0.0721435546875
1789058864528723500,0.763723388671875,-0.315582275390625,-0.7156982421875,-0.08416748046875
1789058864538734300,0.773734375,-0.5571441650390625,-0.7700347900390625,-0.11798095703125
1789058864548745500,0.783745361328125,-0.9856109619140625,-0.26708984375,0.03387451171875
1789058864558757600,0.793757568359375,-1.6353912353515625,-0.3377532958984375,0.0133056640625
1789058864568768500,0.8037685546875,-1.9261627197265625,-0.17156982421875,-0.1674041748046875
1789058864578779400,0.813779296875,-1.511444091796875,-0.433807373046875,-0.3621063232421875
1789058864588790500,0.82379052734375,-0.5104217529296875,-0.36187744140625,-0.361358642578125
1789058864598801400,0.833801513671875,0.671478271484375,-0.7777557373046875,-0.07781982421875
1789058864608812300,0.843812255859375,-0.2097625732421875,-0.127166748046875,-0.046722412109375
1789058864618824400,0.853824462890625,-2.038177490234375,-0.2889251708984375,-0.348541259765625
1789058864628835300,0.86383544921875,-2.1857452392578125,-0.6573944091796875,-0.2249908447265625
1789058864638846500,0.873846435546875,-1.146148681640625,-0.422698974609375,-0.1673736572265625
1789058864648857300,0.883857421875,0.2414398193359375,-0.9849090576171875,-0.121917724609375
1789058864658868500,0.893868408203125,0.2347869873046875,-0.271636962890625,-0.113372802734375
1789058864668879600,0.903879638671875,-0.4646759033203125,-0.618804931640625,-0.133056640625
1789058864678891500,0.9138916015625,-1.3627777099609375,-0.2958221435546875,-0.1250762939453125
1789058864688902400,0.92390234375,-0.9352264404296875,-0.335296630859375,-0.04833984375
1789058864698913300,0.933913330078125,-0.7767333984375,-0.33197021484375,-0.219390869140625
1789058864708924400,0.94392431640625,-1.23406982421875,0.2013397216796875,-0.303009033203125
1789058864718935600,0.953935546875,-1.1629180908203125,-0.577392578125,-0.1970977783203125
1789058864728946400,0.963946533203125,-0.9698944091796875,-0.6160125732421875,-0.00311279296875
1789058864738957300,0.973957275390625,-0.6995086669921875,-0.7549896240234375,0.129302978515625
1789058864748969500,0.983969482421875,-1.189666748046875,0.270599365234375,-0.13775634765625
1789058864758980600,0.993980712890625,-1.17242431640625,-0.16046142578125,-0.037261962890625
1789058864768991500,1.003991455078125,-1.0876007080078125,-0.6418304443359375,0.132720947265625
1789058864779002400,1.01400244140625,-1.0948638916015625,-0.7915191650390625,0.061126708984375
1789058864789013500,1.024013427734375,-0.536834716796875,-0.675628662109375,0.0917510986328125
1789058864799024400,1.0340244140625,-0.8055877685546875,0.1700897216796875,-0.07867431640625
1789058864809036500,1.04403662109375,-0.5405731201171875,-0.1699981689453125,0.00164794921875
1789058864819047400,1.05404736328125,-0.97021484375,0.33905029296875,-0.001953125
1789058864829058300,1.064058349609375,-1.0778656005859375,-0.252044677734375,-0.123809814453125
1789058864839069400,1.0740693359375,-0.7827301025390625,-1.1979522705078125,-0.0560455322265625
1789058864849080600,1.08408056640625,-1.033203125,-1.158050537109375,0.1926116943359375
1789058864859091500,1.094091552734375,-1.4743194580078125,-0.280731201171875,-0.103118896484375
1789058864869103400,1.104103271484375,-1.5941925048828125,0.5787811279296875,0.0124969482421875
1789058864879114500,1.114114501953125,-0.9490814208984375,-0.0781402587890625,0.0875701904296875
1789058864889125400,1.12412548828125,-0.8196868896484375,-0.32513427734375,-0.013671875
1789058864899136500,1.134136474609375,-0.5148468017578125,-0.964691162109375,0.1821746826171875
1789058864909147400,1.1441474609375,-0.272674560546875,-0.7512359619140625,0.12591552734375
1789058864919158500,1.154158447265625,-0.5670166015625,-0.031829833984375,-0.2008209228515625
1789058864929169400,1.16416943359375,-0.6946258544921875,-0.43060302734375,0.036407470703125
1789058864939181600,1.174181640625,-1.608673095703125,-0.09197998046875,0.0065460205078125
1789058864949192400,1.1841923828125,-1.3291015625,-0.920074462890625,0.1543426513671875
1789058864959203600,1.19420361328125,-1.3383026123046875,0.0962371826171875,-0.0991668701171875
1789058864969214500,1.20421435546875,-0.6673583984375,-0.6141204833984375,-0.19000244140625
1789058864979225300,1.214225341796875,-0.5925445556640625,-0.5174713134765625,-0.0181427001953125
1789058864989236500,1.224236572265625,-0.6512603759765625,-0.872650146484375,0.287750244140625
1789058864999248400,1.234248291015625,-0.7587127685546875,-0.3317108154296875,0.0103607177734375
1789058865009259500,1.244259521484375,-0.9553680419921875,0.2954254150390625,-0.2542572021484375
1789058865019270400,1.2542705078125,-1.197113037109375,0.0719451904296875,-0.078399658203125
1789058865029281300,1.26428125,-1.1862335205078125,-0.4611053466796875,0.145782470703125
1789058865039292400,1.27429248046875,-0.7589263916015625,-1.1555938720703125,0.14605712890625
1789058865049303600,1.284303466796875,-0.7657470703125,-0.5618438720703125,-0.0669097900390625
1789058865059315500,1.2943154296875,-0.7831878662109375,-0.13385009765625,-0.173553466796875
1789058865069326300,1.304326416015625,-1.431854248046875,0.6249237060546875,-0.1530609130859375
1789058865079337500,1.31433740234375,-1.85382080078125,-0.231292724609375,0.2309722900390625
1789058865089348600,1.3243486328125,-1.7052764892578125,-0.8251800537109375,0.3450469970703125
1789058865099359500,1.334359375,-0.622711181640625,-1.34869384765625,0.100189208984375
1789058865109370400,1.344370361328125,0.4634857177734375,-0.779510498046875,-0.1763916015625
1789058865119381500,1.354381591796875,0.5787811279296875,-0.3248138427734375,-0.010986328125
1789058865129393700,1.3643935546875,-0.8953857421875,0.5396728515625,0.23541259765625
1789058865139404500,1.374404541015625,-1.6986541748046875,-0.256439208984375,0.2215423583984375
1789058865149415400,1.38441552734375,-1.3948211669921875,-0.6499786376953125,0.1840667724609375
1789058865159426600,1.394426513671875,-0.9680328369140625,-0.912811279296875,0.021942138671875
1789058865169437700,1.404437744140625,-1.975372314453125,0.1016693115234375,-0.192596435546875
1789058865179448600,1.414448486328125,-1.7091217041015625,-0.1443634033203125,0.0891876220703125
1789058865189460500,1.42446044921875,-0.8272705078125,-0.452056884765625,0.1348114013671875
1789058865199471400,1.434471435546875,0.2097625732421875,-0.9040679931640625,0.2032623291015625
1789058865209482500,1.444482421875,0.43426513671875,-0.4235687255859375,0.1391754150390625
1789058865219493600,1.45449365234375,-0.14752197265625,-0.141510009765625,-0.0544281005859375
1789058865229504500,1.46450439453125,-1.014923095703125,-0.111724853515625,-0.1383209228515625
1789058865239515600,1.474515625,-1.8630828857421875,-0.421905517578125,-0.0716400146484375
1789058865249527600,1.484527587890625,-2.142303466796875,-0.4018402099609375,0.0019683837890625
1789058865259538700,1.49453857421875,-1.4956817626953125,-0.57421875,0.1398773193359375
1789058865269549600,1.504549560546875,-0.6005096435546875,-0.432403564453125,0.1189727783203125
1789058865279560400,1.514560546875,-0.0160980224609375,-0.4567718505859375,0.05743408203125
1789058865289571600,1.524571533203125,0.0011444091796875,-0.254302978515625,-0.0507965087890625
1789058865299582500,1.53458251953125,-0.293609619140625,-0.4951629638671875,-0.053192138671875
1789058865309593300,1.54459326171875,-0.7156524658203125,-0.423553466796875,0.013092041015625
1789058865319605500,1.55460546875,-1.6890869140625,-0.1648406982421875,0.016021728515625
1789058865329616600,1.56461669921875,-1.8498382568359375,0.0428009033203125,0.137115478515625
1789058865339627500,1.57462744140625,-1.1635589599609375,-0.3648681640625,0.2200164794921875
1789058865349638400,1.584638427734375,-0.2834625244140625,-0.940765380859375,0.062164306640625
1789058865359649500,1.5946494140625,-0.5501708984375,-0.552825927734375,-0.057861328125
1789058865369660700,1.60466064453125,-1.2799530029296875,-0.4541168212890625,0.02728271484375
1789058865379672600,1.614672607421875,-1.76324462890625,0.099151611328125,0.067596435546875
1789058865389683500,1.624683349609375,-1.4393768310546875,0.0868988037109375,0.1793060302734375
1789058865399694300,1.6346943359375,-0.74041748046875,-0.50213623046875,0.0835418701171875
1789058865409705700,1.644705810546875,-0.3647918701171875,-0.637664794921875,0.113555908203125
1789058865419716600,1.654716552734375,-0.126861572265625,-1.1576995849609375,0.0030059814453125
1789058865429727500,1.6647275390625,-0.717376708984375,-0.390380859375,-0.0863037109375
1789058865439738600,1.674738525390625,-1.37127685546875,-0.347381591796875,0.1463470458984375
1789058865449750500,1.68475048828125,-2.0124053955078125,0.537872314453125,-0.0212554931640625
1789058865459761700,1.69476171875,-1.032257080078125,-0.5045928955078125,-0.076995849609375
1789058865469772500,1.7047724609375,-0.4442596435546875,-0.7964324951171875,0.0299835205078125
1789058865479783400,1.714783447265625,-0.402099609375,-0.4679107666015625,-0.0015869140625
1789058865489794600,1.724794677734375,-0.81024169921875,0.033294677734375,-0.05242919921875
1789058865499805400,1.734805419921875,-0.7080078125,-0.4974517822265625,0.051849365234375
1789058865509817600,1.744817626953125,-0.66094970703125,-0.5536651611328125,-0.051910400390625
1789058865519828500,1.754828369140625,-0.873687744140625,-0.5708160400390625,-0.041656494140625
1789058865529839600,1.764839599609375,-1.66668701171875,-0.006072998046875,-0.1530303955078125
1789058865539850500,1.7748505859375,-2.1408538818359375,0.30548095703125,0.017578125
1789058865549861400,1.784861328125,-1.3524627685546875,-0.449737548828125,0.10272216796875
1789058865559872500,1.79487255859375,-0.9549407958984375,-0.5972442626953125,-0.0265350341796875
1789058865569883600,1.804883544921875,-0.4384765625,-0.46392822265625,0.003082275390625
1789058865579895600,1.8148955078125,-0.05792236328125,-0.3264312744140625,-0.13189697265625
1789058865589906400,1.824906494140625,0.0358734130859375,-0.380645751953125,-0.1359100341796875
1789058865599917600,1.83491748046875,-0.5979156494140625,-0.6992034912109375,0.0417938232421875
1789058865609928700,1.8449287109375,-1.7464447021484375,-0.091339111328125,-0.0140380859375
1789058865619939600,1.854939697265625,-1.9736785888671875,0.0690765380859375,-0.040985107421875
1789058865629950500,1.864950439453125,-0.9952239990234375,-0.6159515380859375,0.0227203369140625
1789058865639962400,1.87496240234375,-0.5848541259765625,-0.416107177734375,-0.0255584716796875
1789058865649973500,1.884973388671875,-0.1141357421875,-0.80413818359375,0.0403594970703125
1789058865659984600,1.894984619140625,-0.288665771484375,-0.33599853515625,0.041168212890625
1789058865669995500,1.90499560546875,-0.994964599609375,0.0561676025390625,0.042022705078125
1789058865680006400,1.91500634765625,-1.6463775634765625,-0.0594635009765625,0.1184539794921875
1789058865690017500,1.925017578125,-1.702117919921875,-0.3297576904296875,0.0411529541015625
1789058865700028400,1.9350283203125,-0.66046142578125,-1.257171630859375,0.0343017578125
1789058865710040600,1.94504052734375,-0.4911346435546875,-0.950836181640625,0.104339599609375
1789058865720051500,1.955051513671875,-0.8831939697265625,-0.09857177734375,-0.038818359375
1789058865730062600,1.9650625,-1.2860260009765625,0.253692626953125,-0.0520477294921875
1789058865740073500,1.975073486328125,-0.90673828125,-0.1930694580078125,-0.064178466796875
1789058865750084600,1.985084716796875,-0.4528961181640625,-1.2244110107421875,-0.0527496337890625
1789058865760095500,1.995095458984375,-0.9308319091796875,-0.6775970458984375,0.018157958984375
1789058865770107400,2.005107421875,-1.190216064453125,-0.1618499755859375,0.2010040283203125
1789058865780118500,2.015118408203125,-1.0447845458984375,0.0433197021484375,0.021209716796875
1789058865790129400,2.02512939453125,-0.5048675537109375,-0.6778717041015625,-0.1591796875
1789058865800140500,2.035140625,-0.701171875,-0.8891143798828125,-0.1751556396484375
1789058865810151700,2.045151611328125,-1.5078887939453125,-0.1526336669921875,-0.1320343017578125
1789058865820162600,2.05516259765625,-1.6223602294921875,0.0661468505859375,-0.090087890625
1789058865830173400,2.06517333984375,-0.6396636962890625,-0.5057830810546875,-0.0003662109375
1789058865840185600,2.075185546875,-0.6450958251953125,-0.21533203125,-0.0829010009765625
1789058865850196500,2.085196533203125,-0.7035369873046875,-0.3743133544921875,-0.141204833984375
1789058865860207600,2.09520751953125,-0.7837371826171875,-0.52362060546875,-0.1741485595703125
1789058865870218500,2.105218505859375,-0.606231689453125,-0.543914794921875,-0.3272552490234375
1789058865880229400,2.1152294921875,-0.4862518310546875,-0.948486328125,-0.06219482421875
1789058865890240500,2.125240478515625,-1.0436859130859375,-0.2483062744140625,-0.00152587890625
1789058865900252700,2.135252685546875,-1.300933837890625,-0.2199249267578125,0.02154541015625
1789058865910263600,2.145263671875,-1.24993896484375,-0.171844482421875,-0.024139404296875
1789058865920274400,2.1552744140625,-1.033050537109375,-0.323455810546875,-0.1274871826171875
1789058865930285600,2.16528564453125,-1.0010986328125,0.036834716796875,-0.084564208984375
1789058865940296700,2.175296630859375,-0.48828125,-0.6103973388671875,0.0782318115234375
1789058865950307600,2.1853076171875,-0.5384063720703125,-0.5306243896484375,-0.0069732666015625
1789058865960318500,2.195318359375,-0.7841949462890625,-0.71044921875,-0.0592041015625
1789058865970330400,2.205330322265625,-1.5182647705078125,-0.0102996826171875,-0.0444488525390625
1789058865980341500,2.215341552734375,-1.6591339111328125,0.084381103515625,-0.0046539306640625
1789058865990352600,2.2253525390625,-1.128265380859375,-0.258697509765625,0.001953125
1789058866000363500,2.235363525390625,-0.4214019775390625,-0.5460968017578125,-0.127716064453125
1789058866010374700,2.245374755859375,-0.6968841552734375,-0.45745849609375,-0.183868408203125
1789058866020385500,2.255385498046875,-1.0406494140625,-0.4714508056640625,-0.0041961669921875
1789058866030397400,2.2653974609375,-1.1676483154296875,-0.327972412109375,-0.0659942626953125
1789058866040408600,2.27540869140625,-0.8062591552734375,-0.599273681640625,-0.1195831298828125
1789058866050419500,2.28541943359375,-1.1022796630859375,-0.331634521484375,-0.242645263671875
1789058866060430600,2.2954306640625,-1.2274322509765625,-0.083953857421875,0.0842132568359375
1789058866070441500,2.30544140625,-1.155364990234375,-0.4120941162109375,0.1391143798828125
1789058866080452400,2.315452392578125,-0.5965728759765625,-0.8093719482421875,-0.116058349609375
1789058866090464000,2.325464111328125,-0.4982452392578125,-0.4949493408203125,-0.35345458984375
1789058866100476000,2.335475830078125,-0.2274932861328125,-0.825653076171875,-0.197509765625
1789058866110486800,2.34548681640625,-1.034759521484375,0.38726806640625,-0.0277557373046875
1789058866120498000,2.355497802734375,-1.1126556396484375,-0.2695770263671875,0.074554443359375
1789058866130508800,2.3655087890625,-1.522125244140625,-0.0230712890625,-0.138458251953125
1789058866140520000,2.37552001953125,-1.5381317138671875,-0.581024169921875,-0.108734130859375
1789058866150530800,2.38553076171875,-1.3896484375,-0.370849609375,0.0841217041015625
1789058866160541700,2.395541748046875,-0.5789031982421875,-0.7154998779296875,0.100372314453125
1789058866170553900,2.405553955078125,-0.7178955078125,-0.2937164306640625,-0.1550750732421875
1789058866180565000,2.41556494140625,-0.7892913818359375,-0.402923583984375,-0.1285552978515625
1789058866190575900,2.425575927734375,-0.713714599609375,-0.30487060546875,-0.0213623046875
1789058866200586800,2.435586669921875,-0.35357666015625,-0.482452392578125,0.085174560546875
1789058866210597600,2.44559765625,-0.9576263427734375,-0.2717437744140625,-0.0389556884765625
1789058866220608800,2.45560888671875,-1.1818695068359375,-0.0746917724609375,-0.09661865234375
1789058866230621000,2.465620849609375,-0.7405242919921875,-0.5300445556640625,-0.0275726318359375
1789058866240631800,2.4756318359375,-0.736419677734375,-0.510589599609375,-0.143829345703125
1789058866250642700,2.485642578125,-0.874847412109375,-0.571563720703125,-0.1165618896484375
1789058866260653800,2.49565380859375,-1.093963623046875,-0.135833740234375,-0.0802459716796875
1789058866270665000,2.5056650390625,-0.5984649658203125,-0.6295166015625,-0.0433502197265625
1789058866280675800,2.51567578125,-0.752471923828125,-0.2451324462890625,0.0322265625
1789058866290686700,2.525686767578125,-0.9092254638671875,-0.3760528564453125,-0.0090484619140625
1789058866300699000,2.535698974609375,-1.4322967529296875,-0.21875,-0.150421142578125
1789058866310709800,2.545709716796875,-0.98712158203125,-0.6879730224609375,-0.088653564453125
1789058866320721000,2.555720947265625,-0.680877685546875,-0.665863037109375,0.03961181640625
1789058866330731800,2.565731689453125,-0.7126007080078125,-0.1914520263671875,0.183380126953125
1789058866340743000,2.575742919921875,-0.9294891357421875,0.0923004150390625,-0.026641845703125
1789058866350753800,2.58575390625,-0.809967041015625,-0.459442138671875,-0.01568603515625
1789058866360766000,2.595765869140625,-0.9149169921875,-0.6419830322265625,-0.011688232421875
1789058866370776800,2.60577685546875,-1.1021575927734375,-0.73480224609375,0.0404052734375
1789058866380788000,2.6157880859375,-1.62762451171875,-0.01116943359375,-0.08990478515625
1789058866390798800,2.625798828125,-1.5309295654296875,-0.04022216796875,-0.1728515625
1789058866400809700,2.635809814453125,-1.0447235107421875,-0.28472900390625,-0.042510986328125
1789058866410820600,2.645820556640625,-0.640960693359375,-0.900482177734375,0.1602630615234375
1789058866420832000,2.65583203125,-0.927703857421875,-0.0724639892578125,0.1024322509765625
1789058866430844000,2.665843994140625,-0.62750244140625,-0.3374176025390625,0.13580322265625
1789058866440854800,2.675854736328125,-0.4635162353515625,-0.3290863037109375,-0.01812744140625
1789058866450865700,2.68586572265625,-0.4223175048828125,-0.4349822998046875,-0.0841064453125
1789058866460877000,2.695876953125,-1.1953277587890625,-0.288177490234375,-0.218963623046875
1789058866470888000,2.705887939453125,-1.6768798828125,-0.50994873046875,-0.1170654296875
1789058866480898800,2.71589892578125,-1.452484130859375,-0.4700164794921875,0.06768798828125
1789058866490910700,2.72591064453125,-0.8052825927734375,-0.71063232421875,0.1732025146484375
1789058866500921600,2.735921630859375,-0.9082794189453125,0.0536041259765625,-0.1920623779296875
1789058866510933000,2.74593310546875,-0.46002197265625,-0.449676513671875,-0.3728790283203125
1789058866520943900,2.75594384765625,-0.5076904296875,-0.22564697265625,-0.03741455078125
1789058866530954800,2.765954833984375,-0.3276519775390625,-0.707275390625,0.162109375
1789058866540966000,2.7759658203125,-0.932373046875,-0.1071319580078125,-0.0920867919921875
1789058866550976800,2.785976806640625,-1.3402557373046875,-0.2289581298828125,-0.16485595703125
1789058866560989000,2.795989013671875,-1.5247955322265625,-0.1016082763671875,-0.144805908203125
1789058866570999800,2.805999755859375,-0.7746734619140625,-0.7091827392578125,-0.0163726806640625
1789058866581011000,2.816010986328125,-0.6294403076171875,-0.1711578369140625,-0.0019073486328125
1789058866591021800,2.826021728515625,-0.549896240234375,-0.6798858642578125,0.1773681640625
1789058866601032700,2.83603271484375,-1.14093017578125,-0.0863189697265625,0.04583740234375
1789058866611043800,2.8460439453125,-0.9308929443359375,-0.412933349609375,-0.016632080078125
1789058866621055000,2.856054931640625,-0.772705078125,-0.3228607177734375,0.035614013671875
1789058866631067000,2.86606689453125,-0.67510986328125,-0.3691558837890625,0.0392608642578125
1789058866641077800,2.876077880859375,-0.386688232421875,-0.7386016845703125,0.2038726806640625
1789058866651088600,2.886088623046875,-1.1427764892578125,-0.3860626220703125,0.05303955078125
1789058866661100000,2.89610009765625,-1.66644287109375,-0.1739044189453125,-0.070068359375
1789058866671111000,2.90611083984375,-1.7794036865234375,0.100494384765625,-0.019012451171875
1789058866681121800,2.916121826171875,-0.7470703125,-0.774078369140625,0.2860870361328125
1789058866691132700,2.926132568359375,-0.85498046875,-0.43896484375,0.177490234375
1789058866701144800,2.936144775390625,-1.098480224609375,-0.2651824951171875,0.1078338623046875
1789058866711156000,2.946156005859375,-0.8050994873046875,-0.349884033203125,0.057403564453125
1789058866721166800,2.956166748046875,-0.2827911376953125,-0.906982421875,0.0643463134765625
1789058866731177700,2.966177734375,-0.7922515869140625,-0.224151611328125,0.1784820556640625
1789058866741188900,2.97618896484375,-1.448150634765625,-0.302215576171875,0.140045166015625
1789058866751199700,2.98619970703125,-1.2435302734375,-0.5393218994140625,0.0055999755859375
1789058866761212000,2.9962119140625,-0.9794158935546875,-0.5829010009765625,0.0870208740234375
1789058866771222800,3.006222900390625,-1.0704193115234375,-0.1657867431640625,0.171875
1789058866781233700,3.016233642578125,-1.020965576171875,0.273040771484375,0.2114715576171875
1789058866791244800,3.026244873046875,-0.400970458984375,-0.4297943115234375,0.0213470458984375
1789058866801256000,3.036255859375,0.325714111328125,-1.228240966796875,-0.1536102294921875
1789058866811266800,3.046266845703125,-0.5283660888671875,-0.518646240234375,0.0146942138671875
1789058866821278000,3.05627783203125,-1.699859619140625,0.301971435546875,0.0592803955078125
1789058866831289900,3.066289794921875,-1.924560546875,0.258331298828125,-0.04095458984375
1789058866841300700,3.07630078125,-1.0201568603515625,-0.4896392822265625,-0.08245849609375
1789058866851311900,3.086311767578125,-0.6750640869140625,-1.046112060546875,-0.157470703125
1789058866861322800,3.09632275390625,-0.941497802734375,-0.080413818359375,0.1096038818359375
1789058866871334000,3.106333984375,-0.70391845703125,-0.04913330078125,0.04229736328125
1789058866881344800,3.1163447265625,-0.32916259765625,-0.398406982421875,-0.20269775390625
1789058866891355600,3.126355712890625,-0.5517730712890625,-0.8209075927734375,-0.1142730712890625
1789058866901367800,3.136367919921875,-1.3123931884765625,-0.4722137451171875,-0.005126953125
1789058866911379000,3.14637890625,-1.7808837890625,-0.073333740234375,-0.085357666015625
1789058866921389800,3.156389892578125,-1.1499786376953125,-0.307525634765625,-0.022705078125
1789058866931400700,3.166400634765625,-0.7586669921875,-0.1735687255859375,-0.1133575439453125
1789058866941411800,3.176411865234375,-0.271484375,-0.6264495849609375,0.002410888671875
1789058866951423000,3.186423095703125,-0.7947845458984375,-0.2704315185546875,0.1212158203125
1789058866961433900,3.196433837890625,-0.93939208984375,-0.544342041015625,0.0054931640625
1789058866971445800,3.20644580078125,-1.5978546142578125,-0.098602294921875,-0.0137786865234375
1789058866981456600,3.21645654296875,-1.79998779296875,-0.0075531005859375,0.0604248046875
1789058866991467800,3.2264677734375,-0.9785308837890625,-0.61907958984375,0.0568695068359375
1789058867001479000,3.23647900390625,-0.1982269287109375,-1.0911407470703125,0.0012359619140625
1789058867011489800,3.24648974609375,-0.3937530517578125,-0.731170654296875,-0.10125732421875
1789058867021501000,3.2565009765625,-0.840972900390625,-0.1971282958984375,0.066619873046875
1789058867031512800,3.266512939453125,-0.58465576171875,-0.49163818359375,0.12200927734375
1789058867041524000,3.27652392578125,-0.67791748046875,-0.3331451416015625,-0.0269012451171875
1789058867051534800,3.286534912109375,-1.2322845458984375,-0.5096588134765625,-0.1107330322265625
1789058867061545700,3.296545654296875,-2.1548614501953125,0.250213623046875,-0.0092926025390625
1789058867071556900,3.306556884765625,-1.1625823974609375,-0.9055633544921875,0.212432861328125
1789058867081567700,3.316567626953125,-0.3403472900390625,-0.9393768310546875,-0.184661865234375
1789058867091578600,3.32657861328125,-0.6715850830078125,-0.475067138671875,-0.3322906494140625
1789058867101590800,3.3365908203125,-1.571746826171875,0.6864471435546875,-0.0876312255859375
1789058867111602000,3.346601806640625,-0.8178253173828125,-0.464935302734375,-0.1753692626953125
1789058867121612800,3.35661279296875,-0.4208831787109375,-0.5450592041015625,-0.1746368408203125
1789058867131623700,3.366623779296875,-0.115234375,-1.0502471923828125,-0.00555419921875
1789058867141634800,3.376634765625,-1.3705291748046875,0.4835357666015625,-0.1044769287109375
1789058867151646000,3.38664599609375,-1.3929595947265625,-0.3860321044921875,0.0889434814453125
1789058867161656800,3.39665673828125,-1.0856781005859375,-0.927398681640625,-0.1296234130859375
1789058867171668700,3.406668701171875,-0.7439727783203125,-1.4228057861328125,-0.3695220947265625
1789058867181679600,3.4166796875,-1.5138092041015625,0.0488739013671875,0.0202789306640625
1789058867191690800,3.426690673828125,-0.7273406982421875,-0.4295654296875,0.106842041015625
1789058867201702000,3.436701904296875,-0.360076904296875,-0.139129638671875,0.032623291015625
1789058867211712800,3.446712646484375,-0.1872406005859375,-0.776397705078125,-0.14471435546875
1789058867221724000,3.456723876953125,-1.083648681640625,-0.021514892578125,-0.15496826171875
1789058867231734800,3.46673486328125,-1.04931640625,-0.7089996337890625,0.2308197021484375
1789058867241746700,3.47674658203125,-0.72027587890625,-0.702301025390625,0.121490478515625
1789058867251757800,3.4867578125,-0.6426849365234375,-0.6172637939453125,-0.03204345703125
1789058867261768700,3.496768798828125,-1.2344970703125,0.044281005859375,0.0005340576171875
1789058867271779800,3.50677978515625,-1.496795654296875,0.0493011474609375,-0.1824493408203125
1789058867281790700,3.516790771484375,-0.852081298828125,-0.7240447998046875,0.041839599609375
1789058867291801600,3.526801513671875,-0.7893218994140625,-0.510009765625,-0.0342254638671875
1789058867301813000,3.53681298828125,-0.954010009765625,-0.484771728515625,-0.128082275390625
1789058867311825000,3.546824951171875,-0.7226715087890625,-0.34259033203125,0.07708740234375
1789058867321835800,3.556835693359375,-0.6026611328125,-0.2635040283203125,-0.1947174072265625
1789058867331846700,3.5668466796875,-1.2397918701171875,0.2445220947265625,-0.1988983154296875
1789058867341857800,3.57685791015625,-1.4195098876953125,-0.172576904296875,-0.324951171875
1789058867351869000,3.586868896484375,-1.118927001953125,-0.737030029296875,-0.3589324951171875
1789058867361879800,3.5968798828125,-1.0106201171875,-0.710968017578125,0.1385345458984375
1789058867371890700,3.606890625,-0.8425140380859375,-0.0563507080078125,0.0595703125
1789058867381902600,3.616902587890625,-0.39251708984375,-0.5597076416015625,-0.099639892578125
1789058867391914000,3.6269140625,-0.1738433837890625,-0.7516326904296875,-0.2212982177734375
1789058867401924900,3.6369248046875,-0.6441802978515625,-0.55096435546875,-0.3494873046875
1789058867411935700,3.646935791015625,-1.7175750732421875,0.597015380859375,-0.123748779296875
1789058867421947000,3.65694677734375,-0.8735809326171875,-1.02532958984375,0.104583740234375
1789058867431957800,3.666957763671875,-1.1403045654296875,-0.5706787109375,-0.1324462890625
1789058867441970000,3.676969970703125,-1.23992919921875,-0.689666748046875,-0.1823577880859375
1789058867451980800,3.686980712890625,-1.2283935546875,0.21002197265625,0.0385284423828125
1789058867461991700,3.69699169921875,-0.217193603515625,-0.6430206298828125,-0.0305023193359375
1789058867472002800,3.7070029296875,0.3476409912109375,-0.83612060546875,-0.101531982421875
1789058867482013700,3.717013671875,-0.83050537109375,-0.350738525390625,0.0667724609375
1789058867492024800,3.72702490234375,-2.001953125,0.3355865478515625,0.028076171875
1789058867502036000,3.737035888671875,-1.2811279296875,-0.7808990478515625,0.07696533203125
1789058867512047900,3.7470478515625,-0.9491119384765625,-0.58709716796875,-0.153228759765625
1789058867522058800,3.757058837890625,-1.1204376220703125,-0.482086181640625,-0.23236083984375
1789058867532069600,3.767069580078125,-1.099884033203125,-0.29559326171875,-0.0067138671875
1789058867542080800,3.777080810546875,-0.6116180419921875,-0.4092254638671875,0.0253143310546875
1789058867552092000,3.787091796875,-0.563385009765625,-0.6686248779296875,0.05816650390625
1789058867562102800,3.797102783203125,-1.2023773193359375,-0.177764892578125,-0.0268402099609375
1789058867572113700,3.80711376953125,-1.100433349609375,-0.2699432373046875,0.0382843017578125
1789058867582125600,3.81712548828125,-0.68817138671875,-0.52783203125,0.1517333984375
1789058867592137000,3.827136962890625,-0.246246337890625,-0.702056884765625,-0.0102691650390625
1789058867602147800,3.83714794921875,-0.52130126953125,-0.360809326171875,-0.23724365234375
1789058867612158700,3.84715869140625,-0.8339691162109375,-0.5451812744140625,0.0286102294921875
1789058867622169900,3.857169921875,-1.1331939697265625,-0.531524658203125,0.206787109375
1789058867632180700,3.8671806640625,-1.4127960205078125,-0.457000732421875,-0.121917724609375
1789058867642192000,3.87719189453125,-1.620086669921875,0.0015411376953125,-0.1374359130859375
1789058867652203800,3.887203857421875,-0.8233489990234375,-0.5508880615234375,-0.071929931640625
1789058867662214700,3.897214599609375,-0.2865142822265625,-0.7191925048828125,-0.16253662109375
1789058867672225800,3.907225830078125,0.2215118408203125,-0.827239990234375,-0.0606842041015625
1789058867682236700,3.917236572265625,-0.582366943359375,-0.0579986572265625,0.0616607666015625
1789058867692247800,3.927247802734375,-1.7147064208984375,0.3248443603515625,0.110565185546875
1789058867702259000,3.937259033203125,-1.8027496337890625,-0.2206878662109375,0.001800537109375
1789058867712269800,3.947269775390625,-0.90362548828125,-0.791351318359375,0.0603179931640625
1789058867722281700,3.95728173828125,-0.9592742919921875,-0.6798553466796875,-0.1822357177734375
1789058867732292900,3.96729296875,-1.134552001953125,-0.1343536376953125,0.016754150390625
1789058867742303700,3.9773037109375,-0.9691314697265625,-0.2338409423828125,-0.052459716796875
1789058867752315000,3.98731494140625,-0.7098236083984375,-0.623809814453125,-0.140716552734375
1789058867762325800,3.99732568359375,-1.1423797607421875,-0.3072662353515625,0.0876007080078125
1789058867772336600,4.007336669921875,-1.0031890869140625,-0.2405853271484375,0.12249755859375
1789058867782347800,4.01734765625,-0.46484375,-0.3433837890625,-0.0513763427734375
1789058867792360000,4.02735986328125,-0.2476348876953125,-0.54974365234375,-0.110443115234375
1789058867802370800,4.037370849609375,-0.528350830078125,-0.8148651123046875,0.01007080078125
1789058867812381700,4.047381591796875,-1.3627777099609375,-0.292724609375,-0.065216064453125
1789058867822392600,4.057392578125,-1.852874755859375,-0.14013671875,0.0298004150390625
1789058867832404000,4.067404052734375,-1.3240509033203125,-0.8523406982421875,0.0689239501953125
1789058867842414800,4.077414794921875,-0.675506591796875,-1.0063018798828125,-0.2525787353515625
1789058867852425700,4.08742578125,0.0179901123046875,-0.46844482421875,-0.2208251953125
1789058867862437600,4.097437744140625,-0.051971435546875,-0.0691986083984375,-0.078277587890625
1789058867872448800,4.10744873046875,-1.1226043701171875,0.031280517578125,0.027191162109375
1789058867882460000,4.1174599609375,-2.0885772705078125,-0.3791351318359375,-0.032073974609375
1789058867892470800,4.127470703125,-2.4730224609375,-0.3125762939453125,-0.1242828369140625
1789058867902482000,4.13748193359375,-1.685760498046875,-0.4029388427734375,-0.0553741455078125
1789058867912492800,4.147492919921875,-0.157867431640625,-0.8771514892578125,0.04132080078125
1789058867922503700,4.157503662109375,-0.0469207763671875,-0.3497467041015625,-0.060455322265625
1789058867932515800,4.167515869140625,-0.2386932373046875,-0.409515380859375,-0.1133575439453125
1789058867942526700,4.177526611328125,-0.7461700439453125,-0.301849365234375,0.0085601806640625
1789058867952537900,4.187537841796875,-0.756927490234375,-0.8524169921875,0.1444244384765625
1789058867962548700,4.197548828125,-1.040924072265625,-0.57720947265625,-0.017120361328125
1789058867972559600,4.2075595703125,-1.2830047607421875,-0.0441741943359375,-0.143035888671875
1789058867982571000,4.217571044921875,-0.89898681640625,-0.0676422119140625,-0.1156768798828125
1789058867992582000,4.227581787109375,0.0721282958984375,-0.9423065185546875,0.125335693359375
1789058868002593800,4.23759375,-1.1392669677734375,-0.341583251953125,0.3362274169921875
1789058868012604700,4.247604736328125,-2.2444915771484375,0.29638671875,-0.1008148193359375
1789058868022615600,4.257615478515625,-1.2048492431640625,-0.6938323974609375,-0.1887969970703125
1789058868032627000,4.267626953125,0.287078857421875,-1.3349456787109375,0.104766845703125
1789058868042637800,4.277637939453125,0.5328826904296875,-1.1183624267578125,0.10235595703125
1789058868052648700,4.287648681640625,-0.3746185302734375,0.3375091552734375,-0.0013580322265625
1789058868062659800,4.297659912109375,-1.2761077880859375,0.05615234375,-0.0348968505859375
1789058868072672000,4.307672119140625,-1.7297210693359375,-0.5251007080078125,-0.0133514404296875
1789058868082683000,4.317682861328125,-1.9264373779296875,-0.1976470947265625,-0.1306304931640625
1789058868092693500,4.327693603515625,-1.5644989013671875,-0.366455078125,-0.060577392578125
1789058868102704600,4.33770458984375,-0.6971588134765625,-0.59112548828125,0.152587890625
1789058868112715500,4.347715576171875,-0.302886962890625,-0.2384490966796875,-0.047607421875
1789058868122726400,4.357726318359375,-0.14984130859375,-0.7252197265625,-0.00048828125
1789058868132737500,4.367737548828125,-0.5761260986328125,-0.3031768798828125,-0.0165863037109375
1789058868142749400,4.37774951171875,-0.59442138671875,-0.7685394287109375,-0.0155792236328125
1789058868152760600,4.387760498046875,-1.3404998779296875,0.3289337158203125,-0.02001953125
1789058868162771500,4.397771484375,-1.4513092041015625,-0.2218475341796875,0.0735015869140625
1789058868172782300,4.4077822265625,-1.838836669921875,-0.609039306640625,-0.1236114501953125
1789058868182793700,4.417793701171875,-1.2264556884765625,-1.1427459716796875,-0.017547607421875
1789058868192804600,4.4278046875,-0.6729278564453125,-0.6936798095703125,0.0729827880859375
1789058868202815500,4.4378154296875,-0.674041748046875,-0.0886993408203125,0.220245361328125
1789058868212827400,4.447827392578125,-0.478424072265625,0.1687164306640625,0.0198822021484375
1789058868222838500,4.457838623046875,-0.5996246337890625,0.083953857421875,-0.03021240234375
1789058868232849700,4.467849609375,-0.711761474609375,-0.9032745361328125,0.1099395751953125
1789058868242860500,4.477860595703125,-1.1182861328125,-0.65618896484375,0.0595703125
1789058868252871400,4.487871337890625,-1.6482086181640625,-0.025665283203125,0.0688323974609375
1789058868262882600,4.497882568359375,-1.613433837890625,0.116912841796875,0.2937164306640625
1789058868272893400,4.5078935546875,-0.846038818359375,-0.591644287109375,0.130126953125
1789058868282905600,4.517905517578125,-0.2805023193359375,-0.785552978515625,-0.1263580322265625
1789058868292916500,4.52791650390625,-1.30657958984375,0.7703857421875,-0.0861358642578125
1789058868302927600,4.537927734375,-1.0728302001953125,0.07989501953125,0.039764404296875
1789058868312938500,4.5479384765625,0.0508270263671875,-1.6309661865234375,0.163421630859375
1789058868322949600,4.55794970703125,0.14788818359375,-1.5587921142578125,0.2630462646484375
1789058868332960500,4.56796044921875,-1.2975616455078125,0.31378173828125,0.150848388671875
1789058868342971600,4.5779716796875,-1.9772796630859375,0.2257843017578125,0.0254669189453125
1789058868352983600,4.587983642578125,-1.8968353271484375,0.6474609375,-0.0393218994140625
1789058868362994400,4.597994384765625,-0.95501708984375,-0.8138580322265625,0.1635894775390625
1789058868373005600,4.608005615234375,-0.9468536376953125,-0.6812286376953125,0.0590972900390625
1789058868383016700,4.6180166015625,0.0391845703125,-1.2298736572265625,0.1933746337890625
1789058868393027600,4.628027587890625,0.1197967529296875,-0.284912109375,0.1048126220703125
1789058868403038500,4.63803857421875,-0.3629150390625,-0.0209503173828125,-0.3069915771484375
1789058868413049300,4.64804931640625,-1.5163116455078125,0.339569091796875,-0.351165771484375
1789058868423061500,4.6580615234375,-1.3161163330078125,-0.77679443359375,-0.0226898193359375
1789058868433072600,4.66807275390625,-0.979949951171875,-1.07037353515625,0.188018798828125
1789058868443083500,4.67808349609375,-1.2654266357421875,-0.286468505859375,0.248260498046875
1789058868453094400,4.688094482421875,-2.013427734375,0.85028076171875,-0.161834716796875
1789058868463105500,4.69810546875,-0.5460052490234375,-0.8848419189453125,-0.469573974609375
1789058868473116700,4.70811669921875,0.32470703125,-1.665679931640625,-0.254302978515625
1789058868483127600,4.71812744140625,-0.4297332763671875,-0.7105560302734375,-0.0443115234375
1789058868493139500,4.728139404296875,-1.5361785888671875,0.462615966796875,-0.1959381103515625
1789058868503150300,4.738150390625,-1.305938720703125,-0.1326446533203125,-0.054412841796875
1789058868513161500,4.748161376953125,-1.421783447265625,-0.1294708251953125,-0.1398468017578125
1789058868523172600,4.758172607421875,-0.874664306640625,-0.93475341796875,-0.1418914794921875
1789058868533183500,4.76818359375,-0.1920318603515625,-1.00921630859375,-0.0740509033203125
1789058868543194600,4.778194580078125,-0.6723175048828125,-0.212371826171875,-0.2493896484375
1789058868553205500,4.78820556640625,-1.4307403564453125,0.17108154296875,-0.3006439208984375
1789058868563217700,4.7982177734375,-1.061492919921875,-0.30291748046875,-0.174163818359375
1789058868573228500,4.808228515625,-0.426483154296875,-1.0108795166015625,0.0187225341796875
1789058868583239700,4.81823974609375,-0.8753662109375,-0.2748260498046875,-0.0056304931640625
1789058868593250600,4.82825048828125,-1.0264434814453125,-0.6649322509765625,-0.0303192138671875
1789058868603261400,4.838261474609375,-1.8006439208984375,0.04864501953125,-0.1062469482421875
1789058868613272300,4.848272216796875,-1.408782958984375,-0.04180908203125,-0.045074462890625
1789058868623283700,4.85828369140625,-0.468841552734375,-0.27142333984375,0.1999053955078125
1789058868633295600,4.868295654296875,0.08233642578125,-0.9886474609375,0.03973388671875
1789058868643306500,4.878306396484375,-0.697967529296875,-0.296295166015625,-0.2520904541015625
1789058868653317400,4.8883173828125,-0.8942718505859375,-0.29425048828125,-0.0038299560546875
1789058868663328800,4.898328857421875,-0.7987518310546875,-0.649383544921875,-0.0831756591796875
1789058868673339600,4.908339599609375,-1.32196044921875,-0.4508209228515625,-0.167877197265625
1789058868683350500,4.9183505859375,-1.750335693359375,0.191314697265625,0.1532135009765625
1789058868693361400,4.928361328125,-1.5645904541015625,0.4984283447265625,0.090057373046875
1789058868703373300,4.938373291015625,-0.4903411865234375,-0.745208740234375,-0.06146240234375
1789058868713384700,4.948384765625,0.2024688720703125,-1.005340576171875,-0.1269073486328125
1789058868723395600,4.9583955078125,-0.0142974853515625,-0.566375732421875,-0.00018310546875
1789058868733406500,4.968406494140625,-1.3892364501953125,0.5010986328125,-0.0679931640625
1789058868743417600,4.97841748046875,-1.4951629638671875,-0.5424652099609375,-0.0839385986328125
1789058868753428500,4.988428466796875,-1.477386474609375,-0.69879150390625,0.0506134033203125
1789058868763439400,4.998439453125,-1.1804656982421875,-0.732177734375,0.081939697265625
1789058868773451500,5.008451416015625,-0.98150634765625,0.10986328125,-0.0380401611328125
1789058868783462400,5.01846240234375,-0.4693603515625,-0.2181243896484375,-0.1072998046875
1789058868793473500,5.0284736328125,-0.7085723876953125,-0.1950225830078125,-0.0928497314453125
1789058868803484400,5.038484375,-1.045166015625,-0.4911041259765625,0.047607421875
1789058868813495600,5.04849560546875,-1.116180419921875,-0.5652008056640625,0.0858306884765625
1789058868823506700,5.058506591796875,-0.8736114501953125,-0.298370361328125,0.004364013671875
1789058868833517600,5.068517578125,-0.904541015625,-0.007598876953125,-0.1793365478515625
1789058868843529500,5.078529541015625,-0.9139404296875,-0.4771270751953125,-0.038177490234375
1789058868853540400,5.088540283203125,-0.497833251953125,-0.932098388671875,0.226654052734375
1789058868863551700,5.0985517578125,-0.69329833984375,-0.17779541015625,0.1068267822265625
1789058868873562600,5.108562744140625,-1.2710418701171875,0.100006103515625,-0.0566864013671875
1789058868883573500,5.118573486328125,-1.375274658203125,0.0733489990234375,-0.1244659423828125
1789058868893584400,5.12858447265625,-0.8688812255859375,-0.736053466796875,0.2654266357421875
1789058868903595500,5.138595458984375,-1.2472381591796875,-0.4832916259765625,0.2143402099609375
1789058868913606700,5.148606689453125,-1.0666961669921875,-0.5192108154296875,-0.0115814208984375
1789058868923618600,5.15861865234375,-0.4500885009765625,-0.330352783203125,-0.1510009765625
1789058868933629400,5.16862939453125,-0.3242950439453125,-0.2862091064453125,0.1009521484375
1789058868943640600,5.178640625,-1.1862335205078125,-0.0826873779296875,0.1327667236328125
1789058868953651500,5.1886513671875,-1.4693756103515625,-0.52752685546875,-0.1339111328125
1789058868963662600,5.19866259765625,-1.0381927490234375,-0.5946807861328125,0.0196990966796875
1789058868973673500,5.208673583984375,-1.0386962890625,-0.2918853759765625,0.025909423828125
1789058868983684600,5.2186845703125,-1.4801788330078125,0.1217803955078125,-0.11181640625
1789058868993696500,5.228696533203125,-0.69903564453125,-0.75494384765625,0.097259521484375
1789058869003707600,5.238707763671875,0.0604705810546875,-0.86663818359375,0.2908477783203125
1789058869013718500,5.248718505859375,-0.969573974609375,-0.2857208251953125,-0.0682525634765625
1789058869023729700,5.258729736328125,-1.7472991943359375,0.419403076171875,-0.2634124755859375
1789058869033740500,5.268740478515625,-0.648162841796875,-0.52239990234375,0.2371368408203125
1789058869043751400,5.27875146484375,-0.0478668212890625,-1.0592803955078125,0.357147216796875
1789058869053762600,5.288762451171875,-0.59466552734375,-0.7647857666015625,-0.028533935546875
1789058869063774500,5.2987744140625,-1.330535888671875,0.218841552734375,-0.2619171142578125
1789058869073785600,5.30878564453125,-0.6175994873046875,-0.587005615234375,-0.004425048828125
1789058869083796500,5.31879638671875,-1.3370819091796875,-0.084259033203125,0.023040771484375
1789058869093807600,5.3288076171875,-1.6014862060546875,-0.297149658203125,-0.0575103759765625
1789058869103819500,5.338819580078125,-1.402313232421875,-0.2354278564453125,-0.112335205078125
1789058869113830700,5.34883056640625,-0.4640045166015625,-0.69085693359375,0.0408935546875
1789058869123841800,5.358841796875,-0.9664459228515625,-0.2189483642578125,-0.090362548828125
1789058869133852700,5.368852783203125,-1.5492401123046875,0.5306243896484375,-0.255584716796875
1789058869143864600,5.378864501953125,-0.869140625,-0.552276611328125,0.35272216796875
1789058869153875700,5.388875732421875,-1.1496429443359375,-0.4629669189453125,0.1793365478515625
1789058869163886600,5.398886474609375,-1.3938446044921875,-0.3600921630859375,-0.166839599609375
1789058869173897700,5.408897705078125,-0.5405426025390625,-0.698699951171875,-0.00823974609375
1789058869183908600,5.41890869140625,-0.2346954345703125,-0.9617919921875,0.0375518798828125
1789058869193919700,5.428919677734375,-0.915618896484375,-0.4711151123046875,-0.285186767578125
1789058869203930600,5.4389306640625,-1.2570648193359375,0.0504913330078125,0.019683837890625
1789058869213941500,5.44894140625,-1.0391693115234375,0.050567626953125,0.1385345458984375
1789058869223953700,5.45895361328125,-0.8177490234375,-0.3173065185546875,-0.0404510498046875
1789058869233964800,5.46896484375,-0.4178466796875,-0.724822998046875,0.0812530517578125
1789058869243975700,5.4789755859375,-0.176544189453125,-0.868865966796875,-0.0414886474609375
1789058869253986600,5.488986572265625,-0.6923370361328125,-0.809112548828125,-0.2244873046875
1789058869263997400,5.49899755859375,-2.1279754638671875,0.25103759765625,-0.2532806396484375
1789058869274008800,5.5090087890625,-2.0726318359375,0.06744384765625,0.14910888671875
1789058869284019700,5.519019775390625,-0.97210693359375,-0.279541015625,0.2751312255859375
1789058869294031600,5.529031494140625,0.0663299560546875,-0.930023193359375,0.372100830078125
1789058869304042500,5.53904248046875,-0.3103485107421875,-0.456817626953125,0.0392913818359375
1789058869314054000,5.549053955078125,-0.812774658203125,-0.20819091796875,-0.296783447265625
1789058869324064800,5.559064697265625,-0.87530517578125,-0.51568603515625,-0.2743988037109375
1789058869334075600,5.56907568359375,-0.957916259765625,-0.5079803466796875,-0.046417236328125
1789058869344086500,5.57908642578125,-1.187744140625,-0.6404266357421875,0.068145751953125
1789058869354097700,5.58909765625,-1.47943115234375,-0.1701507568359375,0.0075531005859375
1789058869364109800,5.59910986328125,-1.3233795166015625,-0.1584014892578125,0.0272064208984375
1789058869374120700,5.60912060546875,-0.7300262451171875,-0.3586883544921875,0.1531219482421875
1789058869384131600,5.619131591796875,-0.049957275390625,-0.6154022216796875,0.2459869384765625
1789058869394142700,5.629142822265625,-0.1162567138671875,-0.95172119140625,0.008514404296875
1789058869404153600,5.639153564453125,-1.474517822265625,-0.051300048828125,-0.200714111328125
1789058869414164500,5.64916455078125,-1.5833740234375,-0.434722900390625,-0.00897216796875
1789058869424175600,5.659175537109375,-1.398223876953125,-0.4040374755859375,0.12518310546875
1789058869434187800,5.669187744140625,-0.892669677734375,-0.6623077392578125,0.14862060546875
1789058869444198700,5.67919873046875,-0.848541259765625,-0.0584716796875,0.134552001953125
1789058869454209500,5.68920947265625,-0.1763763427734375,-0.954925537109375,-0.0663604736328125
1789058869464219600,5.6992197265625,-0.2431640625,-0.8306121826171875,0.09375
1789058869474230800,5.709230712890625,-0.7214813232421875,-0.3592376708984375,0.1377716064453125
1789058869484242700,5.71924267578125,-2.017852783203125,0.5796661376953125,-0.236724853515625
1789058869494253600,5.729253662109375,-1.876800537109375,0.2041473388671875,-0.0157470703125
1789058869504264700,5.7392646484375,-0.356292724609375,-0.9781036376953125,0.0560302734375
1789058869514275600,5.749275634765625,-0.3731689453125,-0.7709808349609375,0.0195770263671875
1789058869524286700,5.75928662109375,-0.744171142578125,-0.5662841796875,0.1635284423828125
1789058869534297600,5.769297607421875,-0.6987152099609375,-0.4966583251953125,0.0017852783203125
1789058869544308700,5.779308837890625,-1.2359619140625,0.0022430419921875,0.011322021484375
1789058869554320600,5.789320556640625,-1.3697662353515625,-0.2332611083984375,0.127899169921875
1789058869564331800,5.799331787109375,-0.8748626708984375,-0.66937255859375,0.051910400390625
1789058869574342700,5.8093427734375,-0.5229339599609375,-0.880279541015625,0.079254150390625
1789058869584353800,5.819353759765625,-1.2157440185546875,0.0618438720703125,-0.0233306884765625
1789058869594364700,5.82936474609375,-1.066925048828125,-0.1173248291015625,-0.1004791259765625
1789058869604375600,5.83937548828125,-0.41070556640625,-0.6219024658203125,-0.01910400390625
1789058869614386400,5.849386474609375,-0.51641845703125,-0.37213134765625,0.051361083984375
1789058869624398600,5.859398681640625,-1.31573486328125,0.1179351806640625,-0.2120208740234375
1789058869634409700,5.86940966796875,-1.224334716796875,-0.90966796875,0.1056976318359375
1789058869644420600,5.879420654296875,-1.4186859130859375,-0.5396728515625,-0.0154876708984375
1789058869654431500,5.889431396484375,-0.8952178955078125,-0.689117431640625,-0.1459197998046875
1789058869664442600,5.899442626953125,-0.307098388671875,-0.6177978515625,0.0496368408203125
1789058869674453800,5.909453857421875,-0.48077392578125,-0.662689208984375,0.0491485595703125
1789058869684464600,5.919464599609375,-1.3948516845703125,0.3212738037109375,-0.159912109375
1789058869694476500,5.9294765625,-0.70904541015625,-0.77569580078125,0.106689453125
1789058869704487700,5.93948779296875,-0.73486328125,-0.6022491455078125,0.0737457275390625
1789058869714498800,5.949498779296875,-0.9404296875,-0.436370849609375,-0.0958404541015625
1789058869724509700,5.959509765625,-1.24713134765625,0.0528564453125,-0.1109771728515625
1789058869734520600,5.9695205078125,-0.5117950439453125,-0.6387939453125,-0.005889892578125
1789058869744531700,5.97953173828125,-0.4467620849609375,-0.565673828125,-0.011474609375
1789058869754542600,5.98954248046875,-1.1209869384765625,-0.309356689453125,-0.202423095703125
1789058869764553500,5.999553466796875,-1.5925445556640625,0.11346435546875,-0.318634033203125
1789058869774565600,6.009565673828125,-1.2896728515625,-0.6665496826171875,-0.0773773193359375
1789058869784576800,6.01957666015625,-0.927398681640625,-0.5679779052734375,0.32177734375
1789058869794587600,6.029587646484375,0.0218048095703125,-0.98382568359375,0.1654205322265625
1789058869804598500,6.0395986328125,-0.771820068359375,0.28863525390625,-0.1267242431640625
1789058869814609700,6.049609619140625,-1.5146026611328125,0.2395477294921875,-0.2180633544921875
1789058869824620800,6.059620849609375,-1.3323516845703125,-0.3197174072265625,-0.0120086669921875
1789058869834631700,6.069631591796875,-0.3648529052734375,-1.462249755859375,0.3648223876953125
1789058869844643600,6.0796435546875,-0.4810791015625,-0.57745361328125,0.1164093017578125
1789058869854654500,6.089654541015625,-0.8245697021484375,-0.2184295654296875,-0.0948486328125
1789058869864665900,6.099665771484375,-1.399932861328125,0.1337738037109375,-0.1782379150390625
1789058869874676700,6.1096767578125,-1.0997161865234375,-0.165985107421875,0.2167205810546875
1789058869884687600,6.1196875,-0.635589599609375,-0.64141845703125,0.261260986328125
1789058869894698500,6.129698486328125,-0.582916259765625,-0.801483154296875,0.146392822265625
1789058869904709600,6.139709716796875,-1.0765838623046875,-0.289306640625,-0.0097198486328125
1789058869914721800,6.1497216796875,-0.9888916015625,0.2144012451171875,-0.0003204345703125
1789058869924732700,6.159732666015625,-0.9118499755859375,-0.76812744140625,0.1675872802734375
1789058869934743600,6.16974365234375,-1.75323486328125,-0.49200439453125,0.177947998046875
1789058869944754700,6.179754638671875,-1.3701629638671875,-0.209442138671875,0.147125244140625
1789058869954765600,6.189765625,-0.5705108642578125,-0.7267608642578125,0.1789093017578125
1789058869964776700,6.199776611328125,-0.77191162109375,-0.37432861328125,0.00091552734375
1789058869974787800,6.209787841796875,-0.6832427978515625,-0.1031951904296875,-0.0411376953125
1789058869984798700,6.219798828125,-0.890594482421875,0.197174072265625,0.001373291015625
1789058869994810600,6.229810546875,-0.521484375,-0.7955169677734375,0.0943756103515625
1789058870004821500,6.239821533203125,-0.6907806396484375,-0.6310577392578125,0.123199462890625
1789058870014832600,6.24983251953125,-1.4319610595703125,-0.391021728515625,-0.1029815673828125
1789058870024843800,6.25984375,-1.972442626953125,0.0738983154296875,-0.1890869140625
1789058870034854700,6.269854736328125,-0.5708160400390625,-0.5567474365234375,0.079132080078125
1789058870044865500,6.279865478515625,0.0988616943359375,-0.847198486328125,0.136444091796875
1789058870054876700,6.289876708984375,-0.56500244140625,-0.333160400390625,0.0987091064453125
1789058870064888800,6.299888916015625,-0.7231597900390625,-0.356536865234375,-0.078826904296875
1789058870074899700,6.309899658203125,-1.182769775390625,-0.46710205078125,-0.237213134765625
1789058870084910600,6.31991064453125,-2.222503662109375,0.0234832763671875,0.0063934326171875
1789058870094922000,6.329921875,-2.035858154296875,0.3264923095703125,0.2580108642578125
1789058870104933000,6.33993310546875,-0.349029541015625,-1.07476806640625,0.152130126953125
1789058870114944000,6.349944091796875,0.24395751953125,-1.084869384765625,-0.061767578125
1789058870124955000,6.359954833984375,-0.1473236083984375,-0.097259521484375,-0.07525634765625
1789058870134966000,6.369966064453125,-0.9917144775390625,0.0746917724609375,-0.2386474609375
1789058870144978000,6.37997802734375,-1.5222015380859375,-0.17578125,-0.053619384765625
1789058870154989000,6.389989013671875,-0.8661346435546875,-0.869903564453125,0.1429595947265625
1789058870165000000,6.4,-0.82977294921875,-0.8041839599609375,0.0438385009765625
1789058870175010800,6.4100107421875,-0.858734130859375,-0.5659637451171875,0.0244598388671875
1789058870185022200,6.420022216796875,-0.7819671630859375,0.10626220703125,0.052459716796875
1789058870195033000,6.430033203125,-0.3424835205078125,-0.531463623046875,-0.010040283203125
1789058870205044000,6.4400439453125,-0.6964263916015625,-0.801239013671875,0.011932373046875
1789058870215056000,6.450055908203125,-0.98382568359375,-0.491119384765625,0.088714599609375
1789058870225067300,6.4600673828125,-1.3978424072265625,-0.1453704833984375,-0.0289306640625
1789058870235078100,6.470078125,-2.1248321533203125,0.2927398681640625,-0.0399627685546875
1789058870245089000,6.480089111328125,-1.2176361083984375,-0.1732025146484375,0.0998077392578125
1789058870255100000,6.490099853515625,-0.124542236328125,-1.1956634521484375,0.0328521728515625
1789058870265111000,6.500111083984375,-0.5579376220703125,-0.7065582275390625,-0.0174102783203125
1789058870275122000,6.510121826171875,-1.0628204345703125,0.42071533203125,-0.033843994140625
1789058870285134000,6.520134033203125,-1.1933441162109375,0.0049896240234375,-0.0250244140625
1789058870295145000,6.53014501953125,-0.789886474609375,-1.305084228515625,-0.041839599609375
1789058870305156000,6.540156005859375,-0.723541259765625,-0.8455810546875,-0.0363311767578125
1789058870315167000,6.5501669921875,-1.48211669921875,0.4558258056640625,-0.1262664794921875
1789058870325178000,6.56017822265625,-1.096435546875,0.337554931640625,0.0436248779296875
1789058870335189000,6.57018896484375,-0.0480499267578125,-0.9234466552734375,0.0804595947265625
1789058870345200000,6.5802001953125,-0.6138763427734375,-1.0861358642578125,-0.3801727294921875
1789058870355211000,6.5902109375,-1.4505615234375,-0.37432861328125,-0.143218994140625
1789058870365223000,6.600222900390625,-1.2745819091796875,-0.05316162109375,0.1733551025390625
1789058870375234000,6.610234130859375,-0.650665283203125,-0.1233367919921875,-0.0845947265625
1789058870385245200,6.6202451171875,-1.150543212890625,0.154022216796875,-0.2020721435546875
1789058870395256000,6.630256103515625,-1.0735931396484375,-0.4094696044921875,0.006195068359375
1789058870405267000,6.640266845703125,-0.4814605712890625,-1.0661163330078125,0.0796661376953125
1789058870415278000,6.650278076171875,-1.2230682373046875,-0.5296783447265625,-0.0658111572265625
1789058870425289000,6.6602890625,-1.9761505126953125,0.975372314453125,-0.043548583984375
1789058870435301000,6.670301025390625,-0.6624908447265625,-0.415985107421875,-0.07513427734375
1789058870445312000,6.68031201171875,0.169708251953125,-1.2840576171875,-0.322296142578125
1789058870455323000,6.690322998046875,0.3427734375,-0.9055633544921875,-0.1561126708984375
1789058870465334000,6.700333984375,-0.777587890625,0.3489990234375,-0.0544281005859375
1789058870475345200,6.71034521484375,-1.7833709716796875,0.3226470947265625,-0.08660888671875
1789058870485356000,6.72035595703125,-2.3180389404296875,0.1164703369140625,0.02459716796875
1789058870495367200,6.7303671875,-1.597686767578125,-1.05645751953125,-0.010650634765625
1789058870505378000,6.7403779296875,-0.754486083984375,-1.32373046875,-0.21771240234375
1789058870515390000,6.750389892578125,0.109527587890625,-0.7767791748046875,-0.0614013671875
1789058870525401000,6.760401123046875,-0.14288330078125,0.3983612060546875,-0.0582122802734375
1789058870535412000,6.770411865234375,-1.075958251953125,0.1908111572265625,-0.0102081298828125
1789058870545423000,6.780423095703125,-1.5276947021484375,-0.16180419921875,0.1676483154296875
1789058870555434000,6.79043408203125,-0.645904541015625,-1.1291351318359375,0.1867218017578125
1789058870565444900,6.80044482421875,-1.0641632080078125,-0.9303131103515625,-0.052764892578125
1789058870575456300,6.810456298828125,-1.58905029296875,0.0734100341796875,-0.2910308837890625
1789058870585468200,6.82046826171875,-0.57061767578125,0.007110595703125,-0.1463165283203125
1789058870595479000,6.83047900390625,-0.4453125,-0.49627685546875,-0.090484619140625
1789058870605490000,6.840489990234375,-1.01129150390625,-0.316192626953125,0.1486053466796875
1789058870615500800,6.850500732421875,-0.81060791015625,-0.41473388671875,0.0225982666015625
1789058870625512200,6.86051220703125,-0.628204345703125,-0.78515625,-0.1859130859375
1789058870635523000,6.870523193359375,-1.489349365234375,-0.062164306640625,-0.06842041015625
1789058870645534000,6.880533935546875,-1.537841796875,-0.1312103271484375,0.0096588134765625
1789058870655545000,6.890545166015625,-0.9950714111328125,-0.5298004150390625,-0.0651092529296875
1789058870665557200,6.90055712890625,-0.51416015625,-0.6015777587890625,-0.0224609375
1789058870675568000,6.910568115234375,-0.1890869140625,-0.408935546875,-0.09588623046875
1789058870685579000,6.9205791015625,-0.3992156982421875,-0.149993896484375,-0.079742431640625
1789058870695590100,6.930590087890625,-0.7531280517578125,-0.515533447265625,0.135162353515625
1789058870705601000,6.94060107421875,-1.087615966796875,-0.2336883544921875,0.06256103515625
1789058870715612000,6.95061181640625,-1.643402099609375,-0.35107421875,-0.1695556640625
1789058870725623000,6.960623046875,-2.486846923828125,0.707000732421875,0.046478271484375
1789058870735635000,6.970635009765625,-0.830780029296875,-0.56414794921875,0.0192718505859375
1789058870745646000,6.98064599609375,-0.3404998779296875,-0.936309814453125,-0.0666961669921875
1789058870755657000,6.990656982421875,-0.7348175048828125,-0.749786376953125,0.011383056640625
1789058870765667800,7.000667724609375,-0.8146820068359375,-0.12213134765625,0.0025482177734375
1789058870775679200,7.01067919921875,-0.2907257080078125,-0.6661529541015625,0.128387451171875
1789058870785690000,7.020690185546875,-0.760406494140625,-0.2986297607421875,0.1147308349609375
1789058870795701000,7.030700927734375,-1.6257781982421875,0.1711273193359375,-0.089630126953125
1789058870805712000,7.0407119140625,-1.257843017578125,-0.495574951171875,-0.1830596923828125
1789058870815724000,7.05072412109375,-0.9614410400390625,-0.6068267822265625,0.243865966796875
1789058870825735200,7.060735107421875,-1.4612884521484375,0.1851959228515625,0.383148193359375
1789058870835746000,7.07074609375,-0.9327545166015625,-0.1544342041015625,0.07025146484375
1789058870845757000,7.0807568359375,-0.4173583984375,-0.4693603515625,-0.190399169921875
1789058870855768000,7.09076806640625,-0.05218505859375,-0.7540435791015625,0.1083221435546875
1789058870865779000,7.100779052734375,-0.850555419921875,-0.456207275390625,0.17535400390625
1789058870875790000,7.1107900390625,-1.48248291015625,-0.307403564453125,0.0483856201171875
1789058870885802000,7.120802001953125,-0.8329620361328125,-0.36834716796875,0.0691986083984375
1789058870895812900,7.130812744140625,-0.5117645263671875,-0.7012786865234375,-0.2677001953125
1789058870905824000,7.140823974609375,-1.2785186767578125,0.0287322998046875,-0.0228424072265625
1789058870915835100,7.150835205078125,-1.0488739013671875,0.4149169921875,0.068511962890625
1789058870925846000,7.160845947265625,-0.477203369140625,-0.5974578857421875,0.018585205078125
1789058870935857200,7.170857177734375,-0.4900054931640625,-0.9655303955078125,0.1241912841796875
1789058870945868000,7.180867919921875,-0.5745086669921875,-0.6253509521484375,-0.108551025390625
1789058870955879000,7.19087890625,-1.0932769775390625,0.0943145751953125,-0.0767669677734375
1789058870965891000,7.20089111328125,-1.618927001953125,-0.1506195068359375,-0.038818359375
1789058870975902200,7.210902099609375,-1.8361968994140625,-0.24224853515625,0.1343994140625
1789058870985913000,7.2209130859375,-1.2452239990234375,-0.5092010498046875,-0.099639892578125
1789058870995924000,7.230924072265625,-0.5234832763671875,-1.040802001953125,-0.1434783935546875
1789058871005934800,7.240934814453125,-0.4134368896484375,-0.39031982421875,-0.017669677734375
1789058871015946200,7.2509462890625,-0.8762969970703125,0.2315673828125,-0.0914306640625
1789058871025957000,7.26095703125,-1.1247711181640625,-0.35076904296875,-0.1262664794921875
1789058871035969000,7.270968994140625,-0.8644561767578125,-0.8383331298828125,-0.0247955322265625
1789058871045980000,7.28097998046875,-0.9878997802734375,-0.5669708251953125,-0.0508270263671875
1789058871055991000,7.290990966796875,-1.6234893798828125,0.2403564453125,-0.0243377685546875
1789058871066002200,7.301002197265625,-1.129119873046875,-0.236846923828125,0.0177459716796875
1789058871076013000,7.311012939453125,-0.7072601318359375,-0.717529296875,0.022705078125
1789058871086024000,7.32102392578125,-1.0454559326171875,-0.4707183837890625,-0.134674072265625
1789058871096034800,7.331034912109375,-0.9449310302734375,-0.2369232177734375,-0.06103515625
1789058871106045700,7.341045654296875,0.03753662109375,-0.649658203125,0.177154541015625
1789058871116057600,7.3510576171875,-0.5064544677734375,-0.3795623779296875,-0.0213470458984375
1789058871126068500,7.361068359375,-1.5372772216796875,0.15277099609375,-0.226898193359375
1789058871136080000,7.371079833984375,-1.4430999755859375,-0.084442138671875,-0.0678253173828125
1789058871146090800,7.3810908203125,-0.5875091552734375,-1.0374603271484375,-0.043548583984375
1789058871156101600,7.3911015625,-0.872589111328125,-0.291717529296875,0.09625244140625
1789058871166112800,7.40111279296875,-1.0587005615234375,0.4415130615234375,-0.0594482421875
1789058871176123600,7.41112353515625,-0.200439453125,-0.4315032958984375,0.110382080078125
1789058871186134800,7.421134765625,-0.5994110107421875,-0.83392333984375,0.0413360595703125
1789058871196146700,7.431146728515625,-1.9582672119140625,0.113128662109375,-0.418853759765625
1789058871206157600,7.441157470703125,-1.5642547607421875,-0.24334716796875,-0.0254364013671875
1789058871216168700,7.451168701171875,-1.148468017578125,-0.46270751953125,0.0070953369140625
1789058871226179600,7.4611796875,-1.242156982421875,-0.206146240234375,-0.0388336181640625
1789058871236190700,7.471190673828125,-0.2377471923828125,-0.5915069580078125,-0.0571136474609375
1789058871246201900,7.481201904296875,-0.012939453125,-0.8677825927734375,-0.065948486328125
1789058871256212700,7.491212646484375,-1.0575408935546875,-0.4567108154296875,0.0745849609375
1789058871266224600,7.501224609375,-1.388702392578125,-0.225067138671875,0.0271759033203125
1789058871276235500,7.511235595703125,-0.9676513671875,-0.429718017578125,-0.096771240234375
1789058871286246700,7.52124658203125,-1.1444244384765625,-0.4182281494140625,-0.154205322265625
1789058871296257800,7.5312578125,-0.756134033203125,-0.5913543701171875,-0.082611083984375
1789058871306268700,7.5412685546875,-0.154266357421875,-0.69476318359375,-0.0653076171875
1789058871316279600,7.551279541015625,-0.48968505859375,-0.1583709716796875,-0.0501251220703125
1789058871326290700,7.561290771484375,-1.396453857421875,0.432647705078125,0.15057373046875
1789058871336301800,7.5713017578125,-1.2727813720703125,-0.5594024658203125,0.078399658203125
1789058871346313700,7.581313720703125,-1.5187225341796875,-0.70208740234375,-0.116912841796875
1789058871356324600,7.59132470703125,-1.5279998779296875,-0.4206390380859375,0.1380767822265625
1789058871366335700,7.601335693359375,-0.93701171875,-0.3151092529296875,0.1187286376953125
1789058871376346600,7.6113466796875,-0.25958251953125,-0.3216705322265625,-0.113555908203125
1789058871386357800,7.621357666015625,-0.76409912109375,0.6488037109375,-0.1181793212890625
1789058871396368600,7.63136865234375,-0.428741455078125,-0.6728973388671875,0.0699920654296875
1789058871406379800,7.6413798828125,-0.754669189453125,-0.664093017578125,-0.00830078125
1789058871416390700,7.651390625,-0.944915771484375,-0.5167236328125,-0.0084228515625
1789058871426402800,7.66140283203125,-1.3857879638671875,0.1257476806640625,0.1938018798828125
1789058871436413700,7.67141357421875,-1.105743408203125,-0.4402313232421875,0.186614990234375
1789058871446424800,7.6814248046875,-1.034423828125,-0.31787109375,-0.114715576171875
1789058871456435700,7.691435791015625,-0.692962646484375,-0.19281005859375,-0.16241455078125
1789058871466446600,7.701446533203125,-0.3207855224609375,-0.62884521484375,-0.0980682373046875
1789058871476457500,7.71145751953125,-0.85015869140625,-0.603363037109375,0.059539794921875
1789058871486468900,7.72146875,-1.6649322509765625,0.272308349609375,0.0135650634765625
1789058871496480800,7.731480712890625,-1.401031494140625,-0.5001373291015625,0.283111572265625
1789058871506491600,7.74149169921875,-1.07196044921875,-1.0585174560546875,0.1777191162109375
1789058871516502500,7.75150244140625,-1.2344970703125,-0.3201751708984375,-0.191192626953125
1789058871526514000,7.761513916015625,-1.017425537109375,0.313385009765625,-0.155029296875
1789058871536524800,7.77152490234375,-0.594329833984375,-0.3248443603515625,-0.0141754150390625
1789058871546535700,7.78153564453125,-1.00347900390625,-0.4062347412109375,-0.10595703125
1789058871556546800,7.791546875,-0.9358062744140625,-0.2493743896484375,0.115478515625
1789058871566557700,7.8015576171875,-0.252593994140625,-1.015655517578125,0.1464080810546875
1789058871576569900,7.81156982421875,-0.714599609375,-0.495452880859375,-0.04864501953125
1789058871586580700,7.821580810546875,-1.0804290771484375,0.0791168212890625,-0.0596466064453125
1789058871596591600,7.831591552734375,-1.2852020263671875,0.4357452392578125,-0.1243896484375
1789058871606602800,7.841602783203125,-0.9205169677734375,-0.7425079345703125,-0.0637969970703125
1789058871616613600,7.851613525390625,-0.81732177734375,-0.8754425048828125,-0.1386566162109375
1789058871626624500,7.86162451171875,-0.7610321044921875,-0.641754150390625,0.0642242431640625
1789058871636636000,7.871635986328125,-1.08056640625,-0.2454376220703125,0.4740753173828125
1789058871646646800,7.881646728515625,-1.0643310546875,-0.057891845703125,0.2303009033203125
1789058871656658700,7.89165869140625,-0.778106689453125,-0.3277587890625,-0.32421875
1789058871666669600,7.901669677734375,-0.97308349609375,-0.18597412109375,-0.1385345458984375
1789058871676680700,7.9116806640625,-1.2778778076171875,-0.2886810302734375,0.0240478515625
1789058871686691800,7.92169189453125,-1.6907958984375,0.0240936279296875,-0.0907135009765625
1789058871696702700,7.93170263671875,-1.5766143798828125,-0.4599151611328125,-0.1501312255859375
1789058871706713600,7.941713623046875,-1.055084228515625,-0.5389862060546875,-0.0515594482421875
1789058871716724700,7.951724853515625,0.0366973876953125,-1.02398681640625,0.0314483642578125
1789058871726735600,7.961735595703125,0.0496368408203125,-0.264068603515625,-0.0858001708984375
1789058871736747800,7.971747802734375,-0.8177490234375,0.2173919677734375,-0.1214141845703125
1789058871746758700,7.981758544921875,-1.386383056640625,0.1445159912109375,-0.1088714599609375
1789058871756769500,7.99176953125,-0.87469482421875,-0.9754638671875,-0.1086578369140625
1789058871766780700,8.00178076171875,-1.3857269287109375,-0.841400146484375,-0.134490966796875
1789058871776791800,8.011791748046875,-1.7040863037109375,-0.3302459716796875,-0.0799713134765625
1789058871786802700,8.021802734375,-0.2637786865234375,-0.75787353515625,-0.0167083740234375
1789058871796813800,8.031813720703125,-0.1663665771484375,-0.2170562744140625,-0.1405792236328125
1789058871806825700,8.04182568359375,-0.666107177734375,-0.236602783203125,-0.03485107421875
1789058871816836600,8.051836669921874,-1.164398193359375,0.1480865478515625,-0.0469970703125
1789058871826847700,8.06184765625,-0.6261444091796875,-0.98626708984375,-0.1088409423828125
1789058871836858600,8.071858642578125,-1.4174652099609375,-0.048248291015625,-0.2165374755859375
1789058871846869800,8.081869873046875,-1.295654296875,-0.5270843505859375,-0.0273590087890625
1789058871856880600,8.091880615234375,-0.706207275390625,-0.0378265380859375,-0.1619415283203125
1789058871866891500,8.1018916015625,-0.1486968994140625,-0.55029296875,-0.0410003662109375
1789058871876902700,8.111902587890626,-1.2975616455078125,0.2028961181640625,-0.067291259765625
1789058871886914800,8.121914794921874,-1.4630584716796875,-0.30615234375,-0.1402740478515625
1789058871896925700,8.13192578125,-1.1333465576171875,-0.4346771240234375,-0.0566253662109375
1789058871906936600,8.1419365234375,-0.8430633544921875,-0.4551849365234375,-0.327117919921875
1789058871916947700,8.15194775390625,-0.6683502197265625,-0.5921478271484375,0.02691650390625
1789058871926958800,8.161958740234375,-0.457061767578125,-0.6040191650390625,0.4006195068359375
1789058871936969700,8.1719697265625,-1.078369140625,0.038238525390625,-0.238128662109375
1789058871946980600,8.181980712890624,-1.5655670166015625,-0.0905914306640625,-0.069122314453125
1789058871956991700,8.19199169921875,-1.2995452880859375,-0.370269775390625,0.0942535400390625
1789058871967003600,8.202003662109375,-0.4239501953125,-1.150909423828125,-0.0540313720703125
1789058871977014800,8.212014892578125,-0.6841583251953125,-0.6888427734375,0.0701751708984375
1789058871987025700,8.222025634765625,-1.0945281982421875,-0.2937164306640625,-0.0066375732421875
1789058871997036800,8.232036865234376,-0.844696044921875,-0.1708221435546875,0.05377197265625
1789058872007047700,8.242047607421876,-1.2885894775390625,0.4495086669921875,-0.0761871337890625
1789058872017058600,8.25205859375,-1.3607635498046875,-0.0433197021484375,0.16558837890625
1789058872027069700,8.262069580078125,-0.7470245361328125,-1.0385589599609375,0.2238616943359375
1789058872037080800,8.272080810546875,-0.3409271240234375,-0.92706298828125,-0.0466461181640625
1789058872047092700,8.2820927734375,-0.705291748046875,-0.3925628662109375,-0.0860137939453125
1789058872057103600,8.292103515625,-1.403076171875,0.312255859375,-0.0793304443359375
1789058872067114500,8.302114501953126,-0.931549072265625,-0.2036285400390625,0.0740203857421875
1789058872077126000,8.3121259765625,-0.9445648193359375,-0.3607635498046875,-0.003204345703125
1789058872087136800,8.32213671875,-0.9574432373046875,-0.1941375732421875,0.0086517333984375
1789058872097147100,8.332147216796875,-0.688690185546875,-0.607513427734375,0.0815582275390625
1789058872107158500,8.342158447265625,-0.9334716796875,-0.1259765625,-0.02899169921875
1789058872117169400,8.35216943359375,-1.2327880859375,-0.1301116943359375,-0.1593475341796875
1789058872127181300,8.362181396484376,-1.1918487548828125,-0.51177978515625,-0.03131103515625
1789058872137192200,8.372192138671876,-0.5330657958984375,-0.860076904296875,0.1132965087890625
1789058872147203300,8.382203369140624,-0.5729827880859375,-0.2425689697265625,0.06402587890625
1789058872157214500,8.39221435546875,-0.9762115478515625,0.2235260009765625,-0.0178375244140625
1789058872167225300,8.402225341796875,-0.9437255859375,-0.4278411865234375,-0.13055419921875
1789058872177236200,8.412236328125,-0.9157257080078125,-0.69573974609375,-0.0476226806640625
1789058872187247400,8.422247314453125,-1.673980712890625,-0.3414306640625,-0.0124359130859375
1789058872197258200,8.43225830078125,-1.5067138671875,-0.45416259765625,-0.0206756591796875
1789058872207270400,8.4422705078125,-0.499908447265625,-0.6527862548828125,0.0364532470703125
1789058872217281300,8.45228125,-0.6132965087890625,-0.4066314697265625,-0.05328369140625
1789058872227292400,8.46229248046875,-0.856903076171875,-0.127899169921875,-0.0532379150390625
1789058872237303300,8.47230322265625,-0.3885955810546875,-0.61944580078125,0.124420166015625
1789058872247314200,8.482314208984375,-0.4575653076171875,-0.43701171875,0.051422119140625
1789058872257325300,8.4923251953125,-1.09539794921875,-0.2518463134765625,-0.1069183349609375
1789058872267336400,8.50233642578125,-1.393798828125,-0.4104766845703125,0.0072021484375
1789058872277348400,8.512348388671874,-1.280670166015625,-0.3004913330078125,0.039276123046875
1789058872287359200,8.522359130859375,-0.986328125,-0.514739990234375,-0.1358489990234375
1789058872297370400,8.532370361328125,-1.36187744140625,0.1402435302734375,-0.1090240478515625
1789058872307381500,8.542381591796875,-0.9314727783203125,-0.4274749755859375,0.0442047119140625
1789058872317392400,8.552392333984375,-0.763458251953125,-0.2454681396484375,-0.08758544921875
1789058872327403300,8.5624033203125,-0.465850830078125,-0.18890380859375,-0.2365875244140625
1789058872337414100,8.5724140625,-0.024078369140625,-0.8638916015625,-0.225982666015625
1789058872347425300,8.58242529296875,-0.583282470703125,-0.6667938232421875,0.0132598876953125
1789058872357437400,8.5924375,-2.1370391845703125,0.194122314453125,0.2606048583984375
1789058872367448300,8.6024482421875,-2.247344970703125,0.328460693359375,0.13031005859375
1789058872377459200,8.612459228515625,-1.0198822021484375,-0.7344970703125,-0.2094573974609375
1789058872387470300,8.62247021484375,-0.3120574951171875,-0.6266326904296875,-0.23272705078125
1789058872397481500,8.6324814453125,-0.44830322265625,-0.2047271728515625,-0.05438232421875
1789058872407492400,8.642492431640624,-0.0851593017578125,-0.701324462890625,0.1049346923828125
1789058872417503200,8.652503173828125,-0.7993927001953125,-0.4296722412109375,0.0850982666015625
1789058872427514400,8.662514404296875,-1.55615234375,-0.2589569091796875,0.090118408203125
1789058872437526300,8.6725263671875,-1.627227783203125,0.388214111328125,-0.1344146728515625
1789058872447537400,8.682537353515626,-0.58026123046875,-0.9674072265625,-0.07940673828125
1789058872457548300,8.69254833984375,-0.795806884765625,-0.6789703369140625,0.2234649658203125
1789058872467559400,8.702559326171874,-0.8839263916015625,-0.2183074951171875,0.052215576171875
1789058872477570300,8.7125703125,-0.4811859130859375,-0.68206787109375,0.0197906494140625
1789058872487581200,8.722581298828125,-0.362396240234375,-0.8527374267578125,-0.1644134521484375
1789058872497592300,8.73259228515625,-1.4913177490234375,0.1463775634765625,-0.1383056640625
1789058872507603500,8.742603515625,-1.6171112060546875,0.2799835205078125,-0.057891845703125
1789058872517615400,8.752615478515626,-1.3865966796875,-0.290679931640625,-0.037322998046875
1789058872527626200,8.762626220703124,-1.186248779296875,-0.62945556640625,-0.1625823974609375
1789058872537637000,8.77263720703125,-0.68133544921875,-0.5219879150390625,-0.217437744140625
1789058872547648500,8.7826484375,-0.292205810546875,-0.314849853515625,0.0457000732421875
1789058872557659400,8.792659423828125,-0.1041259765625,-0.644744873046875,-0.0052642822265625
1789058872567670300,8.802670166015625,-1.11578369140625,0.03076171875,-0.144012451171875
1789058872577681400,8.812681396484376,-1.4080047607421875,-0.1766204833984375,-0.0715789794921875
1789058872587692300,8.8226923828125,-1.041046142578125,-0.6882781982421875,-0.1032562255859375
1789058872597704400,8.832704345703124,-0.56640625,-1.03125,-0.1647186279296875
1789058872607715300,8.84271533203125,-0.7662506103515625,-0.3043365478515625,-0.0240936279296875
1789058872617726200,8.852726318359375,-1.72021484375,0.4591522216796875,-0.184417724609375
1789058872627737300,8.8627373046875,-1.8664093017578125,0.3022918701171875,-0.1249542236328125
1789058872637748200,8.872748291015625,-0.550811767578125,-0.636138916015625,-0.049957275390625
1789058872647759400,8.88275927734375,0.3727569580078125,-1.506988525390625,-0.01568603515625
1789058872657770500,8.8927705078125,-0.1526336669921875,-0.8233795166015625,0.0576934814453125
1789058872667781400,8.902781494140624,-1.175445556640625,0.3527679443359375,-0.033905029296875
1789058872677793300,8.912793212890625,-1.3109283447265625,0.179718017578125,-0.078582763671875
1789058872687804200,8.92280419921875,-1.85455322265625,-0.033538818359375,-0.078948974609375
1789058872697815300,8.932815185546875,-1.68487548828125,-0.661285400390625,-0.0585784912109375
1789058872707826400,8.942826416015626,-0.7922210693359375,-0.6988983154296875,0.05816650390625
1789058872717837300,8.95283740234375,0.1764068603515625,-1.0467529296875,0.198394775390625
1789058872727848200,8.96284814453125,-0.63201904296875,-0.0086822509765625,-0.10711669921875
1789058872737859300,8.972859375,-0.9684295654296875,0.1818084716796875,-0.1061553955078125
1789058872747870200,8.9828701171875,-0.87103271484375,-0.295257568359375,-0.0484771728515625
1789058872757882400,8.99288232421875,-0.948028564453125,-0.72833251953125,-0.0521240234375
1789058872767893200,9.002893310546876,-1.360382080078125,-0.220611572265625,-0.0162200927734375
1789058872777904400,9.012904296875,-0.877655029296875,-0.4020843505859375,0.173919677734375
1789058872787915300,9.022915283203124,-0.8974761962890625,-0.3391571044921875,0.2311553955078125
1789058872797926400,9.032926513671875,-0.81195068359375,-0.8565521240234375,0.073638916015625
1789058872807937300,9.042937255859375,-1.1285552978515625,-0.1780548095703125,-0.182037353515625
1789058872817948400,9.052948486328125,-0.2602691650390625,-1.071258544921875,0.0092620849609375
1789058872827959300,9.062959228515625,-0.7026824951171875,-0.115570068359375,0.00244140625
1789058872837971200,9.07297119140625,-1.289459228515625,0.1297149658203125,0.084197998046875
1789058872847982300,9.082982421875,-1.8943634033203125,0.3654937744140625,-0.0054473876953125
1789058872857993500,9.092993408203125,-1.4148406982421875,-0.5942230224609375,0.051513671875
1789058872868004400,9.10300439453125,-0.3352813720703125,-1.4370880126953125,0.0835723876953125
1789058872878015200,9.11301513671875,-0.5220794677734375,-0.20245361328125,0.0780792236328125
1789058872888026000,9.123026123046875,-0.569122314453125,-0.366607666015625,-0.03167724609375
1789058872898037500,9.13303759765625,-1.0791015625,0.205230712890625,-0.0366668701171875
1789058872908048400,9.14304833984375,-0.822357177734375,-0.6371002197265625,-0.05126953125
1789058872918060300,9.153060302734374,-1.2783966064453125,-0.4698944091796875,-0.09539794921875
1789058872928071200,9.1630712890625,-1.2851104736328125,-0.40521240234375,0.126495361328125
1789058872938082300,9.173082275390625,-0.9683074951171875,-0.0988311767578125,0.076934814453125
1789058872948093400,9.183093505859375,-0.57928466796875,-0.2924957275390625,0.018463134765625
1789058872958104300,9.193104248046875,-0.8515625,-0.4007720947265625,-0.07232666015625
1789058872968115500,9.203115478515626,-0.984222412109375,-0.4647064208984375,-0.00396728515625
1789058872978126300,9.213126220703124,-0.75946044921875,-0.686187744140625,0.0094146728515625
1789058872988137200,9.22313720703125,-0.887420654296875,-0.462799072265625,0.0687713623046875
1789058872998149400,9.2331494140625,-0.932830810546875,-0.574798583984375,0.14251708984375
1789058873008160300,9.24316015625,-1.0579833984375,0.0517120361328125,-0.0647735595703125
1789058873018171400,9.25317138671875,-0.756744384765625,-0.409912109375,0.043212890625
1789058873028182300,9.263182373046876,-0.888885498046875,-0.206634521484375,0.1057281494140625
1789058873038193200,9.273193115234376,-1.1705169677734375,-0.1628875732421875,-0.1097259521484375
1789058873048204500,9.28320458984375,-1.3495330810546875,-0.4920654296875,-0.0858612060546875
1789058873058215400,9.29321533203125,-1.07672119140625,-0.79193115234375,0.0148773193359375
1789058873068226300,9.303226318359375,-0.3173828125,-0.6834564208984375,0.001220703125
1789058873078238200,9.31323828125,-0.3225250244140625,0.362152099609375,0.0396270751953125
1789058873088249000,9.3232490234375,-0.99859619140625,0.1464080810546875,0.08502197265625
1789058873098260700,9.3332607421875,-1.28631591796875,-0.799652099609375,-0.0427703857421875
1789058873108272600,9.343272705078125,-1.2615203857421875,-1.1819915771484375,-0.22613525390625
1789058873118283500,9.353283447265625,-1.1554718017578125,-0.617767333984375,-0.1228790283203125
1789058873128294400,9.36329443359375,-1.06219482421875,-0.045257568359375,-0.088165283203125
1789058873138305500,9.373305419921875,-0.6819915771484375,-0.1254425048828125,-0.1082611083984375
1789058873148316700,9.383316650390626,-0.3328704833984375,-0.7305755615234375,0.0106964111328125
1789058873158327600,9.39332763671875,-0.7327728271484375,-0.5006103515625,-0.113983154296875
1789058873168338400,9.40333837890625,-0.8589324951171875,-0.519561767578125,-0.2178497314453125
1789058873178349600,9.413349609375,-0.8981781005859375,-0.0045318603515625,-0.0708770751953125
1789058873188361700,9.42336181640625,-0.889434814453125,-0.12640380859375,-0.004669189453125
1789058873198372600,9.43337255859375,-1.2041168212890625,-0.2273101806640625,-0.09814453125
1789058873208383500,9.443383544921875,-1.475616455078125,-0.5725250244140625,-0.048431396484375
1789058873218394600,9.45339453125,-1.2836151123046875,-0.6673126220703125,-0.052947998046875
1789058873228405500,9.463405517578124,-0.6549530029296875,-0.588104248046875,-0.0827178955078125
1789058873238416400,9.47341650390625,-0.638916015625,0.0920562744140625,-0.090240478515625
1789058873248427500,9.483427490234375,-0.56689453125,-0.601226806640625,-0.0689697265625
1789058873258438700,9.493438720703125,-1.0285491943359375,-0.1139984130859375,0.0263671875
1789058873268450600,9.503450439453125,-1.033782958984375,-0.3030242919921875,0.0681915283203125
1789058873278461400,9.51346142578125,-1.28021240234375,-0.1793365478515625,-0.1097564697265625
1789058873288472300,9.523472412109374,-1.039581298828125,-0.723114013671875,0.0330963134765625
1789058873298483700,9.533483642578124,-0.803955078125,-0.4725341796875,0.04107666015625
1789058873308494600,9.54349462890625,-0.634063720703125,-0.079620361328125,-0.016998291015625
1789058873318505500,9.55350537109375,-0.9436798095703125,-0.194580078125,-0.1629638671875
1789058873328516600,9.5635166015625,-1.1216278076171875,-0.5329742431640625,-0.2105712890625
1789058873338527500,9.573527587890625,-1.0410003662109375,-0.594329833984375,-0.0365142822265625
1789058873348539600,9.58353955078125,-1.1428985595703125,-0.45928955078125,0.1368408203125
1789058873358550500,9.593550537109374,-1.265289306640625,0.1075592041015625,-0.0751190185546875
1789058873368561400,9.6035615234375,-0.4920196533203125,-0.061248779296875,-0.0421600341796875
1789058873378572500,9.613572509765625,-0.09423828125,-0.6534271240234375,0.1559295654296875
1789058873388583400,9.62358349609375,-0.821685791015625,-0.8170318603515625,-0.017974853515625
1789058873398594600,9.633594482421875,-1.704864501953125,-0.2678375244140625,-0.18414306640625
1789058873408605700,9.643605712890626,-1.9533233642578125,0.1694793701171875,0.1020355224609375
1789058873418616600,9.653616455078126,-1.09002685546875,-0.649169921875,0.25604248046875
1789058873428627500,9.66362744140625,-0.7191162109375,-0.7175445556640625,0.0921173095703125
1789058873438638300,9.673638427734375,-0.232147216796875,-0.340240478515625,0.0674285888671875
1789058873448649700,9.683649658203125,0.2925567626953125,-0.5866241455078125,0.0373687744140625
1789058873458660600,9.69366064453125,-0.6536102294921875,-0.1375274658203125,-0.1014404296875
1789058873468671500,9.70367138671875,-1.7589569091796875,0.0194549560546875,-0.2098388671875
1789058873478683400,9.713683349609376,-1.725250244140625,-0.053985595703125,0.039703369140625
1789058873488694500,9.723694580078124,-1.0276947021484375,-1.2049407958984375,0.42730712890625
1789058873498705700,9.73370556640625,-1.2319488525390625,-0.43841552734375,0.228607177734375
1789058873508716500,9.743716552734375,-0.7613067626953125,-0.2835235595703125,-0.0271148681640625
1789058873518727400,9.7537275390625,-0.197601318359375,-0.441558837890625,0.0233001708984375
1789058873528738600,9.763738525390625,-0.6004486083984375,-0.5250701904296875,-0.1218414306640625
1789058873538749400,9.77374951171875,-1.1226348876953125,-0.378173828125,0.00592041015625
1789058873548760300,9.78376025390625,-1.039581298828125,-0.1862030029296875,0.04351806640625
1789058873558771700,9.793771728515624,-0.925994873046875,-0.6736602783203125,0.0907745361328125
1789058873568783600,9.80378369140625,-1.2727508544921875,-0.173858642578125,0.107421875
1789058873578794500,9.81379443359375,-0.8449859619140625,-0.516357421875,0.05877685546875
1789058873588805400,9.823805419921875,-0.981842041015625,-0.014862060546875,0.019500732421875
1789058873598816500,9.83381640625,-1.1323699951171875,-0.5685272216796875,-0.170196533203125
1789058873608827600,9.84382763671875,-1.1508636474609375,-0.2246856689453125,-0.236541748046875
1789058873618838500,9.853838623046874,-0.496917724609375,-0.618011474609375,0.2208099365234375
1789058873628849400,9.863849365234374,-0.1847991943359375,-0.3410186767578125,0.3668060302734375
1789058873638860500,9.873860595703125,-0.313507080078125,-0.4336090087890625,-0.154571533203125
1789058873648872700,9.883872802734375,-0.8322296142578125,-0.62554931640625,-0.1600189208984375
1789058873658883600,9.893883544921875,-1.5461273193359375,-0.3879547119140625,-0.0012359619140625
1789058873668894500,9.90389453125,-1.747283935546875,-0.4416046142578125,-0.120361328125
1789058873678905600,9.913905517578126,-1.27459716796875,-0.25189208984375,0.1238250732421875
1789058873688916500,9.92391650390625,-0.83453369140625,-0.0845184326171875,0.22772216796875
1789058873698927600,9.933927734375,-0.892608642578125,-0.01171875,-0.1390228271484375
1789058873708938500,9.9439384765625,-0.82061767578125,-0.717987060546875,-0.2228240966796875
1789058873718949600,9.95394970703125,-0.40692138671875,-1.1363525390625,-0.0443878173828125
1789058873728961500,9.96396142578125,-0.79241943359375,-0.0871734619140625,0.1039276123046875
1789058873738972400,9.973972412109376,-0.9044036865234375,0.010772705078125,0.011383056640625
1789058873748983600,9.983983642578124,-0.9753570556640625,-0.1530609130859375,-0.1595306396484375
1789058873758994700,9.99399462890625,-0.8931121826171875,-0.699554443359375,-0.0834808349609375
1789058873769005600,10.004005615234375,-1.296539306640625,-0.163726806640625,-0.1543426513671875
1789058873779016400,10.014016357421875,-0.9130401611328125,-0.4790191650390625,-0.0362548828125
1789058873789027300,10.02402734375,-0.414031982421875,-0.5443878173828125,-0.02392578125
1789058873799038700,10.034038818359376,-0.2407684326171875,-0.809783935546875,0.0155792236328125
1789058873809050600,10.044050537109374,-1.6163787841796875,-0.0408172607421875,-0.261260986328125
1789058873819061500,10.0540615234375,-2.27972412109375,0.117584228515625,-0.298858642578125
1789058873829072400,10.064072265625,-1.1116790771484375,-0.322967529296875,0.154388427734375
1789058873839083500,10.07408349609375,-0.333465576171875,-0.186553955078125,0.0638275146484375
1789058873849094700,10.0840947265625,-0.08233642578125,-0.6949920654296875,-0.0294036865234375
1789058873859105500,10.09410546875,-0.420562744140625,-0.6964569091796875,-0.0207061767578125
1789058873869116700,10.10411669921875,-0.722625732421875,-0.623565673828125,-0.0152587890625
1789058873879127600,10.11412744140625,-1.666961669921875,-0.0340118408203125,-0.0899505615234375
1789058873889138400,10.124138427734374,-1.6756439208984375,-0.3043975830078125,-0.1659698486328125
1789058873899150600,10.134150634765625,-1.001129150390625,-0.4683074951171875,0.151641845703125
1789058873909161500,10.144161376953125,-0.5237884521484375,-0.1624755859375,0.0908203125
1789058873919172600,10.154172607421875,-0.8516387939453125,0.2962646484375,-0.0577545166015625
1789058873929183500,10.16418359375,-0.477447509765625,-0.533050537109375,0.1487274169921875
1789058873939194400,10.1741943359375,-0.4434356689453125,-0.88165283203125,0.0313262939453125
1789058873949205800,10.184205810546874,-0.919586181640625,-0.4788970947265625,0.0708160400390625
1789058873959216600,10.194216552734375,-1.2209320068359375,-0.3830413818359375,0.044830322265625
1789058873969227500,10.2042275390625,-0.7595062255859375,-0.6036834716796875,0.06146240234375
1789058873979239400,10.214239501953125,-0.910400390625,-0.0771942138671875,0.0166473388671875
1789058873989250300,10.224250244140626,-1.596771240234375,0.2114410400390625,-0.0367584228515625
1789058873999261700,10.23426171875,-1.02471923828125,-1.0980072021484375,0.1789093017578125
1789058874009272600,10.2442724609375,-0.8453216552734375,-0.9476165771484375,-0.0001373291015625
1789058874019283500,10.254283447265625,-1.4405517578125,0.0128021240234375,-0.0535736083984375
1789058874029294600,10.264294677734375,-1.40289306640625,0.349761962890625,0.071807861328125
1789058874039305500,10.274305419921875,-0.2039794921875,-0.5497589111328125,0.156585693359375
1789058874049316600,10.284316650390625,-0.3134307861328125,-0.4387664794921875,-0.0372467041015625
1789058874059328500,10.29432861328125,-0.8619842529296875,-0.470245361328125,-0.1789093017578125
1789058874069339400,10.30433935546875,-1.1135711669921875,-0.4062957763671875,0.1871490478515625
1789058874079350500,10.3143505859375,-1.156524658203125,-0.374298095703125,0.042022705078125
1789058874089361400,10.324361328125,-1.181182861328125,-0.1822052001953125,-0.0662841796875
1789058874099372300,10.334372314453125,-0.7009429931640625,-0.76043701171875,0.12982177734375
1789058874109383400,10.344383544921875,-0.7451934814453125,-0.5009002685546875,0.071746826171875
1789058874119394300,10.354394287109375,-1.54583740234375,0.0758209228515625,-0.1333465576171875
1789058874129405200,10.3644052734375,-1.191436767578125,-0.2641143798828125,-0.124969482421875
1789058874139416300,10.374416259765624,-0.1969451904296875,-0.9566802978515625,0.1802825927734375
1789058874149428500,10.384428466796875,-0.37371826171875,-0.6248626708984375,0.36663818359375
1789058874159439400,10.394439453125,-1.4688720703125,0.1616973876953125,-0.1193084716796875
1789058874169450200,10.4044501953125,-1.372650146484375,-0.06439208984375,-0.092041015625
1789058874179461000,10.414461181640625,-0.5780181884765625,-0.5107421875,0.0732574462890625
1789058874189472500,10.424472412109376,-0.822723388671875,-0.4245452880859375,0.034271240234375
1789058874199483400,10.4344833984375,-0.8167877197265625,-0.6537322998046875,0.054595947265625
1789058874209494300,10.444494384765624,-1.1057586669921875,-0.090087890625,0.0565948486328125
1789058874219505400,10.45450537109375,-1.2937469482421875,-0.188446044921875,0.2352294921875
1789058874229516300,10.464516357421875,-1.363983154296875,-0.2027587890625,0.0157623291015625
1789058874239528400,10.474528564453125,-0.7154998779296875,-0.8065185546875,-0.0551300048828125
1789058874249539300,10.484539306640626,-0.767974853515625,-0.4697113037109375,0.0197296142578125
1789058874259550200,10.49455029296875,-1.066680908203125,-0.0198516845703125,0.0293426513671875
1789058874269561300,10.504561279296874,-0.4759521484375,-0.77313232421875,-0.124420166015625
1789058874279572200,10.514572265625,-0.6097564697265625,-0.593231201171875,-0.0470733642578125
1789058874289583000,10.5245830078125,-0.8597564697265625,-0.2936859130859375,-0.04833984375
1789058874299594500,10.534594482421875,-0.9998626708984375,-0.62890625,-0.084442138671875
1789058874309605400,10.54460546875,-1.0419921875,-0.651885986328125,-0.0742340087890625
1789058874319617300,10.5546171875,-0.8878021240234375,-0.3153228759765625,0.0000762939453125
1789058874329628200,10.564628173828124,-0.989837646484375,-0.0900726318359375,-0.318359375
1789058874339639600,10.5746396484375,-0.6442108154296875,-0.6954498291015625,-0.268646240234375
1789058874349650400,10.584650390625,-0.790618896484375,-0.34735107421875,-0.021881103515625
1789058874359661300,10.594661376953125,-1.3266754150390625,-0.045684814453125,-0.0831451416015625
1789058874369672200,10.604672119140625,-1.11712646484375,-0.5590972900390625,0.01123046875
1789058874379683300,10.614683349609376,-0.3018035888671875,-0.7897796630859375,0.00299072265625
1789058874389694200,10.624694091796876,-0.1270904541015625,-0.551239013671875,-0.2384185791015625
1789058874399705300,10.634705322265624,-1.06512451171875,-0.075714111328125,-0.1908111572265625
1789058874409717200,10.64471728515625,-0.980377197265625,-0.8472137451171875,-0.091796875
1789058874419728400,10.654728271484375,-1.23358154296875,-0.2947540283203125,-0.049652099609375
1789058874429739300,10.6647392578125,-1.83502197265625,0.8162078857421875,-0.0228424072265625
1789058874439750400,10.67475048828125,-1.2784881591796875,-0.345123291015625,0.07147216796875
1789058874449761300,10.68476123046875,-0.712493896484375,-1.1190948486328125,0.028106689453125
1789058874459772400,10.6947724609375,-0.631195068359375,-0.7152252197265625,0.0298309326171875
1789058874469783300,10.704783203125,-1.3384552001953125,0.1036376953125,-0.0802764892578125
1789058874479794200,10.714794189453125,-0.939727783203125,-0.580291748046875,-0.1335601806640625
1789058874489806300,10.724806396484375,-0.62078857421875,-0.2462005615234375,0.0291900634765625
1789058874499817500,10.7348173828125,-0.1982574462890625,-0.759674072265625,0.170562744140625
1789058874509828400,10.744828369140626,-0.67999267578125,-0.6279449462890625,0.06646728515625
1789058874519839200,10.754839111328126,-0.8469696044921875,-0.683197021484375,0.0659332275390625
1789058874529850400,10.764850341796874,-1.586395263671875,0.2211151123046875,-0.047576904296875
1789058874539861500,10.774861572265625,-1.7317962646484375,-0.24298095703125,-0.076995849609375
1789058874549872400,10.784872314453125,-1.22833251953125,-0.5586700439453125,0.01580810546875
1789058874559883300,10.79488330078125,-0.0469970703125,-0.7181243896484375,0.1459503173828125
1789058874569894400,10.804894287109375,-0.2049102783203125,-0.181793212890625,0.1435546875
1789058874579906300,10.81490625,-1.18316650390625,0.013946533203125,-0.1173095703125
1789058874589917400,10.82491748046875,-1.2138671875,-0.5749969482421875,-0.21002197265625
1789058874599928300,10.83492822265625,-1.2311553955078125,-0.061553955078125,-0.0072479248046875
1789058874609939500,10.844939453125,-0.8730316162109375,-0.54803466796875,0.1204681396484375
1789058874619950300,10.854950439453125,-0.8249359130859375,-0.2062225341796875,-0.12005615234375
1789058874629961200,10.864961181640625,-0.9026947021484375,-0.29248046875,0.0371246337890625
1789058874639972000,10.87497216796875,-0.9628448486328125,-0.5063629150390625,-0.018402099609375
1789058874649983500,10.8849833984375,-0.977447509765625,-0.718994140625,0.0486297607421875
1789058874659995400,10.894995361328125,-0.779144287109375,-0.3062896728515625,0.1203155517578125
1789058874670006300,10.90500634765625,-0.4801177978515625,0.2238311767578125,0.0635833740234375
1789058874680017200,10.91501708984375,-0.3699798583984375,-0.60601806640625,0.048797607421875
1789058874690028500,10.925028564453125,-1.212738037109375,-0.659423828125,0.1590118408203125
1789058874700039400,10.935039306640626,-1.7359466552734375,-0.2871551513671875,0.03173828125
1789058874710050300,10.94505029296875,-1.3874969482421875,0.1977386474609375,-0.1032562255859375
1789058874720061200,10.955061279296874,-0.359405517578125,-1.1466064453125,0.142425537109375
1789058874730072300,10.965072265625,-0.427947998046875,-0.8489227294921875,0.27740478515625
1789058874740083200,10.975083251953125,-0.866363525390625,-0.6299591064453125,-0.09674072265625
1789058874750095400,10.985095458984375,-0.9564666748046875,-0.3309783935546875,-0.17901611328125
1789058874760106200,10.995106201171875,-1.0069427490234375,-0.2823486328125,0.0539398193359375
1789058874770117400,11.005117431640626,-1.4965667724609375,0.252197265625,0.086883544921875
1789058874780128300,11.015128173828124,-1.3545379638671875,0.0785064697265625,-0.0409088134765625
1789058874790139400,11.025139404296874,-0.466949462890625,-0.8557281494140625,0.12860107421875
1789058874800150300,11.035150390625,-0.8276519775390625,-0.5620880126953125,0.1271514892578125
1789058874810161400,11.045161376953125,-1.132110595703125,-0.4997100830078125,-0.1793365478515625
1789058874820172300,11.05517236328125,-0.9300994873046875,-0.512115478515625,-0.1461944580078125
1789058874830183200,11.06518310546875,-0.4781494140625,-0.6752166748046875,0.054840087890625
1789058874840195300,11.0751953125,-0.9990386962890625,0.0962982177734375,0.079010009765625
1789058874850206500,11.08520654296875,-1.278350830078125,0.216949462890625,0.0289154052734375
1789058874860217300,11.09521728515625,-1.0980682373046875,-0.4255218505859375,-0.03253173828125
1789058874870228200,11.105228271484375,-1.243194580078125,-0.5930023193359375,0.042083740234375
1789058874880239400,11.1152392578125,-1.28857421875,-0.2658233642578125,-0.00506591796875
1789058874890250200,11.125250244140625,-0.443603515625,-0.659759521484375,-0.0099945068359375
1789058874900261400,11.135261474609376,-0.0892333984375,-0.962005615234375,0.0248565673828125
1789058874910272300,11.145272216796876,-0.7762908935546875,-0.53228759765625,-0.127349853515625
1789058874920284200,11.1552841796875,-1.4342803955078125,0.1791839599609375,-0.12677001953125
1789058874930295300,11.16529541015625,-0.7432098388671875,-0.3111572265625,-0.078826904296875
1789058874940306400,11.175306396484375,-0.5044708251953125,-0.13616943359375,0.1289520263671875
1789058874950317300,11.1853173828125,-0.679656982421875,-0.1250762939453125,0.0558013916015625
1789058874960328400,11.195328369140626,-0.78826904296875,-0.70159912109375,-0.149932861328125
1789058874970339300,11.20533935546875,-1.2215423583984375,-0.7671661376953125,-0.0484161376953125
1789058874980350200,11.21535009765625,-1.5703582763671875,-0.19952392578125,-0.162750244140625
1789058874990361000,11.225361083984374,-0.9990692138671875,-0.2935943603515625,-0.0042572021484375
1789058875000372500,11.23537255859375,-0.3146820068359375,-0.09796142578125,-0.129913330078125
1789058875010384400,11.24538427734375,-0.2090301513671875,-0.7147979736328125,-0.025848388671875
1789058875020395300,11.255395263671875,-1.360382080078125,-0.2706298828125,0.1132659912109375
1789058875030406100,11.26540625,-1.504058837890625,-0.361083984375,-0.0916748046875
1789058875040417500,11.27541748046875,-1.4736175537109375,-0.216094970703125,-0.036590576171875
1789058875050428400,11.285428466796875,-0.896697998046875,-0.6766204833984375,-0.0312347412109375
1789058875060439300,11.295439208984375,-0.3866729736328125,-0.695587158203125,-0.1336212158203125
1789058875070450400,11.305450439453125,-0.1548919677734375,-0.1619415283203125,-0.2667388916015625
1789058875080461300,11.31546142578125,-0.7760772705078125,-0.4795684814453125,-0.2365264892578125
1789058875090472200,11.32547216796875,-1.7784576416015625,-0.1051025390625,-0.146484375
1789058875100484000,11.335484130859374,-1.2890167236328125,-0.4076385498046875,-0.0474853515625
1789058875110495000,11.345494873046874,-1.0543365478515625,-0.103424072265625,0.0390625
1789058875120506000,11.355506103515625,-0.5781707763671875,-0.67645263671875,-0.01031494140625
1789058875130517000,11.36551708984375,-0.5074310302734375,-0.635162353515625,-0.1642913818359375
1789058875140527900,11.37552783203125,-0.3353729248046875,-0.5077056884765625,-0.1697998046875
1789058875150539300,11.385539306640625,-0.958038330078125,-0.5137176513671875,-0.0229644775390625
1789058875160550100,11.395550048828126,-1.6613616943359375,-0.1840057373046875,0.1332855224609375
1789058875170561000,11.40556103515625,-1.953216552734375,0.0121307373046875,0.126129150390625
1789058875180572200,11.415572265625,-1.5557403564453125,-0.0812835693359375,0.039581298828125
1789058875190584000,11.425583984375,-0.6757965087890625,-0.6605987548828125,-0.01385498046875
1789058875200595200,11.43559521484375,-0.06878662109375,-0.689208984375,-0.1388092041015625
1789058875210606000,11.445606201171875,-0.1517333984375,-0.1293182373046875,-0.0149383544921875
1789058875220617000,11.455616943359376,-0.9000396728515625,0.0838775634765625,-0.0765228271484375
1789058875230628000,11.465628173828126,-1.8951416015625,-0.0387725830078125,-0.1620635986328125
1789058875240639000,11.475638916015624,-1.3333587646484375,-0.742034912109375,0.0644073486328125
1789058875250650000,11.485650146484375,-0.4753875732421875,-1.04522705078125,0.099609375
1789058875260661200,11.4956611328125,-0.2478179931640625,-0.5312957763671875,0.1278839111328125
1789058875270672100,11.505672119140625,-0.4345703125,-0.01788330078125,-0.0772857666015625
1789058875280684000,11.51568408203125,-0.9708404541015625,0.421722412109375,-0.110595703125
1789058875290695200,11.525695068359376,-0.975067138671875,-0.6387481689453125,-0.20867919921875
1789058875300706000,11.5357060546875,-1.0484619140625,-1.2805328369140625,-0.07525634765625
1789058875310717200,11.54571728515625,-1.3518524169921875,-0.3535614013671875,0.1004180908203125
1789058875320728000,11.55572802734375,-1.058135986328125,-0.006683349609375,0.094970703125
1789058875330739000,11.565739013671875,-0.894287109375,-0.2700653076171875,0.06768798828125
1789058875340750000,11.57575,-1.16448974609375,-0.4656982421875,-0.28729248046875
1789058875350761200,11.58576123046875,-1.44952392578125,0.2079620361328125,-0.2318572998046875
1789058875360773000,11.595773193359374,-0.5662078857421875,-1.1260986328125,-0.2786712646484375
1789058875370784000,11.605783935546874,-0.373138427734375,-0.9573211669921875,0.033447265625
1789058875380795000,11.615794921875,-0.8089141845703125,0.069671630859375,0.2242889404296875
1789058875390806000,11.625805908203125,-1.03289794921875,0.04302978515625,-0.08135986328125
1789058875400817200,11.635817138671875,-1.1579132080078125,-0.588592529296875,0.10498046875
1789058875410828000,11.645828125,-1.4648284912109375,-0.3314971923828125,-0.112060546875
1789058875420839200,11.655839111328126,-1.3734130859375,-0.0951385498046875,-0.1280059814453125
1789058875430850000,11.66585009765625,-0.4138641357421875,-0.6883087158203125,-0.0425262451171875
1789058875440861000,11.67586083984375,-0.0263519287109375,-0.7967681884765625,0.1364593505859375
1789058875450873000,11.685873046875,-0.43048095703125,-0.3828125,0.125732421875
1789058875460884000,11.695884033203125,-0.9949188232421875,-0.405242919921875,0.1064910888671875
1789058875470895000,11.70589501953125,-1.4775390625,-0.53179931640625,0.0565185546875
1789058875480906000,11.715906005859376,-1.9135894775390625,0.351959228515625,0.0000457763671875
1789058875490916900,11.725916748046876,-1.62701416015625,0.463104248046875,-0.1290740966796875
1789058875500928300,11.73592822265625,-0.720184326171875,-1.1439361572265625,-0.1467742919921875
1789058875510939100,11.745939208984375,-1.0283660888671875,-0.749298095703125,0.1216583251953125
1789058875520950000,11.755949951171875,-1.180023193359375,-0.2124176025390625,0.0833282470703125
1789058875530961200,11.765961181640625,-0.600250244140625,-0.141265869140625,-0.1854248046875
1789058875540973300,11.775973388671876,0.2793121337890625,-0.6284942626953125,-0.1584014892578125
1789058875550984200,11.785984130859376,-0.3082275390625,0.1688385009765625,-0.0571441650390625
1789058875560995000,11.7959951171875,-1.382293701171875,-0.019195556640625,-0.116180419921875
1789058875571006000,11.806005859375,-1.481536865234375,-0.5706024169921875,-0.08563232421875
1789058875581017000,11.81601708984375,-1.3522186279296875,-1.0034332275390625,0.0572967529296875
1789058875591028000,11.826028076171875,-1.621246337890625,-0.0551300048828125,0.02349853515625
1789058875601039000,11.8360390625,-0.724853515625,-0.4185333251953125,-0.171905517578125
1789058875611050200,11.84605029296875,0.3600311279296875,-0.852081298828125,-0.2069244384765625
1789058875621061000,11.85606103515625,-0.2163848876953125,-0.43359375,-0.0943145751953125
1789058875631073000,11.866072998046874,-1.3076629638671875,-0.189910888671875,-0.0843353271484375
1789058875641084000,11.876083984375,-1.3131103515625,-0.4173126220703125,0.13079833984375
1789058875651095000,11.886094970703125,-1.380615234375,-0.314117431640625,-0.0294189453125
1789058875661106200,11.896106201171875,-1.050537109375,-0.335357666015625,-0.0532684326171875
1789058875671117000,11.906116943359375,-0.5819244384765625,-0.354766845703125,-0.01300048828125
1789058875681128000,11.9161279296875,-0.5973663330078125,-0.2306976318359375,-0.1160888671875
1789058875691139000,11.92613916015625,-1.47332763671875,-0.13275146484375,0.1502838134765625
1789058875701150200,11.936150146484374,-1.4275054931640625,-0.7824554443359375,0.1908111572265625
1789058875711161000,11.9461611328125,-0.5502166748046875,-0.820343017578125,-0.0751800537109375
1789058875721172000,11.956171875,-0.351043701171875,-0.2639007568359375,-0.1750030517578125
1789058875731184000,11.96618408203125,-0.455322265625,0.181915283203125,-0.103668212890625
1789058875741195000,11.976195068359376,-0.1998291015625,-0.7623138427734375,-0.0380401611328125
1789058875751206100,11.9862060546875,-0.6300811767578125,-0.37615966796875,0.05096435546875
1789058875761217000,11.996217041015624,-1.2454986572265625,-0.3478546142578125,0.1293487548828125
1789058875771228200,12.006228271484375,-1.2594451904296875,-0.581817626953125,-0.1304931640625
1789058875781239000,12.016239013671875,-2.0265655517578125,-0.0597991943359375,-0.024383544921875
1789058875791250000,12.02625,-3.040557861328125,0.3962860107421875,-0.2053375244140625
1789058875801261300,12.03626123046875,-1.723968505859375,-0.66644287109375,-0.153900146484375
1789058875811272200,12.046272216796876,0.275634765625,-1.19873046875,0.014404296875
1789058875821284000,12.0562841796875,0.0898895263671875,0.081512451171875,0.023406982421875
1789058875831295000,12.066294921875,-0.3903961181640625,0.2850189208984375,0.004791259765625
1789058875841305900,12.076305908203125,-0.4797821044921875,-0.3690032958984375,0.03936767578125
1789058875851317200,12.086317138671875,-0.4097900390625,-1.14593505859375,0.24761962890625
1789058875861328100,12.096328125,-1.3618621826171875,-0.4955291748046875,0.113922119140625
1789058875871339000,12.106339111328126,-1.61309814453125,-0.4519805908203125,0.15460205078125
1789058875881350100,12.11635009765625,-1.771270751953125,0.093841552734375,-0.1893310546875
1789058875891361000,12.126361083984374,-1.4138031005859375,0.1952056884765625,-0.177337646484375
1789058875901372000,12.136371826171874,-0.561737060546875,-0.554779052734375,0.0768585205078125
1789058875911384000,12.146384033203125,0,-1.116455078125,0.236663818359375
1789058875921395000,12.15639501953125,-0.5539703369140625,-0.2181854248046875,-0.02215576171875
1789058875931406000,12.166406005859375,-0.6577301025390625,0.000457763671875,-0.168212890625
1789058875941417000,12.1764169921875,-1.2235107421875,-0.302459716796875,-0.050628662109375
1789058875951428000,12.186427978515624,-1.398162841796875,-0.5257720947265625,-0.071502685546875
1789058875961439200,12.196439208984375,-0.9002532958984375,-0.8612060546875,-0.0793609619140625
1789058875971450000,12.2064501953125,-0.66046142578125,-0.559967041015625,0.0386505126953125
1789058875981461000,12.2164609375,-0.77490234375,-0.2236785888671875,0.0808258056640625
1789058875991472000,12.22647216796875,-0.689178466796875,-0.1458282470703125,-0.0547332763671875
1789058876001483000,12.23648291015625,-0.0506591796875,-0.6315155029296875,0.01519775390625
1789058876011495200,12.2464951171875,-0.2438201904296875,-0.6855316162109375,0.025115966796875
1789058876021506000,12.256506103515624,-1.997314453125,0.4672088623046875,-0.031280517578125
1789058876031517000,12.266516845703125,-1.73321533203125,0.14276123046875,-0.1392669677734375
1789058876041528000,12.276528076171875,-0.355377197265625,-0.611663818359375,-0.0341949462890625
1789058876051539200,12.286539306640625,-0.719635009765625,-1.121826171875,-0.1225738525390625
1789058876061550000,12.296550048828125,-1.8292083740234375,-0.5618438720703125,-0.181060791015625
1789058876071561200,12.306561279296876,-1.7388916015625,-0.58477783203125,-0.1817169189453125
1789058876081572000,12.316572021484374,-1.4221343994140625,-0.3754119873046875,0.1530609130859375
1789058876091583000,12.3265830078125,-0.6651763916015625,-0.4420623779296875,0.309356689453125
1789058876101595100,12.33659521484375,-0.1084136962890625,-0.337066650390625,0.09442138671875
1789058876111606300,12.346606201171875,-0.7464447021484375,-0.2452392578125,-0.1800079345703125
1789058876121617400,12.356617431640625,-1.42022705078125,0.137359619140625,-0.1824798583984375
1789058876131628300,12.366628173828126,-0.972442626953125,-0.80322265625,-0.1928863525390625
1789058876141639200,12.37663916015625,-0.69146728515625,-0.63836669921875,0.055267333984375
1789058876151650300,12.386650390625,-0.365447998046875,-0.3019866943359375,0.2024993896484375
1789058876161661400,12.396661376953125,-0.399139404296875,-0.733978271484375,0.2335662841796875
1789058876171672300,12.40667236328125,-1.9009857177734375,-0.1552581787109375,0.046905517578125
1789058876181683200,12.41668310546875,-1.9614410400390625,0.2350616455078125,-0.0864105224609375
1789058876191695000,12.426695068359376,-0.740020751953125,-0.50250244140625,0.0226898193359375
1789058876201706200,12.436706298828126,0.285186767578125,-1.1472625732421875,0.1447601318359375
1789058876211717400,12.44671728515625,-0.0731048583984375,-0.69085693359375,0.1171875
1789058876221728300,12.456728271484375,-0.6848602294921875,-0.038177490234375,-0.20306396484375
1789058876231739400,12.466739501953125,-0.6771697998046875,-0.2313385009765625,-0.105224609375
1789058876241750300,12.476750244140625,-1.4471282958984375,0.298919677734375,0.0695037841796875
1789058876251761200,12.48676123046875,-1.1337890625,-0.059814453125,-0.14166259765625
1789058876261772300,12.496772216796876,-0.625640869140625,-0.7651214599609375,0.0436859130859375
1789058876271783400,12.506783447265626,-1.21234130859375,-0.8529510498046875,0.1500396728515625
1789058876281794300,12.516794189453124,-1.84246826171875,0.03265380859375,-0.1393890380859375
1789058876291806200,12.52680615234375,-1.147430419921875,0.1794281005859375,-0.0121307373046875
1789058876301817000,12.536817138671875,-0.63018798828125,-0.3243408203125,0.228790283203125
1789058876311828500,12.546828369140625,-0.392852783203125,-0.7456512451171875,0.235382080078125
1789058876321839400,12.55683935546875,0.4690399169921875,-1.5255889892578125,-0.1277618408203125
1789058876331850200,12.566850341796876,-0.2967376708984375,-0.6443328857421875,0.120819091796875
1789058876341861400,12.576861328125,-1.5572357177734375,-0.366668701171875,0.3573150634765625
1789058876351872300,12.586872314453124,-1.48394775390625,-0.3036346435546875,-0.04925537109375
1789058876361883100,12.596883056640625,-1.815155029296875,-0.044525146484375,-0.2227020263671875
1789058876371894300,12.606894287109375,-1.5906219482421875,-0.160736083984375,0.0937957763671875
1789058876381906200,12.61690625,-0.489715576171875,-0.6205902099609375,0.0242919921875
1789058876391917300,12.626917236328126,-0.4611663818359375,-0.666839599609375,-0.000762939453125
1789058876401928200,12.63692822265625,-1.48388671875,0.224395751953125,0.0771331787109375
1789058876411939300,12.646939208984374,-1.3608245849609375,-0.0689697265625,0.19189453125
1789058876421950500,12.656950439453125,-1.1421966552734375,-0.66339111328125,-0.2464447021484375
1789058876431961300,12.66696142578125,-1.184112548828125,-0.08245849609375,-0.2977142333984375
1789058876441972200,12.67697216796875,-0.541595458984375,-0.618743896484375,-0.122344970703125
1789058876451983000,12.686983154296875,-0.3820953369140625,-0.675933837890625,-0.0474700927734375
1789058876461994200,12.696994140625,-0.5896453857421875,-0.2952880859375,0.1752471923828125
1789058876472005400,12.70700537109375,-1.358062744140625,0.577392578125,-0.026092529296875
1789058876482017300,12.717017333984375,-0.7757720947265625,-0.8764801025390625,0.077850341796875
1789058876492028200,12.727028076171875,-0.391510009765625,-1.204376220703125,-0.16192626953125
1789058876502039300,12.737039306640625,-1.3407440185546875,0.246002197265625,-0.2509765625
1789058876512050400,12.747050537109375,-1.4071807861328125,0.3141326904296875,-0.023223876953125
1789058876522061300,12.757061279296876,-0.357635498046875,-0.3490753173828125,-0.1493072509765625
1789058876532072200,12.767072265625,-0.4475555419921875,-0.46746826171875,-0.04449462890625
1789058876542083300,12.777083251953124,-1.4779510498046875,0.3158721923828125,0.12860107421875
1789058876552094200,12.78709423828125,-0.6927642822265625,-1.339874267578125,0.095794677734375
1789058876562105000,12.79710498046875,-0.5334320068359375,-1.58673095703125,0.10650634765625
1789058876572117200,12.8071171875,-1.583160400390625,-0.1512451171875,-0.0941009521484375
1789058876582128400,12.81712841796875,-1.5908966064453125,0.3519287109375,0.08575439453125
1789058876592139300,12.82713916015625,-0.424774169921875,-0.463653564453125,0.065704345703125
1789058876602150100,12.837150146484374,-0.8397979736328125,0.415252685546875,0.0160064697265625
1789058876612161300,12.847161376953125,-1.0401153564453125,-0.35321044921875,-0.2100677490234375
1789058876622172400,12.85717236328125,-0.7512664794921875,-1.03863525390625,-0.0218658447265625
1789058876632183300,12.867183349609375,-0.3430633544921875,-0.881378173828125,0.2147369384765625
1789058876642194200,12.877194091796875,-0.3694915771484375,-0.9698944091796875,-0.4522857666015625
