time,seconds_elapsed,z,y,x
1789058863827943400,0.062943359375,-0.49654558300971985,-0.006622216198593378,0.12360849231481552
1789058863837954300,0.072954345703125,-0.5196887254714966,0.005320196971297264,0.03957989811897278
1789058863847965200,0.082965087890625,-0.4733246862888336,-0.07172318547964096,-0.07185395061969757
1789058863857976300,0.092976318359375,-0.47871145606040955,-0.05741562321782112,-0.07151519507169724
1789058863867987500,0.102987548828125,-0.524894118309021,-0.1539807766675949,-0.09176667034626007
1789058863877999400,0.112999267578125,-0.46798771619796753,-0.1162208840250969,0.031562186777591705
1789058863888010200,0.12301025390625,-0.4559986889362335,-0.04760719835758209,0.1836228221654892
1789058863898021000,0.133021240234375,-0.4759524166584015,-0.17081542313098907,0.018632540479302406
1789058863908032300,0.1430322265625,-0.3992730975151062,-0.11155235767364502,0.016522517427802086
1789058863918043400,0.15304345703125,-0.4970974028110504,-0.16755065321922302,-0.06226257607340813
1789058863928054300,0.16305419921875,-0.3948881924152374,-0.1380942165851593,0.07122065126895905
1789058863938065400,0.1730654296875,-0.3958762288093567,-0.12127609550952911,0.1000637486577034
1789058863948077300,0.183077392578125,-0.3165681064128876,-0.20429322123527527,0.04693634808063507
1789058863958088400,0.19308837890625,-0.2797014117240906,-0.25094354152679443,-0.07664204388856888
1789058863968099300,0.203099365234375,-0.31960463523864746,-0.19772453606128693,-0.11354067921638489
1789058863978110200,0.213110107421875,-0.36841636896133423,-0.1710633635520935,-0.016528643667697906
1789058863988121300,0.223121337890625,-0.2135397046804428,-0.13397963345050812,0.14942410588264465
1789058863998132200,0.23313232421875,-0.15965144336223602,-0.24071860313415527,0.08051401376724243
1789058864008144400,0.243144287109375,-0.061096642166376114,-0.2608872652053833,-0.02177613601088524
1789058864018155300,0.2531552734375,-0.1691565364599228,-0.17521442472934723,-0.07596506923437119
1789058864028166400,0.26316650390625,-0.19299662113189697,-0.1590631604194641,-0.019837353378534317
1789058864038177300,0.27317724609375,-0.12911324203014374,-0.1315407156944275,0.08353244513273239
1789058864048188200,0.283188232421875,-0.018032263964414597,-0.1253664493560791,0.17108678817749023
1789058864058199000,0.293198974609375,0.005208876915276051,-0.2020023614168167,-0.009040100499987602
1789058864068211200,0.303211181640625,-0.005126318894326687,-0.21328431367874146,-0.12123268097639084
1789058864078222300,0.313222412109375,-0.11277661472558975,-0.18046991527080536,-0.07668359577655792
1789058864088232400,0.323232421875,-0.00803289283066988,-0.16552717983722687,0.04898405447602272
1789058864098243600,0.33324365234375,-0.016381103545427322,-0.15294693410396576,0.1102716475725174
1789058864108254500,0.34325439453125,-0.0198605228215456,-0.1090729609131813,0.14736787974834442
1789058864118265300,0.353265380859375,-0.08863825350999832,-0.11482831835746765,-0.012987437658011913
1789058864128277500,0.363277587890625,0.05795624479651451,-0.15971696376800537,0.014241253957152367
1789058864138288400,0.373288330078125,0.08755142241716385,-0.2129191905260086,-0.02851979248225689
1789058864148299500,0.383299560546875,0.05849074199795723,-0.17524878680706024,0.011347196996212006
1789058864158310400,0.393310302734375,0.020415525883436203,-0.08894425630569458,0.16519267857074738
1789058864168321300,0.4033212890625,0.04483964294195175,-0.1634078323841095,0.10009783506393433
1789058864178332700,0.413332763671875,0.13223473727703094,-0.18539516627788544,0.10981304943561554
1789058864188344600,0.423344482421875,0.14580486714839935,-0.04897633194923401,0.1639852076768875
1789058864198355500,0.43335546875,0.06738010793924332,-0.20359067618846893,-0.1228308454155922
1789058864208366300,0.443366455078125,0.1522369384765625,-0.0999702736735344,-0.10004723817110062
1789058864218377500,0.45337744140625,0.10324037075042725,-0.18023288249969482,-0.151581272482872
1789058864228388600,0.463388671875,0.22341258823871613,-0.12263643741607666,0.11721983551979065
1789058864238399500,0.4733994140625,0.2548210918903351,-0.18261508643627167,0.03085911273956299
1789058864248411400,0.483411376953125,0.33815595507621765,-0.12905731797218323,0.05578922852873802
1789058864258422300,0.49342236328125,0.3042832016944885,-0.08936077356338501,-0.013644172810018063
1789058864268433400,0.503433349609375,0.30452394485473633,-0.12048912793397903,-0.08885929733514786
1789058864278444500,0.513444580078125,0.2827984094619751,-0.08458811789751053,-0.08278143405914307
1789058864288455400,0.523455322265625,0.3135635256767273,-0.08997489511966705,0.026647323742508888
1789058864298466600,0.533466552734375,0.4938848316669464,-0.115102618932724,0.17691005766391754
1789058864308478500,0.543478515625,0.3981945216655731,-0.17573028802871704,0.01944240741431713
1789058864318489600,0.553489501953125,0.4802930951118469,-0.08975572139024734,0.11855434626340866
1789058864328500500,0.56350048828125,0.4050832986831665,-0.12371820956468582,-0.08731679618358612
1789058864338511400,0.573511474609375,0.5540677309036255,-0.06708262860774994,-0.054716773331165314
1789058864348522500,0.5835224609375,0.5427242517471313,-0.0656232163310051,-0.009475260972976685
1789058864358533400,0.593533447265625,0.5737103819847107,-0.08203761279582977,-0.017171263694763184
1789058864368545500,0.603545654296875,0.6409932971000671,-0.05210767686367035,0.037571076303720474
1789058864378556400,0.613556396484375,0.7375597953796387,-0.03804298862814903,0.038900792598724365
1789058864388567600,0.623567626953125,0.8501494526863098,0.01070963591337204,0.10411841422319412
1789058864398578400,0.633578369140625,0.9751241207122803,-0.0344085730612278,0.013375992886722088
1789058864408589300,0.64358935546875,1.123213529586792,0.03494040668010712,0.14926591515541077
1789058864418600400,0.653600341796875,1.1478341817855835,0.09977879375219345,0.27266696095466614
1789058864428611600,0.663611572265625,1.1123512983322144,0.10451069474220276,0.12411422282457352
1789058864438623500,0.67362353515625,1.105596661567688,0.23758725821971893,0.10429657995700836
1789058864448634400,0.68363427734375,1.0093244314193726,0.15236690640449524,-0.12697286903858185
1789058864458645200,0.693645263671875,0.9110050797462463,0.17723070085048676,-0.21502602100372314
1789058864468656600,0.70365673828125,0.8094736933708191,0.24816080927848816,-0.12509027123451233
1789058864478667500,0.71366748046875,0.7576858401298523,0.22500142455101013,0.014595454558730125
1789058864488678400,0.723678466796875,0.6820336580276489,0.1857517510652542,0.06657742708921432
1789058864498690300,0.733690185546875,0.6803447008132935,0.21822980046272278,0.23647405207157135
1789058864508701400,0.743701416015625,0.5788239240646362,0.202128067612648,0.035658661276102066
1789058864518712600,0.753712646484375,0.47752130031585693,0.2460039108991623,0.03899826481938362
1789058864528723500,0.763723388671875,0.2858847379684448,0.25996339321136475,-0.0838158056139946
1789058864538734300,0.773734375,0.13058757781982422,0.27870461344718933,-0.0368749275803566
1789058864548745500,0.783745361328125,0.09025106579065323,0.2228298783302307,-0.08445949107408524
1789058864558757600,0.793757568359375,0.049258891493082047,0.23094239830970764,-0.04150989279150963
1789058864568768500,0.8037685546875,-0.04484390467405319,0.21943089365959167,0.045644715428352356
1789058864578779400,0.813779296875,-0.19316306710243225,0.2694258689880371,0.2102038413286209
1789058864588790500,0.82379052734375,-0.3124889135360718,0.33868589997291565,0.2278512716293335
1789058864598801400,0.833801513671875,-0.3196653425693512,0.17467913031578064,-0.09509748965501785
1789058864608812300,0.843812255859375,-0.429367333650589,0.2083667814731598,-0.022054435685276985
1789058864618824400,0.853824462890625,-0.6441973447799683,0.2796763777732849,0.02160675823688507
1789058864628835300,0.86383544921875,-0.7334854006767273,0.24525795876979828,0.19108979403972626
1789058864638846500,0.873846435546875,-0.8215766549110413,0.2909247875213623,0.30214014649391174
1789058864648857300,0.883857421875,-0.8104297518730164,0.11751997470855713,-0.126180037856102
1789058864658868500,0.893868408203125,-0.8906905055046082,0.20119808614253998,-0.06449350714683533
1789058864668879600,0.903879638671875,-0.9262815117835999,0.07337328046560287,-0.2614726126194
1789058864678891500,0.9138916015625,-0.9229277968406677,0.146632581949234,0.017039703205227852
1789058864688902400,0.92390234375,-0.8103535771369934,0.07585135102272034,-0.14248816668987274
1789058864698913300,0.933913330078125,-0.8032336235046387,0.13510535657405853,-0.05277533084154129
1789058864708924400,0.94392431640625,-0.805444598197937,0.16992005705833435,-0.02155216410756111
1789058864718935600,0.953935546875,-0.8596558570861816,0.17789089679718018,0.018800320103764534
1789058864728946400,0.963946533203125,-0.7562671899795532,0.14828214049339294,0.03297393023967743
1789058864738957300,0.973957275390625,-0.6645939946174622,0.03518728166818619,-0.1603023260831833
1789058864748969500,0.983969482421875,-0.7397699356079102,0.10253249853849411,0.03509247303009033
1789058864758980600,0.993980712890625,-0.7274610996246338,0.0786689817905426,-0.005754558369517326
1789058864768991500,1.003991455078125,-0.7296507358551025,0.04893505200743675,0.1003151535987854
1789058864779002400,1.01400244140625,-0.7095507979393005,0.0014711301773786545,-0.11283893138170242
1789058864789013500,1.024013427734375,-0.6994683146476746,-0.001163002452813089,-0.05595807358622551
1789058864799024400,1.0340244140625,-0.7598214149475098,-0.014545919373631477,-0.07251548022031784
1789058864809036500,1.04403662109375,-0.7548258900642395,-0.048771534115076065,-0.023092003539204597
1789058864819047400,1.05404736328125,-0.6906660795211792,-0.052739378064870834,0.11148551851511002
1789058864829058300,1.064058349609375,-0.670511782169342,-0.0012178635224699974,0.10395489633083344
1789058864839069400,1.0740693359375,-0.6635569334030151,-0.047816257923841476,-0.1037152111530304
1789058864849080600,1.08408056640625,-0.6064838171005249,-0.10696453601121902,-0.19992536306381226
1789058864859091500,1.094091552734375,-0.5785490870475769,-0.05709391087293625,-0.03629542142152786
1789058864869103400,1.104103271484375,-0.5121421217918396,-0.07691022753715515,0.16376416385173798
1789058864879114500,1.114114501953125,-0.47595614194869995,-0.12891536951065063,0.04574272036552429
1789058864889125400,1.12412548828125,-0.49123603105545044,-0.08305227756500244,0.12359756976366043
1789058864899136500,1.134136474609375,-0.4207767844200134,-0.1558537781238556,0.010308830067515373
1789058864909147400,1.1441474609375,-0.3645225763320923,-0.16680575907230377,-0.005814746022224426
1789058864919158500,1.154158447265625,-0.41644781827926636,-0.11234358698129654,-0.08712185174226761
1789058864929169400,1.16416943359375,-0.3828728199005127,-0.14142636954784393,-0.07381696254014969
1789058864939181600,1.174181640625,-0.2895817458629608,-0.1360800713300705,-0.022233400493860245
1789058864949192400,1.1841923828125,-0.19934266805648804,-0.19860176742076874,-0.003620833856984973
1789058864959203600,1.19420361328125,-0.21361401677131653,-0.08274202048778534,0.20645196735858917
1789058864969214500,1.20421435546875,-0.3170549273490906,-0.1786714792251587,-0.12812520563602448
1789058864979225300,1.214225341796875,-0.2906704545021057,-0.08212736248970032,-0.024028370156884193
1789058864989236500,1.224236572265625,-0.16612692177295685,-0.21010130643844604,-0.12935373187065125
1789058864999248400,1.234248291015625,-0.14344291388988495,-0.15317517518997192,-0.006109557580202818
1789058865009259500,1.244259521484375,-0.19063572585582733,-0.1233443021774292,0.03352547064423561
1789058865019270400,1.2542705078125,-0.1417454183101654,-0.12760962545871735,0.057668887078762054
1789058865029281300,1.26428125,-0.03732074052095413,-0.13147945702075958,0.068075992166996
1789058865039292400,1.27429248046875,0.024567926302552223,-0.1457606703042984,0.0563034862279892
1789058865049303600,1.284303466796875,0.033977407962083817,-0.13712802529335022,-0.01751454547047615
1789058865059315500,1.2943154296875,0.0120087256655097,-0.11347223073244095,-0.02365632727742195
1789058865069326300,1.304326416015625,0.04205397516489029,-0.053203035145998,0.19014570116996765
1789058865079337500,1.31433740234375,0.14328685402870178,-0.13327230513095856,0.24766598641872406
1789058865089348600,1.3243486328125,0.19157741963863373,-0.14823393523693085,0.29753369092941284
1789058865099359500,1.334359375,0.1429062932729721,-0.1352049559354782,0.13534264266490936
1789058865109370400,1.344370361328125,-0.040828656405210495,-0.12559200823307037,-0.11509782820940018
1789058865119381500,1.354381591796875,-0.08123626559972763,-0.10093007981777191,-0.14737240970134735
1789058865129393700,1.3643935546875,0.06406313925981522,-0.1280495822429657,0.020557206124067307
1789058865139404500,1.374404541015625,0.08227063715457916,-0.15306757390499115,0.10230293869972229
1789058865149415400,1.38441552734375,0.0806029662489891,-0.18059641122817993,0.061821289360523224
1789058865159426600,1.394426513671875,0.05277186632156372,-0.16606274247169495,-0.031504664570093155
1789058865169437700,1.404437744140625,0.011748269200325012,-0.08813279122114182,0.14418727159500122
1789058865179448600,1.414448486328125,0.04484550282359123,-0.12243936210870743,0.17152860760688782
1789058865189460500,1.42446044921875,0.01149686612188816,-0.09722775220870972,0.23044732213020325
1789058865199471400,1.434471435546875,0.037162281572818756,-0.2140347957611084,-0.032280974090099335
1789058865209482500,1.444482421875,0.033016007393598557,-0.13981595635414124,0.017901236191391945
1789058865219493600,1.45449365234375,0.04212987795472145,-0.19043013453483582,-0.14727173745632172
1789058865229504500,1.46450439453125,0.06138692796230316,-0.12177357077598572,-0.024209732189774513
1789058865239515600,1.474515625,0.05420145392417908,-0.12126491218805313,-0.019666112959384918
1789058865249527600,1.484527587890625,0.07505586743354797,-0.07306462526321411,0.19606058299541473
1789058865259538700,1.49453857421875,0.12401515245437622,-0.14667652547359467,0.054913848638534546
1789058865269549600,1.504549560546875,0.13932619988918304,-0.10025043785572052,0.10820716619491577
1789058865279560400,1.514560546875,0.14518941938877106,-0.16956771910190582,-0.055393751710653305
1789058865289571600,1.524571533203125,0.11591355502605438,-0.10225553065538406,0.011550928466022015
1789058865299582500,1.53458251953125,0.1352377086877823,-0.12086010724306107,-0.16514235734939575
1789058865309593300,1.54459326171875,0.1640174388885498,-0.06004735827445984,-0.10231784731149673
1789058865319605500,1.55460546875,0.17423652112483978,-0.12124786525964737,-0.10617277771234512
1789058865329616600,1.56461669921875,0.2512034773826599,-0.08916449546813965,0.1672574281692505
1789058865339627500,1.57462744140625,0.25387489795684814,-0.11618013679981232,0.11069109290838242
1789058865349638400,1.584638427734375,0.22485095262527466,-0.1158648207783699,-0.033605631440877914
1789058865359649500,1.5946494140625,0.179190531373024,-0.10641645640134811,-0.14131611585617065
1789058865369660700,1.60466064453125,0.12883122265338898,-0.1056760922074318,-0.07468089461326599
1789058865379672600,1.614672607421875,0.14522510766983032,-0.1276485025882721,0.07969669252634048
1789058865389683500,1.624683349609375,0.13396872580051422,-0.15714648365974426,0.19271644949913025
1789058865399694300,1.6346943359375,0.028367459774017334,-0.140916109085083,0.11594311147928238
1789058865409705700,1.644705810546875,-0.027047863230109215,-0.130288228392601,0.04621463268995285
1789058865419716600,1.654716552734375,-0.08765049278736115,-0.16719111800193787,-0.11686722934246063
1789058865429727500,1.6647275390625,-0.07152478396892548,-0.14588209986686707,-0.13065095245838165
1789058865439738600,1.674738525390625,-0.03105618618428707,-0.20235736668109894,-0.11911839991807938
1789058865449750500,1.68475048828125,-0.03907336667180061,-0.18133383989334106,0.11042185127735138
1789058865459761700,1.69476171875,-0.09876279532909393,-0.16701561212539673,0.07119401544332504
1789058865469772500,1.7047724609375,-0.06102260574698448,-0.14121465384960175,-0.0011150655336678028
1789058865479783400,1.714783447265625,-0.006903712637722492,-0.16539588570594788,-0.02750725857913494
1789058865489794600,1.724794677734375,0.02622787468135357,-0.17008890211582184,-0.027187146246433258
1789058865499805400,1.734805419921875,0.08153533935546875,-0.19649921357631683,-0.08744116872549057
1789058865509817600,1.744817626953125,0.1312062293291092,-0.1782408356666565,-0.13136467337608337
1789058865519828500,1.754828369140625,0.14727599918842316,-0.20459921658039093,-0.11650850623846054
1789058865529839600,1.764839599609375,0.11741051822900772,-0.16136544942855835,-0.04378423094749451
1789058865539850500,1.7748505859375,0.1466866433620453,-0.17978841066360474,0.111582450568676
1789058865549861400,1.784861328125,0.17909465730190277,-0.1865922510623932,0.11799028515815735
1789058865559872500,1.79487255859375,0.15184971690177917,-0.1431523710489273,0.16176359355449677
1789058865569883600,1.804883544921875,0.20557686686515808,-0.1779862493276596,0.09447537362575531
1789058865579895600,1.8148955078125,0.24892327189445496,-0.11393429338932037,-0.010867561213672161
1789058865589906400,1.824906494140625,0.3092705011367798,-0.06839210540056229,-0.043353866785764694
1789058865599917600,1.83491748046875,0.4284634590148926,-0.17359070479869843,-0.2315932810306549
1789058865609928700,1.8449287109375,0.4861485958099365,-0.06426314264535904,0.1065853014588356
1789058865619939600,1.854939697265625,0.5534226894378662,-0.12568575143814087,0.07983171194791794
1789058865629950500,1.864950439453125,0.5330183506011963,-0.06482240557670593,0.10348963737487793
1789058865639962400,1.87496240234375,0.46553438901901245,-0.0047090016305446625,0.06045189127326012
1789058865649973500,1.884973388671875,0.450394868850708,-0.03820863738656044,0.006922088097780943
1789058865659984600,1.894984619140625,0.5041260123252869,-0.06407325714826584,-0.11073556542396545
1789058865669995500,1.90499560546875,0.537145733833313,-0.017198694869875908,0.02666197158396244
1789058865680006400,1.91500634765625,0.5691830515861511,-0.0574188195168972,0.08562915027141571
1789058865690017500,1.925017578125,0.52086341381073,0.010885670781135559,0.23362261056900024
1789058865700028400,1.9350283203125,0.5174516439437866,-0.022964438423514366,0.019846675917506218
1789058865710040600,1.94504052734375,0.5370000600814819,-0.02046452835202217,-0.0596766471862793
1789058865720051500,1.955051513671875,0.5142800807952881,-0.028253741562366486,-0.03699317201972008
1789058865730062600,1.9650625,0.47217845916748047,-0.006558300461620092,0.12244335561990738
1789058865740073500,1.975073486328125,0.428130567073822,0.028492894023656845,0.12071070820093155
1789058865750084600,1.985084716796875,0.36103835701942444,0.05200274661183357,-0.04119883477687836
1789058865760095500,1.995095458984375,0.35719409584999084,0.0544416718184948,-0.04698508605360985
1789058865770107400,2.005107421875,0.3916897475719452,-0.021629927679896355,0.052852828055620193
1789058865780118500,2.015118408203125,0.3382512927055359,0.0024082965683192015,0.054485078901052475
1789058865790129400,2.02512939453125,0.24810168147087097,0.03623497113585472,-0.003459712490439415
1789058865800140500,2.035140625,0.2051483541727066,0.04225770756602287,-0.14021755754947662
1789058865810151700,2.045151611328125,0.11005273461341858,0.04592115432024002,0.037698641419410706
1789058865820162600,2.05516259765625,0.11406132578849792,0.09281568974256516,0.09984483569860458
1789058865830173400,2.06517333984375,0.08557268977165222,0.038781218230724335,0.07215461879968643
1789058865840185600,2.075185546875,0.06398271024227142,0.07345903664827347,0.061770688742399216
1789058865850196500,2.085196533203125,0.05212045833468437,0.06768210977315903,0.05824972316622734
1789058865860207600,2.09520751953125,0.04695499315857887,0.08837300539016724,0.08305653929710388
1789058865870218500,2.105218505859375,0.03885898366570473,0.10906363278627396,-0.07448329031467438
1789058865880229400,2.1152294921875,0.08041947335004807,0.08423738181591034,-0.17299973964691162
1789058865890240500,2.125240478515625,0.10228988528251648,0.0860118493437767,-0.13400040566921234
1789058865900252700,2.135252685546875,0.12672439217567444,0.05852775648236275,-0.039925843477249146
1789058865910263600,2.145263671875,0.12049099057912827,0.0515097975730896,-0.05529627948999405
1789058865920274400,2.1552744140625,-0.012104599736630917,0.07172345370054245,-0.006630471907556057
1789058865930285600,2.16528564453125,-0.078032486140728,0.11626855283975601,0.11848030984401703
1789058865940296700,2.175296630859375,0.004752677399665117,0.07300150394439697,-0.0842783972620964
1789058865950307600,2.1853076171875,-0.018970495089888573,0.09909089654684067,-0.04499836638569832
1789058865960318500,2.195318359375,0.03370949253439903,0.01998143084347248,-0.24153512716293335
1789058865970330400,2.205330322265625,0.03014964610338211,0.07675949484109879,-0.016277240589261055
1789058865980341500,2.215341552734375,0.12428360432386398,0.0683383122086525,0.03708185628056526
1789058865990352600,2.2253525390625,0.12805277109146118,0.06271504610776901,0.11645150929689407
1789058866000363500,2.235363525390625,0.09604743868112564,0.08138061314821243,0.03787041828036308
1789058866010374700,2.245374755859375,0.011090467683970928,0.11384773999452591,0.0231748279184103
1789058866020385500,2.255385498046875,0.05558256804943085,0.07380977272987366,-0.0024200144689530134
1789058866030397400,2.2653974609375,0.05643797665834427,0.10950678586959839,0.029321137815713882
1789058866040408600,2.27540869140625,-0.020616328343749046,0.12615659832954407,0.04103025794029236
1789058866050419500,2.28541943359375,-0.12071230262517929,0.16800658404827118,0.013768542557954788
1789058866060430600,2.2954306640625,-0.04676564037799835,0.10505104809999466,0.11841505765914917
1789058866070441500,2.30544140625,0.05421237275004387,0.059894490987062454,0.03448820114135742
1789058866080452400,2.315452392578125,-0.06066201627254486,0.08368664234876633,0.057369016110897064
1789058866090464000,2.325464111328125,-0.13430534303188324,0.1545426994562149,-0.033005353063344955
1789058866100476000,2.335475830078125,-0.15984664857387543,0.13864123821258545,-0.13218094408512115
1789058866110486800,2.34548681640625,-0.06596224009990692,0.12219008803367615,-0.05975547432899475
1789058866120498000,2.355497802734375,-0.06262822449207306,0.05326109007000923,-0.03520992025732994
1789058866130508800,2.3655087890625,-0.16924068331718445,0.10796082019805908,0.12090271711349487
1789058866140520000,2.37552001953125,-0.234800785779953,0.12758246064186096,0.13674773275852203
1789058866150530800,2.38553076171875,-0.18847404420375824,0.07525773346424103,0.11809521168470383
1789058866160541700,2.395541748046875,-0.1924048662185669,0.024713335558772087,0.02105814777314663
1789058866170553900,2.405553955078125,-0.2519534230232239,0.08524565398693085,0.08500836789608002
1789058866180565000,2.41556494140625,-0.29758402705192566,0.09013335406780243,0.04723329097032547
1789058866190575900,2.425575927734375,-0.25989043712615967,0.08301765471696854,0.04072612524032593
1789058866200586800,2.435586669921875,-0.16304591298103333,0.027468109503388405,-0.042929090559482574
1789058866210597600,2.44559765625,-0.18756137788295746,0.03754870593547821,0.048413872718811035
1789058866220608800,2.45560888671875,-0.18400952219963074,0.038666170090436935,0.0859559178352356
1789058866230621000,2.465620849609375,-0.15973134338855743,0.027638019993901253,0.059296879917383194
1789058866240631800,2.4756318359375,-0.12829218804836273,0.0588097870349884,-0.012583702802658081
1789058866250642700,2.485642578125,-0.15785114467144012,0.05917144566774368,0.012205267325043678
1789058866260653800,2.49565380859375,-0.15178686380386353,0.07628731429576874,0.05446217581629753
1789058866270665000,2.5056650390625,-0.0989481508731842,0.0674821063876152,-0.007727960590273142
1789058866280675800,2.51567578125,-0.03834233060479164,0.03369937464594841,-0.03280188888311386
1789058866290686700,2.525686767578125,-0.01799311488866806,0.016694556921720505,-0.018908709287643433
1789058866300699000,2.535698974609375,-0.07229017466306686,0.056236375123262405,0.046361640095710754
1789058866310709800,2.545709716796875,-0.09316536039113998,0.08195558935403824,-0.016287093982100487
1789058866320721000,2.555720947265625,-0.06234646588563919,0.07614989578723907,-0.06503492593765259
1789058866330731800,2.565731689453125,-0.007415572181344032,0.023394538089632988,-0.029880933463573456
1789058866340743000,2.575742919921875,-0.035363052040338516,0.0488080196082592,0.075865738093853
1789058866350753800,2.58575390625,-0.047511592507362366,0.012592224404215813,-0.06856761127710342
1789058866360766000,2.595765869140625,-0.06336938589811325,0.03470258787274361,-0.07512058317661285
1789058866370776800,2.60577685546875,-0.05254629999399185,-0.024637436494231224,-0.14765523374080658
1789058866380788000,2.6157880859375,-0.10556664317846298,0.02937253564596176,0.014847922138869762
1789058866390798800,2.625798828125,-0.12190939486026764,0.056472864001989365,0.07241614162921906
1789058866400809700,2.635809814453125,-0.16442595422267914,0.04568865895271301,0.035844285041093826
1789058866410820600,2.645820556640625,-0.18634377419948578,-0.009258746169507504,-0.054730355739593506
1789058866420832000,2.65583203125,-0.20986855030059814,-0.009887784719467163,0.0978195071220398
1789058866430844000,2.665843994140625,-0.18345504999160767,-0.041255027055740356,0.015017565339803696
1789058866440854800,2.675854736328125,-0.2382144331932068,-0.025313345715403557,-0.0054855793714523315
1789058866450865700,2.68586572265625,-0.30055662989616394,-0.037344709038734436,-0.05157477781176567
1789058866460877000,2.695876953125,-0.392976850271225,0.021349230781197548,0.04806233569979668
1789058866470888000,2.705887939453125,-0.3993718922138214,-0.010978082194924355,-0.032400816679000854
1789058866480898800,2.71589892578125,-0.33665764331817627,-0.02171621471643448,-0.001859152689576149
1789058866490910700,2.72591064453125,-0.2755271792411804,-0.12907515466213226,-0.07070239633321762
1789058866500921600,2.735921630859375,-0.4250628650188446,-0.047994956374168396,0.09483037143945694
1789058866510933000,2.74593310546875,-0.4575401246547699,-0.032039690762758255,-0.09068383276462555
1789058866520943900,2.75594384765625,-0.42831993103027344,-0.03087748773396015,-0.03402135148644447
1789058866530954800,2.765954833984375,-0.2843230664730072,-0.16784732043743134,-0.2044796347618103
1789058866540966000,2.7759658203125,-0.3037809133529663,-0.10218335688114166,-0.03374890983104706
1789058866550976800,2.785976806640625,-0.3066132068634033,-0.1218409538269043,-0.06662110239267349
1789058866560989000,2.795989013671875,-0.311642587184906,-0.06406153738498688,0.048222389072179794
1789058866570999800,2.805999755859375,-0.2640470862388611,-0.11122452467679977,-0.017852500081062317
1789058866581011000,2.816010986328125,-0.2069166898727417,-0.04421672970056534,0.07623139023780823
1789058866591021800,2.826021728515625,-0.12356534600257874,-0.165833979845047,-0.08646272122859955
1789058866601032700,2.83603271484375,-0.07616081088781357,-0.13881807029247284,-0.03284556418657303
1789058866611043800,2.8460439453125,-0.010154100134968758,-0.13311651349067688,0.017978999763727188
1789058866621055000,2.856054931640625,0.052027780562639236,-0.10767266899347305,0.09740564972162247
1789058866631067000,2.86606689453125,0.12384364753961563,-0.11723075062036514,-0.012865465134382248
1789058866641077800,2.876077880859375,0.21084140241146088,-0.15844662487506866,-0.12167583405971527
1789058866651088600,2.886088623046875,0.2571154236793518,-0.18085899949073792,-0.1404452621936798
1789058866661100000,2.89610009765625,0.28582456707954407,-0.09237999469041824,0.08802812546491623
1789058866671111000,2.90611083984375,0.3693402409553528,-0.08393937349319458,0.15688122808933258
1789058866681121800,2.916121826171875,0.4060564339160919,-0.1313854604959488,0.06502693891525269
1789058866691132700,2.926132568359375,0.45922884345054626,-0.1564716249704361,-0.02894030511379242
1789058866701144800,2.936144775390625,0.4462619125843048,-0.09671135991811752,0.21298125386238098
1789058866711156000,2.946156005859375,0.45532676577568054,-0.13566088676452637,0.06930211186408997
1789058866721166800,2.956166748046875,0.41732585430145264,-0.0761706680059433,-0.03767920285463333
1789058866731177700,2.966177734375,0.4427976608276367,-0.10666199773550034,-0.06589672714471817
1789058866741188900,2.97618896484375,0.42775267362594604,-0.10009916871786118,0.026265425607562065
1789058866751199700,2.98619970703125,0.3956967294216156,-0.0982365533709526,-0.033728670328855515
1789058866761212000,2.9962119140625,0.35336366295814514,-0.06570657342672348,0.012407135218381882
1789058866771222800,3.006222900390625,0.35805055499076843,-0.12331420928239822,-0.027484089136123657
1789058866781233700,3.016233642578125,0.3942277431488037,-0.1347394436597824,0.12173628807067871
1789058866791244800,3.026244873046875,0.3047820031642914,-0.08504299074411392,0.05462756007909775
1789058866801256000,3.036255859375,0.186533123254776,-0.11165249347686768,-0.2014303207397461
1789058866811266800,3.046266845703125,0.20538537204265594,-0.11357050389051437,-0.2190183699131012
1789058866821278000,3.05627783203125,0.22926701605319977,-0.10823033004999161,-0.06603627651929855
1789058866831289900,3.066289794921875,0.1661255955696106,-0.12152349948883057,0.0692182183265686
1789058866841300700,3.07630078125,0.09622880071401596,-0.0705370157957077,0.08778604120016098
1789058866851311900,3.086311767578125,0.016587233170866966,-0.06645412743091583,-0.043591953814029694
1789058866861322800,3.09632275390625,0.11681690067052841,-0.105052649974823,0.07459647208452225
1789058866871334000,3.106333984375,0.2322620004415512,-0.14977964758872986,-0.009848369285464287
1789058866881344800,3.1163447265625,0.17180371284484863,-0.06673801690340042,0.054361775517463684
1789058866891355600,3.126355712890625,0.2003898173570633,-0.13491733372211456,-0.19362565875053406
1789058866901367800,3.136367919921875,0.259827584028244,-0.09632440656423569,-0.007246727589517832
1789058866911379000,3.14637890625,0.3272998332977295,-0.10237617045640945,-0.007355118170380592
1789058866921389800,3.156389892578125,0.31335845589637756,-0.11420965939760208,0.08282111585140228
1789058866931400700,3.166400634765625,0.28584933280944824,-0.037882134318351746,0.05772135406732559
1789058866941411800,3.176411865234375,0.2973262071609497,-0.06403037905693054,0.04659333452582359
1789058866951423000,3.186423095703125,0.40552645921707153,-0.10681672394275665,-0.04362843558192253
1789058866961433900,3.196433837890625,0.40623965859413147,-0.06085110083222389,0.014962970279157162
1789058866971445800,3.20644580078125,0.40440633893013,-0.09568045288324356,0.09577712416648865
1789058866981456600,3.21645654296875,0.44035741686820984,-0.0697934627532959,0.26628386974334717
1789058866991467800,3.2264677734375,0.4536260664463043,-0.02172313816845417,0.2053707242012024
1789058867001479000,3.23647900390625,0.3968016803264618,-0.029288113117218018,0.04611369967460632
1789058867011489800,3.24648974609375,0.3946533203125,-0.01618163287639618,-0.01678297482430935
1789058867021501000,3.2565009765625,0.4560982882976532,0.013708354905247688,0.016563797369599342
1789058867031512800,3.266512939453125,0.49583131074905396,-0.006773217581212521,-0.04265664890408516
1789058867041524000,3.27652392578125,0.50980144739151,0.024811873212456703,-0.060391705483198166
1789058867051534800,3.286534912109375,0.4737715721130371,0.02425980009138584,-0.017425594851374626
1789058867061545700,3.296545654296875,0.524226725101471,0.03123888000845909,0.1490885466337204
1789058867071556900,3.306556884765625,0.5991832613945007,-0.01500877644866705,0.05771549418568611
1789058867081567700,3.316567626953125,0.5140875577926636,0.029875341802835464,-0.10378951579332352
1789058867091578600,3.32657861328125,0.4031541049480438,0.061652444303035736,-0.04140523076057434
1789058867101590800,3.3365908203125,0.4967791438102722,0.09465833008289337,0.13318361341953278
1789058867111602000,3.346601806640625,0.4543246328830719,0.11167699843645096,0.09869275242090225
1789058867121612800,3.35661279296875,0.35880741477012634,0.23214562237262726,0.10606704652309418
1789058867131623700,3.366623779296875,0.4047911763191223,0.11753355711698532,0.009074455127120018
1789058867141634800,3.376634765625,0.43457889556884766,0.17869651317596436,0.19450131058692932
1789058867151646000,3.38664599609375,0.47736096382141113,0.09191714227199554,0.1710822731256485
1789058867161656800,3.39665673828125,0.40727242827415466,0.17506475746631622,0.020003002136945724
1789058867171668700,3.406668701171875,0.2344852089881897,0.20589616894721985,0.0651281401515007
1789058867181679600,3.4166796875,0.2555809020996094,0.19840790331363678,0.14719636738300323
1789058867191690800,3.426690673828125,0.35062965750694275,0.16227786242961884,0.11484775692224503
1789058867201702000,3.436701904296875,0.2078123241662979,0.1518571674823761,0.054777227342128754
1789058867211712800,3.446712646484375,0.12169207632541656,0.1543392390012741,0.060141898691654205
1789058867221724000,3.456723876953125,0.07181400060653687,0.19682517647743225,0.11310125142335892
1789058867231734800,3.46673486328125,0.11436466127634048,0.12653982639312744,0.06630072742700577
1789058867241746700,3.47674658203125,0.1128288134932518,0.12780269980430603,-0.042386606335639954
1789058867251757800,3.4867578125,0.01296586636453867,0.09476432204246521,-0.0008785768295638263
1789058867261768700,3.496768798828125,-0.006610231939703226,0.09419041126966476,-0.0022916500456631184
1789058867271779800,3.50677978515625,-0.06271558254957199,0.14576785266399384,0.14470872282981873
1789058867281790700,3.516790771484375,-0.1196126863360405,0.060214072465896606,-0.07516106218099594
1789058867291801600,3.526801513671875,-0.13586249947547913,0.10793045908212662,0.05982019007205963
1789058867301813000,3.53681298828125,-0.21750275790691376,0.08696312457323074,-0.08118753135204315
1789058867311825000,3.546824951171875,-0.185075581073761,0.08162455260753632,-0.010687531903386116
1789058867321835800,3.556835693359375,-0.19004663825035095,0.07422523200511932,-0.15002144873142242
1789058867331846700,3.5668466796875,-0.22785499691963196,0.05771363154053688,0.1344483494758606
1789058867341857800,3.57685791015625,-0.3005739450454712,0.13497166335582733,0.04078151658177376
1789058867351869000,3.586868896484375,-0.36615827679634094,0.17857080698013306,0.11492844671010971
1789058867361879800,3.5968798828125,-0.2387193739414215,0.060210343450307846,-0.035593148320913315
1789058867371890700,3.606890625,-0.12477468699216843,0.08632423728704453,0.19456414878368378
1789058867381902600,3.616902587890625,-0.15521275997161865,0.024693895131349564,-0.03236326575279236
1789058867391914000,3.6269140625,-0.13603506982326508,0.09605170041322708,-0.0677710548043251
1789058867401924900,3.6369248046875,-0.1352454423904419,0.07117804139852524,-0.1712665557861328
1789058867411935700,3.646935791015625,-0.08543207496404648,0.17845389246940613,0.23055464029312134
1789058867421947000,3.65694677734375,0.030103307217359543,0.004604605492204428,-0.19553914666175842
1789058867431957800,3.666957763671875,0.0023992417845875025,0.09130354970693588,-0.0587322898209095
1789058867441970000,3.676969970703125,0.008084557950496674,0.1177668496966362,-0.06312224268913269
1789058867451980800,3.686980712890625,0.0051984903402626514,0.11489542573690414,0.14147350192070007
1789058867461991700,3.69699169921875,-0.015737684443593025,0.10037880390882492,-0.07006990164518356
1789058867472002800,3.7070029296875,-0.0718611404299736,0.1197490394115448,-0.2488662749528885
1789058867482013700,3.717013671875,-0.03317206725478172,0.11434654891490936,-0.08382219821214676
1789058867492024800,3.72702490234375,0.03742167353630066,0.08588481694459915,0.037405163049697876
1789058867502036000,3.737035888671875,0.03784751519560814,0.02515089325606823,-0.07167338579893112
1789058867512047900,3.7470478515625,-0.008257663808763027,0.08599187433719635,-0.010173807851970196
1789058867522058800,3.757058837890625,-0.0157757680863142,0.12323617935180664,-0.01028885692358017
1789058867532069600,3.767069580078125,-0.0299051683396101,0.0906396210193634,0.03206046298146248
1789058867542080800,3.777080810546875,-0.00714606000110507,0.09953298419713974,0.016339559108018875
1789058867552092000,3.787091796875,0.0017773937433958054,0.04904504120349884,-0.0791986808180809
1789058867562102800,3.797102783203125,-0.004265052266418934,0.10249894112348557,0.1139231026172638
1789058867572113700,3.80711376953125,0.011929896660149097,0.06413184851408005,0.0619957260787487
1789058867582125600,3.81712548828125,0.06457792967557907,0.06726106256246567,0.1124945878982544
1789058867592137000,3.827136962890625,0.08701719343662262,0.023258451372385025,-0.04754967615008354
1789058867602147800,3.83714794921875,0.038726888597011566,0.1323937326669693,-0.01079538930207491
1789058867612158700,3.84715869140625,0.04014502093195915,0.03953143209218979,-0.007291735149919987
1789058867622169900,3.857169921875,0.137853741645813,0.007848069071769714,-0.10568728297948837
1789058867632180700,3.8671806640625,0.1126658245921135,0.05926891416311264,0.05854373797774315
1789058867642192000,3.87719189453125,0.14018507301807404,0.08314122259616852,0.07031464576721191
1789058867652203800,3.887203857421875,0.08554019778966904,0.09790605306625366,0.09309345483779907
1789058867662214700,3.897214599609375,0.0296122208237648,0.1345335692167282,-0.0831281766295433
1789058867672225800,3.907225830078125,0.04679759964346886,0.11122692376375198,-0.18364599347114563
1789058867682236700,3.917236572265625,0.10466302931308746,0.049125202000141144,-0.21453812718391418
1789058867692247800,3.927247802734375,0.06422479450702667,0.10332638770341873,0.0728776678442955
1789058867702259000,3.937259033203125,0.07313546538352966,0.05994722247123718,0.0037859496660530567
1789058867712269800,3.947269775390625,0.1113121435046196,0.08481795340776443,0.10182862728834152
1789058867722281700,3.95728173828125,0.10450989753007889,0.08880337327718735,-0.061716627329587936
1789058867732292900,3.96729296875,0.16016064584255219,0.12026063352823257,0.1023854911327362
1789058867742303700,3.9773037109375,0.1104479506611824,0.09842856973409653,-0.004217914305627346
1789058867752315000,3.98731494140625,0.0845569595694542,0.13645398616790771,0.030485205352306366
1789058867762325800,3.99732568359375,0.08726593106985092,0.10141796618700027,0.06788397580385208
1789058867772336600,4.007336669921875,0.13086959719657898,0.09391877055168152,0.09290357679128647
1789058867782347800,4.01734765625,0.08252470195293427,0.11717402935028076,0.15002305805683136
1789058867792360000,4.02735986328125,0.0523497574031353,0.11579024791717529,-0.050269827246665955
1789058867802370800,4.037370849609375,0.01793931983411312,0.13690511882305145,-0.021889852359890938
1789058867812381700,4.047381591796875,-0.02875441685318947,0.13153965771198273,0.0033161682076752186
1789058867822392600,4.057392578125,0.03719743713736534,0.10766121745109558,0.10351867228746414
1789058867832404000,4.067404052734375,0.0462133027613163,0.07921066880226135,0.03911304846405983
1789058867842414800,4.077414794921875,-0.0644381120800972,0.15603087842464447,-0.07264304161071777
1789058867852425700,4.08742578125,-0.08414177596569061,0.19707737863063812,0.01810656487941742
1789058867862437600,4.097437744140625,-0.06797558814287186,0.10080677270889282,-0.2017272561788559
1789058867872448800,4.10744873046875,-0.06208733841776848,0.1270226687192917,-0.0036362800747156143
1789058867882460000,4.1174599609375,-0.1187807098031044,0.08721053600311279,0.04031253606081009
1789058867892470800,4.127470703125,-0.170186385512352,0.11490634828805923,0.27255696058273315
1789058867902482000,4.13748193359375,-0.2099849283695221,0.1796930581331253,0.21652591228485107
1789058867912492800,4.147492919921875,-0.08397506177425385,0.08872933685779572,0.1286916732788086
1789058867922503700,4.157503662109375,-0.19652611017227173,0.12472409009933472,0.05199635401368141
1789058867932515800,4.167515869140625,-0.28891435265541077,0.13813896477222443,0.18919682502746582
1789058867942526700,4.177526611328125,-0.3331609070301056,0.09598032385110855,0.0377843976020813
1789058867952537900,4.187537841796875,-0.2875683903694153,0.0399966835975647,0.030130205675959587
1789058867962548700,4.197548828125,-0.342464417219162,-0.009821205399930477,-0.11058936268091202
1789058867972559600,4.2075595703125,-0.3545173406600952,0.08365494757890701,0.22080561518669128
1789058867982571000,4.217571044921875,-0.4508973956108093,0.12370969355106354,0.11887632310390472
1789058867992582000,4.227581787109375,-0.31219571828842163,0.048943839967250824,0.02521534077823162
1789058868002593800,4.23759375,-0.2453642189502716,-0.161334827542305,-0.053574010729789734
1789058868012604700,4.247604736328125,-0.33751145005226135,-0.034158769994974136,0.3035223186016083
1789058868022615600,4.257615478515625,-0.4513581395149231,-0.004028563853353262,0.14618250727653503
1789058868032627000,4.267626953125,-0.4134986400604248,0.011924037709832191,0.012339490465819836
1789058868042637800,4.277637939453125,-0.3633536994457245,-0.1805942803621292,-0.35872167348861694
1789058868052648700,4.287648681640625,-0.3203047811985016,-0.07306782156229019,-0.08564352989196777
1789058868062659800,4.297659912109375,-0.2941797077655792,-0.10555412620306015,-0.1106404960155487
1789058868072672000,4.307672119140625,-0.2685545086860657,-0.1120184138417244,-0.06277470290660858
1789058868082683000,4.317682861328125,-0.20185749232769012,-0.0682259276509285,0.1480826735496521
1789058868092693500,4.327693603515625,-0.11332735419273376,-0.07570168375968933,0.08305387198925018
1789058868102704600,4.33770458984375,-0.02215244062244892,-0.0866968110203743,0.09975375980138779
1789058868112715500,4.347715576171875,0.04047978296875954,-0.06473931670188904,0.042764775454998016
1789058868122726400,4.357726318359375,0.044013265520334244,-0.08801347762346268,-0.04140070453286171
1789058868132737500,4.367737548828125,0.11748562008142471,-0.05356389284133911,-0.04620664194226265
1789058868142749400,4.37774951171875,0.18458369374275208,-0.12593555450439453,-0.22344613075256348
1789058868152760600,4.387760498046875,0.238500714302063,-0.05041204020380974,0.036966271698474884
1789058868162771500,4.397771484375,0.3225037455558777,-0.060205549001693726,0.04411686211824417
1789058868172782300,4.4077822265625,0.255163311958313,-0.011921107769012451,0.053939130157232285
1789058868182793700,4.417793701171875,0.30726781487464905,-0.006650712341070175,-0.11293906718492508
1789058868192804600,4.4278046875,0.3519047796726227,0.037528734654188156,-0.039269108325242996
1789058868202815500,4.4378154296875,0.3750346004962921,0.004347610287368298,-0.07222572714090347
1789058868212827400,4.447827392578125,0.36863288283348083,0.024148212745785713,-0.0033563817851245403
1789058868222838500,4.457838623046875,0.35281264781951904,0.028083566576242447,-0.09738567471504211
1789058868232849700,4.467849609375,0.34472277760505676,0.04523805156350136,-0.09222127497196198
1789058868242860500,4.477860595703125,0.35299134254455566,0.00794607400894165,-0.189053013920784
1789058868252871400,4.487871337890625,0.3940642178058624,0.04796352982521057,0.04655924439430237
1789058868262882600,4.497882568359375,0.5146396160125732,-0.014285728335380554,-0.012072375044226646
1789058868272893400,4.5078935546875,0.4528407156467438,0.04788656532764435,0.023557256907224655
1789058868282905600,4.517905517578125,0.3472959101200104,-0.010631072334945202,-0.0764060914516449
1789058868292916500,4.52791650390625,0.35692429542541504,0.07450459152460098,0.26498931646347046
1789058868302927600,4.537927734375,0.319118857383728,0.09249744564294815,0.1203213483095169
1789058868312938500,4.5479384765625,0.22606562077999115,0.10000809282064438,-0.18901492655277252
1789058868322949600,4.55794970703125,0.22013609111309052,0.039681900292634964,-0.2147117704153061
1789058868332960500,4.56796044921875,0.2507629692554474,-0.04165876284241676,-0.11041199415922165
1789058868342971600,4.5779716796875,0.24342623353004456,0.024700552225112915,-0.003210440743714571
1789058868352983600,4.587983642578125,0.20787090063095093,0.02911713905632496,0.18158577382564545
1789058868362994400,4.597994384765625,0.178684264421463,0.017111342400312424,0.11338727921247482
1789058868373005600,4.608005615234375,0.1468254029750824,0.11185303330421448,0.2608683407306671
1789058868383016700,4.6180166015625,0.2867835760116577,-0.053513556718826294,-0.17469245195388794
1789058868393027600,4.628027587890625,0.25323012471199036,0.0032711606472730637,-0.11172040551900864
1789058868403038500,4.63803857421875,0.18248219788074493,0.12684209644794464,-0.11638280004262924
1789058868413049300,4.64804931640625,0.06390707939863205,0.1644669771194458,0.17090143263339996
1789058868423061500,4.6580615234375,0.16279157996177673,0.14126445353031158,-0.06302797049283981
1789058868433072600,4.66807275390625,0.283775269985199,0.10026268661022186,-0.08090576529502869
1789058868443083500,4.67808349609375,0.3953164219856262,0.00507092522457242,-0.008036887273192406
1789058868453094400,4.688094482421875,0.24576635658740997,0.05873788148164749,0.35327789187431335
1789058868463105500,4.69810546875,0.14930853247642517,0.16232658922672272,0.0075820195488631725
1789058868473116700,4.70811669921875,0.08309914916753769,0.1989983171224594,-0.2079436182975769
1789058868483127600,4.71812744140625,0.03599368780851364,0.14028361439704895,-0.18547850847244263
1789058868493139500,4.728139404296875,0.03941851109266281,0.22760839760303497,-0.000480434246128425
1789058868503150300,4.738150390625,0.04811612889170647,0.21733711659908295,-0.0341116301715374
1789058868513161500,4.748161376953125,0.019336147233843803,0.22692503035068512,0.10060650110244751
1789058868523172600,4.758172607421875,-0.011875834316015244,0.26074716448783875,0.06131076067686081
1789058868533183500,4.76818359375,0.016331035643815994,0.19951950013637543,-0.08683902770280838
1789058868543194600,4.778194580078125,-0.0025393241085112095,0.2418706864118576,-0.047084689140319824
1789058868553205500,4.78820556640625,-0.1045335978269577,0.28031420707702637,-0.04276876896619797
1789058868563217700,4.7982177734375,-0.22473964095115662,0.33495429158210754,0.10372399538755417
1789058868573228500,4.808228515625,-0.23211552202701569,0.22184105217456818,-0.08650559931993484
1789058868583239700,4.81823974609375,-0.3014650344848633,0.25990667939186096,0.009499495849013329
1789058868593250600,4.82825048828125,-0.3509939908981323,0.22151081264019012,-0.15173093974590302
1789058868603261400,4.838261474609375,-0.49256202578544617,0.23984907567501068,0.007723167072981596
1789058868613272300,4.848272216796875,-0.5838024616241455,0.2477075308561325,0.20477472245693207
1789058868623283700,4.85828369140625,-0.5369473099708557,0.23627857863903046,0.2173251211643219
1789058868633295600,4.868295654296875,-0.49842309951782227,0.11910508573055267,-0.13164591789245605
1789058868643306500,4.878306396484375,-0.6202834844589233,0.2141202837228775,-0.07118389755487442
1789058868653317400,4.8883173828125,-0.5830751657485962,0.12879179418087006,-0.030652716755867004
1789058868663328800,4.898328857421875,-0.5807288885116577,0.17923207581043243,-0.1482299417257309
1789058868673339600,4.908339599609375,-0.6770325303077698,0.17378777265548706,-0.07401510328054428
1789058868683350500,4.9183505859375,-0.6465739607810974,0.08993201702833176,0.02666463330388069
1789058868693361400,4.928361328125,-0.7230157256126404,0.09263060241937637,0.25772127509117126
1789058868703373300,4.938373291015625,-0.7837368845939636,0.10937096178531647,0.11942572891712189
1789058868713384700,4.948384765625,-0.7625261545181274,0.11699505895376205,-0.0036402747500687838
1789058868723395600,4.9583955078125,-0.73119056224823,-0.007816910743713379,-0.17886482179164886
1789058868733406500,4.968406494140625,-0.7449154257774353,0.026033464819192886,0.051789429038763046
1789058868743417600,4.97841748046875,-0.7108197808265686,0.037287984043359756,-0.05780870467424393
1789058868753428500,4.988428466796875,-0.6316453218460083,-0.003918308764696121,-0.020979050546884537
1789058868763439400,4.998439453125,-0.5297549366950989,-0.015901468694210052,0.0010932276491075754
1789058868773451500,5.008451416015625,-0.49050846695899963,-0.03474173694849014,0.05384166166186333
1789058868783462400,5.01846240234375,-0.456074595451355,-0.031090540811419487,-0.030531277880072594
1789058868793473500,5.0284736328125,-0.4339900612831116,-0.007771636825054884,0.03144687041640282
1789058868803484400,5.038484375,-0.35423824191093445,-0.05114227905869484,-0.013648700900375843
1789058868813495600,5.04849560546875,-0.29421138763427734,-0.04635018855333328,0.02237747795879841
1789058868823506700,5.058506591796875,-0.2721489667892456,-0.07903436571359634,-0.0035353463608771563
1789058868833517600,5.068517578125,-0.29286807775497437,-0.011228419840335846,0.0007821703911758959
1789058868843529500,5.078529541015625,-0.33457985520362854,-0.006206230726093054,-0.024506142362952232
1789058868853540400,5.088540283203125,-0.20831458270549774,-0.07776350528001785,-0.16961219906806946
1789058868863551700,5.0985517578125,-0.19214387238025665,-0.07181107252836227,-0.03873221576213837
1789058868873562600,5.108562744140625,-0.2627541422843933,-0.053340718150138855,-0.03610820323228836
1789058868883573500,5.118573486328125,-0.36314064264297485,0.007191067561507225,0.01979500986635685
1789058868893584400,5.12858447265625,-0.2819523215293884,-0.0752611979842186,0.0116188395768404
1789058868903595500,5.138595458984375,-0.2693052291870117,-0.09733587503433228,0.06760008633136749
1789058868913606700,5.148606689453125,-0.30980658531188965,-0.09809087961912155,-0.011711783707141876
1789058868923618600,5.15861865234375,-0.34233176708221436,-0.035054389387369156,-0.045275866985321045
1789058868933629400,5.16862939453125,-0.2777807414531708,-0.11973119527101517,-0.09416777640581131
1789058868943640600,5.178640625,-0.265095591545105,-0.13413463532924652,0.0454242080450058
1789058868953651500,5.1886513671875,-0.3115035593509674,-0.1069437637925148,0.013640444725751877
1789058868963662600,5.19866259765625,-0.27114948630332947,-0.1519479900598526,-0.06507594138383865
1789058868973673500,5.208673583984375,-0.2828487455844879,-0.11295478045940399,0.04494670033454895
1789058868983684600,5.2186845703125,-0.36485812067985535,-0.05542890354990959,0.1920972764492035
1789058868993696500,5.228696533203125,-0.3109184503555298,-0.06710659712553024,0.07081904262304306
1789058869003707600,5.238707763671875,-0.18086911737918854,-0.1820283979177475,-0.06977535039186478
1789058869013718500,5.248718505859375,-0.24193406105041504,-0.1278218775987625,0.021044299006462097
1789058869023729700,5.258729736328125,-0.2739119827747345,-0.08937861770391464,0.1288759559392929
1789058869033740500,5.268740478515625,-0.16531279683113098,-0.11989204585552216,0.1409432739019394
1789058869043751400,5.27875146484375,-0.05668032169342041,-0.2360767126083374,-0.1270841807126999
1789058869053762600,5.288762451171875,-0.08577588945627213,-0.17448657751083374,-0.055819589644670486
1789058869063774500,5.2987744140625,-0.15379196405410767,-0.08995092660188675,-0.060681454837322235
1789058869073785600,5.30878564453125,-0.0944167822599411,-0.1184677928686142,-0.002126534003764391
1789058869083796500,5.31879638671875,-0.0067604342475533485,-0.1626158058643341,-0.10077321529388428
1789058869093807600,5.3288076171875,-0.01781734637916088,-0.09689006209373474,0.15918725728988647
1789058869103819500,5.338819580078125,-0.019509784877300262,-0.10695414990186691,-0.022469090297818184
1789058869113830700,5.34883056640625,-0.0024080302100628614,-0.1242966502904892,-0.036131903529167175
1789058869123841800,5.358841796875,-0.07477837055921555,-0.0910034105181694,-0.0075796227902174
1789058869133852700,5.368852783203125,-0.148278146982193,-0.00037923414492979646,0.17654147744178772
1789058869143864600,5.378864501953125,-0.06662803143262863,-0.1616237759590149,0.1090625673532486
1789058869153875700,5.388875732421875,-0.04498904570937157,-0.13374261558055878,0.15555283427238464
1789058869163886600,5.398886474609375,-0.14777907729148865,-0.0860387459397316,0.2013847827911377
1789058869173897700,5.408897705078125,-0.14445970952510834,-0.13404595851898193,0.03695695102214813
1789058869183908600,5.41890869140625,-0.11565389484167099,-0.1300133913755417,-0.05468934401869774
1789058869193919700,5.428919677734375,-0.17150092124938965,-0.06920117884874344,-0.0817800834774971
1789058869203930600,5.4389306640625,-0.10423053056001663,-0.08556976169347763,0.0622178353369236
1789058869213941500,5.44894140625,-0.054365236312150955,-0.1225658655166626,0.14335663616657257
1789058869223953700,5.45895361328125,-0.06349401921033859,-0.0912763848900795,0.08254547417163849
1789058869233964800,5.46896484375,-0.08087940514087677,-0.12554940581321716,0.04939045384526253
1789058869243975700,5.4789755859375,-0.08941882848739624,-0.08573327958583832,-0.11416438966989517
1789058869253986600,5.488986572265625,-0.17444556951522827,-0.029980270192027092,-0.13526222109794617
1789058869263997400,5.49899755859375,-0.18705883622169495,-0.0054885088466107845,-0.05756795406341553
1789058869274008800,5.5090087890625,-0.11786511540412903,-0.02322915568947792,0.18787881731987
1789058869284019700,5.519019775390625,-0.052562810480594635,-0.09324712306261063,0.16609123349189758
1789058869294031600,5.529031494140625,0.019813917577266693,-0.18915927410125732,0.005764412228018045
1789058869304042500,5.53904248046875,-0.024107467383146286,-0.18583936989307404,-0.014279336668550968
1789058869314054000,5.549053955078125,-0.15110856294631958,-0.09043748676776886,0.020068516954779625
1789058869324064800,5.559064697265625,-0.16925986111164093,-0.05306348577141762,-0.017586451023817062
1789058869334075600,5.56907568359375,-0.08592209964990616,-0.01824291981756687,0.058640144765377045
1789058869344086500,5.57908642578125,-0.049367815256118774,-0.08331912755966187,-0.06488551944494247
1789058869354097700,5.58909765625,-0.0749320313334465,-0.03491031378507614,0.1462072730064392
1789058869364109800,5.59910986328125,-0.006883206311613321,-0.0644969642162323,0.10077774524688721
1789058869374120700,5.60912060546875,-0.025771409273147583,-0.049912430346012115,0.26504257321357727
1789058869384131600,5.619131591796875,0.007369499187916517,-0.1604570597410202,0.009977532550692558
1789058869394142700,5.629142822265625,-0.02815653756260872,-0.1486762911081314,-0.07913423329591751
1789058869404153600,5.639153564453125,-0.0693572387099266,-0.05706088989973068,0.014610634185373783
1789058869414164500,5.64916455078125,-0.1137010008096695,-0.06940943747758865,0.07047709822654724
1789058869424175600,5.659175537109375,-0.08823824673891068,-0.06948933005332947,0.13057026267051697
1789058869434187800,5.669187744140625,-0.0166772473603487,-0.12063853442668915,0.049245577305555344
1789058869444198700,5.67919873046875,-0.02274898812174797,-0.06883552670478821,0.2069886028766632
1789058869454209500,5.68920947265625,-0.04580503702163696,-0.11286396533250809,-0.18637414276599884
1789058869464219600,5.6992197265625,-0.05585820600390434,-0.09342662245035172,-0.12640933692455292
1789058869474230800,5.709230712890625,0.033009614795446396,-0.15083372592926025,-0.1698974221944809
1789058869484242700,5.71924267578125,0.004354268312454224,-0.0370568223297596,0.09111339598894119
1789058869494253600,5.729253662109375,-0.016207998618483543,-0.09409826993942261,0.13805854320526123
1789058869504264700,5.7392646484375,0.09498776495456696,-0.04628227651119232,0.00965529028326273
1789058869514275600,5.749275634765625,0.0646708682179451,-0.00823928788304329,0.06884218007326126
1789058869524286700,5.75928662109375,0.11803236603736877,-0.0784362182021141,-0.1285467892885208
1789058869534297600,5.769297607421875,0.13563399016857147,-0.029885195195674896,-0.052190233021974564
1789058869544308700,5.779308837890625,0.12895052134990692,-0.05517084524035454,-0.00042504051816649735
1789058869554320600,5.789320556640625,0.18139348924160004,-0.07584656029939651,0.0460955910384655
1789058869564331800,5.799331787109375,0.17021727561950684,0.006360427476465702,0.00748960766941309
1789058869574342700,5.8093427734375,0.16033241152763367,-0.07347235083580017,-0.09091552346944809
1789058869584353800,5.819353759765625,0.17863978445529938,-0.02215403877198696,0.020265057682991028
1789058869594364700,5.82936474609375,0.10763351619243622,0.008379636332392693,0.10199906677007675
1789058869604375600,5.83937548828125,0.09063642472028732,-0.0528099499642849,-0.08639054745435715
1789058869614386400,5.849386474609375,0.08744382858276367,-0.046234339475631714,0.01906983181834221
1789058869624398600,5.859398681640625,-0.016698552295565605,0.05487709864974022,0.08191058039665222
1789058869634409700,5.86940966796875,-0.0006644586683250964,-0.03134886920452118,0.0297927837818861
1789058869644420600,5.879420654296875,-0.07679038494825363,0.01612197794020176,0.10516317188739777
1789058869654431500,5.889431396484375,-0.210757777094841,0.025463014841079712,0.03724563866853714
1789058869664442600,5.899442626953125,-0.23486976325511932,-0.006982542108744383,-0.012375443242490292
1789058869674453800,5.909453857421875,-0.31397417187690735,-0.1002776026725769,-0.15988554060459137
1789058869684464600,5.919464599609375,-0.4292546808719635,0.01738431677222252,0.08254814147949219
1789058869694476500,5.9294765625,-0.4040292203426361,-0.0643632784485817,-0.03530845418572426
1789058869704487700,5.93948779296875,-0.4608248770236969,-0.09372808784246445,-0.0827484056353569
1789058869714498800,5.949498779296875,-0.5288007259368896,-0.0916079506278038,-0.07546067237854004
1789058869724509700,5.959509765625,-0.5515158772468567,-0.05851204693317413,0.06445622444152832
1789058869734520600,5.9695205078125,-0.5135826468467712,-0.11760652810335159,-0.06579872220754623
1789058869744531700,5.97953173828125,-0.4576224088668823,-0.14367221295833588,-0.05558150261640549
1789058869754542600,5.98954248046875,-0.48591291904449463,-0.15652969479560852,-0.11248499900102615
1789058869764553500,5.999553466796875,-0.5161885023117065,-0.0538451224565506,0.1296306997537613
1789058869774565600,6.009565673828125,-0.4745960831642151,-0.07762635499238968,0.031199198216199875
1789058869784576800,6.01957666015625,-0.32040756940841675,-0.10288483649492264,0.020482905209064484
1789058869794587600,6.029587646484375,-0.20468735694885254,-0.20183858275413513,-0.11514309793710709
1789058869804598500,6.0395986328125,-0.23519307374954224,-0.1934802532196045,-0.024921860545873642
1789058869814609700,6.049609619140625,-0.23459438979625702,-0.1366710364818573,0.0945371612906456
1789058869824620800,6.059620849609375,-0.19414576888084412,-0.09945201873779297,0.15383882820606232
1789058869834631700,6.069631591796875,-0.03157550469040871,-0.22689732909202576,-0.1115688756108284
1789058869844643600,6.0796435546875,-0.016321714967489243,-0.18690836429595947,-0.10003844648599625
1789058869854654500,6.089654541015625,-0.024692563340067863,-0.19582782685756683,-0.09362316131591797
1789058869864665900,6.099665771484375,-0.04030534625053406,-0.14301307499408722,-0.051832571625709534
1789058869874676700,6.1096767578125,0.012457734905183315,-0.1827802062034607,0.1291385442018509
1789058869884687600,6.1196875,0.07432163506746292,-0.2046183943748474,-0.03809944912791252
1789058869894698500,6.129698486328125,0.0907948836684227,-0.2031983882188797,-0.09176453948020935
1789058869904709600,6.139709716796875,0.005047223065048456,-0.19590479135513306,-0.04590197652578354
1789058869914721800,6.1497216796875,0.030519826337695122,-0.15408331155776978,0.06258135288953781
1789058869924732700,6.159732666015625,0.05128129571676254,-0.20666448771953583,-0.02208719216287136
1789058869934743600,6.16974365234375,0.049488455057144165,-0.2288225293159485,-0.005403287708759308
1789058869944754700,6.179754638671875,0.07258978486061096,-0.2032998502254486,0.1021420806646347
1789058869954765600,6.189765625,0.05317773297429085,-0.21417753398418427,0.0638199895620346
1789058869964776700,6.199776611328125,0.08023891597986221,-0.2343648374080658,-0.04746898263692856
1789058869974787800,6.209787841796875,0.08039630204439163,-0.19031241536140442,0.057925619184970856
1789058869984798700,6.219798828125,0.13915042579174042,-0.1926402896642685,0.13149172067642212
1789058869994810600,6.229810546875,0.2145218849182129,-0.20430120825767517,0.017726266756653786
1789058870004821500,6.239821533203125,0.2619525194168091,-0.2352532595396042,-0.056166864931583405
1789058870014832600,6.24983251953125,0.3023050129413605,-0.18450592458248138,0.06665519624948502
1789058870024843800,6.25984375,0.252918541431427,-0.1623114049434662,0.13487446308135986
1789058870034854700,6.269854736328125,0.28835296630859375,-0.10898267477750778,0.12250248342752457
1789058870044865500,6.279865478515625,0.358124315738678,-0.15391552448272705,-0.03515106439590454
1789058870054876700,6.289876708984375,0.37601545453071594,-0.1873222291469574,-0.031151793897151947
1789058870064888800,6.299888916015625,0.3301488757133484,-0.14813406765460968,-0.12252777814865112
1789058870074899700,6.309899658203125,0.27607977390289307,-0.049623213708400726,-0.008729043416678905
1789058870084910600,6.31991064453125,0.2630196511745453,-0.11229751259088516,0.10063979029655457
1789058870094922000,6.329921875,0.33870455622673035,-0.12031576037406921,0.30925852060317993
1789058870104933000,6.33993310546875,0.2828846871852875,-0.10632137954235077,0.1252756267786026
1789058870114944000,6.349944091796875,0.2905255854129791,-0.12088913470506668,-0.0625629797577858
1789058870124955000,6.359954833984375,0.29753395915031433,-0.1140781044960022,-0.010539726354181767
1789058870134966000,6.369966064453125,0.27250370383262634,-0.03592897206544876,0.05551945045590401
1789058870144978000,6.37997802734375,0.239056795835495,-0.04709853604435921,0.04282229766249657
1789058870154989000,6.389989013671875,0.2606760561466217,-0.05178489908576012,0.0594492107629776
1789058870165000000,6.4,0.25519129633903503,-0.04770307242870331,0.009808954782783985
1789058870175010800,6.4100107421875,0.2449471652507782,-0.05714983865618706,-0.04631530120968819
1789058870185022200,6.420022216796875,0.2127319723367691,-0.025717081502079964,0.06992022693157196
1789058870195033000,6.430033203125,0.21060623228549957,-0.033542513847351074,-0.10232264548540115
1789058870205044000,6.4400439453125,0.18989670276641846,-0.02803616225719452,-0.14085085690021515
1789058870215056000,6.450055908203125,0.19156117737293243,-0.04977341368794441,-0.14928695559501648
1789058870225067300,6.4600673828125,0.16778580844402313,-0.02317695878446102,-0.05318865180015564
1789058870235078100,6.470078125,0.15389448404312134,-0.02985296957194805,0.09721869230270386
1789058870245089000,6.480089111328125,0.164079487323761,0.045530468225479126,0.19041362404823303
1789058870255100000,6.490099853515625,0.10934167355298996,-0.006081860978156328,-0.025064872577786446
1789058870265111000,6.500111083984375,0.12512142956256866,-0.04559385031461716,-0.11020214110612869
1789058870275122000,6.510121826171875,0.10443133115768433,-0.00155262288171798,0.17237603664398193
1789058870285134000,6.520134033203125,0.073252372443676,-0.05710136890411377,-0.024778584018349648
1789058870295145000,6.53014501953125,0.013250557705760002,-0.004388356581330299,-0.13266323506832123
1789058870305156000,6.540156005859375,-0.012559467926621437,-0.03594415262341499,-0.08826354891061783
1789058870315167000,6.5501669921875,-0.026975158601999283,-0.000538491178303957,0.14613936841487885
1789058870325178000,6.56017822265625,0.00797137338668108,-0.03620274364948273,0.11124556511640549
1789058870335189000,6.57018896484375,0.00743155088275671,-0.13625317811965942,-0.18940187990665436
1789058870345200000,6.5802001953125,-0.10289256274700165,0.042519498616456985,-0.10991158336400986
1789058870355211000,6.5902109375,-0.15426254272460938,-0.012545619159936905,-0.07780291885137558
1789058870365223000,6.600222900390625,-0.04198366776108742,-0.04332536831498146,-0.0319046713411808
1789058870375234000,6.610234130859375,-0.11639531701803207,-0.022412098944187164,-0.04857765510678291
1789058870385245200,6.6202451171875,-0.19265998899936676,-0.037576936185359955,-0.02598685957491398
1789058870395256000,6.630256103515625,-0.13147467374801636,-0.005681854207068682,0.052264802157878876
1789058870405267000,6.640266845703125,-0.13728435337543488,-0.030857514590024948,-0.07195089012384415
1789058870415278000,6.650278076171875,-0.11576654762029648,-0.08339422941207886,-0.11670850962400436
1789058870425289000,6.6602890625,-0.03882782161235809,-0.07776430249214172,0.24240118265151978
1789058870435301000,6.670301025390625,-0.10465504229068756,-0.06058664619922638,0.13323555886745453
1789058870445312000,6.68031201171875,-0.14613963663578033,0.015218900516629219,-0.10824710875749588
1789058870455323000,6.690322998046875,-0.13924391567707062,0.018377941101789474,-0.14642485976219177
1789058870465334000,6.700333984375,-0.04050907492637634,-0.009134909138083458,-0.10824152082204819
1789058870475345200,6.71034521484375,0.03287752345204353,-0.02135349251329899,0.00809334684163332
1789058870485356000,6.72035595703125,0.04975157603621483,-0.05763666331768036,0.20236429572105408
1789058870495367200,6.7303671875,0.021770276129245758,-0.07250536233186722,0.20300690829753876
1789058870505378000,6.7403779296875,-0.07107098400592804,0.05204935371875763,-0.01967330276966095
1789058870515390000,6.750389892578125,-0.12222391366958618,0.053529538214206696,0.007505853194743395
1789058870525401000,6.760401123046875,-0.08444750308990479,-0.02640444226562977,-0.116951122879982
1789058870535412000,6.770411865234375,-0.11373268812894821,0.025652898475527763,0.04297516494989395
1789058870545423000,6.780423095703125,-0.11618945747613907,-0.0337102934718132,0.11809974163770676
1789058870555434000,6.79043408203125,-0.1197197437286377,-0.10240360349416733,-0.07213251292705536
1789058870565444900,6.80044482421875,-0.1402260810136795,-0.09844108670949936,-0.09693373739719391
1789058870575456300,6.810456298828125,-0.19600199162960052,-0.004517786670476198,0.06565011292695999
1789058870585468200,6.82046826171875,-0.2699073851108551,-0.017950771376490593,0.029709426686167717
1789058870595479000,6.83047900390625,-0.2578757405281067,-0.0009257147903554142,0.0064895907416939735
1789058870605490000,6.840489990234375,-0.12985973060131073,-0.0881735309958458,0.04475681856274605
1789058870615500800,6.850500732421875,-0.10783591866493225,-0.09412863105535507,-0.027879035100340843
1789058870625512200,6.86051220703125,-0.14966405928134918,-0.07067177444696426,-0.09328174591064453
1789058870635523000,6.870523193359375,-0.11893464624881744,-0.08639480918645859,0.003087935270741582
1789058870645534000,6.880533935546875,-0.03881077840924263,-0.12008938938379288,0.06733802706003189
1789058870655545000,6.890545166015625,-0.10651152580976486,-0.08403658121824265,0.0367492251098156
1789058870665557200,6.90055712890625,-0.10135059058666229,-0.06307137757539749,0.04929244890809059
1789058870675568000,6.910568115234375,-0.09225083142518997,-0.11479395627975464,-0.10109040141105652
1789058870685579000,6.9205791015625,-0.03870105743408203,-0.06314541399478912,-0.09178104996681213
1789058870695590100,6.930590087890625,0.039796680212020874,-0.12810364365577698,-0.13060355186462402
1789058870705601000,6.94060107421875,0.09689965099096298,-0.14017921686172485,-0.11156167834997177
1789058870715612000,6.95061181640625,0.14266234636306763,-0.09495101124048233,-0.05096198245882988
1789058870725623000,6.960623046875,0.2577196955680847,-0.07628465443849564,0.34270569682121277
1789058870735635000,6.970635009765625,0.2474135160446167,-0.18901225924491882,0.08394017070531845
1789058870745646000,6.98064599609375,0.26000815629959106,-0.044686511158943176,0.05697087571024895
1789058870755657000,6.990656982421875,0.26115357875823975,-0.0578896664083004,0.05240941047668457
1789058870765667800,7.000667724609375,0.28651273250579834,-0.048827461898326874,0.00965822022408247
1789058870775679200,7.01067919921875,0.3473699390888214,-0.06872420012950897,-0.10559486597776413
1789058870785690000,7.020690185546875,0.43688225746154785,-0.09968291968107224,-0.11676523089408875
1789058870795701000,7.030700927734375,0.4170161485671997,-0.023151125758886337,0.044371191412210464
1789058870805712000,7.0407119140625,0.2997798025608063,0.006524478085339069,-0.04089896380901337
1789058870815724000,7.05072412109375,0.3685186505317688,-0.026458771899342537,0.015623967163264751
1789058870825735200,7.060735107421875,0.5684530735015869,-0.10582603514194489,0.07174502313137054
1789058870835746000,7.07074609375,0.46900424361228943,-0.06519205123186111,0.18585854768753052
1789058870845757000,7.0807568359375,0.33211109042167664,0.019702598452568054,0.06929385662078857
1789058870855768000,7.09076806640625,0.32531338930130005,-0.007322361227124929,-0.010046509094536304
1789058870865779000,7.100779052734375,0.35210877656936646,-0.04398476704955101,-0.11518890410661697
1789058870875790000,7.1107900390625,0.41134199500083923,-0.01571717858314514,-0.006610498297959566
1789058870885802000,7.120802001953125,0.3353779911994934,-0.04081933572888374,-0.07328939437866211
1789058870895812900,7.130812744140625,0.23536750674247742,0.028417792171239853,-0.0828099250793457
1789058870905824000,7.140823974609375,0.28523918986320496,0.008477640338242054,-0.07223425060510635
1789058870915835100,7.150835205078125,0.3064989447593689,0.05964948236942291,0.16179876029491425
1789058870925846000,7.160845947265625,0.23698697984218597,-0.013966149650514126,-0.0422515831887722
1789058870935857200,7.170857177734375,0.3015771508216858,-0.0057798586785793304,-0.09753934293985367
1789058870945868000,7.180867919921875,0.21246033906936646,0.010516024194657803,-0.11723661422729492
1789058870955879000,7.19087890625,0.17945444583892822,0.02088930271565914,-0.09210968762636185
1789058870965891000,7.20089111328125,0.22639133036136627,0.042022816836833954,-0.010368218645453453
1789058870975902200,7.210902099609375,0.26654353737831116,-0.015358449891209602,0.07438208907842636
1789058870985913000,7.2209130859375,0.20983046293258667,0.01260900218039751,0.10711100697517395
1789058870995924000,7.230924072265625,0.14133448898792267,0.046609312295913696,-0.05564648285508156
1789058871005934800,7.240934814453125,0.12860777974128723,0.06335367262363434,-0.04824475944042206
1789058871015946200,7.2509462890625,0.1444740891456604,0.05397694930434227,-0.013916614465415478
1789058871025957000,7.26095703125,0.10552322864532471,0.059361595660448074,-0.02924763411283493
1789058871035969000,7.270968994140625,0.03792634233832359,0.056783922016620636,-0.06186496466398239
1789058871045980000,7.28097998046875,0.04445641487836838,0.04611583054065704,-0.03632764890789986
1789058871055991000,7.290990966796875,0.0411146804690361,0.0531737394630909,0.08688829094171524
1789058871066002200,7.301002197265625,0.01721041277050972,0.050148654729127884,0.07154715061187744
1789058871076013000,7.311012939453125,-0.03666213899850845,0.014485465362668037,-0.009823069907724857
1789058871086024000,7.32102392578125,-0.06271851062774658,0.04332137480378151,0.09194803237915039
1789058871096034800,7.331034912109375,-0.11024688184261322,0.09668686240911484,0.019523367285728455
1789058871106045700,7.341045654296875,-0.06766986101865768,-0.005525792948901653,-0.08936077356338501
1789058871116057600,7.3510576171875,-0.05543582886457443,-0.02779248170554638,-0.192827507853508
1789058871126068500,7.361068359375,-0.13064828515052795,0.023792413994669914,0.0656874030828476
1789058871136080000,7.371079833984375,-0.11344879865646362,0.050873301923274994,0.05760230869054794
1789058871146090800,7.3810908203125,-0.12924720346927643,0.04604818671941757,-0.01805010624229908
1789058871156101600,7.3911015625,-0.14460670948028564,-0.049377404153347015,-0.09647434204816818
1789058871166112800,7.40111279296875,-0.07335357367992401,0.049015212804079056,0.16592025756835938
1789058871176123600,7.41112353515625,-0.0640849769115448,-0.07795818150043488,-0.027117371559143066
1789058871186134800,7.421134765625,-0.03439925238490105,-0.1345737874507904,-0.13749420642852783
1789058871196146700,7.431146728515625,-0.11603792011737823,0.039447806775569916,0.1267925649881363
1789058871206157600,7.441157470703125,-0.050816044211387634,-0.01878087781369686,0.164565771818161
1789058871216168700,7.451168701171875,-0.022291989997029305,-0.05915946140885353,0.11087964475154877
1789058871226179600,7.4611796875,-0.04037165641784668,0.011968512088060379,0.27418309450149536
1789058871236190700,7.471190673828125,-0.008461927995085716,-0.06452226638793945,0.05360383912920952
1789058871246201900,7.481201904296875,-0.0019630161114037037,-0.015308648347854614,-0.04399648681282997
1789058871256212700,7.491212646484375,0.07330537587404251,-0.042153578251600266,0.021627530455589294
1789058871266224600,7.501224609375,0.17096109688282013,-0.06282077729701996,0.006101568229496479
1789058871276235500,7.511235595703125,0.15294480323791504,-0.021915152668952942,0.07733340561389923
1789058871286246700,7.52124658203125,0.17293262481689453,-0.007031810469925404,0.08123733103275299
1789058871296257800,7.5312578125,0.1597747504711151,0.013354421593248844,-0.023416642099618912
1789058871306268700,7.5412685546875,0.11378461867570877,0.02226509153842926,-0.0683276578783989
1789058871316279600,7.551279541015625,0.19620946049690247,0.006352704484015703,-0.13373862206935883
1789058871326290700,7.561290771484375,0.2841379940509796,0.0284633319824934,0.05191619321703911
1789058871336301800,7.5713017578125,0.2942561209201813,-0.03545466437935829,-0.04303561896085739
1789058871346313700,7.581313720703125,0.25406715273857117,0.035039741545915604,0.004032558295875788
1789058871356324600,7.59132470703125,0.3297952115535736,-0.03471750020980835,0.030058300122618675
1789058871366335700,7.601335693359375,0.3415727913379669,-0.00016058860637713224,0.04012185335159302
1789058871376346600,7.6113466796875,0.273206502199173,-0.06868132948875427,-0.12359251081943512
1789058871386357800,7.621357666015625,0.2658231556415558,0.11676310002803802,0.15551182627677917
1789058871396368600,7.63136865234375,0.2792406976222992,0.01889406330883503,-0.02689073607325554
1789058871406379800,7.6413798828125,0.2193419337272644,0.07934462279081345,-0.06745866686105728
1789058871416390700,7.651390625,0.2659933269023895,0.09220289438962936,0.005005144979804754
1789058871426402800,7.66140283203125,0.34696221351623535,0.03696121275424957,-0.0008841694798320532
1789058871436413700,7.67141357421875,0.4197509288787842,0.010583136230707169,0.022948725149035454
1789058871446424800,7.6814248046875,0.35133060812950134,0.042274218052625656,0.03460804373025894
1789058871456435700,7.691435791015625,0.31272223591804504,0.09318666905164719,0.07935687154531479
1789058871466446600,7.701446533203125,0.29888418316841125,0.113048255443573,-0.10453306883573532
1789058871476457500,7.71145751953125,0.256914883852005,0.09004014730453491,-0.11349939554929733
1789058871486468900,7.72146875,0.2567545473575592,0.10603135824203491,0.06385567784309387
1789058871496480800,7.731480712890625,0.3301805853843689,0.011272894218564034,0.035710059106349945
1789058871506491600,7.74149169921875,0.3117925226688385,-0.008925051428377628,-0.1314227432012558
1789058871516502500,7.75150244140625,0.25043541193008423,0.08301685750484467,0.06437366455793381
1789058871526514000,7.761513916015625,0.19566404819488525,0.08800522238016129,0.03068707324564457
1789058871536524800,7.77152490234375,0.20544689893722534,0.12416322529315948,0.12067422270774841
1789058871546535700,7.78153564453125,0.18663965165615082,0.12033066898584366,0.004400873556733131
1789058871556546800,7.791546875,0.2530900537967682,0.15128405392169952,0.11852824687957764
1789058871566557700,7.8015576171875,0.27964097261428833,0.04192508012056351,-0.08180458843708038
1789058871576569900,7.81156982421875,0.26852279901504517,0.08102108538150787,-0.10805775970220566
1789058871586580700,7.821580810546875,0.32003340125083923,0.050098054111003876,-0.03648264333605766
1789058871596591600,7.831591552734375,0.2702626585960388,0.16990861296653748,0.10866895318031311
1789058871606602800,7.841602783203125,0.24127785861492157,0.12661093473434448,0.06739768385887146
1789058871616613600,7.851613525390625,0.12289050221443176,0.2219310700893402,-0.06300453096628189
1789058871626624500,7.86162451171875,0.1369706392288208,0.20102259516716003,0.016923323273658752
1789058871636636000,7.871635986328125,0.29928895831108093,0.041967954486608505,-0.11367277055978775
1789058871646646800,7.881646728515625,0.2720072865486145,0.054788678884506226,0.024960743263363838
1789058871656658700,7.89165869140625,0.07077536731958389,0.10534054040908813,0.0041313618421554565
1789058871666669600,7.901669677734375,0.09039753675460815,0.11779320985078812,0.032932382076978683
1789058871676680700,7.9116806640625,0.08290153741836548,0.11037977039813995,0.06598247587680817
1789058871686691800,7.92169189453125,0.03032594732940197,0.12113015353679657,0.1825658231973648
1789058871696702700,7.93170263671875,-0.013125655241310596,0.12285587936639786,0.2360394299030304
1789058871706713600,7.941713623046875,-0.10911396890878677,0.1674177497625351,0.18062064051628113
1789058871716724700,7.951724853515625,-0.14228789508342743,0.09304791688919067,0.0520019493997097
1789058871726735600,7.961735595703125,-0.16898636519908905,0.07928124070167542,-0.05693252384662628
1789058871736747800,7.971747802734375,-0.18949270248413086,0.09856412559747696,0.08368424326181412
1789058871746758700,7.981758544921875,-0.24236923456192017,0.11819002032279968,0.15923652052879333
1789058871756769500,7.99176953125,-0.28676652908325195,0.08414710313081741,0.060981329530477524
1789058871766780700,8.00178076171875,-0.32916030287742615,0.0786905512213707,0.08315613865852356
1789058871776791800,8.011791748046875,-0.3498613238334656,0.06916309148073196,0.06950557231903076
1789058871786802700,8.021802734375,-0.37094372510910034,0.018747322261333466,-0.03664509579539299
1789058871796813800,8.031813720703125,-0.42830580472946167,0.05146905034780502,-0.07337408512830734
1789058871806825700,8.04182568359375,-0.38619670271873474,0.012079832144081593,-0.08037260174751282
1789058871816836600,8.051836669921874,-0.40612247586250305,0.04506734386086464,0.0735008493065834
1789058871826847700,8.06184765625,-0.3672808110713959,-0.06882460415363312,-0.19792479276657104
1789058871836858600,8.071858642578125,-0.4101574420928955,0.018690597265958786,0.01726793684065342
1789058871846869800,8.081869873046875,-0.36013367772102356,-0.032698292285203934,-0.026330141350626945
1789058871856880600,8.091880615234375,-0.39718863368034363,0.10591551661491394,0.10438606142997742
1789058871866891500,8.1018916015625,-0.2846676707267761,-0.0927714854478836,-0.10989347845315933
1789058871876902700,8.111902587890626,-0.25200268626213074,-0.005520200356841087,0.05355643481016159
1789058871886914800,8.121914794921874,-0.21059904992580414,-0.012232431210577488,0.09064441174268723
1789058871896925700,8.13192578125,-0.17508846521377563,-0.043361589312553406,0.09212007373571396
1789058871906936600,8.1419365234375,-0.12691587209701538,0.06011553481221199,0.1101004034280777
1789058871916947700,8.15194775390625,-0.06737131625413895,0.018610170111060143,-0.05943349748849869
1789058871926958800,8.161958740234375,0.06646157801151276,-0.10965406149625778,-0.059130165725946426
1789058871936969700,8.1719697265625,0.05559428781270981,0.012688364833593369,0.033847976475954056
1789058871946980600,8.181980712890624,0.0725860521197319,-0.027280356734991074,0.0962330624461174
1789058871956991700,8.19199169921875,0.13012923300266266,0.0021899172570556402,0.12628284096717834
1789058871967003600,8.202003662109375,0.08606298267841339,-0.03615400940179825,-0.08357798308134079
1789058871977014800,8.212014892578125,0.09906985610723495,-0.03513002395629883,-0.1668238788843155
1789058871987025700,8.222025634765625,0.07415678352117538,0.013249492272734642,-0.09194456785917282
1789058871997036800,8.232036865234376,0.06590843945741653,-0.03582031652331352,-0.10467314720153809
1789058872007047700,8.242047607421876,0.09837450832128525,0.025838786736130714,0.10253755748271942
1789058872017058600,8.25205859375,0.1259579360485077,-0.019952403381466866,0.13168399035930634
1789058872027069700,8.262069580078125,0.14006683230400085,-0.05949794873595238,0.003087668912485242
1789058872037080800,8.272080810546875,0.0941198393702507,-0.05072682723402977,-0.07898669689893723
1789058872047092700,8.2820927734375,0.07872384041547775,-0.05972830951213837,-0.14034326374530792
1789058872057103600,8.292103515625,0.10343531519174576,0.007522897329181433,-0.0011763182701542974
1789058872067114500,8.302114501953126,0.07688013464212418,-0.033196836709976196,-0.013323528692126274
1789058872077126000,8.3121259765625,0.09485220909118652,-0.037579331547021866,0.034398455172777176
1789058872087136800,8.32213671875,0.1277606189250946,-0.022485867142677307,0.05225148797035217
1789058872097147100,8.332147216796875,0.1289428025484085,-0.04268568009138107,0.0026820695493370295
1789058872107158500,8.342158447265625,0.14452442526817322,-0.04180150851607323,0.02827797643840313
1789058872117169400,8.35216943359375,0.12118208408355713,-0.0037670412566512823,0.07447343319654465
1789058872127181300,8.362181396484376,0.12311767041683197,-0.004963066894561052,0.07530780136585236
1789058872137192200,8.372192138671876,0.1357639580965042,-0.024709073826670647,-0.044315800070762634
1789058872147203300,8.382203369140624,0.20640456676483154,-0.03947949782013893,0.024705613031983376
1789058872157214500,8.39221435546875,0.2283460944890976,-0.03445864096283913,0.04025927186012268
1789058872167225300,8.402225341796875,0.18508782982826233,0.004766792058944702,0.04170030727982521
1789058872177236200,8.412236328125,0.17089077830314636,-0.01943095587193966,0.04439515992999077
1789058872187247400,8.422247314453125,0.1760900765657425,-0.0325334407389164,0.043964263051748276
1789058872197258200,8.43225830078125,0.1576889604330063,-0.003177683800458908,0.07385238260030746
1789058872207270400,8.4422705078125,0.1110474243760109,-0.042158372700214386,-0.023199329152703285
1789058872217281300,8.45228125,0.09910953789949417,-0.008855809457600117,0.05054333433508873
1789058872227292400,8.46229248046875,0.10139159858226776,0.024475781247019768,0.0341009795665741
1789058872237303300,8.47230322265625,0.11679159849882126,0.00245090713724494,0.002454369328916073
1789058872247314200,8.482314208984375,0.1359059065580368,-0.0577184222638607,-0.13549284636974335
1789058872257325300,8.4923251953125,0.15745887160301208,0.02792244404554367,-0.03621499612927437
1789058872267336400,8.50233642578125,0.19432073831558228,-0.02425766922533512,-0.07747428864240646
1789058872277348400,8.512348388671874,0.26865968108177185,-0.004223507363349199,0.007321029901504517
1789058872287359200,8.522359130859375,0.28502535820007324,0.020321782678365707,0.014030331745743752
1789058872297370400,8.532370361328125,0.3408377468585968,0.045280396938323975,0.050689008086919785
1789058872307381500,8.542381591796875,0.412739634513855,0.028847893700003624,0.0678299143910408
1789058872317392400,8.552392333984375,0.422861784696579,0.0476042702794075,0.04230378195643425
1789058872327403300,8.5624033203125,0.37599867582321167,0.17617610096931458,0.16660842299461365
1789058872337414100,8.5724140625,0.32192477583885193,0.06489857286214828,-0.23891058564186096
1789058872347425300,8.58242529296875,0.3692866861820221,0.12026835232973099,-0.29257380962371826
1789058872357437400,8.5924375,0.4597628116607666,0.10826309025287628,0.06872420012950897
1789058872367448300,8.6024482421875,0.5306409597396851,0.0574563667178154,0.18994782865047455
1789058872377459200,8.612459228515625,0.38186347484588623,0.12069525569677353,0.14654763042926788
1789058872387470300,8.62247021484375,0.3153800666332245,0.17581789195537567,0.018907377496361732
1789058872397481500,8.6324814453125,0.26296213269233704,0.24142833054065704,0.09803495556116104
1789058872407492400,8.642492431640624,0.20330491662025452,0.1293974071741104,-0.10779251158237457
1789058872417503200,8.652503173828125,0.15758110582828522,0.15551795065402985,-0.10323024541139603
1789058872427514400,8.662514404296875,0.13682761788368225,0.1253427416086197,0.025685124099254608
1789058872437526300,8.6725263671875,0.06548473238945007,0.2098701447248459,0.1577286422252655
1789058872447537400,8.682537353515626,-0.0425458624958992,0.17103326320648193,0.03146924450993538
1789058872457548300,8.69254833984375,0.030825024470686913,0.11964970082044601,-0.06461095064878464
1789058872467559400,8.702559326171874,-0.017377391457557678,0.13433730602264404,0.102754607796669
1789058872477570300,8.7125703125,-0.08017366379499435,0.038188397884368896,-0.20482078194618225
1789058872487581200,8.722581298828125,-0.1251877397298813,0.11328154802322388,-0.25948455929756165
1789058872497592300,8.73259228515625,-0.2030218243598938,0.1122296005487442,-0.05548642948269844
1789058872507603500,8.742603515625,-0.1737382411956787,0.13683614134788513,0.06299334764480591
1789058872517615400,8.752615478515626,-0.20209823548793793,0.08683449774980545,0.06913565844297409
1789058872527626200,8.762626220703124,-0.31041592359542847,0.14402854442596436,0.07750331610441208
1789058872537637000,8.77263720703125,-0.3325395882129669,0.1486896127462387,0.09425273537635803
1789058872547648500,8.7826484375,-0.30900925397872925,0.10807081311941147,-0.015634620562195778
1789058872557659400,8.792659423828125,-0.3248249590396881,0.06498964875936508,-0.0832860991358757
1789058872567670300,8.802670166015625,-0.3341907560825348,0.04313255846500397,-0.0489017628133297
1789058872577681400,8.812681396484376,-0.3459845781326294,0.056046489626169205,0.05961645767092705
1789058872587692300,8.8226923828125,-0.34203484654426575,0.056593503803014755,-0.015117966569960117
1789058872597704400,8.832704345703124,-0.3628016412258148,0.0776657685637474,-0.14887523651123047
1789058872607715300,8.84271533203125,-0.33466774225234985,0.024270452558994293,-0.12226545810699463
1789058872617726200,8.852726318359375,-0.33248794078826904,0.09574330598115921,0.12029258906841278
1789058872627737300,8.8627373046875,-0.3294535279273987,0.034572359174489975,0.15292111039161682
1789058872637748200,8.872748291015625,-0.25413668155670166,0.14339017868041992,0.2177533656358719
1789058872647759400,8.88275927734375,-0.25586798787117004,-0.023437149822711945,-0.22982947528362274
1789058872657770500,8.8927705078125,-0.21587690711021423,-0.034689802676439285,-0.24150343239307404
1789058872667781400,8.902781494140624,-0.19045622646808624,0.020891433581709862,-0.11868883669376373
1789058872677793300,8.912793212890625,-0.15827539563179016,0.01636805385351181,0.03652258962392807
1789058872687804200,8.92280419921875,-0.1742599457502365,-0.000824248360004276,-0.012045477516949177
1789058872697815300,8.932815185546875,-0.12291793525218964,0.06339548528194427,0.21957150101661682
1789058872707826400,8.942826416015626,-0.08114784955978394,0.08901242911815643,0.026456907391548157
1789058872717837300,8.95283740234375,-0.023441409692168236,0.019640812650322914,-0.03895219415426254
1789058872727848200,8.96284814453125,-0.011356784030795097,0.013397830538451672,-0.147622749209404
1789058872737859300,8.972859375,0.02623985894024372,0.03067988157272339,0.07978803664445877
1789058872747870200,8.9828701171875,0.07046777755022049,0.03220054507255554,-0.0533582977950573
1789058872757882400,8.99288232421875,0.010156497359275818,0.040712274610996246,0.015279087238013744
1789058872767893200,9.002893310546876,0.020474914461374283,0.08303629606962204,0.052489571273326874
1789058872777904400,9.012904296875,0.0345342755317688,0.025954635813832283,0.04170030727982521
1789058872787915300,9.022915283203124,0.10169892758131027,-0.01894306391477585,0.031317975372076035
1789058872797926400,9.032926513671875,0.127188578248024,-0.02930782176554203,-0.05728885531425476
1789058872807937300,9.042937255859375,-0.011830028146505356,0.09045054018497467,0.06977561861276627
1789058872817948400,9.052948486328125,0.0253442395478487,-0.015305186621844769,-0.19272178411483765
1789058872827959300,9.062959228515625,0.03631992265582085,0.01787327229976654,-0.1350049525499344
1789058872837971200,9.07297119140625,0.07443588227033615,0.0051779840141534805,0.026791134849190712
1789058872847982300,9.082982421875,0.08343496918678284,0.02791711874306202,0.1950720250606537
1789058872857993500,9.092993408203125,0.04987568035721779,0.04998460412025452,0.13669313490390778
1789058872868004400,9.10300439453125,0.05064693093299866,-0.047751810401678085,-0.058341335505247116
1789058872878015200,9.11301513671875,0.13699327409267426,0.046727292239665985,-0.008923187851905823
1789058872888026000,9.123026123046875,0.11227700859308243,0.00920068845152855,-0.05151698738336563
1789058872898037500,9.13303759765625,0.17680060863494873,0.03398992493748665,-0.035825375467538834
1789058872908048400,9.14304833984375,0.1873326152563095,0.04378849267959595,-0.021344436332583427
1789058872918060300,9.153060302734374,0.20036186277866364,0.07545773684978485,0.02299213409423828
1789058872928071200,9.1630712890625,0.3167811334133148,0.038294125348329544,0.025841983035206795
1789058872938082300,9.173082275390625,0.352252334356308,0.06451933830976486,0.0737898051738739
1789058872948093400,9.183093505859375,0.3451712429523468,0.06107054278254509,0.02472345530986786
1789058872958104300,9.193104248046875,0.32496824860572815,0.10718584060668945,0.05222751945257187
1789058872968115500,9.203115478515626,0.29737389087677,0.1198158860206604,0.07639623433351517
1789058872978126300,9.213126220703124,0.3020924925804138,0.11571568250656128,-0.06341385841369629
1789058872988137200,9.22313720703125,0.28483280539512634,0.12815716862678528,-0.0248480923473835
1789058872998149400,9.2331494140625,0.2686026990413666,0.08411914110183716,-0.11467784643173218
1789058873008160300,9.24316015625,0.2303682267665863,0.15164971351623535,0.07004353404045105
1789058873018171400,9.25317138671875,0.1975061446428299,0.12690015137195587,-0.0312199704349041
1789058873028182300,9.263182373046876,0.1928488165140152,0.08862467110157013,-0.00364746549166739
1789058873038193200,9.273193115234376,0.10646811872720718,0.16204269230365753,0.054912783205509186
1789058873048204500,9.28320458984375,0.002692455891519785,0.15149764716625214,0.07022968679666519
1789058873058215400,9.29321533203125,-0.013707556761801243,0.170357346534729,0.03110518865287304
1789058873068226300,9.303226318359375,-0.08309409022331238,0.16228237748146057,-0.05420278385281563
1789058873078238200,9.31323828125,-0.10987084358930588,0.12373366206884384,0.09333553910255432
1789058873088249000,9.3232490234375,-0.12555766105651855,0.10306832939386368,0.01811269111931324
1789058873098260700,9.3332607421875,-0.21688544750213623,0.1122535690665245,0.035049330443143845
1789058873108272600,9.343272705078125,-0.2697795331478119,0.13219958543777466,-0.09039061516523361
1789058873118283500,9.353283447265625,-0.33841028809547424,0.14939960837364197,0.1393219381570816
1789058873128294400,9.36329443359375,-0.3554590344429016,0.11600010842084885,-0.02347629703581333
1789058873138305500,9.373305419921875,-0.40002837777137756,0.18048322200775146,0.053759101778268814
1789058873148316700,9.383316650390626,-0.3596785366535187,0.0755472183227539,-0.12062415480613708
1789058873158327600,9.39332763671875,-0.4335205554962158,0.11174757033586502,0.048777658492326736
1789058873168338400,9.40333837890625,-0.43944501876831055,0.08169353008270264,-0.1654965579509735
1789058873178349600,9.413349609375,-0.3997953236103058,0.1100066602230072,-0.020071446895599365
1789058873188361700,9.42336181640625,-0.4016001522541046,0.041256360709667206,-0.14532870054244995
1789058873198372600,9.43337255859375,-0.46720820665359497,0.0839199349284172,0.14569967985153198
1789058873208383500,9.443383544921875,-0.45424020290374756,0.027004186064004898,-0.017121994867920876
1789058873218394600,9.45339453125,-0.4966427981853485,0.04861866682767868,0.05025305226445198
1789058873228405500,9.463405517578124,-0.4843355119228363,-0.05742600932717323,-0.17728450894355774
1789058873238416400,9.47341650390625,-0.5741602182388306,0.06099970266222954,0.07295889407396317
1789058873248427500,9.483427490234375,-0.5954809784889221,0.023437149822711945,-0.10936244577169418
1789058873258438700,9.493438720703125,-0.5406099557876587,0.008011055178940296,-0.000996821210719645
1789058873268450600,9.503450439453125,-0.5352565050125122,-0.05534448102116585,-0.025370337069034576
1789058873278461400,9.51346142578125,-0.5515800714492798,0.002403769176453352,0.07723646610975266
1789058873288472300,9.523472412109374,-0.5333981513977051,-0.054782554507255554,-0.040470995008945465
1789058873298483700,9.533483642578124,-0.49845027923583984,-0.04831267148256302,0.05118382349610329
1789058873308494600,9.54349462890625,-0.44370394945144653,-0.09692414849996567,-0.0035840822383761406
1789058873318505500,9.55350537109375,-0.45086944103240967,-0.07240735739469528,0.025352761149406433
1789058873328516600,9.5635166015625,-0.4806388020515442,-0.041362885385751724,-0.05615248531103134
1789058873338527500,9.573527587890625,-0.3440191447734833,-0.04277462884783745,-0.016224509105086327
1789058873348539600,9.58353955078125,-0.2741905450820923,-0.11349247395992279,-0.011345066130161285
1789058873358550500,9.593550537109374,-0.24886973202228546,-0.06317870318889618,0.10693630576133728
1789058873368561400,9.6035615234375,-0.20062604546546936,-0.04710093140602112,0.12458161264657974
1789058873378572500,9.613572509765625,-0.08658202737569809,-0.1258964091539383,-0.0389854833483696
1789058873388583400,9.62358349609375,-0.06702990084886551,-0.09687541425228119,-0.09559256583452225
1789058873398594600,9.633594482421875,-0.1127273440361023,-0.029815420508384705,0.0992022156715393
1789058873408605700,9.643605712890626,-0.02905402146279812,-0.08953627198934555,0.11862944811582565
1789058873418616600,9.653616455078126,0.026855049654841423,-0.09658752381801605,0.1399105042219162
1789058873428627500,9.66362744140625,0.022427810356020927,-0.1071285828948021,0.01187823060899973
1789058873438638300,9.673638427734375,0.054187603294849396,-0.03628716617822647,0.13392184674739838
1789058873448649700,9.683649658203125,0.10217616707086563,-0.20535369217395782,-0.1738990843296051
1789058873458660600,9.69366064453125,0.08394842594861984,-0.09591827541589737,-0.09299145638942719
1789058873468671500,9.70367138671875,0.03369325026869774,-0.0013337110867723823,0.06583014875650406
1789058873478683400,9.713683349609376,0.0705852210521698,0.00842570886015892,0.19971418380737305
1789058873488694500,9.723694580078124,0.17572975158691406,-0.11255237460136414,0.05879594013094902
1789058873498705700,9.73370556640625,0.20431505143642426,-0.09817423671483994,0.08644993603229523
1789058873508716500,9.743716552734375,0.06114085018634796,-0.06342930346727371,0.10902954638004303
1789058873518727400,9.7537275390625,0.08133107423782349,-0.16313938796520233,-0.07151945680379868
1789058873528738600,9.763738525390625,0.028852686285972595,-0.02209385111927986,-0.016685502603650093
1789058873538749400,9.77374951171875,0.00035499935620464385,-0.06638594716787338,-0.039628900587558746
1789058873548760300,9.78376025390625,-0.006163619924336672,-0.009073656052350998,0.028230838477611542
1789058873558771700,9.793771728515624,-0.027510453015565872,-0.05711228772997856,-0.03159734234213829
1789058873568783600,9.80378369140625,0.006190251559019089,-0.054609715938568115,0.058342933654785156
1789058873578794500,9.81379443359375,0.012752280570566654,-0.0917525589466095,0.01739417016506195
1789058873588805400,9.823805419921875,0.030651386827230453,-0.0744747668504715,0.11808323115110397
1789058873598816500,9.83381640625,-0.033789653331041336,-0.06149318814277649,0.010075004771351814
1789058873608827600,9.84382763671875,-0.14894846081733704,0.05302193760871887,0.11624671518802643
1789058873618838500,9.853838623046874,-0.026734674349427223,-0.04054875671863556,0.10022114217281342
1789058873628849400,9.863849365234374,0.13748781383037567,-0.1290956735610962,-0.012252671644091606
1789058873638860500,9.873860595703125,0.03009132295846939,-0.029414348304271698,-0.006384662352502346
1789058873648872700,9.883872802734375,-0.03178323060274124,-0.08256411552429199,-0.1729336977005005
1789058873658883600,9.893883544921875,-0.04318741708993912,-0.06548366695642471,-0.055635564029216766
1789058873668894500,9.90389453125,-0.09517525136470795,-0.028258802369236946,-0.0062706791795790195
1789058873678905600,9.913905517578126,-0.10205899178981781,-0.05775916948914528,0.03965979442000389
1789058873688916500,9.92391650390625,-0.1009063720703125,-0.12186864763498306,0.052914079278707504
1789058873698927600,9.933927734375,-0.20405326783657074,-0.06208893656730652,0.12969061732292175
1789058873708938500,9.9439384765625,-0.3485065698623657,-0.026278475299477577,0.019030150026082993
1789058873718949600,9.95394970703125,-0.35146668553352356,-0.05042242631316185,-0.12022281438112259
1789058873728961500,9.96396142578125,-0.29342976212501526,-0.09007769823074341,0.000251402409048751
1789058873738972400,9.973972412109376,-0.25445786118507385,-0.128515362739563,-0.07459434121847153
1789058873748983600,9.983983642578124,-0.33537372946739197,-0.09691136330366135,-0.029294772073626518
1789058873758994700,9.99399462890625,-0.39144501090049744,-0.1323159635066986,-0.0486903078854084
1789058873769005600,10.004005615234375,-0.37721920013427734,-0.08131669461727142,0.09774227440357208
1789058873779016400,10.014016357421875,-0.34603995084762573,-0.11812824010848999,-0.00998925045132637
1789058873789027300,10.02402734375,-0.32543960213661194,-0.08031001687049866,-0.09093629568815231
1789058873799038700,10.034038818359376,-0.3005387783050537,-0.2523004114627838,-0.23464898765087128
1789058873809050600,10.044050537109374,-0.32045045495033264,-0.10242490470409393,-0.08904651552438736
1789058873819061500,10.0540615234375,-0.36420193314552307,-0.06391586363315582,0.1079549640417099
1789058873829072400,10.064072265625,-0.24338868260383606,-0.12562823295593262,0.07089867442846298
1789058873839083500,10.07408349609375,-0.2077113837003708,-0.0988759770989418,0.17931222915649414
1789058873849094700,10.0840947265625,-0.190941721200943,-0.23600080609321594,-0.1588386446237564
1789058873859105500,10.09410546875,-0.13780580461025238,-0.11965076625347137,-0.08449570834636688
1789058873869116700,10.10411669921875,-0.08731519430875778,-0.17810554802417755,-0.1740088164806366
1789058873879127600,10.11412744140625,-0.047253530472517014,-0.13299134373664856,-0.08195611834526062
1789058873889138400,10.124138427734374,-0.08390368521213531,-0.09991008788347244,-0.000025300030756625347
1789058873899150600,10.134150634765625,-0.06399256736040115,-0.17229028046131134,-0.054250188171863556
1789058873909161500,10.144161376953125,0.003031742526218295,-0.14245274662971497,0.056828927248716354
1789058873919172600,10.154172607421875,-0.03513055667281151,-0.07593125104904175,0.10112901777029037
1789058873929183500,10.16418359375,0.01685701124370098,-0.13141261041164398,0.08106209337711334
1789058873939194400,10.1741943359375,0.06232968717813492,-0.1377623975276947,-0.12455577403306961
1789058873949205800,10.184205810546874,0.09027689695358276,-0.12542849779129028,-0.004145476501435041
1789058873959216600,10.194216552734375,0.1727304905653,-0.12447348237037659,-0.03299363702535629
1789058873969227500,10.2042275390625,0.16262540221214294,-0.16362594068050385,-0.16306641697883606
1789058873979239400,10.214239501953125,0.16928303241729736,-0.1335303634405136,0.009431584738194942
1789058873989250300,10.224250244140626,0.18498475849628448,-0.0880691409111023,0.07072743028402328
1789058873999261700,10.23426171875,0.16389518976211548,-0.12497575581073761,-0.0007177218794822693
1789058874009272600,10.2442724609375,0.15630358457565308,-0.11891626566648483,-0.13702070713043213
1789058874019283500,10.254283447265625,0.1604384034872055,-0.057849183678627014,0.06835881620645523
1789058874029294600,10.264294677734375,0.19885636866092682,-0.08050496131181717,0.1488368809223175
1789058874039305500,10.274305419921875,0.20846852660179138,-0.13834190368652344,0.026451313868165016
1789058874049316600,10.284316650390625,0.19984467327594757,-0.10105391591787338,-0.041066475212574005
1789058874059328500,10.29432861328125,0.1863134205341339,-0.005678125657141209,0.025598837062716484
1789058874069339400,10.30433935546875,0.2609035074710846,-0.11496200412511826,-0.021979333832859993
1789058874079350500,10.3143505859375,0.26916277408599854,-0.07872889935970306,0.031211981549859047
1789058874089361400,10.324361328125,0.25737133622169495,-0.031980834901332855,0.057440921664237976
1789058874099372300,10.334372314453125,0.32923540472984314,-0.06124338507652283,0.0051534827798604965
1789058874109383400,10.344383544921875,0.34283965826034546,-0.07628731429576874,-0.027469974011182785
1789058874119394300,10.354394287109375,0.28731513023376465,0.008049936965107918,0.10830889642238617
1789058874129405200,10.3644052734375,0.3007603585720062,0.04399408772587776,0.11638493090867996
1789058874139416300,10.374416259765624,0.3619917631149292,-0.08147701621055603,-0.18651129305362701
1789058874149428500,10.384428466796875,0.40794992446899414,-0.09022203832864761,-0.04484070837497711
1789058874159439400,10.394439453125,0.3673015832901001,-0.012823120690882206,0.01203828677535057
1789058874169450200,10.4044501953125,0.2735220789909363,0.015245531685650349,0.0703900083899498
1789058874179461000,10.414461181640625,0.2813248932361603,-0.02612108364701271,0.006707970052957535
1789058874189472500,10.424472412109376,0.2657991945743561,0.036562804132699966,0.0516195185482502
1789058874199483400,10.4344833984375,0.2481112778186798,-0.012367986142635345,-0.027226028963923454
1789058874209494300,10.444494384765624,0.2166910320520401,0.04069682955741882,-0.004098871257156134
1789058874219505400,10.45450537109375,0.25639158487319946,-0.03681473806500435,0.13237455487251282
1789058874229516300,10.464516357421875,0.2519347667694092,-0.013157879933714867,0.13014069199562073
1789058874239528400,10.474528564453125,0.185259610414505,-0.018075672909617424,0.06800355017185211
1789058874249539300,10.484539306640626,0.20320318639278412,0.01065131276845932,0.1031000167131424
1789058874259550200,10.49455029296875,0.18294718861579895,0.02534104324877262,0.1349109411239624
1789058874269561300,10.504561279296874,0.0838640108704567,0.05377960950136185,0.05613171309232712
1789058874279572200,10.514572265625,0.0729820653796196,0.03784964233636856,0.054837148636579514
1789058874289583000,10.5245830078125,0.0034085798542946577,0.04723915085196495,0.054557785391807556
1789058874299594500,10.534594482421875,-0.02731844037771225,0.03981825336813927,-0.04566176235675812
1789058874309605400,10.54460546875,-0.0023427826818078756,0.04591822251677513,-0.07886338979005814
1789058874319617300,10.5546171875,-0.05855998396873474,-0.014541392214596272,0.038065891712903976
1789058874329628200,10.564628173828124,-0.14550499618053436,0.10920771211385727,0.05836770310997963
1789058874339639600,10.5746396484375,-0.24102060496807098,0.09094322472810745,-0.06679820269346237
1789058874349650400,10.584650390625,-0.2185022383928299,0.07909908145666122,-0.0038511971943080425
1789058874359661300,10.594661376953125,-0.23720429837703705,0.08533753454685211,0.07617413252592087
1789058874369672200,10.604672119140625,-0.2897883951663971,0.026685940101742744,0.05549788102507591
1789058874379683300,10.614683349609376,-0.30663102865219116,-0.0004868258547503501,-0.10426542162895203
1789058874389694200,10.624694091796876,-0.34181806445121765,0.009949569590389729,-0.10247231274843216
1789058874399705300,10.634705322265624,-0.43630141019821167,0.04663301631808281,-0.14317686855793
1789058874409717200,10.64471728515625,-0.4499964416027069,0.051895420998334885,-0.14816948771476746
1789058874419728400,10.654728271484375,-0.4164981544017792,-0.03861130774021149,-0.11536920070648193
1789058874429739300,10.6647392578125,-0.35947880148887634,0.022117286920547485,0.21899066865444183
1789058874439750400,10.67475048828125,-0.35854509472846985,-0.0343443900346756,0.15098418295383453
1789058874449761300,10.68476123046875,-0.3033428490161896,-0.07350164651870728,-0.09253925085067749
1789058874459772400,10.6947724609375,-0.25869521498680115,-0.04418344050645828,0.1104402244091034
1789058874469783300,10.704783203125,-0.26980963349342346,-0.07073009759187698,0.1039719358086586
1789058874479794200,10.714794189453125,-0.3092305362224579,-0.02598952315747738,0.042989280074834824
1789058874489806300,10.724806396484375,-0.3272668123245239,-0.011450793594121933,0.048041827976703644
1789058874499817500,10.7348173828125,-0.27539509534835815,-0.13428376615047455,-0.0409676730632782
1789058874509828400,10.744828369140626,-0.27032843232154846,-0.13926388323307037,-0.11666829138994217
1789058874519839200,10.754839111328126,-0.26861628890037537,-0.1837426722049713,-0.17969466745853424
1789058874529850400,10.764850341796874,-0.25111931562423706,-0.12393845617771149,0.017121462151408195
1789058874539861500,10.774861572265625,-0.26692622900009155,-0.11643446981906891,0.06138639524579048
1789058874549872400,10.784872314453125,-0.21547769010066986,-0.10441242903470993,0.07690995931625366
1789058874559883300,10.79488330078125,-0.07795445621013641,-0.13390666246414185,0.011754659935832024
1789058874569894400,10.804894287109375,-0.014985607005655766,-0.2262142300605774,-0.11605682969093323
1789058874579906300,10.81490625,0.007191333919763565,-0.14487169682979584,-0.018553709611296654
1789058874589917400,10.82491748046875,-0.01378345675766468,-0.13898637890815735,-0.06288735568523407
1789058874599928300,10.83492822265625,0.08087221533060074,-0.10896296799182892,0.14536571502685547
1789058874609939500,10.844939453125,0.1626048982143402,-0.1598312109708786,0.028745893388986588
1789058874619950300,10.854950439453125,0.13137772679328918,-0.09736330807209015,0.021527396515011787
1789058874629961200,10.864961181640625,0.20256482064723969,-0.14543496072292328,0.04611316695809364
1789058874639972000,10.87497216796875,0.23375976085662842,-0.06233607977628708,0.04248860478401184
1789058874649983500,10.8849833984375,0.23102016746997833,-0.09812337160110474,0.026385800912976265
1789058874659995400,10.894995361328125,0.27033481001853943,-0.12970632314682007,-0.02960156835615635
1789058874670006300,10.90500634765625,0.28485995531082153,-0.08078406006097794,0.06515157222747803
1789058874680017200,10.91501708984375,0.3008900582790375,-0.10468539595603943,-0.06372891366481781
1789058874690028500,10.925028564453125,0.35441532731056213,-0.10248403251171112,-0.010359696112573147
1789058874700039400,10.935039306640626,0.3199119567871094,-0.11239764839410782,0.10608888417482376
1789058874710050300,10.94505029296875,0.34629935026168823,0.027295537292957306,0.2617197632789612
1789058874720061200,10.955061279296874,0.31611350178718567,-0.10262278467416763,-0.035780102014541626
1789058874730072300,10.965072265625,0.3640400171279907,-0.10979467630386353,-0.0677737221121788
1789058874740083200,10.975083251953125,0.28809091448783875,-0.07873928546905518,-0.09068649262189865
1789058874750095400,10.985095458984375,0.17303356528282166,-0.0023899206425994635,-0.028064124286174774
1789058874760106200,10.995106201171875,0.18896618485450745,-0.08434204757213593,-0.13186481595039368
1789058874770117400,11.005117431640626,0.24229119718074799,-0.03478993847966194,0.09963817894458771
1789058874780128300,11.015128173828124,0.2800641357898712,-0.0289341788738966,0.13650724291801453
1789058874790139400,11.025139404296874,0.31579312682151794,-0.07736243307590485,0.0641680657863617
1789058874800150300,11.035150390625,0.38353168964385986,-0.08223788440227509,-0.05663744732737541
1789058874810161400,11.045161376953125,0.30460092425346375,0.04812944680452347,0.07847829908132553
1789058874820172300,11.05517236328125,0.23523035645484924,-0.030847927555441856,-0.10004910081624985
1789058874830183200,11.06518310546875,0.18002836406230927,0.018684471026062965,-0.018101772293448448
1789058874840195300,11.0751953125,0.2171964943408966,-0.03993463143706322,-0.03615054860711098
1789058874850206500,11.08520654296875,0.21324756741523743,-0.000553404854144901,0.1447124481201172
1789058874860217300,11.09521728515625,0.21442601084709167,-0.05944601446390152,-0.020682642236351967
1789058874870228200,11.105228271484375,0.19896423816680908,-0.033121202141046524,0.14831091463565826
1789058874880239400,11.1152392578125,0.2057635486125946,0.024103738367557526,0.25787708163261414
1789058874890250200,11.125250244140625,0.18135353922843933,-0.05321448668837547,-0.05721189081668854
1789058874900261400,11.135261474609376,0.12564261257648468,-0.016828248277306557,-0.16191992163658142
1789058874910272300,11.145272216796876,0.046190932393074036,0.03238110989332199,-0.10707958042621613
1789058874920284200,11.1552841796875,-0.036617666482925415,0.0145299406722188,0.06153952702879906
1789058874930295300,11.16529541015625,0.007089600898325443,0.057134125381708145,-0.05681907385587692
1789058874940306400,11.175306396484375,0.06894231587648392,0.0041547976434230804,0.04773662984371185
1789058874950317300,11.1853173828125,0.12103987485170364,-0.0030368026345968246,-0.0020423782989382744
1789058874960328400,11.195328369140626,0.11418090015649796,0.02311144396662712,-0.016944894567131996
1789058874970339300,11.20533935546875,0.10908201336860657,-0.03173156455159187,-0.11825287342071533
1789058874980350200,11.21535009765625,0.06221357360482216,0.04080841690301895,0.05573703348636627
1789058874990361000,11.225361083984374,0.014842063188552856,-0.02737356722354889,-0.01722053252160549
1789058875000372500,11.23537255859375,-0.04711158573627472,0.09278612583875656,0.012373312376439571
1789058875010384400,11.24538427734375,-0.08940338343381882,0.023494407534599304,-0.11279205977916718
1789058875020395300,11.255395263671875,-0.0415319986641407,-0.009216934442520142,-0.04553952068090439
1789058875030406100,11.26540625,-0.03788772597908974,0.01665966957807541,0.058753859251737595
1789058875040417500,11.27541748046875,-0.03015577234327793,-0.021939920261502266,0.05788220837712288
1789058875050428400,11.285428466796875,0.027421237900853157,0.01619894430041313,0.030914772301912308
1789058875060439300,11.295439208984375,0.05001815780997276,0.00162426196038723,-0.13598473370075226
1789058875070450400,11.305450439453125,0.04653021693229675,0.09404287487268448,-0.00983558688312769
1789058875080461300,11.31546142578125,0.08605046570301056,0.04609212651848793,-0.1762663722038269
1789058875090472200,11.32547216796875,0.10552322864532471,0.09970582276582718,-0.0587163083255291
1789058875100484000,11.335484130859374,0.14050091803073883,0.09881206601858139,0.06458138674497604
1789058875110495000,11.345494873046874,0.1970749795436859,0.057077933102846146,0.06667196750640869
1789058875120506000,11.355506103515625,0.2066999077796936,0.0759299173951149,-0.00833862368017435
1789058875130517000,11.36551708984375,0.12336640805006027,0.09950342029333115,-0.14162157475948334
1789058875140527900,11.37552783203125,-0.015624233521521091,0.15218287706375122,-0.10153887420892715
1789058875150539300,11.385539306640625,-0.052926596254110336,0.09824001789093018,-0.2152705043554306
1789058875160550100,11.395550048828126,-0.046961117535829544,0.10561644285917282,-0.028493693098425865
1789058875170561000,11.40556103515625,0.0014911039033904672,0.047087617218494415,0.016656741499900818
1789058875180572200,11.415572265625,-0.00580835435539484,0.04555550217628479,0.12049418687820435
1789058875190584000,11.425583984375,-0.051832303404808044,0.05156998336315155,0.05741855129599571
1789058875200595200,11.43559521484375,-0.05112550035119057,0.10694855451583862,-0.025197232142090797
1789058875210606000,11.445606201171875,-0.041674740612506866,0.013292103074491024,-0.059064384549856186
1789058875220617000,11.455616943359376,-0.10440683364868164,0.03987524285912514,-0.03564747795462608
1789058875230628000,11.465628173828126,-0.16331222653388977,0.11200083792209625,0.16615967452526093
1789058875240639000,11.475638916015624,-0.13638687133789062,0.06455741822719574,0.11903531104326248
1789058875250650000,11.485650146484375,-0.150425985455513,0.05642572417855263,0.01720774918794632
1789058875260661200,11.4956611328125,-0.14879480004310608,0.005624063778668642,-0.02731231413781643
1789058875270672100,11.505672119140625,-0.1835293471813202,0.039271239191293716,-0.023737287148833275
1789058875280684000,11.51568408203125,-0.23600001633167267,0.02852298691868782,0.15706391632556915
1789058875290695200,11.525695068359376,-0.2682897746562958,0.07644790410995483,0.019727632403373718
1789058875300706000,11.5357060546875,-0.29617494344711304,0.028181836009025574,-0.10391787439584732
1789058875310717200,11.54571728515625,-0.23747247457504272,0.026978354901075363,0.058102451264858246
1789058875320728000,11.55572802734375,-0.12282285839319229,-0.013262541964650154,0.027530694380402565
1789058875330739000,11.565739013671875,-0.07386250793933868,-0.06599073112010956,-0.0024580976460129023
1789058875340750000,11.57575,-0.11036965250968933,-0.015304387547075748,0.029507558792829514
1789058875350761200,11.58576123046875,-0.09426897764205933,0.041494712233543396,0.2312641143798828
1789058875360773000,11.595773193359374,-0.15007604658603668,0.10203954577445984,0.018752649426460266
1789058875370784000,11.605783935546874,-0.04400021582841873,0.022821160033345222,-0.11782676726579666
1789058875380795000,11.615794921875,0.043106190860271454,0.005682653281837702,0.07845619320869446
1789058875390806000,11.625805908203125,0.055935703217983246,0.031572308391332626,0.06022605672478676
1789058875400817200,11.635817138671875,0.08381953090429306,-0.055935703217983246,0.04072745516896248
1789058875410828000,11.645828125,0.11293267458677292,0.014256433583796024,0.11935515701770782
1789058875420839200,11.655839111328126,0.08935490995645523,0.04516960680484772,0.1754429191350937
1789058875430850000,11.66585009765625,0.07877204567193985,0.0830024778842926,0.13969771564006805
1789058875440861000,11.67586083984375,0.1269499659538269,-0.09097757935523987,-0.13747930526733398
1789058875450873000,11.685873046875,0.08318863064050674,-0.0067995828576385975,-0.14122849702835083
1789058875460884000,11.695884033203125,0.05650455504655838,-0.0106531772762537,-0.11986621469259262
1789058875470895000,11.70589501953125,0.04577014967799187,0.007379619404673576,-0.06964459270238876
1789058875480906000,11.715906005859376,0.11269991844892502,-0.019960125908255577,0.15676671266555786
1789058875490916900,11.725916748046876,0.08763477951288223,0.09932099282741547,0.24116042256355286
1789058875500928300,11.73592822265625,0.03833966702222824,0.08512341976165771,0.08134572207927704
1789058875510939100,11.745939208984375,0.10241319239139557,0.019487414509058,-0.029648706316947937
1789058875520950000,11.755949951171875,-0.00006711165769957006,0.04104224219918251,0.15933559834957123
1789058875530961200,11.765961181640625,-0.059732306748628616,0.12156744301319122,0.1299944818019867
1789058875540973300,11.775973388671876,-0.1132141724228859,0.07694005221128464,-0.06573507189750671
1789058875550984200,11.785984130859376,-0.11972001194953918,0.08827153593301773,0.06055255979299545
1789058875560995000,11.7959951171875,-0.16547204554080963,0.07348992675542831,0.08759722858667374
1789058875571006000,11.806005859375,-0.1669253408908844,0.09369479864835739,0.11043010652065277
1789058875581017000,11.81601708984375,-0.16988703608512878,0.01047154888510704,0.04560982808470726
1789058875591028000,11.826028076171875,-0.050214968621730804,0.003644003299996257,0.14218510687351227
1789058875601039000,11.8360390625,-0.1353471726179123,0.09232939779758453,0.17666424810886383
1789058875611050200,11.84605029296875,-0.21223104000091553,0.0034583809319883585,-0.06950531154870987
1789058875621061000,11.85606103515625,-0.1918482631444931,0.03257312253117561,-0.13238413631916046
1789058875631073000,11.866072998046874,-0.22210310399532318,0.09742855280637741,0.013689447194337845
1789058875641084000,11.876083984375,-0.1352829933166504,-0.010916297324001789,-0.04092506319284439
1789058875651095000,11.886094970703125,-0.12684476375579834,0.042578086256980896,0.08580651879310608
1789058875661106200,11.896106201171875,-0.1623430997133255,0.030227145180106163,0.07024513185024261
1789058875671117000,11.906116943359375,-0.15195411443710327,0.03268470987677574,-0.02762310579419136
1789058875681128000,11.9161279296875,-0.19342991709709167,0.09568630903959274,0.07602951675653458
1789058875691139000,11.92613916015625,-0.1409110426902771,-0.0038839541375637054,0.03864007070660591
1789058875701150200,11.936150146484374,-0.07885246723890305,-0.028972795233130455,0.09986001998186111
1789058875711161000,11.9461611328125,-0.1094663068652153,-0.06995218992233276,-0.09066598862409592
1789058875721172000,11.956171875,-0.1660342514514923,0.03105938248336315,0.020082365721464157
1789058875731184000,11.96618408203125,-0.18512538075447083,0.04733981937170029,-0.011963185854256153
1789058875741195000,11.976195068359376,-0.20828981697559357,0.02257002331316471,-0.20096053183078766
1789058875751206100,11.9862060546875,-0.08877354115247726,0.032219722867012024,-0.028015920892357826
1789058875761217000,11.996217041015624,-0.06227189674973488,-0.07353973388671875,-0.15825168788433075
1789058875771228200,12.006228271484375,-0.0753762498497963,-0.05306188762187958,-0.19063332676887512
1789058875781239000,12.016239013671875,-0.00751916877925396,-0.031802404671907425,-0.015266038477420807
1789058875791250000,12.02625,0.02707555890083313,0.01793345995247364,0.23785996437072754
1789058875801261300,12.03626123046875,0.0022101574577391148,0.10213382542133331,0.21472321450710297
1789058875811272200,12.046272216796876,0.03633403778076172,0.01245160959661007,-0.016103602945804596
1789058875821284000,12.0562841796875,0.054120227694511414,0.05010844022035599,0.07598264515399933
1789058875831295000,12.066294921875,-0.019101522862911224,0.05998344346880913,0.06253741681575775
1789058875841305900,12.076305908203125,-0.047519583255052567,0.03347167372703552,-0.013309147208929062
1789058875851317200,12.086317138671875,-0.09649910777807236,-0.12815023958683014,-0.15749268233776093
1789058875861328100,12.096328125,-0.07991880178451538,-0.06391479820013046,-0.1199256032705307
1789058875871339000,12.106339111328126,-0.12259595841169357,-0.09088063985109329,-0.054001715034246445
1789058875881350100,12.11635009765625,-0.2083532065153122,-0.03556118905544281,0.0010612696642056108
1789058875891361000,12.126361083984374,-0.2196308970451355,0.020194750279188156,0.26688095927238464
1789058875901372000,12.136371826171874,-0.12904852628707886,0.014638330787420273,0.14438380300998688
1789058875911384000,12.146384033203125,-0.05434153601527214,-0.09742695093154907,-0.10018039494752884
1789058875921395000,12.15639501953125,-0.07091305404901505,-0.035301532596349716,0.02954723872244358
1789058875931406000,12.166406005859375,-0.07377009093761444,-0.030230339616537094,0.025012942031025887
1789058875941417000,12.1764169921875,-0.1211213618516922,-0.05275775492191315,0.07701701670885086
1789058875951428000,12.186427978515624,-0.1394186168909073,-0.03164581209421158,0.0492226742208004
1789058875961439200,12.196439208984375,-0.19059711694717407,-0.030158700421452522,-0.013981595635414124
1789058875971450000,12.2064501953125,-0.1700982302427292,-0.05392688140273094,0.012911004945635796
1789058875981461000,12.2164609375,-0.1586969643831253,-0.06662003695964813,-0.02569497749209404
1789058875991472000,12.22647216796875,-0.23148569464683533,-0.05497882887721062,0.005948170088231564
