time,seconds_elapsed,z,y,x
1789757705909830000,0.050829833984375,0.15397650974690913,-0.4763298105150461,0.7443618846394121
1789757705919840800,0.0608408203125,0.17798925349712372,-0.46737172029465435,0.7821952831450849
1789757705929851600,0.0708515625,0.1856102498948574,-0.4293059012725949,0.8331112313900142
1789757705939861800,0.08086181640625,0.13403846808969974,-0.3946186187729239,0.8922880813714116
1789757705949872600,0.09087255859375,0.12776187203824518,-0.41254444382488725,0.8908116521432995
1789757705959884000,0.100884033203125,0.12709960873723028,-0.44154432833790774,0.8911397881191223
1789757705969895000,0.11089501953125,0.1319879653006792,-0.46257338010221716,0.8150257587969303
1789757705979904800,0.12090478515625,0.1269856269687414,-0.42910511800348755,0.7564464363172649
1789757705989916000,0.130916015625,0.11793313646316528,-0.3809904909148812,0.5957072275023907
1789757705999926800,0.1409267578125,0.10922902100384235,-0.2701058116585016,0.558572186524421
1789757706009937700,0.150937744140625,0.07371873168349266,-0.17434797438532113,0.3894529065728187
1789757706019948800,0.16094873046875,0.09000234248638153,-0.11693331177085638,0.3514755695518106
1789757706029958700,0.170958740234375,0.10211363604068756,-0.0522539188504219,0.2834120140857994
1789757706039970000,0.180969970703125,0.11208791756629943,-0.08827654160708188,0.1573226783696562
1789757706049981000,0.19098095703125,0.08861936369538306,0.03780103060603142,0.2051729554336518
1789757706059991800,0.20099169921875,0.06383622009456158,0.06078209322094917,0.06190934368520975
1789757706070002000,0.211001953125,0.030260113707184788,0.16628186456859112,-0.060607686502113935
1789757706080012800,0.2210126953125,0.050479310393333435,0.08985124357789755,-0.018862886706367134
1789757706090023700,0.231023681640625,0.014848025041818617,0.0704901250258088,-0.11532492672614753
1789757706100034800,0.241034912109375,0.04982581492066383,-0.006434124700725078,-0.002357522911578417
1789757706110044700,0.251044677734375,0.024391513934731483,0.05165624521821737,0.1199788169465959
1789757706120055800,0.261055908203125,0.01481529181599617,0.010309797090291976,0.13438275148272513
1789757706130067000,0.27106689453125,0.0008329436928033829,0.0368868383705616,0.12471139842644333
1789757706140077800,0.281077880859375,0.005791442883014679,-0.0490580454185605,0.06461904103532433
1789757706150088700,0.291088623046875,0.014227262794971465,-0.1021679965764284,-0.17473492787629366
1789757706160098800,0.301098876953125,0.055613166150450706,-0.1634039710447192,-0.18703889445848762
1789757706170109700,0.311109619140625,0.042595279145240784,-0.16490502325743436,-0.2723584859561175
1789757706180120800,0.321120849609375,0.10587678796648979,-0.2164572235792875,-0.18000811903886496
1789757706190132000,0.331132080078125,0.06737842274606227,-0.11821370697021484,-0.15318082932457328
1789757706200141800,0.341141845703125,0.110568745175004,-0.19448124635368585,-0.1702992104511708
1789757706210153000,0.351153076171875,0.06029810909628868,-0.1935620856821537,-0.3146790398132056
1789757706220163800,0.361163818359375,0.04619885659515857,-0.30856852104365823,-0.48978886541649697
1789757706230174700,0.3711748046875,0.029798341414332387,-0.3238213274940848,-0.5510803694643079
1789757706240184800,0.381184814453125,0.022590601992607116,-0.30254093131721016,-0.5724705096259712
1789757706250195700,0.39119580078125,0.050606736165285104,-0.3020554858878255,-0.5195622185200452
1789757706260206600,0.40120654296875,0.054988312250375745,-0.16614333288073538,-0.6875655731189996
1789757706270218000,0.411218017578125,0.1653846234679222,-0.2923521302580833,-0.3354359235726297
1789757706280227800,0.421227783203125,0.08150105612277984,-0.3101978758111596,-0.7612262910049408
1789757706290239000,0.431239013671875,0.1704687948644161,-0.4314417442575097,-0.6423201447911561
1789757706300249900,0.441249755859375,0.09682780459225178,-0.4273211571961641,-0.9432576594997197
1789757706310260700,0.4512607421875,0.109296825543046,-0.47379970751553774,-0.5345886688686907
1789757706320271600,0.461271728515625,0.03187982386350632,-0.46004999910444017,-0.6714496470332145
1789757706330281700,0.47128173828125,0.09677695118784904,-0.5280962381094694,-0.5373506078626961
1789757706340292900,0.48129296875,0.06037058981060981,-0.4618173010379076,-0.8297103369053452
1789757706350304000,0.491303955078125,0.2295329782515764,-0.6759104258343577,-0.7256384064037352
1789757706360315000,0.50131494140625,0.24133856685757635,-0.5322834606662392,-0.6564942891594022
1789757706370324700,0.51132470703125,0.38404140291810035,-0.7296922849044203,-0.25351108907982706
1789757706380335900,0.5213359375,0.2591787594527006,-0.5883288807541132,-0.1691771476186812
1789757706390346800,0.5313466796875,0.25117548573911186,-0.7322212188601493,-0.08736169178448618
1789757706400357600,0.541357666015625,0.1175268937498331,-0.6592918839886784,-0.12868015592694282
1789757706410367700,0.55136767578125,0.16181027211248875,-0.6454124117180705,-0.13674962674453853
1789757706420379000,0.56137890625,0.2674514977574348,-0.6583157324329019,-0.053372839877754444
1789757706430389800,0.5713896484375,0.29563129805922506,-0.5127686128571629,0.03725720605291426
1789757706440401000,0.58140087890625,0.449757445409894,-0.7533917249217629,0.4126574026800692
1789757706450411800,0.591411865234375,0.6705448071479797,-0.9701917705893516,0.7032184117376804
1789757706460422000,0.601421875,0.5530015467852354,-0.5752306219890714,0.5976272357795387
1789757706470432800,0.611432861328125,0.44956572223007674,-0.964663070295751,0.5196867947477847
1789757706480443600,0.621443603515625,-0.014086393019556998,-0.19433570040315387,0.38170492279455065
1789757706490455000,0.631455078125,0.10062544330954551,-0.7088990877225995,0.18782229992114005
1789757706500465000,0.64146484375,0.5735878232181072,0.17421850278675555,-0.6345959802798926
1789757706510475800,0.651475830078125,0.963383844140172,0.6127528356537223,-1.6358204563841223
1789757706520487000,0.66148681640625,-0.2637801157683134,-0.9551102290526032,0.35052608680725095
1789757706530497800,0.671497802734375,-0.8521838153243064,-1.8598291182562707,0.21882570627629755
1789757706540508000,0.6815078125,-0.14244681547284124,-1.8497423162668942,-1.2382976406022905
1789757706550518800,0.691518798828125,-1.017088546320796,-0.27620471305549144,-1.0870618078656493
1789757706560529700,0.70152978515625,0.6040764849841594,-2.1620526541873812,-0.7360252873182296
1789757706570540800,0.711540771484375,0.44612697995305056,-0.16767565701454876,-0.6318364524386823
1789757706580550400,0.72155029296875,1.8647084147304296,-0.7192685060456395,1.284443744096905
1789757706590561300,0.731561279296875,2.0258412259727714,1.9111928102687,-1.838404491303116
1789757706600572400,0.741572509765625,0.705917733824253,1.678041056998074,-1.1422978112667799
1789757706610583300,0.751583251953125,-1.1464999391317368,-0.6192053727939725,1.2786167915090918
1789757706620594200,0.76159423828125,-1.26770055295825,-3.8364933486059307,0.018853461290895938
1789757706630604300,0.771604248046875,-1.3887866004943847,-2.126445041972399,-1.1830736198998988
1789757706640615200,0.781615234375,-0.025243746849894524,-1.158849717617035,-0.7150367867600173
1789757706650626300,0.791626220703125,1.399526605695486,-2.376402384093404,-1.2376952907949685
1789757706660637400,0.801637451171875,0.964969067505002,0.37528701857626434,0.3479251105286181
1789757706670647300,0.811647216796875,0.056474166893959045,1.433475344787538,-0.7479152662720531
1789757706680658400,0.821658447265625,0.5831885952562094,-1.2768787156701087,-1.277961542470753
1789757706690669300,0.83166943359375,0.2792605934947729,-0.1281906188443303,-1.0770531856790184
1789757706700680200,0.84168017578125,0.4281184450536966,-0.720944038042426,-2.5294769765645264
1789757706710690300,0.851690185546875,0.5996206746190786,-0.6976873733565211,-1.587841730634868
1789757706720701200,0.861701171875,0.46712066814303393,0.1323337099984288,-0.47734501543957736
1789757706730712300,0.87171240234375,0.6780196730732917,-0.821803582368791,-0.816778301552683
1789757706740723500,0.881723388671875,0.5512503192037344,-0.6171104463413357,-0.3712530138198286
1789757706750733300,0.8917333984375,0.7017898402392864,-2.2986419758036734,-0.5126542292298749
1789757706760744400,0.901744384765625,0.13814824149608612,-1.727948412722349,0.1778319805761799
1789757706770755300,0.91175537109375,-0.04870820906758308,-1.5631114862650632,0.027961408310756084
1789757706780766200,0.92176611328125,0.13391396492719648,-0.9274290259227156,0.4767338247386738
1789757706790777000,0.931777099609375,0.3474187684416771,0.08857727811932563,0.33399894957207144
1789757706800787200,0.941787109375,0.19401625919044016,1.1665744666501878,-0.16679869151692836
1789757706810798300,0.95179833984375,0.38294250176548955,0.6425564377650618,-0.17220687070339918
1789757706820809500,0.9618095703125,0.2917752071529627,0.803228353497386,0.15711170250009746
1789757706830820400,0.9718203125,0.16413666923344133,0.4120774108350277,0.7367396461326629
1789757706840830200,0.981830322265625,0.16138006400167942,0.3149599756464362,1.127720712120831
1789757706850841300,0.99184130859375,-0.18643150314986703,-0.15773323193192482,-0.21769896726869045
1789757706860852200,1.001852294921875,-0.7030354563862085,-0.32071722399890423,-0.7104027702838182
1789757706870863000,1.011863037109375,-0.9360428327500819,-0.17540858935415743,-0.6694502899095416
1789757706880873200,1.021873291015625,-0.6775654995650052,0.15302549263238907,-0.3296903656579554
1789757706890884400,1.03188427734375,0.14541034145355225,0.37726445612907406,0.3682320220308378
1789757706900895200,1.041895263671875,0.49735506288707254,0.5420522827476263,0.376154010669142
1789757706910906400,1.05190625,0.20110124901533125,0.23293080399632451,0.252135526410304
1789757706920916200,1.061916259765625,-0.1537555604726076,-0.14553572139889,0.867985926220566
1789757706930927400,1.07192724609375,-0.3286334039509296,-0.4227028497457504,0.7816928135156631
1789757706940938200,1.081938232421875,-0.2198351755797863,-0.6206903506547212,0.5555747948067262
1789757706950949400,1.091949462890625,-0.13484277020990848,-0.6271756210207938,-0.1823867212710902
1789757706960960500,1.10196044921875,-0.07570142993330956,-0.6857754017665982,-1.1654272693764418
1789757706970970400,1.111970458984375,0.011311083087325095,-1.159453820990026,-1.0655137737285345
1789757706980981200,1.121981201171875,-0.06684943043589592,-1.3194149581044912,-1.0881255646396428
1789757706990992400,1.131992431640625,0.1821118863850832,-1.6814643094450235,-0.40930188170708715
1789757707001003300,1.142003173828125,0.26617548647224903,-1.710609447647631,0.37669743336345995
1789757707011013400,1.152013427734375,0.13720131603479385,-1.0404995247855782,0.7188999649941921
1789757707021024300,1.162024169921875,0.3709691553771496,-0.5308233249858021,0.5795046095138415
1789757707031035400,1.172035400390625,0.8106827611565589,-0.15027385583668945,0.07878107484066858
1789757707041046300,1.18204638671875,1.2311217576235531,-0.2632426478907466,-0.1915408820528537
1789757707051056400,1.192056396484375,1.1150637673825026,-0.08995908786654472,-0.48075548147019
1789757707061067300,1.2020673828125,0.7403086637258529,-0.42995413604825733,-0.16330504071488974
1789757707071078400,1.212078369140625,0.4308037386149168,-1.3324489194616675,0.3789546011731028
1789757707081089300,1.22208935546875,0.13435469443202017,-1.7966206746712325,0.5648577330673114
1789757707091100200,1.23210009765625,0.07049217085242271,-1.901523064647615,0.15837870849492028
1789757707101110300,1.2421103515625,0.2281651970297098,-1.5584461248025296,-0.5703668884102254
1789757707111121400,1.252121337890625,0.28222178138792514,-0.8537456578135489,-1.1329548864472656
1789757707121132300,1.26213232421875,0.1287684187322855,0.09349544529914855,-1.486704246149957
1789757707131143400,1.272143310546875,0.3556657877832651,-0.11472820294201373,-1.2578709406003354
1789757707141153300,1.2821533203125,0.42458734831809997,-0.5910062832698225,-0.8267199229177087
1789757707151164400,1.292164306640625,0.14705284796357154,-0.7997802588701247,-0.8730516851775347
1789757707161175300,1.30217529296875,0.022794600132107733,-1.4069891966611145,-0.9559276098500936
1789757707171186200,1.312186279296875,-0.2761410001695156,-1.5205270207747816,-1.1103310397721826
1789757707181196300,1.3221962890625,-0.3030757688462734,-1.5780179634958504,-1.2349277257777749
1789757707191207400,1.33220751953125,0.1458119079917669,-1.7118763988435268,-0.9139918905921279
1789757707201218300,1.34221826171875,0.7910527625352144,-1.20323684861511,-0.9473623914048075
1789757707211229400,1.3522294921875,1.270598612487316,-0.7118389405667781,-0.4114324274623766
1789757707221240300,1.362240234375,0.8675526493698358,-0.4612640510693192,0.6942544762983918
1789757707231250200,1.372250244140625,0.09297638986110687,-0.2210179556235671,1.1923434064179659
1789757707241261300,1.38226123046875,0.024996494090557098,-0.9894371538072824,1.2511648670904338
1789757707251272200,1.392272216796875,0.03001344546973705,-1.3766416969314217,1.7650879106797277
1789757707261283300,1.402283447265625,-0.05594575910568237,-1.4030977421805262,1.7387986002996563
1789757707271293400,1.41229345703125,0.6213812555283308,-1.7006138310730456,1.2256620309129356
1789757707281304300,1.42230419921875,1.4548516025543212,-1.45787533428967,0.47683096497021615
1789757707291315200,1.432315185546875,1.3901023592680692,-0.7055430552929639,0.233953351977095
1789757707301326300,1.442326416015625,1.1227706884980202,0.07517272988408803,0.11158760336134582
1789757707311336200,1.452336181640625,1.021003089416027,0.0333358678907156,0.5022421042762697
1789757707321347300,1.462347412109375,0.3852800048023462,0.6138634272441268,1.2048718294057994
1789757707331358500,1.4723583984375,-0.15907412514686584,1.1935022210642694,1.540323608134687
1789757707341369300,1.482369384765625,-0.36793373320400713,1.1058122471734881,0.8089057415466755
1789757707351379500,1.49237939453125,0.12285656433999538,1.0649822241351008,0.13277816583029925
1789757707361390300,1.502390380859375,0.8649737387925386,0.0681482380747795,-0.19482772170379756
1789757707371401200,1.512401123046875,0.7665875988423824,0.15323329016417264,-0.251675617280975
1789757707381412400,1.522412353515625,0.7487678645133972,-0.8676566942662001,-0.18866605726890265
1789757707391423200,1.53242333984375,0.45959962498843665,-1.1564692522212863,0.36260260130912064
1789757707401433300,1.542433349609375,-0.4321522306144237,-0.9750374570548533,0.4659630225405097
1789757707411444500,1.552444580078125,-0.8639595933139324,-1.0631237367868422,0.30026516840495165
1789757707421455400,1.562455322265625,-0.5410369682252407,-0.4465437440603971,-0.1714421699412167
1789757707431466200,1.57246630859375,-0.04468728298842907,-0.10404138923287391,-0.16669797108881174
1789757707441476400,1.582476318359375,0.3116758394092321,0.4312859691739082,-0.2043305863253772
1789757707451487200,1.5924873046875,0.6786743375897407,0.35132074431627985,-0.048074952665343874
1789757707461498400,1.602498291015625,0.94400986610651,0.20586188754588364,-0.08170695395842194
1789757707471509200,1.61250927734375,0.9669657942801714,0.016642507243156433,-0.3758038089919835
1789757707481519000,1.62251904296875,0.7009674179404973,-0.2362371520653367,-1.3386093417875469
1789757707491530500,1.632530517578125,-0.21954583724439142,-0.312274682085216,-2.589298115798831
1789757707501541400,1.642541259765625,-0.7965437611669302,-1.5343109237164259,-3.024269203226268
1789757707511552300,1.65255224609375,-0.7598135746628045,-2.2211536624535917,-2.6978993602931496
1789757707521562400,1.662562255859375,-0.7186188099652528,-2.6081553764820096,-2.331780713687092
1789757707531573200,1.6725732421875,-0.30623160252869125,-2.1295856780856846,-2.0328665945649145
1789757707541584100,1.682584228515625,0.008814590096473693,-1.3917322985574603,-1.7770923828586935
1789757707551595300,1.69259521484375,0.16159107640385625,-0.602346592451632,-1.869846508271247
1789757707561606400,1.7026064453125,0.22153964141011237,0.3623316754132509,-1.8563845307603477
1789757707571616500,1.712616455078125,0.7727402762532234,0.24343670818060634,-0.702272143863514
1789757707581628000,1.7226279296875,0.9338198960036039,0.2139315044939518,0.03752177527323365
1789757707591638800,1.732638671875,0.2296031208783388,-0.16747282791882753,-0.04825966158248484
1789757707601649700,1.742649658203125,-0.2850017674952745,-0.6536614768862724,-0.06758885062634945
1789757707611659800,1.75265966796875,-0.4433908329874277,-0.9155895350471138,0.346012701036036
1789757707621670700,1.762670654296875,-0.529236640316248,-0.8182207554459572,-0.1011317123312503
1789757707631681800,1.772681884765625,-0.2741343365222215,-0.3558428979158401,-0.2323689323298633
1789757707641693000,1.78269287109375,0.223769007897377,-0.34562779337167737,0.3407338838502765
1789757707651702800,1.792702880859375,-0.046314591929316515,0.7129711594671011,0.5104932152710855
1789757707661714000,1.8027138671875,0.06670739161670207,1.6209715545594692,0.6725170570690184
1789757707671724800,1.812724853515625,0.7611749261438846,1.3201657764717936,1.4610571791961788
1789757707681735700,1.822735595703125,0.6899012495249509,1.2191779295906424,1.57579970292449
1789757707691745800,1.832745849609375,0.12709200995266437,1.1202972841218113,0.9207267518050968
1789757707701756700,1.842756591796875,-0.668158788794279,0.8567419170200824,0.7879077425077557
1789757707711767800,1.852767822265625,-0.8546458215236663,0.10056699112057685,0.6318202319562435
1789757707721779000,1.862779052734375,-0.5203408016771078,-0.2500906131118536,0.25179836687780915
1789757707731789800,1.872789794921875,0.34153321753442284,-0.18503245000690222,0.040899361947551366
1789757707741800000,1.882800048828125,0.574804213270545,-0.31327859843075273,0.24603023180514572
1789757707751810800,1.892810791015625,-0.043480829808115955,0.6569593493878841,-0.17515761026777327
1789757707761821700,1.90282177734375,-0.31750469169318674,0.8593646667391062,-0.7890503366716206
1789757707771832800,1.912832763671875,-0.29866379762291906,-0.0999637645304203,-0.5732194282971322
1789757707781842700,1.9228427734375,-0.46879006265997886,-0.9148930772155522,-0.6404371805887669
1789757707791853800,1.932853759765625,-0.44431671566069125,-1.47266490714252,-0.8805230439715087
1789757707801865000,1.942864990234375,-0.8554793497383594,-1.4524065474897623,-0.5070514042541384
1789757707811875800,1.952875732421875,-0.7236626493513584,-1.548657721237838,-0.27367008001133797
1789757707821886000,1.962885986328125,0.25092472584843634,-1.149544713655114,-0.015497721122205257
1789757707831896800,1.972896728515625,0.8806412635236978,-0.9201847538828849,0.2441587388448417
1789757707841907700,1.98290771484375,1.0606389342337845,-0.5464189535245298,0.1337431384049356
1789757707851918800,1.9929189453125,0.6197878488570452,-0.30024726742208,0.32992505119666454
1789757707861930000,2.002929931640625,0.1641390073210001,-0.6398363651514053,0.21161387520134448
1789757707871939800,2.01293994140625,0.17462474550008772,-0.3997393227875232,0.8062307501837611
1789757707881951000,2.022950927734375,0.7124205398470163,-0.483418891993165,1.1408736236825585
1789757707891961900,2.0329619140625,1.101431547871232,-0.7788090747728943,1.5763462308913467
1789757707901972700,2.04297265625,1.275916008117795,-0.2017085672587156,1.5730382753871381
1789757707911982800,2.05298291015625,1.1851584633499384,-0.02224544181674719,1.0741939968556165
1789757707921993700,2.06299365234375,1.0804022038459777,-0.0349304436057806,0.8741973480813204
1789757707932004900,2.0730048828125,0.6536690756708383,0.2139458252802491,0.8136167687818407
1789757707942016000,2.08301611328125,0.8546282858669757,0.2581134683087468,0.9753739955328404
1789757707952025900,2.09302587890625,1.180500408411026,-0.48318771358579393,1.7959695172861216
1789757707962036700,2.10303662109375,0.5266308417320251,-0.5093357157990336,2.162823346298933
1789757707972048000,2.1130478515625,-0.05124386502504349,-0.8868138146787882,2.1586146425627173
1789757707982058800,2.123058837890625,-0.27753216226696964,-1.2523358105659483,2.1372375080130994
1789757707992069600,2.133069580078125,-0.0012128829210996627,-0.9726613755732774,1.1198423068959265
1789757708002079700,2.143079833984375,0.26830548423826694,-0.9631497431233524,1.0198938860651106
1789757708012091000,2.1530908203125,0.5880097318023443,-0.550465890827775,1.1077629428498446
1789757708022101800,2.163101806640625,0.8212275360465049,-0.1786222907036543,1.0007312126945704
1789757708032113000,2.17311279296875,1.0726222174942492,-0.033955461093783376,1.266182549610734
1789757708042122800,2.183122802734375,0.6528717878133058,-0.18360504755228757,1.398758982323855
1789757708052134000,2.1931337890625,0.06793371854126452,0.11289748038351535,0.8313759320300071
1789757708062144800,2.203144775390625,0.21007132193446157,-0.2458174658372998,-0.35809783723577854
1789757708072155600,2.21315576171875,0.25036709196567536,-0.5132096346229315,-0.610663242963329
1789757708082165800,2.223165771484375,-0.2625602185845375,-0.6756696028158068,-1.524745222991705
1789757708092177000,2.233177001953125,-0.13305121061801908,-0.8256012210860848,-1.1955525046575814
1789757708102187800,2.243187744140625,0.00938683702647686,-0.33035189830660816,0.270069571301341
1789757708112199000,2.253198974609375,1.1522855367958544,-1.1516013539239764,0.3687320805074647
1789757708122208800,2.263208740234375,1.540696240839362,-1.3875205260813235,-0.38519521259572354
1789757708132220000,2.273219970703125,0.2478554014056921,-1.0932114165365696,-1.074231552387029
1789757708142230800,2.283230712890625,-0.2390145078241825,-1.3966089646831155,-0.8139185282073914
1789757708152241700,2.29324169921875,0.1138929211616516,-1.6627426578402518,-0.2855200922809541
1789757708162252800,2.303252685546875,0.6063795012295246,-1.6039613830476998,-0.9861607624851166
1789757708172263000,2.313262939453125,0.5590659613907337,-1.4824439583569764,-1.7094306131266057
1789757708182273800,2.323273681640625,0.8622995511472225,-1.284207451122999,-2.0716648195147513
1789757708192285000,2.333284912109375,1.0418272662580013,-1.7789646064713596,-1.6021997802026569
1789757708202295800,2.3432958984375,0.6996493210792541,-0.6740989924982189,-0.2651073823167011
1789757708212305700,2.3533056640625,-0.06346504869461059,-1.4199565225228667,0.9584699147440493
1789757708222316800,2.36331689453125,-0.8391635902315377,-1.627363009162247,0.7124124296057969
1789757708232327700,2.37332763671875,0.6305185017079115,-1.7168059642001985,0.4972773580083623
1789757708242338800,2.3833388671875,2.433380993378162,-2.5246236913144586,0.6468904483813792
1789757708252349000,2.393348876953125,0.11432137570679188,-1.4433362290665506,0.3300673457441851
1789757708262359800,2.40335986328125,-3.464724275022745,-0.3786889359742403,0.5148460036531091
1789757708272370700,2.41337060546875,-4.964654790231585,-0.21192104145437476,0.9866101136878133
1789757708282381800,2.4233818359375,-2.9585218888133764,-0.9745730544134974,0.9239961288645863
1789757708292391700,2.4333916015625,-0.5470125355035066,-0.49367988150566816,-0.04831975773926824
1789757708302402800,2.44340283203125,-0.859165344774723,0.738714088010788,-1.0311065502792596
1789757708312414000,2.4534140625,-2.4939491515874863,2.9622867943048474,-1.4918658666968345
1789757708322424800,2.4634248046875,-1.5055401717841623,1.8913328022837639,0.33846561012472953
1789757708332436000,2.47343603515625,0.3570546117931604,0.9956097049623727,0.7213600714974105
1789757708342445800,2.48344580078125,2.286674182373285,-0.08827566482424735,1.4023029385410248
1789757708352456700,2.493456787109375,2.2954595463752745,-0.39333705452978607,2.2018659013986586
1789757708362467800,2.5034677734375,0.6492810698449611,-0.6532821221798658,1.970945560441911
1789757708372478700,2.513478759765625,0.4010550815612077,-0.7791036738052963,0.757766213678941
1789757708382488800,2.52348876953125,-0.9657944124132394,-0.4635071538209915,-0.1539392464764416
1789757708392500000,2.5335,-1.4015432062149047,-0.011573241154849529,-1.5394050319850443
1789757708402510800,2.5435107421875,0.5350584783375263,-0.5629784586593508,-1.3053165823861956
1789757708412521700,2.553521728515625,1.834115708068013,-0.9512927165910601,0.009468560493178665
1789757708422531800,2.56353173828125,0.8617156137794255,-0.39446284368932244,0.8593158591613173
1789757708432542700,2.573542724609375,1.1288859565079212,0.4568436042785644,1.089396826684475
1789757708442553900,2.583553955078125,1.1519669723659753,0.43817017572969197,1.1925643556922674
1789757708452564700,2.593564697265625,-0.21097849990725517,1.0802943595573304,0.17566325823497025
1789757708462575900,2.603575927734375,-1.015545993053913,0.6151160576537251,-0.7050565869502723
1789757708472586000,2.6135859375,-0.21397768172323703,0.05052227275222539,-1.2618014119170606
1789757708482596900,2.623596923828125,1.7126900533139704,-0.7073959896832704,-1.4204447444312274
1789757708492607700,2.633607666015625,2.7383552893221377,-1.424125917162001,-0.4408113378882408
1789757708502619000,2.643618896484375,-0.17167875517606734,-0.0028749709144234655,0.76827525966838
1789757708512628700,2.653628662109375,-2.4294898311585187,0.3509644782245159,0.8619955997645854
1789757708522640000,2.663639892578125,-0.19361177004277705,0.009548749589920044,0.5127857831876724
1789757708532650800,2.673650634765625,1.6194991439193487,-0.6683274233594536,0.3657495210327208
1789757708542662000,2.683661865234375,1.755046847528219,0.029602526581287383,0.2803714408135041
1789757708552672000,2.693672119140625,-0.6169517486482858,1.058485847853124,0.5256154906770214
1789757708562683000,2.703682861328125,-1.738394403412938,0.371956705109775,0.003564284335856791
1789757708572693800,2.71369384765625,-0.9864788885235786,0.6849687615588307,-0.46510351963434365
1789757708582704600,2.72370458984375,1.2448930933445692,-0.5972077682584523,1.0593520362284035
1789757708592714500,2.733714599609375,-0.8979062865793704,0.6083253746002912,1.2112101655818521
1789757708602725600,2.7437255859375,-1.4105278921812772,1.3892700000971554,1.1067862067721783
1789757708612736500,2.753736572265625,0.4583002328276634,1.6609163191959262,1.8691732851848004
1789757708622747400,2.763747314453125,1.5929986750066278,0.09578238719254732,1.6746534603863954
1789757708632758300,2.77375830078125,0.2112900500744581,-2.0949086247190833,0.0036612076549790797
1789757708642768400,2.783768310546875,-1.648915208017826,-1.1114300870552658,-1.001980482103303
1789757708652779300,2.793779296875,-1.8875316564351319,-0.7075514725059271,-1.6358226483412086
1789757708662790700,2.803790771484375,-1.8303987333714962,1.6914385909706353,-0.9624137569990009
1789757708672801500,2.813801513671875,0.528018496698141,1.2199231949999927,-0.5546425189252943
1789757708682811400,2.823811279296875,0.9368161552101373,1.249460839651525,-0.23402563176201654
1789757708692822500,2.833822509765625,-1.448634043213725,0.6204354991108179,-0.2270792832228355
1789757708702833400,2.84383349609375,-1.8070663731008767,1.397571964496374,-1.4357656476818024
1789757708712844300,2.85384423828125,0.6893015300661325,1.1549261144325136,-2.2929740131698546
1789757708722854400,2.8638544921875,1.9499241074621676,1.7594699246674774,-1.9306183723591266
1789757708732865300,2.873865234375,-0.9830512521624565,3.1173019994497295,-1.7701120224520563
1789757708742876400,2.88387646484375,-2.106259163033962,2.002298437821865,-1.299028880418837
1789757708752887600,2.893887451171875,-1.252124213641882,0.4468015182137489,-1.9729098462522028
1789757708762897400,2.9038974609375,-0.5603513250261545,-0.9415095737233757,-2.195928474173695
1789757708772908500,2.913908447265625,-0.5838228015065193,0.2752735696852207,-1.7601595143668352
1789757708782919400,2.92391943359375,-0.006382394513487815,0.8213260279849172,-2.0180627009257672
1789757708792930300,2.933930419921875,-0.791003078174591,2.142293183967471,0.013519411353138274
1789757708802941400,2.94394140625,-1.9807704966247082,-0.5109375980377197,0.6974901702839881
1789757708812951300,2.953951416015625,-3.3662101247787475,2.572333536994457,-1.0196856501419096
1789757708822962400,2.96396240234375,1.1150333722442387,-1.3131211186572909,0.5255837803645059
1789757708832973600,2.9739736328125,4.005016562360525,-1.1856953467056155,1.3341503165520727
1789757708842984400,2.983984375,4.068339572235941,-1.1098039471581578,1.8700182115763424
1789757708852994600,2.99399462890625,0.31058512156307694,3.255670605698228,4.09276528070122
1789757708863005400,3.00400537109375,-2.9946447570741177,2.8128824147790668,4.524189781562984
1789757708873016300,3.014016357421875,-2.4976181954890486,0.11562369047701358,4.234680473515391
1789757708883027500,3.02402734375,-0.7848024699687958,-1.3610045673385263,2.653378958304226
1789757708893038600,3.03403857421875,0.971526234063506,-1.475292333036661,0.25594153109714385
1789757708903048400,3.04404833984375,2.1618355043053628,0.3486538631945848,0.9196360339589417
1789757708913059600,3.0540595703125,1.156721473416686,2.7962811163291335,3.107294400176406
1789757708923070500,3.064070556640625,-0.4394032246559858,1.1969631751731038,2.1322943525224924
1789757708933081300,3.074081298828125,-0.9178758924186229,0.47106443733274933,1.2413435841694473
1789757708943091500,3.084091552734375,-1.0942816761165857,-0.4011109034016728,-0.10687179035320878
1789757708953102300,3.094102294921875,-0.9916647667288779,-0.6839253899857402,-1.5891140886582433
1789757708963113500,3.104113525390625,-0.05621639274060726,-0.509198937676847,-0.8499287298738956
1789757708973124600,3.11412451171875,1.887472035202384,-1.4970704496026037,0.11046034376393071
1789757708983134500,3.124134521484375,1.7403204030394552,-0.339927243642509,0.1600126298396848
1789757708993145300,3.134145263671875,1.339943366870284,-0.5961836859077215,-0.8684740019984543
1789757709003156500,3.144156494140625,0.691380089905858,-0.0880187674537301,-1.309902595002204
1789757709013167400,3.15416748046875,-0.18203589853942392,0.7099547342553735,-0.5124187399735673
1789757709023177500,3.164177490234375,-0.5081476750582457,0.635534284043312,-0.575287685938552
1789757709033188400,3.174188232421875,-0.9200748637676238,1.1131278308838606,0.4696129233501851
1789757709043199500,3.184199462890625,-0.16905425189137457,-0.11450140844881534,1.003574692492187
1789757709053210600,3.194210693359375,0.739870272308588,-0.7657558241933584,0.8666944981705397
1789757709063221500,3.204221435546875,1.1890192304313183,-0.43809038849174975,1.2903634895347058
1789757709073231400,3.2142314453125,0.32673955302834506,-0.2639306301549077,1.1712572176389395
1789757709083242500,3.224242431640625,-1.6766940263032912,-0.14601590613126753,1.0179685440257191
1789757709093253400,3.23425341796875,-1.3559838165670632,-0.6974635014727711,0.945774245430529
1789757709103264300,3.24426416015625,-0.822988115978241,-0.1885273063853383,0.4742330574315041
1789757709113274400,3.2542744140625,0.3097124303817749,-0.5599991505876183,0.3088572748571634
1789757709123285500,3.264285400390625,0.7788906155765056,-0.7442837048366665,0.3631862464159727
1789757709133296400,3.27429638671875,0.8265443471550941,-1.129024488195777,0.7162813069283962
1789757709143307500,3.2843076171875,-0.30369419300556183,0.2435430911645293,0.7745737022254615
1789757709153317400,3.2943173828125,0.2739402752548456,-0.7720099161520599,-0.6480147762361913
1789757709163328500,3.30432861328125,2.1056243722617625,-2.8509306981444356,-0.1517991291752085
1789757709173339400,3.31433935546875,0.7358347331821918,-1.5907266384214163,-0.29829012373862784
1789757709183350300,3.324350341796875,0.023925649988651276,-1.3866998573482037,-0.33363435404337943
1789757709193360400,3.3343603515625,0.6238403391182422,-1.389084122136235,-0.7081203584350645
1789757709203371500,3.34437158203125,-0.49617257510423657,-0.8008066793084144,-0.12802205734439193
1789757709213382400,3.35438232421875,-0.2602396666824818,-1.6723963291093706,-0.5867765367455781
1789757709223393500,3.3643935546875,0.0018108488142490385,-0.43225306064039465,-0.2811809488317929
1789757709233404400,3.374404296875,1.9212930562615393,-2.2105366991102695,-0.7736012769967318
1789757709243414500,3.38441455078125,3.1300416540354488,-4.043037080936133,-1.453302035024762
1789757709253425400,3.39442529296875,2.1012293521732093,-3.6520384062260387,-0.24748054021131247
1789757709263436500,3.4044365234375,-0.3631406537085771,-0.09027034577280282,-0.3068933543730527
1789757709273447400,3.414447509765625,-1.5815777018040418,-0.20926701981425283,-0.3228348006747663
1789757709283457500,3.42445751953125,-2.4159832838535307,1.6516542775928973,-0.2884559630697593
1789757709293468400,3.434468505859375,-0.2527694769322872,-2.298558681434393,-0.4857554451819509
1789757709303479600,3.4444794921875,-1.2329296838283539,0.7381158298566937,-0.038868952098488806
1789757709313490400,3.454490478515625,-1.5229577550530433,2.1787214649155735,0.8927253037448972
1789757709323500300,3.464500244140625,0.5741138929188251,1.044269106452167,1.833272827503085
1789757709333511400,3.474511474609375,1.9285919810980556,0.55809360922724,1.2283704130887985
1789757709343522600,3.4845224609375,1.7860165708094835,0.05964052197039127,1.0313358289904893
1789757709353533400,3.494533447265625,0.08652385272085666,-0.5799240405023097,0.548508107823506
1789757709363544600,3.504544677734375,-0.6687795510411262,0.03156885821819305,0.9077709702506661
1789757709373554400,3.514554443359375,-0.9440063589751719,-0.03310410496145487,1.0253970135260373
1789757709383565300,3.5245654296875,1.0312088416099547,-2.2684575576812027,0.9191192435432225
1789757709393576400,3.534576416015625,0.47842649053335184,-0.26633710677474737,0.9520068562097846
1789757709403587300,3.54458740234375,0.2555044548541307,-0.5889207091674208,1.3118011220999062
1789757709413597400,3.554597412109375,0.2042547446101904,0.18764087893962858,1.1179016211569308
1789757709423608600,3.564608642578125,-0.30850773076713084,-0.7689347464904188,0.6979675785373896
1789757709433619500,3.574619384765625,-0.17452186964750288,-1.0867208854734898,-0.02949973292709328
1789757709443630300,3.58463037109375,0.8375175765901803,-1.8116922793358563,-0.521097465263307
1789757709453640400,3.594640380859375,1.9935043059915303,-1.46907448143512,-0.7910731477361171
1789757709463651300,3.6046513671875,0.535920648124814,0.18023352529257536,-1.0197213790424167
1789757709473662500,3.614662353515625,-0.0010404489636421203,-1.6909765264168382,0.572497762959078
1789757709483673300,3.62467333984375,0.2914133881032467,-1.811642594975233,0.4822193069450557
1789757709493683500,3.634683349609375,1.7781430609554052,-2.447256666256487,0.7332817607637494
1789757709503694600,3.644694580078125,1.2526941224843262,-2.3051114640787245,0.9811870657257735
1789757709513705500,3.65470556640625,0.2084147868990898,-0.5227528312548995,1.2854084974758326
1789757709523716400,3.66471630859375,-0.9066548257023096,-0.08301350651234388,-0.23683142816405742
1789757709533727500,3.6747275390625,-0.3350473626464605,0.2701914441153407,-1.057175422841683
1789757709543737300,3.6847373046875,1.6981518248736858,-2.742303150165081,-0.45280854007620364
1789757709553748500,3.69474853515625,-0.014807108509540557,-1.6004036905661225,0.21452943385448306
1789757709563759400,3.70475927734375,0.04405190769433975,-2.3843419449210166,0.970843439431116
1789757709573770500,3.7147705078125,-0.5602244837760925,-0.33962679939121004,0.2336758136773482
1789757709583781000,3.724781005859375,0.9835878432571887,-2.3582912656024098,-1.3793962563365698
1789757709593792000,3.7347919921875,0.4695891040831804,-0.06625438715219498,-2.116588979998976
1789757709603803000,3.744802978515625,-0.4143623069018125,-0.28715426935404537,-2.423043723759055
1789757709614439000,3.75543896484375,1.0574503673255442,-1.6320231099277733,-1.030187243477255
1789757709624450000,3.765449951171875,0.8063023541152476,-1.9939295456662773,-1.3991228472001849
1789757709634461000,3.7754609375,-0.0924433058977127,0.36402065141350026,-0.5523382605709135
1789757709644471000,3.785470947265625,-0.09259235897958278,0.3646642100140452,-0.5658545255523175
1789757709654482000,3.79548193359375,2.563390936604142,-2.2599819902807474,-0.26863847905229776
1789757709664492800,3.805492919921875,-0.22716566459834575,-0.42708851748406884,0.40988183701951053
1789757709674504000,3.81550390625,-1.143162903663516,-0.11743950772732495,0.3499351351767778
1789757709684514000,3.82551416015625,-1.1434025576382876,-0.11677782894819974,0.33830767961665986
1789757709694525000,3.83552490234375,0.699705435180664,-1.7684271381050347,0.6033056832747533
1789757709704536000,3.8455361328125,-0.2758230202615261,0.030557050827145573,0.9152812728155404
1789757709714547000,3.855546875,1.2523276272594928,-1.8124270233511923,2.023112239400297
1789757709724556800,3.865556884765625,1.4494552964687346,-0.9375146588683128,1.0624421111982316
1789757709734568000,3.87556787109375,-0.3663046706974506,1.189150163334608,1.3803703620657324
1789757709744578800,3.885578857421875,0.011035188755393027,-0.7897919488191604,1.5199804928079246
1789757709754590000,3.89558984375,1.6168921762913464,-2.464142334605753,1.554863005618751
1789757709764601000,3.90560107421875,1.4285416877776385,-2.2166762247785923,1.1824356142573058
1789757709774611000,3.91561083984375,-1.0281588063895701,-0.34663258650004863,0.4514299817319959
1789757709784622000,3.9256220703125,1.1949766775310038,-2.9183441922038793,0.9092699766367673
1789757709794633000,3.935633056640625,1.1297048716753721,-1.4406249242812394,0.5004391465075314
1789757709804643800,3.945643798828125,0.13543021470904348,0.562174156539142,-0.42024029555711895
1789757709814654000,3.955654052734375,0.896025295138359,-0.984478946878016,-0.022617325602751225
1789757709824664800,3.965664794921875,0.7505366277515888,-0.5042825240626931,-0.23526500083124263
1789757709834676000,3.975676025390625,0.38849955137073994,-1.7268118099078535,-0.464542195957154
1789757709844687000,3.98568701171875,0.9530126722514629,-2.651999486644566,-0.1381803262679372
1789757709854697000,3.995697021484375,1.8543501023232936,-1.8140677762955426,-0.0895845737320371
1789757709864707800,4.005707763671875,0.7564730320632457,-0.17267857986837626,0.4380792825758457
1789757709874719000,4.015718994140625,1.1467290717124938,-2.0592977976337075,1.0498729908738285
1789757709884729900,4.025729736328125,-0.07869827366173267,-1.1888868362233043,1.5146953920118509
1789757709894741000,4.035740966796875,-0.07798924860954284,-1.190776303231716,1.5345818496122956
1789757709904750800,4.045750732421875,-1.6620605207949877,-1.055475852382183,0.5958016277875751
1789757709914762000,4.055761962890625,-0.2748386853992939,-1.433812613917887,0.8208408017512411
1789757709924772900,4.06577294921875,0.7093295880943536,-0.8601099321484565,0.4093448805985972
1789757709934784000,4.075783935546875,2.491649642473459,-1.93924284671098,2.224721437937766
1789757709944793900,4.0857939453125,3.1329227624297142,-1.596307068902254,2.981523701955378
1789757709954805000,4.095804931640625,-0.0011450783818960188,-1.4791896327361465,1.7511702983558177
1789757709964816000,4.10581591796875,-2.2444190949678418,2.3494553404569625,2.0155574401065706
1789757709974827000,4.115826904296875,-0.14165595735609532,-2.9896260521292684,1.3686774400539696
1789757709984837000,4.125837158203125,0.6103986737430095,-1.9685434677362441,1.6946572607561945
1789757709994848000,4.135847900390625,1.9021891273409126,-1.7448346655935048,0.39613443016335365
1789757710004859000,4.14585888671875,2.3050778540700674,-0.3544856380879879,0.6011150048300623
1789757710014870000,4.1558701171875,0.43854339295625683,0.4133569292515516,0.4101414012711495
1789757710024879900,4.1658798828125,0.2142009690850973,-2.3330007570013405,0.23664850934520362
1789757710034891000,4.17589111328125,-3.6648821057081222,0.03631985213756561,-0.02288509142715484
1789757710044902000,4.18590185546875,-3.3612697457671166,0.6783522660285234,0.9115652479670941
1789757710054913000,4.1959130859375,0.5480839641273021,-1.9052128590762614,-0.07226487961336969
1789757710064924000,4.205923828125,4.54097286632061,-2.269718079136312,0.9910440044820308
1789757710074934000,4.21593408203125,5.539240976837277,-2.3043325886607167,-0.5352000057000666
1789757710084945000,4.22594482421875,3.729748837894201,-0.10624123736470938,-0.4040612776398659
1789757710094956000,4.2359560546875,0.5684440305888653,1.132767474116385,0.9313835357021539
1789757710104967000,4.245966796875,-5.100988091260194,2.6721163920000195,1.3965125185713172
1789757710114976800,4.255976806640625,-6.54618923741579,-0.20098229881078003,1.7943014379434286
1789757710124988000,4.26598779296875,-3.685757135954499,-0.7109118888497352,2.341795911744982
1789757710134999000,4.2759990234375,1.4203911145478487,-1.673924853850901,0.6777474320031702
1789757710145010000,4.286010009765625,5.062198634138703,-2.73317496407479,0.9816945768564939
1789757710155020000,4.29602001953125,5.063372354093194,-2.73979642804116,1.0073548686180263
1789757710165031000,4.306031005859375,4.503922361820936,0.1842284401476383,1.1586496650002895
1789757710175041800,4.316041748046875,-2.5646488277107475,2.0001585031837226,3.5677965269625185
1789757710185053000,4.326052978515625,-2.5626778198987243,1.991818837122619,3.5903307225927708
1789757710195062800,4.336062744140625,-5.756467431223392,0.9855012756630778,3.000138093793392
1789757710205074000,4.346073974609375,-2.8948072492718695,-1.335305185675621,0.724965256382525
1789757710215085000,4.3560849609375,0.17955401859581469,-0.050476387783884996,0.5656071266625077
1789757710225096000,4.366095947265625,0.17841010925769804,-0.0513783050596714,0.5834942271392792
1789757710235107000,4.376107177734375,3.0354841324627397,0.29736235963553187,-0.130385352409631
1789757710245117000,4.386116943359375,1.1243746165633202,-1.9568097753226756,1.0319496500398964
1789757710255127800,4.3961279296875,0.6432832907348871,-2.038787509046495,2.166721522781253
1789757710265139000,4.406138916015625,-2.141301250320673,2.0829533985093236,0.7340490188091993
1789757710275150000,4.416150146484375,-1.1300134992331266,-1.209383680807054,-0.27762904677018524
1789757710285160000,4.426159912109375,1.3077642677992583,-3.1723706834599374,-1.0032252214673907
1789757710295171000,4.436171142578125,0.4734457795113325,0.2321536821439862,-1.0959639301151036
1789757710305182000,4.446181884765625,-0.29896891804933545,0.34674569148570294,-0.5404687398832291
1789757710315192800,4.45619287109375,0.17875731526017188,0.5415577772289514,0.9290391645330935
1789757710325203000,4.466202880859375,0.26122984676361083,-1.6602297982364893,-0.0213375331915915
1789757710335213800,4.4762138671875,-1.3928636406749486,0.37764497987926005,-0.5242055142812431
1789757710345225000,4.486224853515625,-1.2732120098561048,-0.3318392142549157,-0.891475522879511
1789757710355236000,4.496236083984375,-1.153228370603919,1.3968883661463856,-0.7840067164812237
1789757710365247000,4.5062470703125,2.0865268730819224,-1.9572738857030867,-0.29723252271078526
1789757710375257000,4.516257080078125,1.498953779131174,-0.7598390013650059,-0.011822685871273279
1789757710385268000,4.52626806640625,4.542957318136096,-4.194932400494814,-0.1107989737343043
1789757710395278800,4.53627880859375,-1.256391223436594,3.076994831241667,0.6123099141918122
1789757710405290000,4.5462900390625,-3.1873090171337126,-0.4619809671670198,0.8958993306711316
1789757710415299800,4.5562998046875,-1.9544576592385767,-0.24402123007029294,0.3390047219701111
1789757710425311000,4.56631103515625,2.2045476878285406,-4.286018154303729,-0.6807615921925753
1789757710435322000,4.576322021484375,2.9596459244072437,-1.4581184953957795,-0.9118635733265429
1789757710445333000,4.5863330078125,2.8130285452514885,-2.700728446239233,0.5807067883778363
1789757710455343000,4.596343017578125,1.0105997688233852,0.7992702635213732,1.4251003151521087
1789757710465354000,4.60635400390625,-2.888286323070526,2.3133061687111853,-0.44169075107127426
1789757710475364900,4.61636474609375,-2.403594926923513,-0.502578058232367,-1.0030426314420997
1789757710485376000,4.6263759765625,0.9410977780520915,-1.92905024625957,-3.086191698653996
1789757710495385900,4.6363857421875,0.8118412835419178,-1.8073928285762666,-3.012152648974955
1789757710505396700,4.646396728515625,1.1896563592910765,0.3229609112724662,-1.5446923247382043
1789757710515408100,4.656408203125,0.6384972255021333,-0.5766589012265205,-0.2601469103651121
1789757710525419000,4.6664189453125,-0.7290577863931655,0.7505275676622987,1.9659353310644625
1789757710535430000,4.676429931640625,0.8793962318986653,-2.9012390358850357,-0.9822949539024383
1789757710545440000,4.68643994140625,-0.7617711384713649,-1.6143296323269605,-1.4060659443363546
1789757710555451000,4.696450927734375,-0.9671469960659742,0.1567515274181962,-1.4786258613735437
1789757710565461800,4.706461669921875,0.6881184577614069,-0.08080079889893531,-2.0433830201432106
1789757710575473000,4.716472900390625,2.7000129914462563,-2.82450475577265,-0.4062854564953595
1789757710585482800,4.726482666015625,1.6392174053460358,-0.3640536769002676,-0.0912341858362779
1789757710595494100,4.736494140625,-2.158728185939789,2.429159868551791,-0.5865961386773735
1789757710605505000,4.746505126953125,-0.11224398491084575,-0.85930153837502,1.2439344774454832
1789757710615516000,4.756515869140625,1.9286346511960029,-2.4802275002270937,0.0676554495891556
1789757710625526000,4.766526123046875,-0.8115040144115686,1.4352777180343865,-0.12805953981056808
1789757710635537000,4.776536865234375,1.040352517530322,-1.674713958401978,-0.27510500818528233
1789757710645547800,4.7865478515625,-0.36532442748844624,-0.2970335660725832,-0.4094937875499949
1789757710655559000,4.796558837890625,-0.618812866345048,-2.1166668675407765,0.557607360080257
1789757710665568800,4.80656884765625,-0.48393444029986854,0.33725831669420003,0.26341097192866725
1789757710675580000,4.816579833984375,0.5423427901268005,-0.39097733966112136,0.8883328409396112
1789757710685591000,4.826591064453125,0.5405214199185371,-0.3874710851058364,0.8594136935126035
1789757710695602000,4.836601806640625,3.010657149720192,-2.6262819848030805,0.22481720177605746
1789757710705612800,4.84661279296875,1.2104752754360437,0.055877954566478726,0.11348807582096196
1789757710715623000,4.856622802734375,1.6884224580198526,-2.0088547275975346,0.2945221495072357
1789757710725633800,4.8666337890625,-0.18140169228911399,0.7780430588364601,-0.3951381856676191
1789757710735645000,4.87664501953125,-1.6281763713717459,-0.5540852503687143,0.10247870649341494
1789757710745656000,4.886656005859375,-2.6981688248842954,0.6611497868150472,0.19909084077468142
1789757710755666000,4.896666015625,-0.9682032271206379,-0.7712392240405083,-0.9425172894611954
1789757710765677000,4.906677001953125,-1.4940648380458355,2.3819530039578676,0.12508927356181665
1789757710775688000,4.91668798828125,3.5241719047695397,-4.686246429651975,-0.4704370992146432
1789757710785698800,4.92669873046875,2.5434996566981076,-0.9222261965826153,-1.3101353808447718
1789757710795709000,4.936708984375,0.9015215544670819,-0.6297685601234436,-1.1392558862876145
1789757710805719800,4.9467197265625,1.2225567583739756,-1.2740984373018145,0.3816165138587355
1789757710815731000,4.95673095703125,-2.2838053489387034,1.0161696779102087,-0.1118615249319002
1789757710825742000,4.9667421875,0.4203542407929897,-2.0221055465757845,0.39220622386895115
1789757710835752000,4.976751953125,1.6230442691802978,-1.1825932890370487,-0.6568460252065211
1789757710845763000,4.98676318359375,-1.0603349828511477,1.457680980761349,-1.1493220108151436
1789757710855774000,4.99677392578125,0.6063759940981864,-2.881642355011403,-0.005528809891454875
1789757710865784800,5.006784912109375,1.5593156011134386,-0.4732885431230068,-1.554638110821694
1789757710875796000,5.0167958984375,1.457565537688136,-1.9623197709158062,0.24449535038806497
1789757710885805800,5.026805908203125,-0.8010989402532577,-0.8550672618061304,0.45663134976737196
1789757710895817000,5.03681689453125,-0.8005231861919164,-0.857652894385159,0.44470250010788437
1789757710905828000,5.046828125,0.8934820403963327,-1.5618907122984527,-0.4674705775592476
1789757710915839000,5.0568388671875,0.894048442107439,-1.5645917879506945,-0.47993393595423545
1789757710925849000,5.06684912109375,1.4020207605987787,-0.2582058227673173,-0.2155180065004155
1789757710935860000,5.07685986328125,1.5640250939786433,-1.227763387106359,0.384007683311589
1789757710945870800,5.086870849609375,-0.0236544318318367,-0.3599702069789171,-1.3452519946724175
1789757710955881700,5.0968818359375,-2.5852128923118114,1.2730503895536065,-1.5534177752465008
1789757710965891800,5.106891845703125,-0.12858663242459295,-3.5773154659360644,-0.44298974137324837
1789757710975903000,5.116903076171875,1.3753466886848211,-1.6837129651546476,0.7085952824704349
1789757710985914000,5.1269140625,0.8326116843700408,-0.5377271130248904,0.3914570860020816
1789757710995925000,5.136925048828125,1.877786507490277,-1.2133861944466828,0.39666543176751584
1789757711005935900,5.146935791015625,-2.567503048098087,3.272755303750932,-1.6685066281944512
1789757711015946000,5.156946044921875,-3.4396833572685717,0.34542058036178347,-1.2809224381029605
1789757711025956900,5.166956787109375,-0.9643208327293395,-0.9495838668465614,-0.523235427140072
1789757711035967700,5.1769677734375,0.8470961367964744,-0.2779047949716449,1.1810728014715015
1789757711045979100,5.186979248046875,1.9481465763956307,-0.31298166131079197,1.4269856905072926
1789757711055989000,5.196989013671875,2.6073691945403814,-1.7642828779071569,0.4597052407873794
1789757711066000000,5.206999755859375,0.5858639519453048,0.40059126344174145,-0.22275661598443983
1789757711076011000,5.217010986328125,1.0204092151761055,-1.0122226938501,0.7929116882748901
1789757711086022000,5.22702197265625,0.5605459708154201,-0.5332806550100445,0.5316458203498273
1789757711096032000,5.237031982421875,0.5132382761955261,-0.5403659370958804,1.8028104692220688
1789757711106043000,5.24704296875,-2.5428327172219753,0.9229849059954285,0.8214596643019467
1789757711116054000,5.257053955078125,-2.6665193026453253,1.4776765978246926,-0.22393691181018946
1789757711126065000,5.26706494140625,-2.0788263817071915,1.4318953821197151,0.29903712444733827
1789757711136075000,5.277074951171875,2.7746804021567106,-3.126330816818774,0.03244706582482904
1789757711146086000,5.2870859375,1.0113146390944718,0.840556213633716,0.46096934243906285
1789757711156097000,5.297096923828125,0.2574754626661539,0.6941492623582481,0.7493943258486687
1789757711166108000,5.30710791015625,1.6399416279673575,-0.7634720971703529,1.152545649036765
1789757711176118000,5.317117919921875,0.070305123847723,-0.38423751001209017,1.0809098611071706
1789757711186129000,5.32712890625,-0.6445540413230657,-0.2794710213750601,0.6240372499298303
1789757711196140000,5.33714013671875,0.650090632662177,-1.1863649165302514,0.45178113325722513
1789757711207403000,5.348403076171875,0.6495791760087013,-1.183372164455056,0.4681641127813607
1789757711218039000,5.3590390625,0.6508253766775131,-1.1845675117194652,0.4827566286921501
1789757711228050000,5.3690498046875,2.9276684853881596,-1.3002832643941045,-0.3612203166378662
1789757711238060000,5.37906005859375,1.3234236092239617,0.7283063835039735,-0.2075385520538315
1789757711248071000,5.38907080078125,-0.6962228537619114,0.633361616179347,0.03467924532368779
1789757711258081800,5.399081787109375,-2.1195202111452818,2.2565759812295436,0.44265477379783985
1789757711268093000,5.409093017578125,0.5385422288000583,-1.7964739596769213,0.6967137060187757
1789757711278102800,5.419102783203125,0.6988976259291172,-1.0286731856524944,0.35156390542238947
1789757711288114000,5.429114013671875,-0.28056933800578115,-1.1941475332304834,0.19712207971867174
1789757711298125000,5.439125,-2.5064269403666257,0.24444705426692961,0.35572621273361144
1789757711308136000,5.449135986328125,-1.1243605880379677,-1.7007520704999566,0.5859054164668545
1789757711318146000,5.45914599609375,-1.7714117068737745,2.8995702258899807,-0.6578314560472965
1789757711328157000,5.469156982421875,1.0882803898751736,5.033565829372406,0.3163967304512858
1789757711338167800,5.479167724609375,3.6996056285649535,2.3931857611119747,0.7682984213482588
1789757711348179000,5.489178955078125,3.597104454511404,-2.5874226773157716,0.4634172835804522
1789757711358190000,5.499190185546875,-0.9759913967788219,0.24570436085164546,1.6086258677273988
1789757711368200000,5.509199951171875,-3.1657249618351457,-0.1093792431294918,-0.21236887655341996
1789757711378211000,5.519211181640625,-5.176805256527662,4.240673868711292,-1.286265698827058
1789757711388222000,5.529221923828125,-0.9433680610716343,1.626815019890666,1.6648102578945456
1789757711398232800,5.53923291015625,2.531312375298142,-2.107023717665672,1.670278898563981
1789757711408243000,5.549242919921875,1.9254478378534317,-0.8322191779211163,0.22885316102756187
1789757711418253800,5.55925390625,1.1078870076209306,1.1339809415593742,-0.9625647097770124
1789757711428265000,5.569264892578125,0.2228974857598543,-0.48482875879108905,-0.9923726958025246
1789757711438276000,5.579276123046875,-1.9682330866128206,1.226603111155331,0.39230044149104504
1789757711448286000,5.589285888671875,-1.6079285331130027,0.417144046574831,0.6893084712635725
1789757711458297000,5.599297119140625,1.2657359748870134,-2.0504738551869988,0.9166646169327199
1789757711468308000,5.609307861328125,2.5886703392893073,-1.2073197340145707,0.887184255426377
1789757711478318800,5.61931884765625,0.9179150553852319,1.2785951641991733,0.6277133080940693
1789757711488330000,5.629330078125,-2.5107062251210213,2.3268007333174348,0.5832950513053685
1789757711498339800,5.63933984375,-4.090767677143216,1.883407854503393,1.2362968221738935
1789757711508351000,5.64935107421875,-0.4352379216700792,-2.6185493447244164,0.05681222147559747
1789757711518362000,5.659362060546875,3.214675747486949,-1.4693109205394983,-0.6167487003568559
1789757711528373000,5.669373046875,2.698677943450212,1.077865086583793,0.41578225670233365
1789757711538383000,5.679383056640625,3.330736075815558,-0.14912205545306204,0.20543801784431562
1789757711548394000,5.68939404296875,-0.2036485954105854,0.17438450700342653,0.5168631886944175
1789757711559030000,5.700030029296875,-2.008366944080591,-1.8791414292305706,0.252905597467348
1789757711569041000,5.710041015625,-0.06293839447200297,0.00005932897180318832,-0.15773633720446378
1789757711579052300,5.72005224609375,3.955540876051783,-1.4183748062893748,-0.4990824346689507
1789757711589062100,5.730062255859375,6.026959027329087,-1.7685002033412456,0.08410305531471968
1789757711599073300,5.7400732421875,4.445267343756556,0.581782820111513,0.7759273087915033
1789757711609084200,5.750084228515625,1.9465338805019854,0.023890870936214923,0.6906669732004403
1789757711619095300,5.76009521484375,3.9123242501378055,1.2771002494663,0.352518539266102
1789757711629106200,5.770106201171875,1.7281857286095619,1.0309908149451017,-0.0413825469211908
1789757711639116300,5.7801162109375,-10.125445900547504,3.6953295586809514,0.833471223808825
1789757711649127200,5.790127197265625,-16.567531789410115,5.923953410884738,1.581971815688163
1789757711659138300,5.80013818359375,-8.256230822047591,-0.6772437202647328,1.4708131417959929
1789757711669149200,5.810149169921875,2.3212188415318726,-4.684771680924296,0.6029459465842694
1789757711679159000,5.820158935546875,6.177526605415344,-1.8286156493470072,-1.013874844971299
1789757711689170200,5.830170166015625,6.1774061939060685,-1.8286220790877936,-1.0008210098698735
1789757711699181300,5.840181396484375,4.561405998018384,0.6228104115486145,0.41015806014500555
1789757711709192200,5.850192138671875,1.5162614722847938,-0.4359796799480915,2.1052366881184277
1789757711719202300,5.860202392578125,-2.9426059422791004,1.1564219059482217,0.945300490438938
1789757711729213200,5.870213134765625,-5.655019565615057,0.6844193109825253,1.7777828493408858
1789757711739224300,5.880224365234375,-5.597760970345139,1.1787488885685802,0.9233036165557801
1789757711749235200,5.890235107421875,-5.599912595421076,1.1830360643684863,0.9385220823451876
1789757711759245000,5.9002451171875,0.4103910651832819,0.7224418753847479,0.5335330954011529
1789757711769256400,5.91025634765625,2.705752411881089,-0.14344400981664657,0.3972039590910077
1789757711779267300,5.920267333984375,2.5362299579560754,-0.24557459699213505,0.6115525199532509
1789757711789278200,5.9302783203125,1.7232383353352545,-0.20977555385828017,1.6523665175154805
1789757711799289300,5.940289306640625,0.6942845791757106,-0.0352571913421154,1.0670371839035302
1789757711809299200,5.95029931640625,-0.6283043327897787,1.5098536510691045,0.25757631095843386
1789757711819310000,5.96031005859375,0.14220774601995945,-0.3293333689138293,0.40391200536228716
1789757711829321200,5.9703212890625,0.730371791601181,-1.3534379314765332,-0.5378411678586155
1789757711839332400,5.980332275390625,1.015542485922575,-0.6783738933384418,0.4315228466697037
1789757711849342500,5.990342529296875,0.5903840597182511,1.018968368718028,0.6540102903239429
1789757711859353300,6.000353271484375,0.6954390099078417,1.3572212494075298,0.1559567420450039
1789757711869364200,6.0103642578125,1.1934183421730995,0.36684067727029324,0.6700923872053622
1789757711879375000,6.020375,0.1904284638315439,1.1780331415146588,0.28302361755641176
1789757711889385200,6.03038525390625,0.358743295532465,-0.21698066293150187,0.3131137997904792
1789757711899396000,6.04039599609375,0.8053893309235572,-1.4995458998054265,0.8342879470191895
1789757711909407200,6.0504072265625,1.1225199286073446,-0.9621163084223866,0.9146342070836573
1789757711919418400,6.06041845703125,-0.2078665053665638,1.718082560007274,-0.11265366169027984
1789757711929428200,6.07042822265625,0.08478606914281844,1.4316896304145454,0.04225223786123097
1789757711939439400,6.080439453125,0.06791267575323581,1.0654010340690612,0.03849810949210077
1789757711949450200,6.0904501953125,0.3006850743174553,-0.26859306900799274,-0.27473928014542903
1789757711959461000,6.100461181640625,-0.33182606251239777,-0.6108645376890898,0.6719646838832646
1789757711969472300,6.11047216796875,-1.644936952036619,0.10460925224870443,0.5419813364032655
1789757711979482000,6.120482177734375,-1.6659218723982572,0.8362754675745964,0.07061345914453268
1789757711989493200,6.1304931640625,-0.6170797589421272,0.6219228150591254,-0.5026133487414568
1789757711999504400,6.14050439453125,-0.3542424769818783,2.0252403374701737,-0.9969453374803066
1789757712009515300,6.150515380859375,0.5855412958621978,0.7413441442534328,0.13667254292033612
1789757712019525400,6.160525390625,0.23182898023426532,0.9430357603773474,-0.41486020995397116
1789757712029536300,6.170536376953125,0.2933013938069343,0.5644648978248238,-0.7467180923767387
1789757712039547100,6.180547119140625,-0.9808142868906259,2.6873697829723358,0.13741086713224648
1789757712049558300,6.190558349609375,1.6830255674123764,-1.5465703935697674,0.14246961182653903
1789757712059568000,6.200568115234375,4.424319248273968,-7.43665456033945,0.5987414806317538
1789757712069579000,6.2105791015625,2.372653260692954,-6.397877913823724,1.1209750372529028
1789757712079590400,6.22059033203125,-2.309035651785135,-1.5492226616442202,0.7369532158181071
1789757712089601300,6.230601318359375,-5.176787136349081,3.2478730836898086,0.9187862852618097
1789757712099611400,6.240611328125,-3.3360920498907563,3.7912984083563086,0.35432675773184746
1789757712109622300,6.250622314453125,-0.3228396229803562,3.29656609518826,0.8387721066959202
1789757712119633200,6.260633056640625,1.8409002536416053,1.4555875156134366,0.8226460245423018
1789757712129644000,6.27064404296875,2.097490165644884,-0.2080576440244913,0.7255897449564188
1789757712139654100,6.280654052734375,1.1540630678623913,-1.1718863093227148,1.461057909848541
1789757712149665000,6.2906650390625,-1.5474842935442923,1.2530316838756204,0.8381931377641856
1789757712159676400,6.300676513671875,-1.4601865338414906,0.06452683270722627,0.7382233818843961
1789757712169687300,6.310687255859375,-0.9530278698205947,-0.9872440276771783,0.74914941117689
1789757712179698200,6.3206982421875,-1.0637480061650275,-0.8125231283262372,0.7191504326239228
1789757712189708300,6.330708251953125,-1.0609329487442969,-0.8197527873188257,0.7236426294766366
1789757712199719200,6.34071923828125,1.0679103865414856,-0.1515235636368394,-0.2791060970528051
1789757712209730000,6.35072998046875,0.808746824657917,1.3080302252590656,0.22452742504924533
1789757712219741400,6.360741455078125,-0.15675240420103073,1.826271424308419,0.8608036865662783
1789757712229751300,6.370751220703125,-0.7192424948215485,0.33565175828039645,1.0838017831563949
1789757712239762400,6.380762451171875,-1.4121142845898866,0.759553462421894,0.7320076491747051
1789757712249773300,6.390773193359375,-1.767594778934121,1.1183277376145124,0.27969160532318055
1789757712259784200,6.4007841796875,-1.2382500020682812,1.1360483954831957,0.3915570757778361
1789757712269794300,6.410794189453125,-0.14813187537193298,0.5055670109152793,0.2423069369656965
1789757712279805200,6.42080517578125,1.2353291461855171,-0.46420974913239477,0.4442726573232561
1789757712289816000,6.430816162109375,0.6217945125043391,0.2888528899654746,1.0645040852293373
1789757712299827500,6.440827392578125,-0.22463585385978221,0.6792261262536049,0.7593956415116786
1789757712309837300,6.45083740234375,-0.9015881899625062,0.0691048081472516,0.9578547054551542
1789757712319848200,6.46084814453125,-0.9685352355539798,0.06983750633597373,0.12059804482348263
1789757712329859300,6.470859375,-0.0064507835745811455,-0.7917369454070925,0.2969060672353953
1789757712339870200,6.4808701171875,1.4218763846695421,-1.184431902641058,0.7508726547729223
1789757712349881000,6.490881103515625,1.5982546958386896,-0.6039017129391432,1.21842228891775
1789757712359891200,6.50089111328125,1.570695073261857,-0.9644044193595648,1.5210799784824252
1789757712369902000,6.510902099609375,1.1275842262595892,-1.3801441520944238,0.6978500165723264
1789757712379913200,6.520913330078125,-0.7857634239554405,0.22281799078285694,0.7829078153286129
1789757712389924400,6.53092431640625,-0.28939971019327637,-0.7103095390424132,1.2433964250460265
1789757712399934200,6.540934326171875,0.473051227235794,-0.8872004759088158,1.1473873894907534
1789757712409945300,6.5509453125,0.8035831582844257,-0.41666356958150863,1.8618894117869436
1789757712419956200,6.560956298828125,2.1255448782622812,-1.925993489037454,0.6520192626371979
1789757712429967000,6.570967041015625,0.7507529008507728,-0.9418509345069527,-0.2497221451256424
1789757712439977200,6.580977294921875,-0.5866086328327655,0.20918460222780702,-0.06168696963880211
1789757712449988000,6.590988037109375,-1.0380530084162949,0.34489246483445163,-0.4905986839620396
1789757712459999200,6.600999267578125,-0.3199953394651413,-0.9147937084943055,-0.3365704074952751
1789757712470010400,6.61101025390625,-0.09820727625191211,-0.7984040020808577,-0.01327880296371877
1789757712480020200,6.621020263671875,-0.06273965702950954,-0.6840820418521761,-0.16188129152208566
1789757712490031400,6.63103125,-0.6691337713062763,-0.19414368496239184,0.10492927798330783
1789757712500042200,6.641042236328125,-1.8062702542871236,0.834400029091537,-0.1262086147142574
1789757712510053000,6.65105322265625,-1.285600951308012,0.7733554855421185,-0.6797527074109763
1789757712520064000,6.66106396484375,1.1336322742521763,-0.7032502681806683,-0.43734607293047006
1789757712530074000,6.67107421875,2.5491712725937363,-0.9798103705450892,-0.6918647316176444
1789757712540085200,6.681085205078125,2.79573721871078,-0.9797630242720246,0.15278994857715442
1789757712550096400,6.691096435546875,1.7267741082459687,-0.7241746905267238,0.8127772492177784
1789757712560107300,6.701107177734375,-0.6456354068189859,0.3749769297137856,0.8414266397926956
1789757712570117000,6.7111171875,-1.5411352167785166,0.08637333833426236,0.7562949720826
1789757712580127700,6.721127685546875,-1.3149626548707485,-0.8609519359305501,-0.006376074370555579
1789757712590139000,6.731138916015625,-1.1693255189239977,-1.338790689703822,0.2729342582837678
1789757712600149800,6.741149658203125,-0.8157166636705399,-0.0707628044873476,0.7222497868787496
1789757712610159900,6.751159912109375,0.12711480630636215,-0.5250336356684565,0.7913280723452567
1789757712620170800,6.761170654296875,0.7147177108734846,-0.16354922473430633,1.126295282427594
1789757712630182000,6.771181884765625,1.1014607739657163,-0.288536955884099,1.3941687319241463
1789757712640192800,6.78119287109375,0.1287549747288227,0.27580577686578034,0.7145088173631579
1789757712650202600,6.79120263671875,0.5133686245769262,-0.7165510637804865,0.29482259375853465
1789757712660213800,6.8012138671875,1.2658043639481067,-1.3382003225952386,1.1116790933802723
1789757712670225000,6.811224853515625,2.125772841799259,-2.161975789558887,0.940337899595499
1789757712680235800,6.82123583984375,1.7880290796756744,-0.8443556059166789,1.6915934892714022
1789757712690247000,6.831246826171875,0.9849234757751226,-0.969260334958136,0.8618206085238606
1789757712700256800,6.8412568359375,0.9870920519858598,-0.9742422150239348,0.8596373462006449
1789757712710268000,6.851267822265625,-1.5175409907013178,-0.090896660977602,0.626499183063954
1789757712720278800,6.86127880859375,-1.596922570452094,1.2620654696807265,-0.2779269885371439
1789757712730290000,6.8712900390625,-0.9315344154149293,-0.03518266480118036,-0.8775921781513839
1789757712740299800,6.8812998046875,-0.48509880790412424,0.0657739101588726,0.004283157211914659
1789757712750311000,6.891310791015625,-0.48414954435527324,0.06379296547472477,-0.0012780753781087696
1789757712760321800,6.90132177734375,-0.5705833807051182,0.10028934322297572,0.8118436946947127
1789757712770333000,6.9113330078125,0.290396320015192,0.27093466369807717,0.3765841822473332
1789757712780342800,6.9213427734375,0.4842383916825056,0.660730684620142,-0.8508144266672432
1789757712790353700,6.931353759765625,0.4580085564047098,0.6226362240254879,-0.8827829517275094
1789757712800364800,6.94136474609375,0.41187516626119614,-0.6071864336982369,-0.24790727772340176
1789757712810376000,6.9513759765625,0.10206921237707138,-1.05581721316576,0.3116075964786112
1789757712820386000,6.961385986328125,-0.6872346606642007,-0.32025165231376884,0.7605905503846705
1789757712830397000,6.97139697265625,-0.753193864262104,-0.11649433583170175,1.537094270824641
1789757712840407800,6.98140771484375,0.05460077423751354,-0.1517187939479947,1.26871250647977
1789757712850418700,6.991418701171875,0.6227092892616987,-0.25518238329291343,0.3005128047567792
1789757712860428800,7.0014287109375,1.6325228761434554,-0.6638607993394136,0.06140757730868645
1789757712870439700,7.011439697265625,2.4137457340598103,-1.3938187494426966,0.064487751939008
1789757712880450800,7.021450927734375,1.471739608991146,-0.8196817679092288,0.7464125335589051
1789757712890462000,7.0314619140625,-0.5485942517369985,-0.5053855168685317,0.8855715595327317
1789757712900472800,7.041472900390625,-1.7982991292774677,-0.5642413182020187,0.6376877357501536
1789757712910483000,7.05148291015625,-1.5718465813845395,-0.9608940731510519,0.09615410658176987
1789757712920493800,7.061493896484375,-0.5123129780441522,-0.4561974153295159,-0.12660261900052427
1789757712930504700,7.071504638671875,0.8698094883859157,-0.5295370845675468,-0.3942891310902312
1789757712940515800,7.081515869140625,2.0959517040312288,-1.5906123643919825,-0.474897403091751
1789757712950525700,7.091525634765625,0.892843742492795,0.1960524411931634,-0.12924064848707056
1789757712960536800,7.101536865234375,-0.3142769618183374,0.3901949571117759,0.26356376960389316
1789757712970548000,7.1115478515625,0.3001613427042961,-1.2968302013307809,0.12614175088996998
1789757712980558800,7.121558837890625,-0.07812485768795013,-0.35174510720819235,-0.023254004654649177
1789757712990569000,7.13156884765625,-0.14056173237860203,0.14060294117182492,-0.14353604461480862
1789757713000579800,7.141579833984375,0.08436579790413379,-0.04183160129636526,0.1472264966305811
1789757713010590700,7.1515908203125,0.021517419803142545,-0.01746872893422842,-0.18552016045860945
1789757713020601900,7.161601806640625,0.05554536161124706,-0.17829057453125713,-0.07654765323279425
1789757713030611700,7.17161181640625,-0.3393225557476282,0.09517682251483202,0.17348819748451932
1789757713040622600,7.18162255859375,-0.6716197429031133,0.1469122704491019,-0.06541163445143029
1789757713050634000,7.191634033203125,-0.495353075414896,0.03610124095082283,-0.11046910245912149
1789757713060644900,7.201644775390625,-0.3936339916497469,0.8297972114711999,-0.4986498519379645
1789757713070655700,7.21165576171875,0.4316489572674036,0.29173136801123617,-0.18075376804070545
1789757713080665900,7.221665771484375,1.277704060578346,-0.3114347241297364,-0.08092656243676319
1789757713090676700,7.2316767578125,1.1644681420207024,0.058439037226140494,-0.20557516129268333
1789757713100687600,7.2416875,0.2276554939419031,-0.20867226879149675,-0.19518400606187059
1789757713110698800,7.25169873046875,-0.24202771816551683,-0.4199678718239069,0.0492774603229016
1789757713120708600,7.26170849609375,-0.3715577689200639,-0.4871422964304685,0.09589384821038692
1789757713130720000,7.271719970703125,1.041174939829111,-1.4494877374336124,-0.005460347765125334
1789757713140731000,7.28173095703125,0.31706337766647336,-0.3758516667217016,-0.04531301367133855
1789757713150741800,7.29174169921875,-0.37404549408257004,0.17074322789162397,-0.25714025762872766
1789757713160751900,7.301751953125,-1.1870289333969355,0.5025160989120603,-0.3978608886297792
1789757713170762800,7.3117626953125,-1.0598889926493167,-0.21092384711056947,-0.7429488029710948
1789757713180773600,7.321773681640625,-0.5082978971838951,-0.808582574006915,-0.7859779434889554
1789757713190785000,7.331784912109375,-0.5025976397156715,-1.1357818535014987,-0.3421866034092381
1789757713200795000,7.341794921875,-1.9344377845168113,0.5530760733261704,0.07669310785178095
1789757713210806000,7.351805908203125,-2.708489727890491,0.9135381554752587,-0.12606847559120504
1789757713220817000,7.36181689453125,-0.7353285372257232,-0.2774953373879194,-0.23159882474020121
1789757713230827800,7.371827880859375,1.5666566115260123,-0.7959589470162988,0.08589534555897116
1789757713240838700,7.381838623046875,2.034190536645055,-0.8000602448552846,0.2808573246343061
1789757713250848800,7.391848876953125,0.9266086494505404,-0.10705372279137372,-0.1914207993371412
1789757713260859600,7.401859619140625,0.12401917837858199,-0.10686726030856371,0.023639964915066956
1789757713270871000,7.41187109375,-0.006793313401937485,-0.5645169202730059,-0.6366396149367094
1789757713280882000,7.4218818359375,0.07881225543022155,-2.045262842540443,-0.898960033416003
1789757713290891800,7.431891845703125,0.46326983793377874,-1.7816712350815533,-0.28958222715333104
1789757713300903000,7.44190283203125,0.12564765636324882,1.929421417659521,-0.363635853346996
1789757713310913800,7.451913818359375,-0.1274345397800207,3.850442963503301,-1.552845236055553
1789757713320924700,7.461924560546875,-0.08628186065852642,2.2864269296139477,-1.343831898741424
1789757713330934800,7.471934814453125,0.29462182875573634,-0.6210217745661735,0.014277312481775878
1789757713340945700,7.481945556640625,-0.7059557277470827,-1.1854086387187242,-0.8424156508300453
1789757713350956800,7.491956787109375,-0.4799409867495298,-0.4675619821697473,-1.0798270343065262
1789757713360968000,7.501968017578125,-0.4757663314133882,1.7470175625905393,-1.3716814441755414
1789757713370977800,7.511977783203125,0.7085188562333583,0.8029255711585283,-0.7527018429614603
1789757713380989000,7.521989013671875,1.053785999599099,-0.6188692727074027,0.2937074903897941
1789757713390999800,7.531999755859375,-0.007087327912449836,-1.0042641360610722,0.29075638549923893
1789757713401010700,7.5420107421875,-0.9577543138206005,-0.2920107694745064,-0.5562509039700031
1789757713411021800,7.552021728515625,-1.251049862408638,0.99668727106601,-0.5812058239411563
1789757713421031700,7.56203173828125,-1.2525982608944177,0.9983683560207486,-0.5910586710441857
1789757713431042800,7.572042724609375,0.12758534642755984,-0.25868922237008807,0.12928878934457896
1789757713441054000,7.582053955078125,1.3749603197157383,-1.0039049473598598,0.8867939409345388
1789757713451064800,7.59206494140625,1.679656383240223,-0.7423065595448016,0.08812398139387369
1789757713461075000,7.602074951171875,1.6800953591793775,-0.7443868729501962,0.08302534308061003
1789757713471085800,7.6120859375,-1.5709931794255971,1.6928619017720221,-0.7559970120493322
1789757713481096700,7.6220966796875,-1.865093614655733,0.3036123599410057,-0.02157645651400089
1789757713491107600,7.632107666015625,-1.5449451304554938,-0.300299582131207,0.6172893100395799
1789757713501117700,7.64211767578125,-0.28199732498228547,-0.6655220105499029,0.3893898512739688
1789757713511128800,7.65212890625,0.42386780187189577,0.5650096722260117,-0.21878289004787801
1789757713521140000,7.662139892578125,0.38785657729208467,1.0156930003091693,-0.27126732971854506
1789757713531150800,7.67215087890625,0.6881453457683324,0.9506050265878438,-0.03469626952372491
1789757713541160700,7.68216064453125,0.8948112431734799,-0.6232634160131215,0.11587912654280662
1789757713551171800,7.692171875,-0.045108723270893096,-0.3291515826061368,-0.1509383110947907
1789757713561182700,7.7021826171875,-0.273256969165802,0.27224603855758905,-0.6046125646222382
1789757713571193900,7.71219384765625,-0.1332417647540569,-0.028518238475918768,-0.68943925803639
1789757713581204200,7.722204345703125,-0.2825584659963846,0.5680760740593075,-0.23047018603645264
1789757713591215000,7.732215087890625,-0.5751730465829372,-0.41911096273362636,0.11108443961218
1789757713601226000,7.74222607421875,-2.362297286373377,0.415721028034389,-0.1299242377039045
1789757713611237400,7.7522373046875,-2.131860052758455,0.3882090439915657,-0.3777986360710114
1789757713621248300,7.762248291015625,0.2988619505435228,-0.9158063926681875,-0.3143922587610781
1789757713631258400,7.77225830078125,1.4461083241283892,0.1943114427447319,0.2167182126030326
1789757713641269200,7.782269287109375,1.841928427645564,0.18561346476525067,0.6581816577244549
1789757713651280100,7.792280029296875,1.32883569740057,0.08205109122097491,0.033117841225862504
1789757713661291000,7.802291015625,0.8417039223641156,1.0996908416837454,-0.3719705875046551
1789757713671301000,7.812301025390625,0.37496670058071613,1.4643851545751094,-0.038941578943282366
1789757713681312000,7.82231201171875,0.3027361616283655,1.14127197535038,-0.03263305338360369
1789757713691323400,7.832323486328125,-0.3550251517921686,0.6797074800297618,0.18257314722128212
1789757713701334300,7.842334228515625,-0.5553209296435118,0.007673311106860637,0.5278446745011955
1789757713711344000,7.85234423828125,-0.7445072844594717,0.5499389443442225,0.3795419726070016
1789757713721355300,7.862355224609375,-1.3433201498270033,0.914255656094849,0.3729008540920913
1789757713731366100,7.8723662109375,-0.6355629256159067,0.4937538235247135,0.33931218048408623
1789757713741377000,7.882376953125,-0.04244681058526039,0.1896647859826684,0.3736751994654536
1789757713751388400,7.892388427734375,-0.04203121552169323,0.1901362028867006,0.381439915182814
1789757713761398000,7.90239794921875,0.1784913578003645,0.0958227192029357,0.08713204774707556
1789757713771409200,7.9124091796875,-0.22490298036336898,-0.23541472976654768,-0.8231608421966433
1789757713781420300,7.922420166015625,-0.8393471301048994,-0.14902707064598797,-0.484572299811989
1789757713791431200,7.93243115234375,-0.2688280468076467,1.2139946817338465,0.39127259628064925
1789757713801441300,7.942441162109375,0.8777852895706891,0.7713193035393953,1.2441235702767968
1789757713811452200,7.9524521484375,1.9531044910639523,-0.20029402428567408,1.2184377787478267
1789757713821463000,7.962463134765625,1.4222551548540592,0.5734335094392299,-0.7492989757154136
1789757713831474400,7.972474365234375,0.7217530163377524,-0.8126116833925247,-2.3123558822490273
1789757713841484300,7.982484375,-0.2981611087977886,-0.7186956745937466,-1.70107209623456
1789757713851495200,7.9924951171875,-1.7166098571062087,-0.9565519522935152,-0.5398672668587416
1789757713861506300,8.00250634765625,-1.6796791795939205,-2.650320447516441,0.136058721870929
1789757713871517200,8.01251708984375,-0.7221183425188065,-1.7194933035880327,0.6488550264526158
1789757713881527300,8.02252734375,0.7890607119351625,-0.6856397926881909,0.21503581247404216
1789757713891538200,8.0325380859375,0.8749415905773639,0.7792816607207059,-0.5713936011094599
1789757713901549000,8.042549072265626,0.6333890887081622,1.0560668040126562,-0.6517622922014444
1789757713911560200,8.052560302734374,0.02240881568491459,0.7638701565772295,-0.29708449254222213
1789757713921571300,8.0625712890625,-0.834974321848154,0.1241319911032915,0.4104338083464652
1789757713931581200,8.072581298828124,-0.7336492058366537,0.13649024515599012,0.436463335279189
1789757713941592300,8.08259228515625,-2.639191735258698,1.2947946038499474,0.03462755166906863
1789757713951603200,8.092603271484375,-5.89849163736999,1.3050824813693762,0.5363811052434146
1789757713961614000,8.102614013671875,-7.136850360509753,1.5751961840733886,0.05473090342320502
1789757713971624200,8.112624267578125,-7.143318095219135,1.591767671906948,0.06576400981936603
1789757713981635000,8.122635009765625,2.5750463030844926,-2.1301345441401005,-0.13894563895147294
1789757713991646200,8.132646240234376,6.027288113152981,-1.868189534844458,0.488288909182325
1789757714001657300,8.1426572265625,7.199823826295137,-1.6934984461098908,0.5443578928088769
1789757714011667200,8.152667236328124,4.002186891892552,0.2759013461947441,0.7078523551486432
1789757714021678300,8.16267822265625,-0.041782209196686744,1.4064315627783537,0.47125608744733033
1789757714031689200,8.172689208984375,-2.703767960065603,0.8322162553116679,0.3336080870909616
1789757714041700000,8.1827001953125,-2.090897343251109,-0.07135258707404137,0.5442564051957801
1789757714051711000,8.1927109375,0.10361994895040988,-0.3697361064508557,0.2814681500090286
1789757714061721000,8.20272119140625,1.9397861598074435,-0.6283005333974957,-0.2079960500303656
1789757714071732200,8.212732177734376,2.838404978570342,-0.1487713423192501,-0.1723353193886578
1789757714081743400,8.222743408203126,1.5968489206939935,0.9890180516123771,0.14831947036590426
1789757714091754200,8.232754150390624,0.3173369339108467,-0.6994792252093553,-0.25314294988717884
1789757714101764000,8.24276416015625,-1.5026824442654847,-0.5960758416190743,-0.3571983311127871
1789757714111775200,8.252775146484375,-2.4351088400840757,-0.8053925457939505,-0.7214231267962604
1789757714121786000,8.2627861328125,-1.474336055225134,-0.8396919980198144,-1.0412505623485893
1789757714131797000,8.272796875,-0.3256640327513218,-0.07872779201716185,-0.7592569636933505
1789757714141807000,8.28280712890625,1.3694997162222862,-0.6454214718073606,-1.0876543669313192
1789757714151818200,8.292818359375,1.216217033958435,0.09833674785047769,-0.7384853938214481
1789757714161829000,8.3028291015625,1.3140478781133889,-0.82776424433887,-0.4613233800411224
1789757714171840300,8.31284033203125,0.1605605643123388,-0.3576902793481946,-0.4489900047013536
1789757714181850000,8.32285009765625,-1.0140350039690733,-0.591620908036828,0.07270652243364602
1789757714191861200,8.332861328125,-1.7878461243242025,0.6764464324072003,-0.23669874169509855
1789757714201872100,8.3428720703125,-1.1410855128675699,0.4838280573159456,-0.31929767605718223
1789757714211883300,8.35288330078125,-0.7864613430917262,0.5217401470810175,-0.5691473930852488
1789757714221894100,8.36289404296875,0.1186029985487461,0.5548582805678248,-0.20753336442206052
1789757714231904300,8.372904296875,1.0421610282570124,-0.10883534551113844,0.10696787113882601
1789757714241915100,8.3829150390625,0.967943699401617,-0.153469437007606,0.15057159667424858
1789757714251926300,8.39292626953125,2.5079730007648466,0.020408289517462253,0.07605923039503396
1789757714261937200,8.402937255859374,2.5240765788257122,-0.8696580972164869,-0.10128620877321809
1789757714271947300,8.412947265625,0.38432021985948084,1.068016185003519,-0.6431281001731753
1789757714281958100,8.422958251953125,-2.2616338491410017,0.741738988789916,-0.7057391623869538
1789757714291969300,8.43296923828125,-3.2996821813821793,0.7809440409749746,-0.1748614768654108
1789757714301980200,8.442980224609375,-2.034844032117724,-0.5663043882116675,-0.6198225548442453
1789757714311990300,8.452990234375,0.5607265880793333,-2.1280326034247876,-0.07911916595492512
1789757714322001200,8.463001220703125,1.4956477233231067,-1.1125044382885099,0.1962437259815633
1789757714332012300,8.47301220703125,1.0973457398623228,-1.0347124658167361,0.5311341079680248
1789757714342023200,8.483023193359376,0.647253947931528,-1.0940130883082746,1.270751464961469
1789757714352033000,8.493032958984376,-0.9105185153931379,-0.04075315840989351,1.3687519665949046
1789757714362044200,8.503044189453124,-1.8194933084756135,1.3119859771475195,0.40609402557648716
1789757714372055300,8.51305517578125,-1.3282640349924564,1.8165996328607201,-0.2860251557262614
1789757714382066200,8.523066162109375,-0.40640521041750904,0.8097963337108492,-0.8047682764157652
1789757714392077300,8.533077392578125,-0.4300444446802139,2.140506885072589,-0.2365187820183113
1789757714402087200,8.543087158203125,0.32574352772831916,0.472057247762382,0.18586718379799275
1789757714412098000,8.55309814453125,0.21848083836138246,0.9438631511121988,0.35362365096379067
1789757714422109200,8.563109130859376,0.2189467023074627,0.9435057159766554,0.359611127875559
1789757714432120000,8.5731201171875,0.5492249508559703,0.8985615356177091,0.10399919405896216
1789757714442130200,8.583130126953124,0.5169552508920431,0.12549392710626125,0.02969418692011386
1789757714452141300,8.593141357421874,-0.018404840740561486,0.08471534199416637,0.10703012272007763
1789757714462152200,8.603152099609375,-0.30123627845942974,0.16231383772045374,-0.20560597655605523
1789757714472163300,8.613163330078125,-0.12059797175824641,-0.24472090277224778,-0.40074700199272484
1789757714482173200,8.623173095703125,0.04246843789517879,0.09590192191898822,-0.38542197055630384
1789757714492184000,8.63318408203125,0.5036994634777308,0.09521130930632352,-0.25312011700086295
1789757714502195200,8.6431953125,1.157623975214362,-0.797931708393991,0.0989119539225474
1789757714512206000,8.6532060546875,0.937657866731286,-0.03455956446677446,-0.43455556542910634
1789757714522216200,8.66321630859375,-0.6070306586146355,0.8892989094927907,-0.9052591335602104
1789757714532227300,8.673227294921874,-1.0708388412088155,0.6215609960094094,-0.7089291905999183
1789757714542238200,8.68323828125,-1.0548825626641511,-0.5428036856368184,-1.2448901707351208
1789757714552249000,8.6932490234375,-0.7008955217480659,-0.5503010556548833,-0.4897626715293154
1789757714562260200,8.70326025390625,0.4879886841267347,-1.7652590294629333,-0.004738682427071035
1789757714572270000,8.71327001953125,-0.13311024732887744,-0.5133700858816505,-0.16913575616236776
1789757714582280700,8.72328076171875,-0.8297977959930897,1.3852251086205243,-0.07297792325355112
1789757714592291600,8.73329150390625,0.3955190747439861,-0.4073737631887197,-0.3452424838485196
1789757714602302500,8.743302490234376,1.2827484844863415,-0.6319637320801615,0.02765994114615023
1789757714612312600,8.7533125,1.7985510582119226,-0.6759709238499403,0.3134796008955687
1789757714622323500,8.763323486328124,1.8373989675223825,-1.8202046716153621,0.03634955315608531
1789757714632334600,8.77333447265625,-0.6157476335555314,1.3396648421898483,-0.17971863457299767
1789757714642345700,8.783345703125,-1.1466472386479376,1.352494805407524,-0.02517265437506139
1789757714652355600,8.79335546875,-0.4182973082631826,-1.1191995520129798,-0.21181356249190866
1789757714662366700,8.80336669921875,-0.2853723543733358,-0.9643220017731189,0.54518659871798
1789757714672377600,8.813377685546875,0.27453064236342906,-1.4471493576139212,1.0829550301339477
1789757714682388500,8.823388427734375,0.3569295241087675,-1.0419725199475884,0.5188172088390216
1789757714692399600,8.833399658203126,-0.2727373292058706,0.48671238058060406,-0.034711138299293814
1789757714702409500,8.843409423828126,-0.1388058286219835,0.06880582520067692,-0.05191482308916747
1789757714712420400,8.85342041015625,-0.07528641939163208,0.37972237067520614,0.138468084567599
1789757714722431700,8.863431640625,0.6925351051598787,-0.38090222810953855,-0.025553031994774936
1789757714732442600,8.873442626953125,0.6931225496590137,-0.38337650926858186,-0.03278590585775673
1789757714742452700,8.88345263671875,1.2348416549295187,-0.39188948606997726,-0.5764726579394192
1789757714752463600,8.893463623046875,1.2361422161340714,-0.39584962187260386,-0.5826316189605742
1789757714762474500,8.903474609375,0.6024450843900442,-0.5227528312548995,-0.20149945455268023
1789757714772485400,8.9134853515625,-0.7080097376674414,-0.0911255012974143,-0.4762852407209575
1789757714782495500,8.92349560546875,-1.4753011008650063,0.3286594151750207,-0.6458069639936089
1789757714792506400,8.93350634765625,-1.2356108857363461,-0.05646539906561374,-0.5487307375982403
1789757714802517800,8.943517822265624,-0.7170382627755403,0.13685907846838236,-0.400353363032639
1789757714812528600,8.953528564453125,-0.028510055169463155,-0.20919190875142812,-0.2668956174403429
1789757714822539500,8.96353955078125,0.6069073244959116,-0.3198948017001152,-0.2759074836745858
1789757714832549600,8.973549560546875,1.0302204150944947,-0.9210770265474915,-0.22395568957589565
1789757714842560500,8.983560546875,0.47144846821427344,-0.40480741983205076,-0.018039003102853893
1789757714852571400,8.9935712890625,0.44321898355185985,-0.7119719192966818,-0.19802549483180046
1789757714862582800,9.003582763671876,0.46971828342080113,-1.0389654470860958,0.29442572166174646
1789757714872592400,9.01359228515625,0.22622049270272254,-0.3025458997532725,0.28082060935311015
1789757714882603500,9.023603515625,-0.26955869916975495,0.3497583173051476,0.12613266340121626
1789757714892614700,9.03361474609375,-0.8396814766258001,0.36628801182359455,0.2869385077115148
1789757714902625500,9.04362548828125,-0.8456108666747808,0.3570262624815106,0.13167889935150742
1789757714912635600,9.0536357421875,-0.4324760557413101,0.21287468891739844,0.008458104809001088
1789757714922646500,9.063646484375,0.1307324122816324,-0.3487824580103159,-0.14775916960202157
1789757714932657400,9.073657470703125,0.7490221315354109,-0.43575756163001056,-0.09160057146325706
1789757714942668800,9.083668701171876,0.9891314488589763,-0.3004112258121371,-0.6178387606158853
1789757714952678700,9.0936787109375,0.7293693365603685,-0.1619023343101144,-0.03423639692701399
1789757714962689500,9.103689453125,-0.20110475614666937,0.2234051430210471,0.4316470575712621
1789757714972700700,9.11370068359375,-1.3737567891448736,0.8861614882498979,-0.18291640770100057
1789757714982711600,9.123711669921875,-0.5490361502856016,-0.8862702093213796,-0.4148491405706852
1789757714992722400,9.133722412109375,0.10697744268476962,-0.8224901033282279,-0.5540833506725729
1789757715002732500,9.143732666015625,-0.9351450071275234,0.5786021442487835,-0.4491913359597325
1789757715012743400,9.153743408203125,0.28698738835453985,-0.5887193413764238,0.4198256138090044
1789757715022754600,9.163754638671875,0.5013029237300157,0.4753124501660466,0.3799460964284837
1789757715032765700,9.173765625,1.3526374287486076,0.09648644380867481,0.16266557376757262
1789757715042775600,9.183775634765626,1.381958215779066,-0.06146043087393045,-0.622937106668204
1789757715052786700,9.19378662109375,0.42637247816920276,-0.2186182010054588,-0.9722929806523024
1789757715062797600,9.203797607421874,-0.7127145543575286,-0.2814040352642536,-0.6824545137155801
1789757715072808400,9.213808349609375,-1.3266536771863697,-0.04548924702107906,0.25286636143550273
1789757715082818600,9.223818603515625,-0.35372459058761596,-0.3939402811199426,0.5857558153957129
1789757715092829400,9.233829345703125,0.9849866041392087,-0.5715177389457822,0.2634201964147389
1789757715102840600,9.243840576171875,1.9856255354404448,-0.8594628664165734,0.2669333191022277
1789757715112851700,9.253851806640625,1.2337176193356514,0.24406273112446067,0.15692688398510216
1789757715122862600,9.263862548828126,0.06700958943367004,0.2502180388838053,-0.40628253388591107
1789757715132872700,9.273872802734376,-1.4672615867942571,1.040770450681448,0.00035418373253196477
1789757715142883600,9.283883544921874,-1.9029490057975054,0.12001169630289077,0.6987509109348058
1789757715152894500,9.29389453125,-1.6803034489721058,0.9310106838017701,0.9992680813394487
1789757715162905300,9.3039052734375,0.0830278272986412,-0.7535849094063043,0.9088583270959556
1789757715172915500,9.31391552734375,0.8602285900920629,0.1292713998183608,0.8545202223826199
1789757715182926600,9.323926513671875,0.9933259779393673,-0.4048877915918827,0.5630475418401881
1789757715192937700,9.333937744140625,-0.3442079897016287,0.7777306318864226,0.2760151818327606
1789757715202948600,9.343948486328125,-0.501692215308547,-0.17400047612190245,-0.07900065414179117
1789757715213584600,9.354584716796875,-0.5016355166852474,-0.17296879498660564,-0.07031064027305692
1789757715223595500,9.364595458984375,-1.045630750194192,-0.47286359570920466,0.07969751383215189
1789757715233606700,9.374606689453126,-1.2199644037932156,-0.300016089014709,0.43542453028336164
1789757715243617500,9.384617431640624,-0.7334580671787262,0.4564230407789349,0.7587523751720786
1789757715253628400,9.39462841796875,1.5488246022373438,0.6861892432644963,0.2968351574236527
1789757715263638500,9.404638427734374,5.547109810516238,-1.3462968275502323,-0.4998961987372488
1789757715273649400,9.4146494140625,9.568445639514923,-2.6503476277843117,-0.3148257182748988
1789757715283660500,9.42466064453125,5.6137844689071175,-0.17731851462870835,0.07083550439737736
1789757715293671700,9.434671630859375,-12.772756060332059,6.2154001167356965,0.6415371046546846
1789757715303681500,9.444681640625,-22.43294241043329,6.876207958245277,-1.1432779083453117
1789757715313692700,9.454692626953126,-11.78057340720892,-0.917482216925919,-1.327917705772817
1789757715323703600,9.46470361328125,4.400409964898229,-5.6633753060281276,-0.005847374321334063
1789757715333714400,9.47471435546875,11.517861212933063,-3.1846649323657155,0.3136784479359165
1789757715343724500,9.484724609375,12.270388722240924,-0.12068097386658191,-0.5795649979315698
1789757715353735700,9.494735595703125,7.583986225244402,1.7300047607302664,-0.2256497801426798
1789757715363746600,9.50474658203125,-1.748389143204689,1.5931056425124406,0.003311133841983974
1789757715373757700,9.5147578125,-5.3289715019822115,-1.4612544553339482,0.7987992850087583
1789757715383768600,9.5247685546875,-8.399879999047517,-0.2727344065964222,0.7370126909203827
1789757715393778700,9.53477880859375,-4.95875287271142,-1.0579010337024926,0.6697222387187183
1789757715403789600,9.54478955078125,0.5937175880551337,0.9546744679838418,0.07763221533279865
1789757715413800400,9.554800537109376,3.1199428693473337,0.9863745513662695,0.7089382506892085
1789757715423811600,9.5648115234375,2.455819619679451,0.3752192140370607,0.4804212080145254
1789757715433821700,9.57482177734375,-0.2854290529966354,0.16172054800242186,-0.9231561709091067
1789757715443832600,9.58483251953125,-1.2902087373644113,0.028321839120984075,-1.414356364428252
1789757715453843700,9.59484375,-0.5395931991577149,-0.40343817730545994,-0.7040988478340208
1789757715463854600,9.6048544921875,0.2846072152197361,0.20244652614444494,0.9440646650336683
1789757715473864400,9.614864501953125,1.5743337220251559,-0.17494973967075347,1.1366786562107503
1789757715483875600,9.62487548828125,0.654462271875143,0.3026724487423897,0.17404910103660076
1789757715493886500,9.634886474609376,-0.5829296520590782,0.142997435092926,-0.5978591083066538
1789757715503897600,9.644897705078124,-0.19990765531659124,-1.5159019913226366,-1.55426796233505
1789757715513907700,9.65490771484375,0.2412935586720705,-1.9983213508844375,-0.7177096592310815
1789757715523918600,9.664918701171874,0.5412842209845781,0.0380216876193881,0.6458800292298197
1789757715533929500,9.674929443359375,0.04192950871288776,0.5113479324042797,0.6605054975621402
1789757715544565800,9.685565673828124,-0.7752648262947798,1.2811407570287585,0.8081539002660661
1789757715554576600,9.69557666015625,-1.7443477588593959,0.11979834581315517,-0.4437358835654333
1789757715564587500,9.70558740234375,-1.8007926996588706,-0.1992167504429817,-1.994369252257794
1789757715574597600,9.71559765625,-1.2442717465758324,-0.9566513210147619,-2.152712871173024
1789757715584608800,9.72560888671875,-1.4156874669015407,0.2675450212597847,-0.9491818619169294
1789757715594619600,9.73561962890625,1.3521090209603308,-0.9466066046014427,-0.027298889281414447
1789757715604630800,9.745630859375,0.6356260539799928,0.5229091908603907,0.7395602565113455
1789757715614642000,9.755641845703124,-0.6095277361273765,1.4953686141207814,-0.6567892535179853
1789757715624652000,9.765652099609374,-2.1335008057028055,3.0922444228217003,-1.9562769836202263
1789757715634663000,9.775662841796875,0.2319640047907829,2.928589399625361,-1.5102813749618826
1789757715644673800,9.785673828125,6.263593362018466,-7.034201886940002,-0.6921393107753246
1789757715654684700,9.7956845703125,4.655650215858221,-8.603519242107868,1.1598203162148595
1789757715664694800,9.80569482421875,-2.6133219654649493,-2.413946809589863,1.717290678977221
1789757715674705700,9.81570556640625,-7.001620636808871,3.4286350167706607,-0.30014409930855035
1789757715684716800,9.825716796875,-4.188105769345164,4.636349595321715,-0.5272947124682367
1789757715694728000,9.83572802734375,0.6486819349080324,3.240563345198333,0.0946420945836231
1789757715704737800,9.84573779296875,5.828360116523504,-0.20249416467845438,0.19443090440593658
1789757715714749000,9.8557490234375,5.687139043453335,-3.2428511638745663,-0.07725381047446281
1789757715724759800,9.865759765625,0.4520435105204582,-0.21508944235742092,0.5940726120378822
1789757715734770700,9.875770751953125,-3.446712232992053,1.7902295123293994,0.6167364984624087
1789757715744781800,9.88578173828125,-2.5353344704210756,1.5105363726362586,1.492515562777221
1789757715754791700,9.895791748046875,-2.5147581308603284,0.0696820235133171,0.3832208803154528
1789757715764802800,9.905802734375,-2.2361732446700335,-1.923558078584075,-0.46091520109903067
1789757715774814000,9.91581396484375,-0.8895558068633079,-1.728358747088909,-1.9130349310040473
1789757715784824800,9.925824951171874,1.428771404880285,0.6799664232268929,-1.065310140915215
1789757715794835000,9.9358349609375,2.9568969179600475,1.3164488017752767,1.1419622957020998
1789757715804845800,9.945845703125,1.2806278390705585,1.510035437376797,1.1593985106062143
1789757715814856700,9.955856689453125,0.0451519778907299,0.3595098959907889,0.4864847093045711
1789757715824867800,9.965867919921875,-1.7251082208603619,-0.3498933418616652,-0.8320591650538146
1789757715834877700,9.975877685546875,-2.151295990112424,0.6336895329594612,-1.1928063477545976
1789757715844888800,9.985888916015625,-0.9428121807545423,1.268209671524167,0.32411384416725486
1789757715854900000,9.99589990234375,0.4126309530645609,-0.3144420892521739,0.3763748138129711
1789757715864910800,10.005910888671876,0.9393576563864946,0.180873869022727,0.04776753068398684
1789757715874921700,10.015921630859374,0.4787117372155189,-0.4209326252028346,-1.1539467480063437
1789757715884931800,10.025931884765624,-0.4639513904571533,0.8758090210616588,-0.31827056149914856
1789757715894942700,10.035942626953124,-0.6484311750173568,0.8341478078961372,-0.2702561799146235
1789757715904953600,10.04595361328125,0.32474925599396226,0.1300336163625121,0.014793518375605344
1789757715914965000,10.055965087890625,2.04024209176898,-0.8852259609654545,-0.2618062218794599
1789757715924974800,10.065974853515625,3.451968838346004,-2.1932480029180645,0.4586976711800322
1789757715934986000,10.075986083984375,0.651304684627056,0.7524564898982644,-0.7329944682549685
1789757715944996900,10.085996826171876,-0.700164284864068,0.6646048957049846,-0.1360669051773846
1789757715955007700,10.0960078125,-2.93145384914577,1.1402151597738266,-0.33036738813668487
1789757715965018600,10.1060185546875,-2.9169425087124106,0.7223501054480671,0.1011316392660141
1789757715975028700,10.11602880859375,-2.952388500624895,0.7069871166214347,0.9355474504485726
1789757715985039600,10.12603955078125,0.42787353038191794,-0.9888222367793321,0.09069269937071948
1789757715995051000,10.136051025390625,1.9429133519172668,0.5669666515126824,-0.8450880849096923
1789757716005062000,10.146061767578125,1.573432973793149,1.0011921812698243,-0.26230828965008257
1789757716015071700,10.15607177734375,0.3332780148863792,1.3862354547068476,0.14874255461618302
1789757716025083000,10.166082763671875,0.4150573034286499,0.6580570814967155,-0.13522270943820475
1789757716035093800,10.17609375,0.701025870129466,-0.19044483044445515,0.5924846487266943
1789757716045104600,10.186104736328126,1.1204530592054127,-1.3376783445477485,0.7686274341069161
1789757716055114800,10.19611474609375,-0.6577192278444767,0.8418848318889737,-0.2629662055695429
1789757716065125600,10.206125732421874,-1.7889537933051585,1.3566849505737424,-0.5572445911824703
1789757716075137000,10.216136962890625,-0.8630787188261747,0.3999573494523763,0.7109061897613108
1789757716085148000,10.22614794921875,-0.9032377107352018,1.6600518113210796,1.085514286162704
1789757716095158800,10.23615869140625,0.7915279788315296,-0.45136663417220113,0.6525288195945322
1789757716105169000,10.2461689453125,0.1752355708748102,1.9591972549811005,1.1073919906456022
1789757716115179800,10.2561796875,0.5752414356440305,0.8410556875884533,0.4496471899684518
1789757716125190700,10.266190673828126,3.9294647700309753,-3.657851476418972,1.3476364055909216
1789757716135202000,10.2762021484375,1.677718108654022,-0.45997547256350513,0.9372967052686959
1789757716145212000,10.2862119140625,-1.3081705105125903,-1.0983420574232936,0.18787373784743247
1789757716155222800,10.296222900390624,-4.600225265756249,4.216595073987543,0.16499708545506
1789757716165234000,10.30623388671875,-4.64388379021883,3.32024186206907,-0.03567139816619456
1789757716175244800,10.316244873046875,-1.0545254197895526,0.8744438701882958,1.246601650828123
1789757716185255000,10.3262548828125,2.355873975327611,-2.8634502802386876,1.8081129595443606
1789757716195265800,10.336265869140625,0.6711170540779828,0.06531330690979957,1.1922835659895092
1789757716205276700,10.346276611328125,0.8611001122295856,-0.19833149204105138,-0.007314999188482761
1789757716215287800,10.356287841796876,-0.9779320094525813,2.7949513290300962,-1.3322455058440565
1789757716225299000,10.366298828125,-0.48858898810744283,1.266782853591442,-0.2629028762760572
1789757716235308800,10.376308837890624,-0.8231880224645137,0.7822606765314937,0.9259062002696097
1789757716245320000,10.38631982421875,-0.42818157341778273,-1.130518233884871,0.06947899348819628
1789757716255330800,10.396330810546875,0.18055530459284783,-0.8867834195405244,-0.17344846826232968
1789757716265341700,10.406341796875,0.4771048865407705,0.12836919028162955,-0.10534638915052637
1789757716275351800,10.416351806640625,0.2924748798549175,1.3106643731549381,0.4745037275990471
1789757716285362700,10.42636279296875,1.4548177002847194,-1.0912976918697357,0.6210404792666435
1789757716295373800,10.436373779296876,0.06496960803866386,0.8521800159320235,0.1912914190701209
1789757716305385000,10.446385009765624,0.36036592829823494,0.02120966902822256,0.37625104130282994
1789757716315395800,10.456395751953124,0.5619090758621692,-0.9016828825086355,0.8975634644910693
1789757716325406000,10.466406005859374,0.6113093588471412,0.5595730341300368,0.543134853819944
1789757716335416800,10.476416748046875,-0.1132353340357542,0.6693608580604196,0.7837802142489702
1789757716345427700,10.486427734375,-0.3279641263872385,0.19328706813305616,1.2266345292069016
1789757716355438600,10.4964384765625,-0.15329320365786553,-0.3918541224956512,1.5975931631900369
1789757716365448700,10.50644873046875,-0.9116717770814895,0.1495610313922167,0.7222838352788239
1789757716375459800,10.5164599609375,0.19981588537991046,-0.3914277137771249,-0.18694997406601904
1789757716385471000,10.526470947265626,-0.9726707279235124,0.5211325365766882,0.4537091056451201
1789757716395481900,10.53648193359375,-2.035478822889924,0.23564093973785638,1.048687580481544
1789757716405491700,10.54649169921875,-2.3084458691984415,0.875148511326313,1.3736378389403223
1789757716415502800,10.5565029296875,-0.5817348893165588,-1.3265990243896841,0.03193485111952759
1789757716425513700,10.566513671875,1.2363602427989244,-0.8390393793299794,-0.14090047194682992
1789757716435524600,10.576524658203125,3.1312972070544958,-1.5382292662039398,-0.1176180791646242
1789757716445536000,10.586535888671875,3.046939007934928,-0.4306646224051714,-0.3890501709908247
1789757716455545900,10.5965458984375,1.312654962450266,0.2995902648180723,-0.10217207909650168
1789757716465556700,10.606556640625,-0.26281916178166864,0.7350926826432347,-0.5798469566781074
1789757716475567900,10.61656787109375,0.7398264331668615,-1.344775317071378,-1.3547472605094313
1789757716485578800,10.626578857421874,-0.8069500043690204,0.29295184971690175,-0.979788450974226
1789757716495588900,10.6365888671875,-2.069740573453903,1.7808949900120497,-0.44897214025110005
1789757716505599700,10.646599853515625,-0.7272370007067919,0.5040998609721661,-0.7523102863606065
1789757716515611000,10.65661083984375,0.783558022865653,-1.6588418510094285,-0.9452952297419309
1789757716525622000,10.6666220703125,0.9113011902034283,-0.5951859070420265,-1.0309297324076294
1789757716535633000,10.6766328125,0.6430442212820052,-1.3379618376642466,-0.9502198266625403
1789757716545642800,10.686642822265625,-0.5095832608193159,-0.11171411581784486,-0.5824263056468219
1789757716555654000,10.69665380859375,-1.907287327262759,1.9665446951344607,0.14656296382108702
1789757716565664800,10.706664794921876,0.7453191853642464,-0.4264665861934423,0.7900155284419655
1789757716575675600,10.716675537109374,2.231761273446679,0.07353899120241403,0.36017442431412633
1789757716585686300,10.726686279296874,2.3644985958099363,-0.9659157007053494,0.15940673636840655
1789757716595697200,10.736697265625,-0.6927724210470915,1.044062185703218,-0.34271954124215986
1789757716605708000,10.7467080078125,-1.98837629545331,0.5325514639526605,0.6436017820995301
1789757716615719200,10.75671923828125,-0.9951789123296737,-1.2522262127116321,0.28151922260914
1789757716625729000,10.76672900390625,-1.4844500374823808,-0.16998364169597624,0.7399452372409403
1789757716635740200,10.776740234375,-0.5779974563539028,0.21199381442964077,1.5095787796504794
1789757716645751300,10.786751220703126,-0.1331213532447815,1.214637071290612,0.8711752237811684
1789757716655762200,10.79676220703125,0.7534042921423911,0.36105946352034807,0.6736519793830812
1789757716665773000,10.80677294921875,1.0340636465191841,-0.7797624299749731,1.027112439141795
1789757716675783200,10.816783203125,-0.24281857628226278,0.041672319081425664,0.47539713277481493
1789757716685794000,10.8267939453125,-0.16602818206846712,0.2101633841320872,0.5642614111419767
1789757716695805200,10.83680517578125,0.6217863291978836,0.358866337390244,0.11276031866883858
1789757716705816300,10.84681640625,1.4044196384340524,0.045127427971363064,0.06751700923284515
1789757716715826200,10.856826171875,1.725333846309781,-0.5476625238448382,-0.5249249876622111
1789757716725837300,10.86683740234375,1.0857535017460584,-0.7878735479772091,-1.0647777145389468
1789757716735848200,10.87684814453125,-0.7174614566236734,0.31895342919677494,-0.514185055526346
1789757716745859000,10.886859130859374,-1.9517443086266517,1.8972671607688067,-0.9416571655005216
1789757716755870200,10.8968701171875,-0.33179157572090623,-0.644503187918663,-0.409546504117921
1789757716765880000,10.906880126953125,-0.1686795733600855,-0.23919980126321314,-0.16544945059875024
1789757716775891200,10.91689111328125,0.3697656248062849,-1.223112054169178,-0.6799912654072046
1789757716785902300,10.92690234375,0.1115185932457447,-0.42956835160106416,-0.43499402991160746
1789757716795913200,10.936913330078125,-0.40608723050951956,1.0229711746186017,-0.5122075814409182
1789757716805923300,10.94692333984375,-0.6324398251593113,2.3256872191175817,-0.5711106194496155
1789757716815934200,10.956934326171876,1.1889800674647093,-0.6048834174528718,0.3968881711401045
1789757716825945000,10.966945068359376,1.0330132606834173,-0.011741583459079264,0.16998992530629037
1789757716835956200,10.976956298828124,1.06191553004086,-0.39762949102669953,0.6872120835062115
1789757716845967400,10.98696728515625,0.14999474663436413,0.11538988172113895,0.7177575900260359
1789757716855977200,10.996977294921875,-1.7366262246966362,2.4165219207748767,0.5852716851405799
1789757716865988400,11.00698828125,-0.9158850108623504,0.3515262037605047,0.8859292138639837
1789757716875999200,11.016999267578125,-0.5443529609054326,0.06976444109976292,0.7363727855816483
1789757716886010000,11.027010009765625,0.5728074864953756,-0.5015244575262069,1.2885684228114782
1789757716896020200,11.037020263671875,0.896368409487605,-0.2715545491620898,0.6470569640547037
1789757716906031000,11.047031005859376,0.3663490943610668,0.8113441476747393,0.6612395109251141
1789757716916042000,11.0570419921875,0.6035410629332065,0.45705987737774845,1.188956394328177
1789757716926053400,11.067053466796875,1.1833639811486005,0.031109424012899397,0.1698452378722839
1789757716936063200,11.077063232421875,-0.9644137717097997,0.7390864284545183,-0.4422499558566138
1789757716946074400,11.087074462890625,-1.0361305159211158,-0.5442614832296967,0.2522851092151366
1789757716956085200,11.097085205078125,-1.7261165211200713,0.8816074782073497,0.4745683538004756
1789757716966096100,11.10709619140625,-0.420294035038352,-0.010359481450915337,-0.08437856605416164
1789757716976107000,11.11710693359375,0.5899409921258688,-0.8501233756631612,-0.8277397674847393
1789757716986117000,11.1271171875,0.5295657261401414,0.45247401089221234,-1.0956387898139655
1789757716996128000,11.1371279296875,0.743374481037259,0.8810913453787564,-1.0514160555973648
1789757717006139400,11.147139404296874,0.5098410349726676,0.6986763843938708,-0.6959775737639516
1789757717016150300,11.157150390625,-0.041589901494979854,-0.4065267909705639,-0.2745803632566705
1789757717026160000,11.16716015625,-0.205779177698493,-0.5128983767166734,-0.6258620542041957
1789757717036171300,11.177171142578125,-0.35106560051143165,-0.3160612148866057,-0.6645174366172403
1789757717046182100,11.18718212890625,-0.2019143189638853,0.4048004055693745,-0.44175694817528127
1789757717056193000,11.197193115234375,0.5196621717631816,0.09414397233575582,-0.3401875020138919
1789757717066204400,11.207204345703126,1.6405366712510585,-0.9683771223828196,0.02725821021115407
1789757717076214000,11.217214111328126,5.070005508497357,-1.8793436738044023,0.1920267841399647
1789757717086225200,11.22722509765625,6.4269771670579905,-0.7865250559777021,0.06276641717227176
1789757717096236300,11.237236328125,4.516145883578062,0.26010873377919197,0.07888015130097047
1789757717106247200,11.2472470703125,-2.9630975261658428,3.108002256184816,0.03802387957647443
1789757717116257300,11.25725732421875,-10.561120460069178,3.780285139171779,0.2718457871936262
1789757717126268200,11.26726806640625,-10.226198769629,0.444867335280776,0.5116561946358531
1789757717136279000,11.277279052734375,-4.366040077784657,-2.2395783769384026,-0.031454255395196376
1789757717146290200,11.287290283203125,0.3527273962438106,-0.7056953232452273,0.3974871234139427
1789757717156301300,11.29730126953125,3.9975609856575725,0.658233314846456,0.010074892355874181
1789757717166311200,11.307311279296876,5.849734912985563,-0.2931792287319898,-0.3344077861012891
1789757717176322300,11.317322265625,4.763576337569952,-0.5063499779865145,-0.28190917177479713
1789757717186333200,11.327333251953124,2.751346288320422,-1.2704361154019832,-0.35170525012183934
1789757717196344000,11.337343994140625,-1.7327438303053377,0.8478308808118105,0.043008791849575935
1789757717206354200,11.347354248046875,-5.1336178567081685,2.710360490198433,-0.14832180845346302
1789757717216365000,11.357364990234375,-3.366443933534622,0.5024170224517583,-0.10527304991967976
1789757717226376200,11.367376220703125,-0.20065642785727977,-0.4894529114603996,0.3314985475910827
1789757717236387300,11.37738720703125,3.371787048128247,-1.5086454443231223,0.2593738071007654
1789757717246398200,11.387398193359376,4.211098522397876,-0.6319912046089768,-0.20637323460150508
1789757717256408300,11.397408203125,2.357012039446831,0.6626920478209852,-0.10375358526743948
1789757717266419200,11.407419189453124,-0.6315262174457311,1.5630720310375092,0.16621796901952474
1789757717276430000,11.41743017578125,-2.5190742404937745,-0.2570914317846298,0.13152582768164575
1789757717286441000,11.42744091796875,-3.8054824165314436,0.05432254181802273,0.5949658345505595
1789757717296451000,11.437451171875,-2.2346190009653566,-0.34226386989653107,-0.035343919777497644
1789757717306462200,11.447462158203125,1.484538884809613,-0.7326672090619802,0.13932130386345087
1789757717316473300,11.457473388671875,3.7083845628261565,-0.49145285310596226,0.5482226054130122
1789757717326484200,11.467484130859376,4.03300113235116,-0.8901634173676372,0.9981573436185717
1789757717336494000,11.477494140625,1.010941714128852,0.44319414137154817,0.6626863487325608
1789757717346505200,11.487505126953126,-1.469039117860794,0.7800266338691115,0.3874206335602328
1789757717356516000,11.49751611328125,-1.7909516891241073,0.12716419840604065,0.4488191416464746
1789757717366527000,11.50752685546875,-0.6086228962421417,-0.8899941982805728,0.5414123408762738
1789757717376538400,11.517538330078125,0.4374380620628595,-1.1164078754678368,0.3396768490780145
1789757717386548200,11.52754833984375,1.113505432024598,-0.094227558965981,0.4537414735447615
1789757717396559400,11.537559326171875,0.43536534744203087,0.9301599121913313,0.2667754251267761
1789757717406570200,11.5475703125,-0.23208967699706554,0.9885048413932322,-0.09291178192598745
1789757717416581000,11.5575810546875,-1.1634937440305948,0.46393414706140756,-0.18130570283504202
1789757717426591200,11.56759130859375,-1.1059949102640152,-0.1408592540204525,-0.0719877979713492
1789757717436602000,11.57760205078125,-0.24714988348484038,0.329255627502501,-0.33699908123612404
1789757717446613200,11.58761328125,-0.22065116813778876,3.1378081963837143,-0.6068011607076972
1789757717456624400,11.597624267578125,1.6573896063745022,0.9193170311376452,-0.10445460967626422
1789757717466635300,11.60763525390625,1.3318658588767052,0.12438801169097423,-0.5739376961017028
1789757717476645000,11.61764501953125,1.1937749005258083,-2.910240965247154,0.16348777687065302
1789757717486656300,11.62765625,0.2786719799518585,-3.306325272658467,0.7815443449556827
1789757717496667100,11.637667236328125,-0.32047289384901523,-3.1808328068569303,0.1397819801777601
1789757717506678000,11.647677978515626,-1.8695605309367178,0.4393368814215064,-0.5249200192261487
1789757717516689400,11.657689453125,-1.9552526090085505,2.0282430264174938,-0.4664498562093824
1789757717526699300,11.66769921875,-0.9117366590112447,1.8391452266678212,-0.33485439735762773
1789757717536710100,11.677710205078125,-0.3274573459088802,2.0067156697422264,-0.12819777923747896
1789757717546721300,11.68772119140625,0.5680068082153796,1.046037285168469,0.09501755856620148
1789757717556732200,11.697732177734375,1.4142653251439332,-0.07549976988136768,0.027208745046239345
1789757717566742300,11.7077421875,0.8933803335875272,0.4295812110826373,0.0027096425511874255
1789757717576753200,11.717753173828125,0.18429975181818006,0.1576049293771386,0.19283254756489768
1789757717586763500,11.727763427734375,-1.467619898712635,1.270964230929315,-0.038446013978682456
1789757717596775000,11.73777490234375,-0.5293664041757583,-0.13360913676172495,-0.10667666963990777
1789757717606784800,11.74778466796875,0.017042904737591742,-0.19653817888349293,-0.008793894368316978
1789757717616796000,11.7577958984375,-0.024327801048755645,0.9944503057941794,0.48929742863774295
1789757717626806800,11.767806884765625,0.5634498755633831,0.05791530561298132,0.5511299807596951
1789757717636817700,11.777817626953125,0.014768530064821242,0.26774200513660906,0.5599153447616845
1789757717646828500,11.78782861328125,-0.027236966493725773,0.6737494484081864,0.46438185429628936
1789757717656838700,11.797838623046875,0.8443208268642425,0.16999942378699778,0.41976230278182775
1789757717666849800,11.807849853515625,1.4204273549050093,-0.1306681148737669,0.46844442756008353
1789757717676861000,11.81786083984375,1.0064227753996848,0.49115825407356023,0.26106486546024676
1789757717686871800,11.827871826171876,0.150479899802804,1.3481018311455846,0.11896287223654799
1789757717696881700,11.837881591796876,-0.6028980888545513,1.1780951008349656,0.5794802422575652
1789757717706892800,11.847892822265624,-0.5061269828855991,0.4189595715641975,0.6909256972018629
1789757717716903700,11.857903564453125,-0.24847850174009797,-1.1882277877926826,0.7393759129203855
1789757717726914600,11.86791455078125,-0.46295828776657577,-1.2018918637469411,0.555862379576452
1789757717736926000,11.877926025390625,-0.7125806988447905,-0.04216887042671442,0.09977863548817112
1789757717746935800,11.887935791015625,0.12754910607039927,-0.2720458398103714,0.5305220770169049
1789757717756946700,11.89794677734375,-0.08694996917843818,0.826717950156331,0.3126188924130052
1789757717766957800,11.907957763671876,0.3394780385702848,0.35795068385004997,0.37513321625404056
1789757717776968700,11.91796875,0.8735416606515646,-0.47613867185711856,0.5903435085121542
1789757717786979600,11.9279794921875,0.9085241267055273,-0.6139654263138771,0.3625081644913181
1789757717796989700,11.93798974609375,0.6021434710949659,-0.10373393071889876,0.8527037475451826
1789757717807000600,11.94800048828125,-0.2226315283000469,0.7816150721043348,0.4631601670142263
1789757717817011700,11.95801171875,-0.825848766106367,0.2876429296538234,-0.02915981746522011
1789757717827022800,11.96802294921875,-0.33499241758882997,-0.5670061067402362,-0.05078698810301721
1789757717837032700,11.97803271484375,-0.2519774497717619,-0.25943478004038334,-0.11479281087713315
1789757717847043800,11.9880439453125,0.06322831732928752,-0.7662813093721866,0.2892892903550528
1789757717857054700,11.9980546875,-0.8939210163354873,0.9141194624945521,0.853600111863017
1789757717867065600,12.008065673828124,-1.61171974208951,1.5305200070008635,0.44153464719410984
1789757717877076700,12.01807666015625,-0.6486702444702387,0.6527300412550568,0.34082021042685956
1789757717887086600,12.028086669921874,0.8447223934024571,-0.3378977836415171,0.13525979004558175
1789757717897097700,12.03809765625,2.2472148631662128,-0.831992091166973,-0.19384181593898683
1789757717907108900,12.04810888671875,1.6386030728399752,0.20619623406678436,-0.07964645949834957
1789757717917119700,12.05811962890625,-0.04574585213065147,1.1042524505108595,-0.1019956813499797
1789757717927129900,12.0681298828125,-0.556571806487441,0.22689356965869664,0.018587700193910858
1789757717937140700,12.078140625,-1.244167701679468,0.31454116571247576,0.001871264631440863
1789757717947151600,12.088151611328126,-1.436263806462288,0.2624199333310127,0.2353900337167084
1789757717957162500,12.09816259765625,-0.6309943025261163,0.22904577925652264,0.3771859840653837
1789757717967174000,12.108173828125,-0.09066460578739642,0.18179069160670042,0.4483716536073014
1789757717977183700,12.118183837890625,0.1080506248742342,0.25960370686650275,0.38728199227452276
1789757717987195000,12.12819482421875,0.3427589599370956,0.1111938913360238,0.7761243657335638
1789757717997205800,12.138205810546875,0.5188713136464357,-0.35289807663559913,0.6400324722453952
1789757718007216600,12.148216552734375,0.4146867165505886,-0.5019052735373377,0.6489001077033579
1789757718017226800,12.158226806640625,0.4093348341286182,0.0056929509446024896,0.6041593774946407
1789757718027237600,12.168237548828126,0.4739280100703239,0.10111644169688225,0.732320222255215
1789757718037248800,12.178248779296876,0.8322118713974952,-0.34860564013868567,0.47053723512087015
1789757718047260000,12.188260009765624,-0.1983276926487684,0.8172396354541182,0.35845238629449155
1789757718057270800,12.198270751953125,-1.0184253478825092,0.61207625156641,0.5616290898770093
1789757718067281000,12.208281005859375,-1.792632774078846,0.14079817148298024,0.33863903046287597
1789757718077291800,12.218291748046875,-3.0655507694244384,0.6710518798872828,0.2590479726798832
1789757718087302700,12.228302734375,-2.4760002379208803,-0.2441743748053908,0.20729564667604863
1789757718097313500,12.2383134765625,0.4013537722468376,-0.7608300582289695,0.08692968444223516
1789757718107323600,12.24832373046875,1.295666418248415,-0.1513704189017415,0.4115126896243542
1789757718117334800,12.258334716796876,2.578695473241806,-0.9470864970728754,0.24767368816323576
1789757718127346000,12.268345947265624,0.9332108241945505,0.13204349488019942,0.16392795838620514
1789757718137356800,12.278356689453124,0.20344401274919507,0.31373774037510155,0.509928822853975
1789757718147367700,12.28836767578125,0.2404921791613102,0.28229280079752206,0.4297938309200108
1789757718157377800,12.298377685546875,-0.25670097116231916,0.08845365173965691,0.0507248461196199
1789757718167388700,12.308388671875,-0.44588089623749255,0.657847238138318,0.4879521880412474
1789757718177399600,12.318399658203125,-0.6288900237232447,0.9494225388050079,0.8238758585982024
1789757718187411000,12.328410888671876,-0.007783493483066559,0.4489440832003951,0.685511928524822
1789757718197420800,12.3384208984375,0.3909446064352989,0.6989572471618652,0.8956519317813217
1789757718207431700,12.348431640625,1.3004267645180225,-0.06457184089273214,1.2204995335832238
1789757718217442800,12.35844287109375,1.0648241109639405,-0.19443010068833827,0.7997827430881559
1789757718227453700,12.36845361328125,-0.18647066611647606,0.4216138854652643,0.6088352968838066
1789757718237464600,12.378464599609375,-1.2141378895968198,0.8495946756139398,0.9534231527484953
1789757718247474700,12.388474609375,-1.1917132918208837,0.6804527454391122,0.5207123384032398
1789757718257485600,12.398485595703125,-0.5090992766946554,-1.0408145820841193,0.7076696920581161
1789757718267496700,12.40849658203125,-0.394517788746953,0.17047668590992687,0.7745608427438885
1789757718277507800,12.4185078125,-0.08883037609755992,0.6367816537559032,0.7078025977227836
1789757718287518700,12.428518798828126,0.7887538379430771,-0.8092410379156469,0.6907005832090973
1789757718297528800,12.43852880859375,-0.05555003778636455,1.0175865589708089,0.8986310937225818
1789757718307539700,12.448539794921874,-0.2030558902144432,1.0585372857794164,0.6812547094717621
1789757718317550600,12.458550537109375,0.31686814735531804,0.006507774458825588,0.30527590923905373
1789757718327561700,12.468561767578125,0.04195464315414429,-0.16515958254039287,0.2902853339213878
1789757718337571600,12.478571533203125,-0.12549041997492313,-0.294891001085937,0.7547588485565037
1789757718347582700,12.488582763671875,-0.6404191334754228,0.16782207974791527,0.6367408102888613
1789757718357593900,12.49859375,-0.8887468285679817,0.5492512543410063,0.6689575379565358
1789757718367604700,12.508604736328126,-0.722094961643219,0.1592857220709324,0.7389270001091063
1789757718377615600,12.51861572265625,-0.21023907971680164,-0.11072101312726736,0.6089168742200359
1789757718387625700,12.528625732421874,-0.9862649535119533,0.09764613523781299,0.7059639841187745
1789757718397636600,12.53863671875,-1.3955986185967921,0.09317951121777296,0.3281573108717799
1789757718407647700,12.548647705078125,-1.2389677949488163,-0.20387597442567348,0.615160408252105
