time,seconds_elapsed,z,y,x
1789757705904824800,0.045824951171875,-0.9132843017578125,-0.40966796875,-0.00531005859375
1789757705914836000,0.0558359375,-0.910797119140625,-0.408843994140625,-0.001495361328125
1789757705924845800,0.065845703125,-0.90997314453125,-0.4050750732421875,0.003662109375
1789757705934857000,0.07585693359375,-0.9151763916015625,-0.40167236328125,0.0096588134765625
1789757705944867800,0.085867919921875,-0.9157562255859375,-0.4036407470703125,0.0094451904296875
1789757705954878700,0.095878662109375,-0.9157562255859375,-0.4067535400390625,0.0093994140625
1789757705964888800,0.105888916015625,-0.915191650390625,-0.4090423583984375,0.00152587890625
1789757705974899700,0.115899658203125,-0.9156341552734375,-0.4057769775390625,-0.0045623779296875
1789757705984910800,0.125910888671875,-0.9164886474609375,-0.4010162353515625,-0.021087646484375
1789757705994922000,0.135921875,-0.91729736328125,-0.3898773193359375,-0.0250244140625
1789757706004931800,0.145931884765625,-0.92083740234375,-0.380279541015625,-0.042449951171875
1789757706014943000,0.15594287109375,-0.9190826416015625,-0.374603271484375,-0.046600341796875
1789757706024953900,0.165953857421875,-0.917755126953125,-0.3681640625,-0.05389404296875
1789757706034964700,0.17596484375,-0.9166412353515625,-0.371978759765625,-0.0672149658203125
1789757706044974800,0.185974853515625,-0.9189300537109375,-0.3592529296875,-0.06292724609375
1789757706054985700,0.19598583984375,-0.921356201171875,-0.3570098876953125,-0.078216552734375
1789757706064996600,0.20599658203125,-0.9246826171875,-0.3463287353515625,-0.0914459228515625
1789757706075008000,0.216008056640625,-0.9225311279296875,-0.3541717529296875,-0.08795166015625
1789757706085019000,0.226018798828125,-0.92608642578125,-0.3561553955078125,-0.0985870361328125
1789757706095029000,0.236029052734375,-0.922454833984375,-0.36395263671875,-0.08795166015625
1789757706105040000,0.246039794921875,-0.92498779296875,-0.3579559326171875,-0.076416015625
1789757706115050800,0.25605078125,-0.9259033203125,-0.3620758056640625,-0.0759735107421875
1789757706125061600,0.2660615234375,-0.9272613525390625,-0.3592681884765625,-0.0780487060546875
1789757706135071700,0.27607177734375,-0.92669677734375,-0.3679046630859375,-0.0852813720703125
1789757706145082600,0.28608251953125,-0.92578125,-0.3731842041015625,-0.11077880859375
1789757706155094000,0.296093994140625,-0.9215087890625,-0.3792877197265625,-0.11309814453125
1789757706165105000,0.30610498046875,-0.92279052734375,-0.3792877197265625,-0.122833251953125
1789757706175114800,0.31611474609375,-0.916290283203125,-0.3843994140625,-0.1144256591796875
1789757706185126000,0.3261259765625,-0.9201507568359375,-0.3742828369140625,-0.1126861572265625
1789757706195136800,0.33613671875,-0.915679931640625,-0.3819732666015625,-0.115386962890625
1789757706205147600,0.346147705078125,-0.9207305908203125,-0.3818359375,-0.1309814453125
1789757706215158800,0.35615869140625,-0.9221038818359375,-0.393524169921875,-0.1495819091796875
1789757706225168600,0.366168701171875,-0.9237060546875,-0.39508056640625,-0.1564788818359375
1789757706235179800,0.3761796875,-0.92437744140625,-0.3929290771484375,-0.1591796875
1789757706245191000,0.38619091796875,-0.92144775390625,-0.3929443359375,-0.1542205810546875
1789757706255201800,0.396201904296875,-0.920928955078125,-0.3791656494140625,-0.171722412109375
1789757706265212000,0.4062119140625,-0.9095916748046875,-0.3921661376953125,-0.136077880859375
1789757706275222800,0.416222900390625,-0.9180755615234375,-0.3941192626953125,-0.179656982421875
1789757706285233700,0.426233642578125,-0.908935546875,-0.4066619873046875,-0.167510986328125
1789757706295245000,0.4362451171875,-0.9163818359375,-0.40643310546875,-0.198089599609375
1789757706305255000,0.4462548828125,-0.9150390625,-0.4114227294921875,-0.1561737060546875
1789757706315265800,0.456265869140625,-0.9228668212890625,-0.4102783203125,-0.1698150634765625
1789757706325277000,0.46627685546875,-0.916168212890625,-0.41754150390625,-0.1557159423828125
1789757706335287800,0.476287841796875,-0.9197998046875,-0.4111480712890625,-0.1849517822265625
1789757706345298000,0.4862978515625,-0.9024810791015625,-0.433349609375,-0.1736297607421875
1789757706355308800,0.496308837890625,-0.901214599609375,-0.4190826416015625,-0.165771484375
1789757706365319700,0.506319580078125,-0.8866119384765625,-0.4395599365234375,-0.123870849609375
1789757706375330800,0.516330810546875,-0.8992919921875,-0.4254913330078125,-0.114471435546875
1789757706385342000,0.526342041015625,-0.900054931640625,-0.4405059814453125,-0.1053466796875
1789757706395351800,0.536351806640625,-0.91363525390625,-0.4333953857421875,-0.1087799072265625
1789757706405363000,0.546363037109375,-0.9090728759765625,-0.43231201171875,-0.1087799072265625
1789757706415373800,0.556373779296875,-0.8982391357421875,-0.4340057373046875,-0.0994110107421875
1789757706425384700,0.566384765625,-0.895294189453125,-0.4195709228515625,-0.0892791748046875
1789757706435394800,0.576394775390625,-0.8795623779296875,-0.4443359375,-0.0502471923828125
1789757706445405700,0.58640576171875,-0.8570098876953125,-0.466705322265625,-0.01995849609375
1789757706455416800,0.596416748046875,-0.86895751953125,-0.4266510009765625,-0.0302276611328125
1789757706465428000,0.606427978515625,-0.879486083984375,-0.466522216796875,-0.0377197265625
1789757706475437800,0.616437744140625,-0.92669677734375,-0.3882598876953125,-0.0513153076171875
1789757706485449000,0.626448974609375,-0.9149322509765625,-0.4410247802734375,-0.0705718994140625
1789757706495459800,0.6364599609375,-0.8665771484375,-0.3514404296875,-0.15380859375
1789757706505470700,0.646470703125,-0.8266754150390625,-0.30731201171875,-0.2550506591796875
1789757706515480800,0.656480712890625,-0.9517364501953125,-0.467498779296875,-0.0519866943359375
1789757706525491700,0.66649169921875,-1.0116424560546875,-0.5601348876953125,-0.0648040771484375
1789757706535502800,0.6765029296875,-0.9393310546875,-0.5591583251953125,-0.2125091552734375
1789757706545514000,0.686513916015625,-1.0285186767578125,-0.398956298828125,-0.1959991455078125
1789757706555524900,0.69652490234375,-0.863372802734375,-0.591156005859375,-0.1588287353515625
1789757706565534700,0.70653466796875,-0.8795318603515625,-0.3879241943359375,-0.147003173828125
1789757706575545900,0.7165458984375,-0.7350006103515625,-0.44403076171875,0.049163818359375
1789757706585556200,0.72655615234375,-0.7184295654296875,-0.1763763427734375,-0.2682342529296875
1789757706595567000,0.736567138671875,-0.8527374267578125,-0.2010955810546875,-0.1961822509765625
1789757706605577200,0.7465771484375,-1.0413360595703125,-0.4362335205078125,0.0513916015625
1789757706615588400,0.75658837890625,-1.0537109375,-0.7644805908203125,-0.0760498046875
1789757706625599500,0.766599609375,-1.0660247802734375,-0.590484619140625,-0.197174072265625
1789757706635610400,0.7766103515625,-0.927093505859375,-0.4918975830078125,-0.1476898193359375
1789757706645620200,0.7866201171875,-0.7821807861328125,-0.615478515625,-0.19921875
1789757706655631400,0.79663134765625,-0.82666015625,-0.334747314453125,-0.036102294921875
1789757706665642200,0.806642333984375,-0.9193572998046875,-0.22698974609375,-0.146331787109375
1789757706675653000,0.816653076171875,-0.8657073974609375,-0.50347900390625,-0.1989898681640625
1789757706685663200,0.826663330078125,-0.896636962890625,-0.3867950439453125,-0.1768798828125
1789757706695674400,0.83667431640625,-0.881439208984375,-0.447662353515625,-0.322845458984375
1789757706705685500,0.846685546875,-0.8638458251953125,-0.4459381103515625,-0.22454833984375
1789757706715696400,0.8566962890625,-0.877197265625,-0.362060546875,-0.10906982421875
1789757706725707300,0.866707275390625,-0.8554840087890625,-0.4602203369140625,-0.1414337158203125
1789757706735717400,0.87671728515625,-0.8682098388671875,-0.4401702880859375,-0.0938262939453125
1789757706745728300,0.886728271484375,-0.852813720703125,-0.612060546875,-0.106109619140625
1789757706755739100,0.8967392578125,-0.9102935791015625,-0.55413818359375,-0.0336761474609375
1789757706765750500,0.90675048828125,-0.929412841796875,-0.5374298095703125,-0.047027587890625
1789757706775760400,0.916760498046875,-0.910919189453125,-0.4725189208984375,0.0004730224609375
1789757706785771300,0.926771240234375,-0.8892669677734375,-0.3688201904296875,-0.01251220703125
1789757706795782400,0.936782470703125,-0.90496826171875,-0.258941650390625,-0.06201171875
1789757706805793300,0.946793212890625,-0.8857574462890625,-0.312408447265625,-0.0611572265625
1789757706815803400,0.956803466796875,-0.8950958251953125,-0.296051025390625,-0.0264434814453125
1789757706825814300,0.966814208984375,-0.908172607421875,-0.3358612060546875,0.0333251953125
1789757706835825200,0.9768251953125,-0.9085845947265625,-0.345489501953125,0.0736083984375
1789757706845836300,0.986836181640625,-0.9442291259765625,-0.393310546875,-0.063079833984375
1789757706855847400,0.996847412109375,-0.9971160888671875,-0.40948486328125,-0.1127166748046875
1789757706865857300,1.006857177734375,-1.021087646484375,-0.39422607421875,-0.1078033447265625
1789757706875868400,1.016868408203125,-0.99493408203125,-0.3603057861328125,-0.0724639892578125
1789757706885879300,1.02687939453125,-0.9112091064453125,-0.337005615234375,-0.0008392333984375
1789757706895890200,1.03689013671875,-0.87548828125,-0.31982421875,0.0003204345703125
1789757706905900300,1.046900390625,-0.9058380126953125,-0.3510284423828125,-0.0120391845703125
1789757706915911400,1.056911376953125,-0.9421539306640625,-0.389312744140625,0.0509033203125
1789757706925922300,1.06692236328125,-0.9600982666015625,-0.4173126220703125,0.042236328125
1789757706935933400,1.076933349609375,-0.949127197265625,-0.437225341796875,0.01947021484375
1789757706945943300,1.086943359375,-0.9405670166015625,-0.4376983642578125,-0.0550079345703125
1789757706955954400,1.096954345703125,-0.93463134765625,-0.443572998046875,-0.153839111328125
1789757706965965300,1.10696533203125,-0.9258575439453125,-0.4918060302734375,-0.1417083740234375
1789757706975976200,1.11697607421875,-0.933929443359375,-0.5080718994140625,-0.1415863037109375
1789757706985986300,1.126986328125,-0.9086761474609375,-0.54486083984375,-0.069793701171875
1789757706995997400,1.13699755859375,-0.9002532958984375,-0.547637939453125,0.0128021240234375
1789757707006008300,1.14700830078125,-0.91351318359375,-0.47918701171875,0.04998779296875
1789757707016019500,1.15701953125,-0.88970947265625,-0.4272613525390625,0.0379791259765625
1789757707026030300,1.1670302734375,-0.8448333740234375,-0.388671875,-0.01080322265625
1789757707036040200,1.177040283203125,-0.8018646240234375,-0.400543212890625,-0.0359649658203125
1789757707046051300,1.18705126953125,-0.813507080078125,-0.383453369140625,-0.062896728515625
1789757707056062200,1.197062255859375,-0.8515167236328125,-0.4187164306640625,-0.0279541015625
1789757707066073300,1.2070732421875,-0.8828887939453125,-0.5112762451171875,0.029754638671875
1789757707076083500,1.21708349609375,-0.912994384765625,-0.5589599609375,0.0509185791015625
1789757707086094300,1.22709423828125,-0.919464111328125,-0.569793701171875,0.011627197265625
1789757707096105200,1.237105224609375,-0.9034271240234375,-0.53472900390625,-0.0603485107421875
1789757707106116400,1.247116455078125,-0.8979644775390625,-0.4627532958984375,-0.115081787109375
1789757707116126200,1.257126220703125,-0.913604736328125,-0.3661651611328125,-0.148193359375
1789757707126137300,1.267137451171875,-0.89044189453125,-0.387420654296875,-0.1217498779296875
1789757707136148200,1.277148193359375,-0.883392333984375,-0.43597412109375,-0.0746917724609375
1789757707146159400,1.287159423828125,-0.91168212890625,-0.4571990966796875,-0.07635498046875
1789757707156169500,1.29716943359375,-0.9243927001953125,-0.5189056396484375,-0.0818023681640625
1789757707166180400,1.307180419921875,-0.9549407958984375,-0.530181884765625,-0.094482421875
1789757707176191200,1.317191162109375,-0.9577789306640625,-0.53564453125,-0.1039886474609375
1789757707186202400,1.327202392578125,-0.912139892578125,-0.5487518310546875,-0.0679473876953125
1789757707196213200,1.337213134765625,-0.84649658203125,-0.496246337890625,-0.0677642822265625
1789757707206223400,1.347223388671875,-0.7977447509765625,-0.445465087890625,-0.0094146728515625
1789757707216234200,1.357234130859375,-0.838958740234375,-0.4192962646484375,0.10693359375
1789757707226245400,1.367245361328125,-0.91796875,-0.394378662109375,0.161224365234375
1789757707236256300,1.37725634765625,-0.9249114990234375,-0.4723358154296875,0.1705780029296875
1789757707246266400,1.387266357421875,-0.924407958984375,-0.5114288330078125,0.22607421875
1789757707256277200,1.39727734375,-0.9332275390625,-0.5136260986328125,0.2262420654296875
1789757707266288400,1.407288330078125,-0.864288330078125,-0.54327392578125,0.1766204833984375
1789757707276299300,1.41729931640625,-0.77947998046875,-0.517669677734375,0.1030120849609375
1789757707286309000,1.42730908203125,-0.7862396240234375,-0.4401397705078125,0.0810089111328125
1789757707296320300,1.4373203125,-0.8136138916015625,-0.35980224609375,0.0712890625
1789757707306331400,1.447331298828125,-0.8240509033203125,-0.363494873046875,0.1136627197265625
1789757707316342300,1.45734228515625,-0.888824462890625,-0.3040771484375,0.187347412109375
1789757707326353400,1.467353515625,-0.9441680908203125,-0.2451324462890625,0.222991943359375
1789757707336363300,1.47736328125,-0.9651947021484375,-0.25457763671875,0.1494140625
1789757707346374400,1.48737451171875,-0.914794921875,-0.259490966796875,0.08123779296875
1789757707356385300,1.49738525390625,-0.838775634765625,-0.3618927001953125,0.0484466552734375
1789757707366396400,1.507396484375,-0.8484649658203125,-0.353973388671875,0.043212890625
1789757707376406500,1.517406494140625,-0.8500518798828125,-0.4585723876953125,0.0500640869140625
1789757707386417400,1.52741748046875,-0.8794097900390625,-0.488311767578125,0.1064605712890625
1789757707396428300,1.53742822265625,-0.9702911376953125,-0.469940185546875,0.11700439453125
1789757707406439400,1.547439453125,-1.0143280029296875,-0.478912353515625,0.10009765625
1789757707416449300,1.55744921875,-0.9814453125,-0.4158935546875,0.052154541015625
1789757707426460200,1.567460205078125,-0.930877685546875,-0.3807830810546875,0.053009033203125
1789757707436471300,1.57747119140625,-0.894561767578125,-0.3260345458984375,0.049713134765625
1789757707446482400,1.587482421875,-0.8571624755859375,-0.334014892578125,0.0662384033203125
1789757707456493300,1.597493408203125,-0.8301239013671875,-0.34869384765625,0.0633697509765625
1789757707466503400,1.60750341796875,-0.82781982421875,-0.3677825927734375,0.033966064453125
1789757707476514300,1.617514404296875,-0.8549652099609375,-0.3933563232421875,-0.0634002685546875
1789757707486525200,1.627525146484375,-0.9488067626953125,-0.4009246826171875,-0.189697265625
1789757707496536300,1.637536376953125,-1.0076446533203125,-0.52520751953125,-0.2324371337890625
1789757707506546200,1.647546142578125,-1.003936767578125,-0.594757080078125,-0.197265625
1789757707516557300,1.657557373046875,-0.9998626708984375,-0.6334686279296875,-0.1579132080078125
1789757707526568400,1.667568359375,-0.957977294921875,-0.5837860107421875,-0.125335693359375
1789757707536579300,1.677579345703125,-0.926055908203125,-0.507537841796875,-0.0970916748046875
1789757707546589400,1.68758935546875,-0.9106292724609375,-0.42608642578125,-0.1041107177734375
1789757707556600300,1.697600341796875,-0.9045867919921875,-0.326873779296875,-0.0999908447265625
1789757707566611200,1.707611083984375,-0.848419189453125,-0.33819580078125,0.0205078125
1789757707576622300,1.717622314453125,-0.8320159912109375,-0.3404388427734375,0.09869384765625
1789757707586632700,1.7276328125,-0.903839111328125,-0.378570556640625,0.092681884765625
1789757707596643800,1.737643798828125,-0.956329345703125,-0.4273681640625,0.093414306640625
1789757707606655000,1.747655029296875,-0.972564697265625,-0.453125,0.1381988525390625
1789757707616665900,1.757665771484375,-0.981414794921875,-0.4421539306640625,0.0953369140625
1789757707626676000,1.767676025390625,-0.95550537109375,-0.3939056396484375,0.0847320556640625
1789757707636686800,1.777686767578125,-0.904876708984375,-0.3917083740234375,0.145721435546875
1789757707646697700,1.78769775390625,-0.9325103759765625,-0.2827911376953125,0.16534423828125
1789757707656708600,1.79770849609375,-0.920989990234375,-0.1895294189453125,0.1839141845703125
1789757707666720000,1.807719970703125,-0.85015869140625,-0.2197418212890625,0.2658538818359375
1789757707676729900,1.817729736328125,-0.857391357421875,-0.2297821044921875,0.2786102294921875
1789757707686741000,1.827740966796875,-0.914703369140625,-0.23980712890625,0.2126007080078125
1789757707696751900,1.837751953125,-0.9956817626953125,-0.26678466796875,0.19964599609375
1789757707706762800,1.8477626953125,-1.014617919921875,-0.343963623046875,0.18414306640625
1789757707716772900,1.85777294921875,-0.9804840087890625,-0.379730224609375,0.1457061767578125
1789757707726783700,1.86778369140625,-0.8925933837890625,-0.373016357421875,0.1244659423828125
1789757707736794600,1.877794677734375,-0.868865966796875,-0.3858642578125,0.145599365234375
1789757707746806000,1.887805908203125,-0.931915283203125,-0.2867889404296875,0.1030426025390625
1789757707756817000,1.89781689453125,-0.959808349609375,-0.2660675048828125,0.0410614013671875
1789757707766826800,1.90782666015625,-0.9578399658203125,-0.3637542724609375,0.0638275146484375
1789757707776838000,1.917837890625,-0.975189208984375,-0.446563720703125,0.05780029296875
1789757707786848800,1.927848876953125,-0.972747802734375,-0.5029754638671875,0.03424072265625
1789757707796859600,1.937859619140625,-1.0147552490234375,-0.500335693359375,0.0733489990234375
1789757707806869800,1.947869873046875,-1.0014495849609375,-0.5094146728515625,0.09820556640625
1789757707816880600,1.957880615234375,-0.9022369384765625,-0.4678955078125,0.125579833984375
1789757707826891800,1.967891845703125,-0.8382110595703125,-0.443634033203125,0.1530914306640625
1789757707836903000,1.97790283203125,-0.8200225830078125,-0.4047088623046875,0.1428375244140625
1789757707846912800,1.987912841796875,-0.8650970458984375,-0.3789520263671875,0.1637420654296875
1789757707856924000,1.997923828125,-0.9116363525390625,-0.4130706787109375,0.152496337890625
1789757707866934800,2.007934814453125,-0.9105987548828125,-0.3883056640625,0.213653564453125
1789757707876945700,2.017945556640625,-0.8557891845703125,-0.3967132568359375,0.247894287109375
1789757707886955800,2.027955810546875,-0.816162109375,-0.4268646240234375,0.29193115234375
1789757707896967000,2.037966796875,-0.798370361328125,-0.3683013916015625,0.29083251953125
1789757707906977800,2.047977783203125,-0.80755615234375,-0.3505401611328125,0.239013671875
1789757707916989000,2.057989013671875,-0.818084716796875,-0.3526458740234375,0.217529296875
1789757707926999800,2.067999755859375,-0.8613433837890625,-0.328399658203125,0.210113525390625
1789757707937010000,2.078010009765625,-0.84051513671875,-0.3253173828125,0.225128173828125
1789757707947020800,2.088020751953125,-0.806976318359375,-0.4024505615234375,0.3067474365234375
1789757707957031700,2.09803173828125,-0.8733673095703125,-0.4067840576171875,0.34149169921875
1789757707967042800,2.108042724609375,-0.93206787109375,-0.44696044921875,0.337799072265625
1789757707977053000,2.118052978515625,-0.9549713134765625,-0.4858856201171875,0.3318939208984375
1789757707987063800,2.128063720703125,-0.9266510009765625,-0.45892333984375,0.2243499755859375
1789757707997075000,2.138074951171875,-0.899078369140625,-0.459320068359375,0.2103729248046875
1789757708007085800,2.1480859375,-0.866424560546875,-0.4184722900390625,0.2155303955078125
1789757708017095700,2.158095703125,-0.842620849609375,-0.3816680908203125,0.2008056640625
1789757708027106800,2.16810693359375,-0.8170013427734375,-0.3679351806640625,0.2238922119140625
1789757708037117700,2.17811767578125,-0.8598785400390625,-0.38409423828125,0.233123779296875
1789757708047128800,2.18812890625,-0.9195709228515625,-0.354827880859375,0.1707763671875
1789757708057139000,2.198138916015625,-0.9051361083984375,-0.3922882080078125,0.0449676513671875
1789757708067149800,2.20814990234375,-0.9011077880859375,-0.420318603515625,0.0147247314453125
1789757708077161000,2.218160888671875,-0.9534912109375,-0.437530517578125,-0.0826416015625
1789757708087171800,2.228171875,-0.9403533935546875,-0.4534149169921875,-0.053070068359375
1789757708097182700,2.2381826171875,-0.9258880615234375,-0.4035186767578125,0.0922088623046875
1789757708107192800,2.24819287109375,-0.8094635009765625,-0.4876708984375,0.0980987548828125
1789757708117203700,2.25820361328125,-0.769989013671875,-0.5120086669921875,0.0173492431640625
1789757708127214800,2.26821484375,-0.9019317626953125,-0.4822235107421875,-0.0562896728515625
1789757708137226000,2.27822607421875,-0.9516754150390625,-0.513336181640625,-0.0327301025390625
1789757708147235800,2.28823583984375,-0.91583251953125,-0.5404815673828125,0.01837158203125
1789757708157246700,2.298246826171875,-0.8657684326171875,-0.534393310546875,-0.0554351806640625
1789757708167257900,2.3082578125,-0.870758056640625,-0.5218048095703125,-0.1309967041015625
1789757708177268700,2.318268798828125,-0.8400115966796875,-0.50128173828125,-0.1690521240234375
1789757708187278800,2.32827880859375,-0.8219451904296875,-0.55120849609375,-0.1218719482421875
1789757708197289700,2.338289794921875,-0.8570098876953125,-0.4381866455078125,0.0137939453125
1789757708207300900,2.34830078125,-0.935028076171875,-0.513824462890625,0.1377410888671875
1789757708217311700,2.358311767578125,-1.0142974853515625,-0.5346221923828125,0.1119384765625
1789757708227323000,2.368322998046875,-0.8646240234375,-0.5433197021484375,0.08941650390625
1789757708237332700,2.378332763671875,-0.6810455322265625,-0.6250762939453125,0.104248046875
1789757708247343900,2.38834375,-0.9177093505859375,-0.5143585205078125,0.0718231201171875
1789757708257354800,2.398354736328125,-1.2826995849609375,-0.4057159423828125,0.0907135009765625
1789757708267366000,2.408365966796875,-1.435577392578125,-0.388885498046875,0.1389007568359375
1789757708277376000,2.4183759765625,-1.2309417724609375,-0.4668121337890625,0.13262939453125
1789757708287387000,2.428386962890625,-0.9850006103515625,-0.4178314208984375,0.0337982177734375
1789757708297397800,2.438397705078125,-1.0166473388671875,-0.29254150390625,-0.06561279296875
1789757708307409000,2.448408935546875,-1.1829071044921875,-0.0667724609375,-0.111297607421875
1789757708317418800,2.458418701171875,-1.081573486328125,-0.177215576171875,0.076507568359375
1789757708327430000,2.468429931640625,-0.8910675048828125,-0.2698822021484375,0.1165008544921875
1789757708337440800,2.478440673828125,-0.6938018798828125,-0.3816070556640625,0.1863250732421875
1789757708347452000,2.488451904296875,-0.6925048828125,-0.41375732421875,0.2674560546875
1789757708357462000,2.4984619140625,-0.86004638671875,-0.4411773681640625,0.242889404296875
1789757708367473000,2.508472900390625,-0.885101318359375,-0.45477294921875,0.1179962158203125
1789757708377483800,2.51848388671875,-1.0242156982421875,-0.4233551025390625,0.0240020751953125
1789757708387495000,2.528494873046875,-1.0683441162109375,-0.3780670166015625,-0.117706298828125
1789757708397505800,2.538505859375,-0.8705902099609375,-0.4349822998046875,-0.0939483642578125
1789757708407515600,2.548515625,-0.7379608154296875,-0.475006103515625,0.0398406982421875
1789757708417526800,2.55852685546875,-0.8369903564453125,-0.418609619140625,0.12579345703125
1789757708427538000,2.568537841796875,-0.809600830078125,-0.332275390625,0.1480560302734375
1789757708437548800,2.578548828125,-0.8070831298828125,-0.334747314453125,0.1568145751953125
1789757708447559000,2.588558837890625,-0.9457855224609375,-0.2701263427734375,0.0511474609375
1789757708457569800,2.59856982421875,-1.0274810791015625,-0.318572998046875,-0.0406494140625
1789757708467580700,2.60858056640625,-0.9453582763671875,-0.377227783203125,-0.09930419921875
1789757708477591800,2.618591796875,-0.748565673828125,-0.4554443359375,-0.1173858642578125
1789757708487601700,2.6286015625,-0.6437835693359375,-0.5291595458984375,-0.0198822021484375
1789757708497612800,2.63861279296875,-0.9402923583984375,-0.384979248046875,0.100311279296875
1789757708507624000,2.6486240234375,-1.1702728271484375,-0.3496856689453125,0.1063690185546875
1789757708517634800,2.658634765625,-0.9420013427734375,-0.38531494140625,0.067138671875
1789757708527645000,2.66864501953125,-0.7569580078125,-0.4549407958984375,0.0483856201171875
1789757708537655800,2.67865576171875,-0.7430267333984375,-0.384124755859375,0.0357513427734375
1789757708547666700,2.688666748046875,-0.9847412109375,-0.2796478271484375,0.056640625
1789757708557677800,2.698677734375,-1.0989532470703125,-0.350006103515625,-0.000457763671875
1789757708567688700,2.708688720703125,-1.02215576171875,-0.318359375,-0.0515899658203125
1789757708577698800,2.71869873046875,-0.7946014404296875,-0.4490966796875,0.1005096435546875
1789757708587709400,2.72870947265625,-1.0130157470703125,-0.3263092041015625,0.1129150390625
1789757708597720300,2.73872021484375,-1.065093994140625,-0.2470550537109375,0.099609375
1789757708607731500,2.7487314453125,-0.8742523193359375,-0.21990966796875,0.1748199462890625
1789757708617741300,2.7587412109375,-0.758331298828125,-0.379913330078125,0.15264892578125
1789757708627752400,2.76875244140625,-0.899169921875,-0.6033477783203125,-0.01953125
1789757708637763600,2.778763671875,-1.0888214111328125,-0.5030975341796875,-0.1230316162109375
1789757708647774500,2.7887744140625,-1.1131134033203125,-0.462005615234375,-0.187713623046875
1789757708657784600,2.79878466796875,-1.1071319580078125,-0.2177734375,-0.1184844970703125
1789757708667795500,2.80879541015625,-0.866485595703125,-0.266265869140625,-0.07598876953125
1789757708677806300,2.818806396484375,-0.8246307373046875,-0.263702392578125,-0.0422515869140625
1789757708687817200,2.828817138671875,-1.0677032470703125,-0.32830810546875,-0.0404510498046875
1789757708697828600,2.83882861328125,-1.10400390625,-0.2497100830078125,-0.1622161865234375
1789757708707838500,2.84883837890625,-0.8492584228515625,-0.27496337890625,-0.247711181640625
1789757708717849600,2.858849609375,-0.72052001953125,-0.213836669921875,-0.20849609375
1789757708727860500,2.868860595703125,-1.0193328857421875,-0.0760650634765625,-0.189697265625
1789757708737871400,2.878871337890625,-1.133544921875,-0.1905670166015625,-0.139190673828125
1789757708747881500,2.888881591796875,-1.0461883544921875,-0.349822998046875,-0.205169677734375
1789757708757892400,2.898892333984375,-0.975555419921875,-0.4916229248046875,-0.2250213623046875
1789757708767903200,2.9089033203125,-0.9779052734375,-0.367645263671875,-0.17791748046875
1789757708777914600,2.91891455078125,-0.91900634765625,-0.311981201171875,-0.2014923095703125
1789757708787924500,2.928924560546875,-0.998870849609375,-0.177581787109375,0.008087158203125
1789757708797935400,2.938935302734375,-1.120025634765625,-0.448486328125,0.079803466796875
1789757708807946500,2.948946533203125,-1.2611083984375,-0.1344757080078125,-0.093231201171875
1789757708817957400,2.958957275390625,-0.8040008544921875,-0.5309600830078125,0.0664825439453125
1789757708827967500,2.968967529296875,-0.5093231201171875,-0.5178375244140625,0.1513519287109375
1789757708837978400,2.978978271484375,-0.5030670166015625,-0.5095367431640625,0.2083282470703125
1789757708847989500,2.988989501953125,-0.8862152099609375,-0.06439208984375,0.4365692138671875
1789757708858000600,2.999000732421875,-1.2230224609375,-0.11004638671875,0.4812774658203125
1789757708868011500,3.009011474609375,-1.172027587890625,-0.38580322265625,0.4519195556640625
1789757708878021400,3.019021484375,-0.997161865234375,-0.5368499755859375,0.290771484375
1789757708888032500,3.029032470703125,-0.8179779052734375,-0.548675537109375,0.0469207763671875
1789757708898043400,3.03904345703125,-0.6965179443359375,-0.36285400390625,0.1149749755859375
1789757708908054300,3.04905419921875,-0.7987823486328125,-0.1138153076171875,0.3376007080078125
1789757708918064400,3.059064453125,-0.961273193359375,-0.2775726318359375,0.2370758056640625
1789757708928075500,3.069075439453125,-1.0097503662109375,-0.352386474609375,0.1446380615234375
1789757708938086400,3.07908642578125,-1.0274658203125,-0.4420166015625,0.00555419921875
1789757708948097500,3.08909765625,-1.0166778564453125,-0.471649169921875,-0.1469879150390625
1789757708958107400,3.099107421875,-0.92095947265625,-0.4546356201171875,-0.073150634765625
1789757708968118500,3.109118408203125,-0.7225341796875,-0.555938720703125,0.02288818359375
1789757708978129400,3.11912939453125,-0.7373504638671875,-0.4384307861328125,0.025665283203125
1789757708988140300,3.129140380859375,-0.778106689453125,-0.4647674560546875,-0.0814361572265625
1789757708998151400,3.1391513671875,-0.8441619873046875,-0.4131622314453125,-0.128631591796875
1789757709008161500,3.14916162109375,-0.933135986328125,-0.3320159912109375,-0.04962158203125
1789757709018172400,3.15917236328125,-0.96624755859375,-0.339935302734375,-0.058258056640625
1789757709028183600,3.16918359375,-1.008056640625,-0.2916717529296875,0.0458984375
1789757709038194400,3.1791943359375,-0.9312896728515625,-0.4172515869140625,0.0979461669921875
1789757709048204500,3.18920458984375,-0.838470458984375,-0.4839324951171875,0.0816497802734375
1789757709058215400,3.19921533203125,-0.7925567626953125,-0.4507293701171875,0.1225128173828125
1789757709068226300,3.209226318359375,-0.8803253173828125,-0.4332733154296875,0.108154296875
1789757709078237400,3.219237548828125,-1.0844268798828125,-0.4216156005859375,0.09039306640625
1789757709088247600,3.22924755859375,-1.051483154296875,-0.4783172607421875,0.0810546875
1789757709098258400,3.239258544921875,-0.996856689453125,-0.426971435546875,0.031280517578125
1789757709108269600,3.24926953125,-0.88104248046875,-0.465484619140625,0.01300048828125
1789757709118280400,3.259280517578125,-0.83294677734375,-0.4847869873046875,0.0173797607421875
1789757709128291300,3.269291259765625,-0.827850341796875,-0.5244903564453125,0.052215576171875
1789757709138301400,3.279301513671875,-0.942779541015625,-0.38519287109375,0.05712890625
1789757709148312300,3.289312255859375,-0.8834991455078125,-0.48956298828125,-0.08843994140625
1789757709158323500,3.299323486328125,-0.6964569091796875,-0.702117919921875,-0.0381622314453125
1789757709168334600,3.30933447265625,-0.835845947265625,-0.574249267578125,-0.05322265625
1789757709178344400,3.319344482421875,-0.90814208984375,-0.554107666015625,-0.0567474365234375
1789757709188355300,3.329355224609375,-0.846588134765625,-0.555206298828125,-0.0945892333984375
1789757709198366500,3.339366455078125,-0.96038818359375,-0.4961395263671875,-0.0350494384765625
1789757709208377300,3.34937744140625,-0.9358673095703125,-0.5860595703125,-0.081268310546875
1789757709218387500,3.359387451171875,-0.90863037109375,-0.46075439453125,-0.0495452880859375
1789757709228398600,3.369398681640625,-0.7125244140625,-0.6429443359375,-0.0988922119140625
1789757709238409500,3.379409423828125,-0.5892181396484375,-0.8299713134765625,-0.16693115234375
1789757709248420400,3.38942041015625,-0.6942291259765625,-0.7899322509765625,-0.0427703857421875
1789757709258430500,3.399430419921875,-0.945648193359375,-0.426513671875,-0.0476226806640625
1789757709268441300,3.40944140625,-1.0699920654296875,-0.4384765625,-0.0481414794921875
1789757709278452500,3.419452392578125,-1.15509033203125,-0.2487335205078125,-0.0433349609375
1789757709288463400,3.42946337890625,-0.9348297119140625,-0.65087890625,-0.0619964599609375
1789757709298474500,3.439474609375,-1.035003662109375,-0.3407745361328125,-0.0149078369140625
1789757709308484600,3.449484619140625,-1.06475830078125,-0.193511962890625,0.0813751220703125
1789757709318495500,3.45949560546875,-0.85107421875,-0.308868408203125,0.1781768798828125
1789757709328506400,3.46950634765625,-0.713226318359375,-0.3578643798828125,0.1171112060546875
1789757709338517500,3.479517578125,-0.7280120849609375,-0.4081573486328125,0.097412109375
1789757709348527400,3.48952734375,-0.9016265869140625,-0.472686767578125,0.048370361328125
1789757709358538500,3.49953857421875,-0.9788360595703125,-0.409912109375,0.084930419921875
1789757709368549400,3.50954931640625,-1.007080078125,-0.416107177734375,0.0966339111328125
1789757709378560500,3.519560546875,-0.805938720703125,-0.6434326171875,0.0852508544921875
1789757709388570600,3.529570556640625,-0.862548828125,-0.438720703125,0.0878143310546875
1789757709398581500,3.53958154296875,-0.8854522705078125,-0.4712066650390625,0.1233367919921875
1789757709408592400,3.54959228515625,-0.8907318115234375,-0.3918609619140625,0.1020965576171875
1789757709418603500,3.559603515625,-0.94305419921875,-0.4892730712890625,0.05755615234375
1789757709428613400,3.56961328125,-0.92938232421875,-0.521636962890625,-0.01837158203125
1789757709438624300,3.579624267578125,-0.8262481689453125,-0.5953521728515625,-0.0701904296875
1789757709448635400,3.589635498046875,-0.7084197998046875,-0.56024169921875,-0.09918212890625
1789757709458646500,3.599646484375,-0.8570556640625,-0.391998291015625,-0.123626708984375
1789757709468657400,3.609657470703125,-0.9117889404296875,-0.582794189453125,0.0374755859375
1789757709478667500,3.61966748046875,-0.88201904296875,-0.5949249267578125,0.02716064453125
1789757709488678400,3.629678466796875,-0.7304534912109375,-0.6595916748046875,0.0516357421875
1789757709498689500,3.639689453125,-0.7842254638671875,-0.6446075439453125,0.0758056640625
1789757709508700400,3.649700439453125,-0.890777587890625,-0.462646484375,0.105743408203125
1789757709518710300,3.659710205078125,-1.00445556640625,-0.4178466796875,-0.0498046875
1789757709528721400,3.669721435546875,-0.94598388671875,-0.38226318359375,-0.1330718994140625
1789757709538732500,3.679732666015625,-0.7386322021484375,-0.6895599365234375,-0.0705108642578125
1789757709548743400,3.689743408203125,-0.913299560546875,-0.5731964111328125,-0.0013427734375
1789757709558753500,3.69975341796875,-0.9073028564453125,-0.6531829833984375,0.07684326171875
1789757709568764400,3.709764404296875,-0.9688568115234375,-0.44488525390625,0.0028228759765625
1789757709578775800,3.71977587890625,-0.8114471435546875,-0.6507720947265625,-0.16015625
1789757709588787000,3.729786865234375,-0.863800048828125,-0.417266845703125,-0.233489990234375
1789757709598798000,3.739798095703125,-0.953826904296875,-0.44012451171875,-0.2626190185546875
1789757709608808000,3.749807861328125,-0.8205718994140625,-0.6080322265625,-0.11932373046875
1789757709619444000,3.76044384765625,-0.8036956787109375,-0.5774383544921875,-0.11865234375
1789757709629454800,3.770454833984375,-0.8293609619140625,-0.6142730712890625,-0.1545562744140625
1789757709639466000,3.780466064453125,-0.921112060546875,-0.3736419677734375,-0.0665435791015625
1789757709649477000,3.79047705078125,-0.8262786865234375,-0.462615966796875,-0.063079833984375
1789757709659487000,3.800487060546875,-0.6502685546875,-0.641326904296875,-0.034912109375
1789757709669497900,3.810497802734375,-0.934967041015625,-0.454132080078125,0.0355377197265625
1789757709679509000,3.820509033203125,-1.028411865234375,-0.4224853515625,0.030548095703125
1789757709689519900,3.830519775390625,-0.8889617919921875,-0.60650634765625,0.11279296875
1789757709699530800,3.84053076171875,-0.8405303955078125,-0.5907745361328125,0.058563232421875
1789757709709540900,3.850540771484375,-0.94012451171875,-0.407073974609375,0.0915679931640625
1789757709719552000,3.860552001953125,-0.7842864990234375,-0.59503173828125,0.205657958984375
1789757709729563000,3.87056298828125,-0.7642822265625,-0.5055999755859375,0.1084747314453125
1789757709739574000,3.880573974609375,-0.9494781494140625,-0.2886505126953125,0.1417083740234375
1789757709749584000,3.890583984375,-0.910888671875,-0.490692138671875,0.1566619873046875
1789757709759595000,3.900594970703125,-0.7469940185546875,-0.6617431640625,0.1607818603515625
1789757709769606000,3.91060595703125,-0.7662353515625,-0.6364288330078125,0.1231842041015625
1789757709779616800,3.92061669921875,-1.016754150390625,-0.4457244873046875,0.0489044189453125
1789757709789627000,3.930626953125,-0.7900238037109375,-0.708038330078125,0.095916748046875
1789757709799638000,3.940637939453125,-0.7967529296875,-0.55718994140625,0.0542449951171875
1789757709809649000,3.95064892578125,-0.8982696533203125,-0.3526763916015625,-0.0398712158203125
1789757709819660000,3.960659912109375,-0.8206634521484375,-0.510498046875,0.000335693359375
1789757709829671000,3.9706708984375,-0.835479736328125,-0.461578369140625,-0.0219573974609375
1789757709839681000,3.980680908203125,-0.8723297119140625,-0.586395263671875,-0.046234130859375
1789757709849692000,3.99069189453125,-0.81475830078125,-0.680755615234375,-0.013946533203125
1789757709859702800,4.000702880859375,-0.722930908203125,-0.595123291015625,-0.010223388671875
1789757709869714000,4.0107138671875,-0.8349761962890625,-0.4275360107421875,0.0423126220703125
1789757709879724000,4.02072412109375,-0.795196533203125,-0.619873046875,0.103302001953125
1789757709889735000,4.03073486328125,-0.920196533203125,-0.531005859375,0.1490631103515625
1789757709899746000,4.04074609375,-0.8973388671875,-0.5994873046875,0.1038360595703125
1789757709909757000,4.0507568359375,-1.0817413330078125,-0.5171356201171875,0.05133056640625
1789757709919766800,4.060766845703125,-0.9402923583984375,-0.5556488037109375,0.0723876953125
1789757709929778000,4.07077783203125,-0.8398590087890625,-0.4972686767578125,0.0287933349609375
1789757709939789000,4.0807890625,-0.658050537109375,-0.6074066162109375,0.212646484375
1789757709949800000,4.090800048828125,-0.592681884765625,-0.57232666015625,0.2882080078125
1789757709959810000,4.10081005859375,-0.91241455078125,-0.5599822998046875,0.160919189453125
1789757709969821000,4.110821044921875,-1.1412353515625,-0.1693267822265625,0.186004638671875
1789757709979831800,4.120831787109375,-0.9265594482421875,-0.7142333984375,0.1181640625
1789757709989843000,4.130843017578125,-0.849822998046875,-0.6101226806640625,0.149627685546875
1789757709999853800,4.140853759765625,-0.718048095703125,-0.587310791015625,0.0153656005859375
1789757710009864000,4.150864013671875,-0.677001953125,-0.445343017578125,0.0345458984375
1789757710019875000,4.160875,-0.8673095703125,-0.366973876953125,0.0131683349609375
1789757710029886000,4.170885986328125,-0.89019775390625,-0.6468505859375,-0.006561279296875
1789757710039897000,4.18089697265625,-1.2858123779296875,-0.4049530029296875,-0.0351409912109375
1789757710049907000,4.190906982421875,-1.2547760009765625,-0.3394622802734375,0.057830810546875
1789757710059917800,4.200917724609375,-0.8558502197265625,-0.6033172607421875,-0.0450286865234375
1789757710069929000,4.210928955078125,-0.44854736328125,-0.64056396484375,0.0608978271484375
1789757710079939800,4.22093994140625,-0.346832275390625,-0.6436309814453125,-0.0975341796875
1789757710089950000,4.230949951171875,-0.5317230224609375,-0.41839599609375,-0.0865325927734375
1789757710099961000,4.240961181640625,-0.8544464111328125,-0.290985107421875,0.04736328125
1789757710109972000,4.250971923828125,-1.4327850341796875,-0.13323974609375,0.0924072265625
1789757710119982800,4.26098291015625,-1.5800628662109375,-0.4261016845703125,0.1304473876953125
1789757710129994000,4.270993896484375,-1.2882080078125,-0.4781036376953125,0.1833953857421875
1789757710140003800,4.28100390625,-0.7672576904296875,-0.5764617919921875,0.0105438232421875
1789757710150015000,4.291014892578125,-0.395843505859375,-0.6841583251953125,0.0385894775390625
1789757710160025900,4.30102587890625,-0.4279022216796875,-0.3732452392578125,-0.1304779052734375
1789757710170037000,4.311037109375,-0.4532012939453125,-0.3849945068359375,0.0521697998046875
1789757710180047000,4.321047119140625,-1.1743011474609375,-0.1988067626953125,0.2958984375
1789757710190058000,4.33105810546875,-1.318145751953125,-0.5750274658203125,0.193206787109375
1789757710200068900,4.34106884765625,-1.50006103515625,-0.30078125,0.233184814453125
1789757710210080000,4.351080078125,-1.2081451416015625,-0.5371856689453125,-0.0015106201171875
1789757710220089900,4.36108984375,-0.89453125,-0.406005859375,-0.0200042724609375
1789757710230101000,4.37110107421875,-0.561126708984375,-0.53271484375,-0.08489990234375
1789757710240111900,4.38111181640625,-0.603179931640625,-0.3702239990234375,-0.094024658203125
1789757710250123000,4.391123046875,-0.79803466796875,-0.6000213623046875,0.0239105224609375
1789757710260133000,4.401133056640625,-0.8471527099609375,-0.6081390380859375,0.1391143798828125
1789757710270144000,4.41114404296875,-1.1311492919921875,-0.1875762939453125,-0.007720947265625
1789757710280155000,4.42115478515625,-1.0277252197265625,-0.52386474609375,-0.111480712890625
1789757710290166000,4.431166015625,-0.7791290283203125,-0.7239532470703125,-0.1859893798828125
1789757710300177000,4.441177001953125,-0.8642425537109375,-0.376678466796875,-0.1955718994140625
1789757710310186800,4.451186767578125,-0.9430999755859375,-0.364837646484375,-0.1386566162109375
1789757710320198100,4.4611982421875,-0.8943328857421875,-0.3451385498046875,0.01141357421875
1789757710330209000,4.471208984375,-0.88592529296875,-0.56964111328125,-0.0855560302734375
1789757710340220000,4.481219970703125,-1.054656982421875,-0.3616790771484375,-0.1369171142578125
1789757710350230000,4.49122998046875,-1.042449951171875,-0.4340667724609375,-0.1742401123046875
1789757710360241000,4.501240966796875,-1.0301361083984375,-0.258056640625,-0.162841796875
1789757710370251800,4.511251708984375,-0.6995849609375,-0.600677490234375,-0.1124114990234375
1789757710380263000,4.521262939453125,-0.7593994140625,-0.4789886474609375,-0.0823974609375
1789757710390272800,4.531272705078125,-0.449066162109375,-0.829345703125,-0.091339111328125
1789757710400284200,4.5412841796875,-1.04071044921875,-0.087432861328125,-0.0163726806640625
1789757710410295000,4.551294921875,-1.2375030517578125,-0.448822021484375,0.013946533203125
1789757710420306000,4.561305908203125,-1.1117706298828125,-0.4268951416015625,-0.041473388671875
1789757710430316800,4.57131689453125,-0.6874237060546875,-0.8399810791015625,-0.1435394287109375
1789757710440327000,4.581326904296875,-0.610504150390625,-0.551849365234375,-0.164825439453125
1789757710450337800,4.591337890625,-0.6254730224609375,-0.67901611328125,-0.0097808837890625
1789757710460349000,4.601348876953125,-0.809539794921875,-0.321929931640625,0.078857421875
1789757710470360000,4.611360107421875,-1.20721435546875,-0.167694091796875,-0.1091766357421875
1789757710480370000,4.621369873046875,-1.157684326171875,-0.455413818359375,-0.1642303466796875
1789757710490381000,4.631381103515625,-0.816497802734375,-0.6014862060546875,-0.374420166015625
1789757710500392000,4.641391845703125,-0.829620361328125,-0.58966064453125,-0.363739013671875
1789757710510402800,4.65140283203125,-0.7911224365234375,-0.37286376953125,-0.2103729248046875
1789757710520413000,4.661412841796875,-0.8472747802734375,-0.4652252197265625,-0.075286865234375
1789757710530423800,4.671423828125,-0.986724853515625,-0.330322265625,0.155426025390625
1789757710540435000,4.68143505859375,-0.8225250244140625,-0.7034454345703125,-0.142059326171875
1789757710550446000,4.691446044921875,-0.989959716796875,-0.572357177734375,-0.1819915771484375
1789757710560456000,4.7014560546875,-1.0109100341796875,-0.392059326171875,-0.18585205078125
1789757710570467000,4.711467041015625,-0.84210205078125,-0.4166259765625,-0.239715576171875
1789757710580478000,4.72147802734375,-0.6369476318359375,-0.6967010498046875,-0.068603515625
1789757710590488800,4.73148876953125,-0.745330810546875,-0.4455718994140625,-0.0325775146484375
1789757710600500000,4.7415,-1.1327667236328125,-0.1605987548828125,-0.079315185546875
1789757710610509800,4.751509765625,-0.923980712890625,-0.4963226318359375,0.111175537109375
1789757710620520700,4.761520751953125,-0.7158660888671875,-0.6617279052734375,-0.0055694580078125
1789757710630532000,4.771531982421875,-0.9953155517578125,-0.2624664306640625,-0.022430419921875
1789757710640543000,4.78154296875,-0.8063507080078125,-0.5799407958984375,-0.0344085693359375
1789757710650553000,4.791552978515625,-0.94964599609375,-0.4395904541015625,-0.0450439453125
1789757710660564000,4.80156396484375,-0.975372314453125,-0.62542724609375,0.05682373046875
1789757710670574800,4.811574951171875,-0.961578369140625,-0.375274658203125,0.0298919677734375
1789757710680586000,4.8215859375,-0.856689453125,-0.4500274658203125,0.0967864990234375
1789757710690595800,4.831595947265625,-0.6500091552734375,-0.584686279296875,0.0805206298828125
1789757710700607000,4.84160693359375,-0.6047210693359375,-0.678436279296875,0.0349578857421875
1789757710710618000,4.8516181640625,-0.7884368896484375,-0.404510498046875,0.0264129638671875
1789757710720629000,4.86162890625,-0.739776611328125,-0.614776611328125,0.0475921630859375
1789757710730639000,4.87163916015625,-0.93072509765625,-0.329864501953125,-0.0204315185546875
1789757710740650000,4.88164990234375,-1.0783233642578125,-0.465423583984375,0.0327911376953125
1789757710750660900,4.891660888671875,-1.1876068115234375,-0.34100341796875,0.044586181640625
1789757710760671700,4.901671630859375,-1.0111846923828125,-0.4869842529296875,-0.0699615478515625
1789757710770683100,4.91168310546875,-1.064727783203125,-0.1655120849609375,0.0406341552734375
1789757710780693000,4.92169287109375,-0.55267333984375,-0.8869171142578125,-0.0186309814453125
1789757710790704000,4.9317041015625,-0.652801513671875,-0.502716064453125,-0.1029815673828125
1789757710800715000,4.941715087890625,-0.82025146484375,-0.4727325439453125,-0.083892822265625
1789757710810726000,4.951725830078125,-0.787628173828125,-0.538055419921875,0.0727691650390625
1789757710820736000,4.961736083984375,-1.145233154296875,-0.3042755126953125,0.0237884521484375
1789757710830747000,4.971746826171875,-0.86944580078125,-0.61407470703125,0.076416015625
1789757710840757800,4.9817578125,-0.7469024658203125,-0.528167724609375,-0.029632568359375
1789757710850769200,4.99176904296875,-1.0205230712890625,-0.25885009765625,-0.0787506103515625
1789757710860779000,5.001779052734375,-0.8504486083984375,-0.70147705078125,0.0391693115234375
1789757710870790000,5.011789794921875,-0.753265380859375,-0.455810546875,-0.1177215576171875
1789757710880801000,5.021801025390625,-0.763671875,-0.607421875,0.067291259765625
1789757710890812000,5.03181201171875,-0.9940185546875,-0.49432373046875,0.09014892578125
1789757710900822000,5.041822021484375,-1.01116943359375,-0.3925018310546875,-0.0153350830078125
1789757710910833000,5.0518330078125,-0.8211822509765625,-0.5662078857421875,-0.0015869140625
1789757710920843800,5.06184375,-0.817291259765625,-0.5049591064453125,-0.0329742431640625
1789757710930855000,5.07185498046875,-0.76934814453125,-0.4329071044921875,0.0267791748046875
1789757710940866000,5.081865966796875,-0.7528076171875,-0.53167724609375,0.0890960693359375
1789757710950876000,5.0918759765625,-0.914825439453125,-0.44281005859375,-0.08636474609375
1789757710960887000,5.101886962890625,-1.1759796142578125,-0.2762603759765625,-0.1064453125
1789757710970898000,5.11189794921875,-0.9253387451171875,-0.77099609375,0.0080718994140625
1789757710980908800,5.12190869140625,-0.7720489501953125,-0.577606201171875,0.1265716552734375
1789757710990919000,5.1319189453125,-0.8274993896484375,-0.460418701171875,0.0948944091796875
1789757711000929800,5.1419296875,-0.7211456298828125,-0.528778076171875,0.095672607421875
1789757711010941000,5.15194091796875,-1.17462158203125,-0.070892333984375,-0.11480712890625
1789757711020952000,5.1619521484375,-1.263458251953125,-0.369537353515625,-0.07464599609375
1789757711030962000,5.1719619140625,-1.0108642578125,-0.5018768310546875,0.0034332275390625
1789757711040973000,5.18197314453125,-0.82598876953125,-0.433624267578125,0.1781158447265625
1789757711050984000,5.19198388671875,-0.7135009765625,-0.4376220703125,0.203582763671875
1789757711060994800,5.201994873046875,-0.6462249755859375,-0.58575439453125,0.1048126220703125
1789757711071005000,5.2120048828125,-0.852447509765625,-0.3648223876953125,0.03509521484375
1789757711081015800,5.222015869140625,-0.8081512451171875,-0.5088653564453125,0.1385955810546875
1789757711091027000,5.23202685546875,-0.85516357421875,-0.4597930908203125,0.1117095947265625
1789757711101038000,5.2420380859375,-0.860137939453125,-0.4602203369140625,0.24102783203125
1789757711111049000,5.252049072265625,-1.1718902587890625,-0.3108367919921875,0.14019775390625
1789757711121058800,5.262058837890625,-1.18463134765625,-0.25408935546875,0.0328369140625
1789757711131070000,5.272070068359375,-1.1244659423828125,-0.2593841552734375,0.0854949951171875
1789757711141080800,5.282080810546875,-0.6293792724609375,-0.72467041015625,0.05755615234375
1789757711151092000,5.292092041015625,-0.80914306640625,-0.3203582763671875,0.1006011962890625
1789757711161102000,5.30210205078125,-0.8859100341796875,-0.33563232421875,0.129150390625
1789757711171113000,5.312113037109375,-0.74481201171875,-0.4846954345703125,0.16912841796875
1789757711181124000,5.3221240234375,-0.9048614501953125,-0.44622802734375,0.1603546142578125
1789757711191135000,5.332135009765625,-0.9777374267578125,-0.435791015625,0.112091064453125
1789757711201144800,5.342144775390625,-0.99267578125,-0.422393798828125,0.054412841796875
1789757711211782000,5.352781982421875,-0.8456573486328125,-0.528594970703125,0.0929412841796875
1789757711221793000,5.36279296875,-0.61358642578125,-0.540283203125,0.005767822265625
1789757711231804000,5.372803955078125,-0.777313232421875,-0.333221435546875,0.0203857421875
1789757711241814000,5.38281396484375,-0.9832305908203125,-0.34307861328125,0.0439910888671875
1789757711251825000,5.392824951171875,-1.12823486328125,-0.177978515625,0.08428955078125
1789757711261836000,5.4028359375,-0.857208251953125,-0.59136962890625,0.10870361328125
1789757711271847000,5.412846923828125,-0.8409423828125,-0.5130157470703125,0.072052001953125
1789757711281857000,5.42285693359375,-0.9408416748046875,-0.5299530029296875,0.055023193359375
1789757711291868000,5.432867919921875,-1.167816162109375,-0.38336181640625,0.0699462890625
1789757711301879000,5.442879150390625,-1.0271453857421875,-0.58123779296875,0.092132568359375
1789757711311890000,5.452889892578125,-1.09326171875,-0.111907958984375,-0.0356597900390625
1789757711321900800,5.46290087890625,-0.80157470703125,0.105438232421875,0.062591552734375
1789757711331911000,5.472910888671875,-0.5354766845703125,-0.163482666015625,0.10748291015625
1789757711341922000,5.482922119140625,-0.546112060546875,-0.6710357666015625,0.0752105712890625
1789757711351933000,5.492932861328125,-1.0127105712890625,-0.3816070556640625,0.1907806396484375
1789757711361944000,5.502944091796875,-1.236175537109375,-0.4174652099609375,0.00445556640625
1789757711371954000,5.512953857421875,-1.4411163330078125,0.0258026123046875,-0.105316162109375
1789757711381964800,5.52296484375,-1.00927734375,-0.241119384765625,0.19482421875
1789757711391976000,5.532975830078125,-0.654998779296875,-0.6218414306640625,0.19427490234375
1789757711401986800,5.54298681640625,-0.716766357421875,-0.4919281005859375,0.046417236328125
1789757711411997000,5.552996826171875,-0.8002166748046875,-0.2912750244140625,-0.0755767822265625
1789757711422008000,5.563008056640625,-0.8906402587890625,-0.455963134765625,-0.0789642333984375
1789757711432019000,5.57301904296875,-1.114105224609375,-0.281402587890625,0.06170654296875
1789757711442030000,5.583030029296875,-1.0773162841796875,-0.3640899658203125,0.091278076171875
1789757711452040000,5.5930400390625,-0.784423828125,-0.615447998046875,0.1135711669921875
1789757711462050800,5.60305078125,-0.6498260498046875,-0.528839111328125,0.109466552734375
1789757711472062000,5.61306201171875,-0.8204345703125,-0.2748565673828125,0.081939697265625
1789757711482072800,5.62307275390625,-1.1700592041015625,-0.1680145263671875,0.0762176513671875
1789757711492084000,5.633083984375,-1.3310089111328125,-0.2136688232421875,0.141448974609375
1789757711502094000,5.643093994140625,-0.958251953125,-0.6727752685546875,0.02001953125
1789757711512105000,5.65310498046875,-0.586151123046875,-0.555419921875,-0.0495452880859375
1789757711522115800,5.66311572265625,-0.638916015625,-0.295379638671875,0.054718017578125
1789757711532127000,5.673126953125,-0.5746917724609375,-0.420013427734375,0.0322418212890625
1789757711542136800,5.68313671875,-0.9351806640625,-0.386871337890625,0.06280517578125
1789757711552774000,5.69377392578125,-1.3531494140625,-0.26739501953125,0.0854949951171875
1789757711562785000,5.703784912109375,-1.1191864013671875,-0.5963592529296875,0.0345306396484375
1789757711572795000,5.713794921875,-0.92083740234375,-0.404693603515625,-0.0086517333984375
1789757711582806300,5.72380615234375,-0.5111236572265625,-0.549224853515625,-0.0446624755859375
1789757711592817400,5.7338173828125,-0.3002471923828125,-0.5841522216796875,0.01373291015625
1789757711602828300,5.743828369140625,-0.4620819091796875,-0.34326171875,0.0831146240234375
1789757711612838100,5.753838134765625,-0.717437744140625,-0.398895263671875,0.0731201171875
1789757711622849300,5.763849365234375,-0.5175933837890625,-0.26971435546875,0.0372314453125
1789757711632860200,5.773860107421875,-0.7410430908203125,-0.2931365966796875,-0.0042877197265625
1789757711642871000,5.78387109375,-1.950408935546875,-0.019989013671875,0.08367919921875
1789757711652881200,5.793881103515625,-2.6072998046875,0.2072296142578125,0.15869140625
1789757711662892300,5.803892333984375,-1.7592315673828125,-0.4671630859375,0.1456451416015625
1789757711672903400,5.8139033203125,-0.6800537109375,-0.8771209716796875,0.055206298828125
1789757711682914300,5.823914306640625,-0.2866058349609375,-0.586334228515625,-0.1113739013671875
1789757711692924200,5.833924072265625,-0.2730560302734375,-0.3221435546875,-0.085784912109375
1789757711702935300,5.843935302734375,-0.45147705078125,-0.3361358642578125,0.0314178466796875
1789757711712946200,5.8539462890625,-0.762237548828125,-0.443511962890625,0.2030181884765625
1789757711722957000,5.86395703125,-1.217193603515625,-0.2804412841796875,0.083099365234375
1789757711732968400,5.873968505859375,-1.493927001953125,-0.32818603515625,0.1664581298828125
1789757711742978300,5.883978271484375,-1.4880523681640625,-0.2777862548828125,0.0774383544921875
1789757711752989200,5.8939892578125,-1.2201385498046875,-0.24237060546875,-0.1116485595703125
1789757711763000300,5.904000244140625,-0.8748779296875,-0.32537841796875,0.0350494384765625
1789757711773011200,5.91401123046875,-0.6405181884765625,-0.414306640625,0.020111083984375
1789757711783021300,5.924021240234375,-0.6576080322265625,-0.4251251220703125,0.04107666015625
1789757711793032200,5.9340322265625,-0.740386962890625,-0.4217071533203125,0.14630126953125
1789757711803043000,5.94404296875,-0.845245361328125,-0.40399169921875,0.08538818359375
1789757711813054200,5.95405419921875,-0.9800567626953125,-0.246490478515625,0.001678466796875
1789757711823064300,5.964064208984375,-0.9013824462890625,-0.4342041015625,0.0155029296875
1789757711833075200,5.9740751953125,-0.84136962890625,-0.5386505126953125,-0.0815582275390625
1789757711843086300,5.98408642578125,-0.8123931884765625,-0.4695281982421875,0.0165557861328125
1789757711853097200,5.99409716796875,-0.8558807373046875,-0.29608154296875,0.0383758544921875
1789757711863108000,6.004108154296875,-0.8452301025390625,-0.261383056640625,-0.0133056640625
1789757711873118200,6.0141181640625,-0.794525146484375,-0.3621368408203125,0.038238525390625
1789757711883129000,6.024129150390625,-0.896881103515625,-0.2791595458984375,-0.002227783203125
1789757711893140200,6.03414013671875,-0.879730224609375,-0.4213104248046875,-0.0000762939453125
1789757711903151400,6.0441513671875,-0.8342742919921875,-0.55181884765625,0.05218505859375
1789757711913161200,6.0541611328125,-0.8022003173828125,-0.4963226318359375,0.059356689453125
1789757711923172400,6.06417236328125,-0.9381561279296875,-0.2222442626953125,-0.0465087890625
1789757711933183200,6.074183349609375,-0.9085540771484375,-0.2508087158203125,-0.0316619873046875
1789757711943194000,6.084194091796875,-0.910400390625,-0.28778076171875,-0.0330047607421875
1789757711953204200,6.094204345703125,-0.8868255615234375,-0.4233551025390625,-0.0658111572265625
1789757711963215400,6.10421533203125,-0.9515228271484375,-0.4577178955078125,0.0299224853515625
1789757711973226200,6.114226318359375,-1.0856781005859375,-0.384063720703125,0.015625
1789757711983237400,6.1242373046875,-1.0880126953125,-0.30889892578125,-0.033447265625
1789757711993247200,6.134247314453125,-0.981231689453125,-0.3302459716796875,-0.0929718017578125
1789757712003258000,6.144258056640625,-0.954498291015625,-0.1869049072265625,-0.1441497802734375
1789757712013269200,6.154269287109375,-0.858642578125,-0.3178253173828125,-0.029083251953125
1789757712023280000,6.164280029296875,-0.894622802734375,-0.2974090576171875,-0.0858306884765625
1789757712033290200,6.174290283203125,-0.888214111328125,-0.3363037109375,-0.1199951171875
1789757712043301400,6.18430126953125,-1.017822265625,-0.12054443359375,-0.029998779296875
1789757712053312300,6.194312255859375,-0.74560546875,-0.553619384765625,-0.0296173095703125
1789757712063323100,6.2043232421875,-0.4657135009765625,-1.155059814453125,0.0168304443359375
1789757712073334300,6.214334228515625,-0.6752471923828125,-1.0483551025390625,0.0697784423828125
1789757712083344100,6.22434423828125,-1.153289794921875,-0.5523834228515625,0.0301513671875
1789757712093355300,6.234355224609375,-1.4463043212890625,-0.061798095703125,0.0482330322265625
1789757712103366100,6.2443662109375,-1.25897216796875,-0.0054931640625,-0.009613037109375
1789757712113377300,6.254377197265625,-0.9518890380859375,-0.055511474609375,0.0397796630859375
1789757712123387400,6.264387451171875,-0.7313385009765625,-0.2430267333984375,0.038116455078125
1789757712133398300,6.274398193359375,-0.705230712890625,-0.41253662109375,0.0282135009765625
1789757712143409200,6.2844091796875,-0.8016357421875,-0.5103302001953125,0.10308837890625
1789757712153420300,6.294420166015625,-1.077362060546875,-0.2624359130859375,0.0391998291015625
1789757712163430100,6.30443017578125,-1.0686798095703125,-0.3830718994140625,0.0286712646484375
1789757712173441300,6.314441162109375,-1.017181396484375,-0.4897613525390625,0.029388427734375
1789757712183452200,6.3244521484375,-1.02874755859375,-0.4712371826171875,0.02587890625
1789757712193463300,6.33446337890625,-0.95477294921875,-0.40167236328125,-0.0387420654296875
1789757712203473400,6.344473388671875,-0.812042236328125,-0.40216064453125,-0.0767059326171875
1789757712213484300,6.354484375,-0.838958740234375,-0.25213623046875,-0.025543212890625
1789757712223495200,6.3644951171875,-0.9378204345703125,-0.1982879638671875,0.0391387939453125
1789757712233506300,6.37450634765625,-0.99554443359375,-0.349365234375,0.0615234375
1789757712243517200,6.38451708984375,-1.0665283203125,-0.3052825927734375,0.025177001953125
1789757712253527000,6.394527099609375,-1.1030426025390625,-0.26800537109375,-0.0213470458984375
1789757712263538200,6.4045380859375,-1.049224853515625,-0.265777587890625,-0.01019287109375
1789757712273549300,6.41454931640625,-0.9381103515625,-0.3299407958984375,-0.0255279541015625
1789757712283560200,6.424560302734375,-0.79705810546875,-0.4287872314453125,-0.0048675537109375
1789757712293570300,6.4345703125,-0.8596343994140625,-0.3519744873046875,0.0584564208984375
1789757712303581200,6.444581298828125,-0.9459075927734375,-0.3122711181640625,0.0274200439453125
1789757712313592300,6.45459228515625,-1.01483154296875,-0.374755859375,0.047760009765625
1789757712323603200,6.464603271484375,-1.021514892578125,-0.3750457763671875,-0.0374755859375
1789757712333613000,6.474613037109375,-0.923187255859375,-0.4635009765625,-0.019012451171875
1789757712343624400,6.48462451171875,-0.777374267578125,-0.5040283203125,0.0279693603515625
1789757712353635300,6.49463525390625,-0.759246826171875,-0.445281982421875,0.0765228271484375
1789757712363646200,6.504646240234375,-0.761932373046875,-0.482452392578125,0.1082763671875
1789757712373656300,6.51465625,-0.80706787109375,-0.5250701904296875,0.02520751953125
1789757712383667200,6.524667236328125,-1.0021209716796875,-0.36187744140625,0.0350189208984375
1789757712393678000,6.534677978515625,-0.95135498046875,-0.4575347900390625,0.083221435546875
1789757712403689200,6.544689208984375,-0.87347412109375,-0.4760284423828125,0.074676513671875
1789757712413699000,6.554698974609375,-0.8396148681640625,-0.4285430908203125,0.148712158203125
1789757712423710500,6.56471044921875,-0.7046966552734375,-0.58282470703125,0.0262603759765625
1789757712433721300,6.574721435546875,-0.844879150390625,-0.4825897216796875,-0.064697265625
1789757712443732200,6.584732177734375,-0.98126220703125,-0.3653106689453125,-0.044342041015625
1789757712453743000,6.5947431640625,-1.027252197265625,-0.3516998291015625,-0.086822509765625
1789757712463753200,6.604753173828125,-0.953948974609375,-0.48046875,-0.0698089599609375
1789757712473764000,6.61476416015625,-0.9312896728515625,-0.46881103515625,-0.03564453125
1789757712483775200,6.624775146484375,-0.9276580810546875,-0.457275390625,-0.0498046875
1789757712493786400,6.634786376953125,-0.9894866943359375,-0.40740966796875,-0.02166748046875
1789757712503796200,6.644796142578125,-1.10540771484375,-0.30267333984375,-0.044464111328125
1789757712513807400,6.654807373046875,-1.052154541015625,-0.3093414306640625,-0.1001129150390625
1789757712523818200,6.664818359375,-0.8052520751953125,-0.460479736328125,-0.074493408203125
1789757712533829000,6.6748291015625,-0.6607513427734375,-0.4891204833984375,-0.099517822265625
1789757712543839200,6.684839111328125,-0.6355438232421875,-0.489349365234375,-0.0122833251953125
1789757712553850000,6.69485009765625,-0.7445831298828125,-0.4632720947265625,0.055999755859375
1789757712563861200,6.704861328125,-0.986572265625,-0.35107421875,0.0596771240234375
1789757712573872400,6.714872314453125,-1.077850341796875,-0.3806304931640625,0.05157470703125
1789757712583881700,6.7248818359375,-1.0547027587890625,-0.4774627685546875,-0.02569580078125
1789757712593892900,6.734892822265625,-1.0397796630859375,-0.526397705078125,0.003387451171875
1789757712603903700,6.74490380859375,-1.0036468505859375,-0.397308349609375,0.0498046875
1789757712613914600,6.75491455078125,-0.9073944091796875,-0.4439239501953125,0.0573883056640625
1789757712623926000,6.764926025390625,-0.8473663330078125,-0.4073486328125,0.0920257568359375
1789757712633936000,6.774935791015625,-0.8077850341796875,-0.4204559326171875,0.119720458984375
1789757712643947000,6.784947021484375,-0.9068145751953125,-0.3632965087890625,0.0506591796875
1789757712653958000,6.7949580078125,-0.867401123046875,-0.4649658203125,0.0082550048828125
1789757712663968800,6.80496875,-0.790557861328125,-0.528656005859375,0.092041015625
1789757712673979000,6.814978759765625,-0.7028045654296875,-0.612823486328125,0.0749969482421875
1789757712683989800,6.82498974609375,-0.737335205078125,-0.478271484375,0.1519775390625
1789757712694000600,6.835000732421875,-0.8193817138671875,-0.49066162109375,0.0675811767578125
1789757712704012000,6.845011962890625,-0.9984588623046875,-0.3375701904296875,0.0596466064453125
1789757712714022000,6.85502197265625,-1.0749053955078125,-0.4003143310546875,0.04412841796875
1789757712724032800,6.86503271484375,-1.083099365234375,-0.2621307373046875,-0.047821044921875
1789757712734044000,6.8750439453125,-1.0152740478515625,-0.394378662109375,-0.10845947265625
1789757712744054800,6.8850546875,-0.9697723388671875,-0.384063720703125,-0.0178680419921875
1789757712754065000,6.89506494140625,-0.94873046875,-0.4239044189453125,0.0494842529296875
1789757712764075800,6.90507568359375,-0.9786376953125,-0.3802337646484375,0.065338134765625
1789757712774086700,6.915086669921875,-0.89093017578125,-0.3626251220703125,0.0209503173828125
1789757712784097800,6.925097900390625,-0.8712158203125,-0.32275390625,-0.104217529296875
1789757712794109000,6.93510888671875,-0.8739471435546875,-0.3265228271484375,-0.1070709228515625
1789757712804118800,6.945118896484375,-0.878662109375,-0.451934814453125,-0.0416259765625
1789757712814130000,6.9551298828125,-0.91033935546875,-0.4975128173828125,0.0162353515625
1789757712824140800,6.965140869140625,-0.99090576171875,-0.4223480224609375,0.06280517578125
1789757712834151700,6.975151611328125,-0.9976959228515625,-0.4014434814453125,0.1426544189453125
1789757712844161800,6.985161865234375,-0.91534423828125,-0.404998779296875,0.1156158447265625
1789757712854172700,6.995172607421875,-0.8574066162109375,-0.4155731201171875,0.017120361328125
1789757712864183800,7.005183837890625,-0.7544097900390625,-0.4573211669921875,-0.00677490234375
1789757712874195000,7.01519482421875,-0.6747589111328125,-0.5317535400390625,-0.0056915283203125
1789757712884204800,7.025204833984375,-0.7708892822265625,-0.4730682373046875,0.0648956298828125
1789757712894216000,7.0352158203125,-0.9769744873046875,-0.440887451171875,0.0802001953125
1789757712904226800,7.045226806640625,-1.104461669921875,-0.4467926025390625,0.0560760498046875
1789757712914237700,7.05523779296875,-1.08135986328125,-0.4872894287109375,0.0020599365234375
1789757712924247800,7.065247802734375,-0.973297119140625,-0.4358978271484375,-0.019287109375
1789757712934258700,7.0752587890625,-0.8322601318359375,-0.443634033203125,-0.045074462890625
1789757712944269800,7.085269775390625,-0.707183837890625,-0.5519561767578125,-0.0516204833984375
1789757712954281000,7.095281005859375,-0.8299102783203125,-0.3696746826171875,-0.0146026611328125
1789757712964291800,7.105291748046875,-0.9529876708984375,-0.34991455078125,0.0272674560546875
1789757712974301700,7.1153017578125,-0.8903045654296875,-0.522003173828125,0.0150299072265625
1789757712984312800,7.125312744140625,-0.92889404296875,-0.4255828857421875,0.0014801025390625
1789757712994323700,7.13532373046875,-0.9352569580078125,-0.3753662109375,-0.00909423828125
1789757713004334800,7.1453349609375,-0.912322998046875,-0.3939361572265625,0.022247314453125
1789757713014345000,7.155344970703125,-0.918731689453125,-0.39141845703125,-0.0100555419921875
1789757713024355800,7.16535595703125,-0.9152679443359375,-0.4077606201171875,0.0027618408203125
1789757713034366700,7.17536669921875,-0.955535888671875,-0.37982177734375,0.0298614501953125
1789757713044377900,7.1853779296875,-0.9893951416015625,-0.3745574951171875,0.006988525390625
1789757713054387700,7.1953876953125,-0.9713897705078125,-0.3858795166015625,0.0037841796875
1789757713064398800,7.20539892578125,-0.960968017578125,-0.3050079345703125,-0.0344696044921875
1789757713074409700,7.21540966796875,-0.876708984375,-0.3600616455078125,-0.0007171630859375
1789757713084420900,7.2254208984375,-0.79034423828125,-0.421722412109375,0.0107421875
1789757713094431000,7.235430908203125,-0.8018341064453125,-0.3840789794921875,-0.0007476806640625
1789757713104441900,7.24544189453125,-0.897308349609375,-0.411376953125,0.0015716552734375
1789757713114452700,7.25545263671875,-0.9451904296875,-0.4328765869140625,0.02783203125
1789757713124463900,7.2654638671875,-0.9583892822265625,-0.439666748046875,0.0339508056640625
1789757713134473700,7.2754736328125,-0.8143768310546875,-0.53759765625,0.025054931640625
1789757713144484900,7.28548486328125,-0.8883209228515625,-0.427764892578125,0.02252197265625
1789757713154495700,7.295495849609375,-0.9589080810546875,-0.37164306640625,0.002532958984375
1789757713164507000,7.3055068359375,-1.0418701171875,-0.3375396728515625,-0.0101318359375
1789757713174517800,7.315517822265625,-1.028900146484375,-0.41015625,-0.0435028076171875
1789757713184528000,7.32552783203125,-0.972625732421875,-0.4709930419921875,-0.045867919921875
1789757713194538800,7.335538818359375,-0.9720306396484375,-0.5041961669921875,0.00152587890625
1789757713204550000,7.3455498046875,-1.1180267333984375,-0.3318023681640625,0.046356201171875
1789757713214560800,7.355560791015625,-1.19677734375,-0.295257568359375,0.027801513671875
1789757713224570600,7.365570556640625,-0.9952850341796875,-0.417144775390625,0.019287109375
1789757713234581800,7.375581787109375,-0.76025390625,-0.4704437255859375,0.0540008544921875
1789757713244593000,7.385593017578125,-0.712310791015625,-0.471221923828125,0.076171875
1789757713254603800,7.395603759765625,-0.825042724609375,-0.4007720947265625,0.030242919921875
1789757713264614000,7.40561376953125,-0.906646728515625,-0.4010162353515625,0.054443359375
1789757713274624800,7.415624755859375,-0.91973876953125,-0.447967529296875,-0.0106964111328125
1789757713284636000,7.425635986328125,-0.9107666015625,-0.599212646484375,-0.035186767578125
1789757713294646800,7.435646728515625,-0.871490478515625,-0.572174072265625,0.0291900634765625
1789757713304656600,7.44565673828125,-0.9059600830078125,-0.1933441162109375,0.0236358642578125
1789757713314667800,7.455667724609375,-0.931793212890625,0.002899169921875,-0.0957794189453125
1789757713324679000,7.465678955078125,-0.9274444580078125,-0.1566009521484375,-0.072357177734375
1789757713334689800,7.475689697265625,-0.888397216796875,-0.4532318115234375,0.0680999755859375
1789757713344701000,7.485700927734375,-0.990234375,-0.510955810546875,-0.0176239013671875
1789757713354710800,7.495710693359375,-0.9670562744140625,-0.4377899169921875,-0.040283203125
1789757713364721700,7.5057216796875,-0.9665069580078125,-0.2119903564453125,-0.068572998046875
1789757713374732800,7.51573291015625,-0.845550537109375,-0.3084259033203125,-0.0038909912109375
1789757713384744000,7.525743896484375,-0.8101654052734375,-0.4535675048828125,0.10418701171875
1789757713394754000,7.535754150390625,-0.918212890625,-0.49298095703125,0.1049041748046875
1789757713404765000,7.545764892578125,-1.0150604248046875,-0.42041015625,0.0193634033203125
1789757713414775800,7.55577587890625,-1.044891357421875,-0.28900146484375,0.017730712890625
1789757713424786700,7.56578662109375,-1.0803985595703125,-0.2599945068359375,0.0408782958984375
1789757713434796800,7.575796875,-0.9039306640625,-0.4174957275390625,0.09222412109375
1789757713444807700,7.5858076171875,-0.77655029296875,-0.493743896484375,0.170318603515625
1789757713454818800,7.59581884765625,-0.7453765869140625,-0.467193603515625,0.089447021484375
1789757713464830000,7.605829833984375,-0.855621337890625,-0.314697265625,0.0087890625
1789757713474840800,7.6158408203125,-1.0768585205078125,-0.218597412109375,0.0046234130859375
1789757713484851000,7.625850830078125,-1.10675048828125,-0.360321044921875,0.080322265625
1789757713494861800,7.63586181640625,-1.073944091796875,-0.4221343994140625,0.146148681640625
1789757713504872700,7.645872802734375,-0.945037841796875,-0.4595794677734375,0.123291015625
1789757713514883800,7.6558837890625,-0.8729400634765625,-0.334320068359375,0.061553955078125
1789757713524893700,7.665893798828125,-0.8765106201171875,-0.2885589599609375,0.056396484375
1789757713534904800,7.67590478515625,-0.8457489013671875,-0.295501708984375,0.08062744140625
1789757713544916000,7.685916015625,-0.82452392578125,-0.4563446044921875,0.095977783203125
1789757713554926800,7.6959267578125,-0.9202880859375,-0.42657470703125,0.0686187744140625
1789757713564937000,7.70593701171875,-0.9434661865234375,-0.3654937744140625,0.02215576171875
1789757713574947800,7.71594775390625,-0.92913818359375,-0.3963165283203125,0.013336181640625
1789757713584959200,7.725959228515625,-0.944305419921875,-0.3356475830078125,0.05999755859375
1789757713594970000,7.73597021484375,-0.97412109375,-0.436431884765625,0.094512939453125
1789757713604980200,7.745980224609375,-1.156341552734375,-0.3514556884765625,0.0693817138671875
1789757713614991000,7.7559912109375,-1.1327667236328125,-0.3545684814453125,0.043487548828125
1789757713625002200,7.766002197265625,-0.88482666015625,-0.4878387451171875,0.0493621826171875
1789757713635013000,7.77601318359375,-0.76788330078125,-0.374664306640625,0.1029052734375
1789757713645023200,7.786023193359375,-0.7276153564453125,-0.37548828125,0.14715576171875
1789757713655034400,7.796034423828125,-0.7801055908203125,-0.3858489990234375,0.08245849609375
1789757713665045200,7.806045166015625,-0.8299713134765625,-0.28179931640625,0.040313720703125
1789757713675056000,7.81605615234375,-0.87774658203125,-0.24432373046875,0.0735931396484375
1789757713685067300,7.8260673828125,-0.885223388671875,-0.277130126953125,0.073638916015625
1789757713695077000,7.8360771484375,-0.952362060546875,-0.3241424560546875,0.0950775146484375
1789757713705088300,7.846088134765625,-0.9728240966796875,-0.3926849365234375,0.1297607421875
1789757713715099100,7.85609912109375,-0.9921722412109375,-0.337371826171875,0.114044189453125
1789757713725110300,7.8661103515625,-1.053253173828125,-0.30029296875,0.112762451171875
1789757713735120400,7.876120361328125,-0.9810791015625,-0.3433074951171875,0.1086578369140625
1789757713745131300,7.88613134765625,-0.92059326171875,-0.3744659423828125,0.111419677734375
1789757713755142100,7.89614208984375,-0.88983154296875,-0.384674072265625,0.113739013671875
1789757713765153300,7.9061533203125,-0.898193359375,-0.3840179443359375,0.080657958984375
1789757713775163100,7.9161630859375,-0.9394073486328125,-0.4177093505859375,-0.0127105712890625
1789757713785174000,7.926174072265625,-1.0021209716796875,-0.4087982177734375,0.021636962890625
1789757713795185200,7.93618505859375,-0.944000244140625,-0.269683837890625,0.1109161376953125
1789757713805196300,7.9461962890625,-0.827056884765625,-0.314910888671875,0.1976776123046875
1789757713815207200,7.956207275390625,-0.7174835205078125,-0.4139556884765625,0.1942138671875
1789757713825217300,7.96621728515625,-0.7717132568359375,-0.3350677490234375,-0.0077972412109375
1789757713835228200,7.976228271484375,-0.843231201171875,-0.476409912109375,-0.1683807373046875
1789757713845239000,7.986239013671875,-0.9473419189453125,-0.4666900634765625,-0.106689453125
1789757713855250200,7.996250244140625,-1.0920257568359375,-0.49090576171875,0.0113677978515625
1789757713865260000,8.006260009765626,-1.088287353515625,-0.66363525390625,0.079833984375
1789757713875271200,8.016271240234374,-0.9907073974609375,-0.5686798095703125,0.1314544677734375
1789757713885282300,8.0262822265625,-0.836761474609375,-0.4630584716796875,0.086273193359375
1789757713895293200,8.036293212890625,-0.82818603515625,-0.31341552734375,0.0050811767578125
1789757713905303300,8.04630322265625,-0.85296630859375,-0.28497314453125,-0.0039215087890625
1789757713915314200,8.056314208984375,-0.9153594970703125,-0.314666748046875,0.03155517578125
1789757713925325000,8.066324951171875,-1.002838134765625,-0.3798980712890625,0.1029815673828125
1789757713935336200,8.076336181640626,-0.9925689697265625,-0.378631591796875,0.1047210693359375
1789757713945346000,8.086345947265626,-1.1868743896484375,-0.26068115234375,0.0627593994140625
1789757713955357200,8.096357177734374,-1.51904296875,-0.2602386474609375,0.11279296875
1789757713965368300,8.106368408203124,-1.6448974609375,-0.233856201171875,0.062469482421875
1789757713975379200,8.116379150390625,-1.266632080078125,-0.4896087646484375,0.008514404296875
1789757713985390000,8.12639013671875,-0.6533050537109375,-0.6148834228515625,0.0406951904296875
1789757713995400200,8.136400146484375,-0.3007965087890625,-0.5893707275390625,0.1039276123046875
1789757714005411000,8.1464111328125,-0.181060791015625,-0.572052001953125,0.1088714599609375
1789757714015422200,8.156422119140625,-0.5072021484375,-0.3711700439453125,0.124725341796875
1789757714025433300,8.166433349609376,-0.9196624755859375,-0.25579833984375,0.099700927734375
1789757714035443200,8.176443115234376,-1.1910858154296875,-0.31451416015625,0.0848236083984375
1789757714045454300,8.186454345703124,-1.12847900390625,-0.407012939453125,0.10546875
1789757714055465200,8.19646533203125,-0.904541015625,-0.4379119873046875,0.0778045654296875
1789757714065476000,8.20647607421875,-0.7171173095703125,-0.4647979736328125,0.027130126953125
1789757714075486200,8.216486328125,-0.625396728515625,-0.416168212890625,0.030181884765625
1789757714085497000,8.2264970703125,-0.75189208984375,-0.3004608154296875,0.0623016357421875
1789757714095508200,8.23650830078125,-0.8822479248046875,-0.4729766845703125,0.020782470703125
1789757714105519400,8.246519287109376,-1.0677642822265625,-0.4626617431640625,0.0096435546875
1789757714115529200,8.256529296875,-1.1627044677734375,-0.484375,-0.027923583984375
1789757714125540400,8.266540283203126,-1.0646209716796875,-0.4881591796875,-0.060821533203125
1789757714135551200,8.27655126953125,-0.9473114013671875,-0.410980224609375,-0.032196044921875
1789757714145562000,8.28656201171875,-0.7743072509765625,-0.4691009521484375,-0.0657196044921875
1789757714155573200,8.2965732421875,-0.7897796630859375,-0.3936004638671875,-0.02996826171875
1789757714165583000,8.3065830078125,-0.7796783447265625,-0.4882965087890625,-0.001495361328125
1789757714175594000,8.316593994140625,-0.897216796875,-0.440521240234375,0.0000457763671875
1789757714185605400,8.32660546875,-1.016937255859375,-0.4644622802734375,0.0535736083984375
1789757714195616300,8.3366162109375,-1.0958099365234375,-0.335205078125,0.0222625732421875
1789757714205626400,8.34662646484375,-1.0297088623046875,-0.3551483154296875,0.01416015625
1789757714215637200,8.35663720703125,-0.9933624267578125,-0.351654052734375,-0.01092529296875
1789757714225648000,8.366648193359374,-0.90081787109375,-0.348785400390625,0.0264892578125
1789757714235659000,8.376658935546875,-0.806365966796875,-0.417022705078125,0.0590667724609375
1789757714245669000,8.386669189453125,-0.813720703125,-0.4220123291015625,0.0638580322265625
1789757714255680000,8.396679931640625,-0.6565093994140625,-0.4046478271484375,0.056427001953125
1789757714265691400,8.40669140625,-0.6547698974609375,-0.49560546875,0.0385284423828125
1789757714275702300,8.416702392578125,-0.8729705810546875,-0.2979888916015625,-0.0166015625
1789757714285712100,8.426712158203125,-1.1427001953125,-0.3314056396484375,-0.0226593017578125
1789757714295723300,8.43672314453125,-1.2483978271484375,-0.3277130126953125,0.03179931640625
1789757714305734100,8.446734130859374,-1.119140625,-0.4656829833984375,-0.013275146484375
1789757714315745000,8.4567451171875,-0.854248046875,-0.6253814697265625,0.0421905517578125
1789757714325756400,8.46675634765625,-0.7588653564453125,-0.52191162109375,0.0704345703125
1789757714335766000,8.47676611328125,-0.7995758056640625,-0.513763427734375,0.1046142578125
1789757714345777200,8.486777099609375,-0.8457489013671875,-0.5192108154296875,0.1798858642578125
1789757714355788300,8.496788330078125,-1.0049896240234375,-0.4109954833984375,0.1893463134765625
1789757714365799200,8.506799072265625,-1.0980682373046875,-0.2722625732421875,0.09051513671875
1789757714375809300,8.516809326171876,-1.0482330322265625,-0.220306396484375,0.0193023681640625
1789757714385820200,8.526820068359376,-0.954437255859375,-0.3225555419921875,-0.034027099609375
1789757714395831000,8.5368310546875,-0.957000732421875,-0.1865386962890625,0.0237274169921875
1789757714405842400,8.546842529296875,-0.8799896240234375,-0.3565673828125,0.06658935546875
1789757714415852300,8.556852294921875,-0.8909759521484375,-0.3083953857421875,0.083282470703125
1789757714425863200,8.56686328125,-0.8568115234375,-0.3308868408203125,0.0840301513671875
1789757714435874300,8.576874267578125,-0.857330322265625,-0.31298828125,0.0564727783203125
1789757714445885200,8.58688525390625,-0.8606414794921875,-0.3918609619140625,0.0481109619140625
1789757714455896000,8.59689599609375,-0.915252685546875,-0.39605712890625,0.0552520751953125
1789757714465906200,8.60690625,-0.9440765380859375,-0.3882598876953125,0.0226593017578125
1789757714475917000,8.6169169921875,-0.925628662109375,-0.4298858642578125,0.002227783203125
1789757714485928200,8.62692822265625,-0.9089813232421875,-0.395233154296875,0.0034332275390625
1789757714495939300,8.636939208984375,-0.8619232177734375,-0.3953857421875,0.016693115234375
1789757714505949200,8.64694921875,-0.7952423095703125,-0.486480712890625,0.0523834228515625
1789757714515960300,8.656960205078125,-0.8177490234375,-0.4084930419921875,-0.0022735595703125
1789757714525971200,8.66697119140625,-0.975341796875,-0.314117431640625,-0.05035400390625
1789757714535982000,8.676982177734375,-1.022613525390625,-0.341461181640625,-0.0302276611328125
1789757714545992200,8.6869921875,-1.0209808349609375,-0.460174560546875,-0.0845794677734375
1789757714556003000,8.697003173828126,-0.9848175048828125,-0.461029052734375,-0.0070037841796875
1789757714566014200,8.70701416015625,-0.86358642578125,-0.5848541259765625,0.0430450439453125
1789757714576025300,8.717025390625,-0.9270172119140625,-0.4569091796875,0.0269317626953125
1789757714586034400,8.727034423828124,-0.99810791015625,-0.2631072998046875,0.0375518798828125
1789757714596045600,8.737045654296875,-0.87310791015625,-0.4459075927734375,0.0107879638671875
1789757714606056400,8.747056396484375,-0.78265380859375,-0.4686279296875,0.0500335693359375
1789757714616067600,8.757067626953125,-0.7300567626953125,-0.47296142578125,0.080474853515625
1789757714626078700,8.76707861328125,-0.726226806640625,-0.58917236328125,0.053619384765625
1789757714636088600,8.777088623046875,-0.9765625,-0.2663421630859375,0.03314208984375
1789757714646099500,8.787099365234376,-1.0306854248046875,-0.2648468017578125,0.0505828857421875
1789757714656110600,8.797110595703124,-0.956329345703125,-0.5168609619140625,0.033203125
1789757714666121500,8.80712158203125,-0.9427337646484375,-0.5009307861328125,0.112060546875
1789757714676131600,8.817131591796874,-0.8856048583984375,-0.550048828125,0.16827392578125
1789757714686142700,8.827142822265625,-0.8773040771484375,-0.5083465576171875,0.11181640625
1789757714696153600,8.837153564453125,-0.9416046142578125,-0.35211181640625,0.05633544921875
1789757714706164500,8.84716455078125,-0.9280242919921875,-0.3944091796875,0.0555267333984375
1789757714716174600,8.857174560546875,-0.921600341796875,-0.3624420166015625,0.07586669921875
1789757714726185500,8.867185546875,-0.8433380126953125,-0.4398040771484375,0.0599365234375
1789757714736196600,8.877196533203126,-0.80462646484375,-0.434356689453125,0.0272064208984375
1789757714746207500,8.88720751953125,-0.7881927490234375,-0.4403533935546875,0.0051422119140625
1789757714756218600,8.897218505859374,-0.8094940185546875,-0.461578369140625,0.0009307861328125
1789757714766228700,8.907228759765625,-0.852996826171875,-0.452789306640625,0.0445098876953125
1789757714776239600,8.917239501953125,-0.9868316650390625,-0.4082489013671875,0.0168304443359375
1789757714786250500,8.92725048828125,-1.0652313232421875,-0.3650360107421875,-0.00018310546875
1789757714796261600,8.93726171875,-1.040863037109375,-0.4040985107421875,0.0099639892578125
1789757714806271500,8.947271484375,-0.988006591796875,-0.3842926025390625,0.02532958984375
1789757714816282600,8.95728271484375,-0.91778564453125,-0.4195709228515625,0.0391387939453125
1789757714826293500,8.96729345703125,-0.85296630859375,-0.4308929443359375,0.038360595703125
1789757714836304600,8.9773046875,-0.809814453125,-0.4921417236328125,0.043792724609375
1789757714846314800,8.987314697265624,-0.8668212890625,-0.4394073486328125,0.06494140625
1789757714856325600,8.99732568359375,-0.8697357177734375,-0.470611572265625,0.0467987060546875
1789757714866336500,9.00733642578125,-0.8671112060546875,-0.5037384033203125,0.0972442626953125
1789757714876347600,9.01734765625,-0.8920745849609375,-0.428314208984375,0.0959930419921875
1789757714886357500,9.027357421875,-0.9427490234375,-0.36151123046875,0.080291748046875
1789757714896368400,9.037368408203125,-1.0009613037109375,-0.359649658203125,0.0966949462890625
1789757714906379500,9.047379638671876,-1.0016021728515625,-0.3605194091796875,0.080810546875
1789757714916390700,9.057390625,-0.95947265625,-0.3752288818359375,0.068206787109375
1789757714926401500,9.067401611328124,-0.902008056640625,-0.432586669921875,0.0522308349609375
1789757714936411600,9.07741162109375,-0.8389739990234375,-0.4414215087890625,0.0579681396484375
1789757714946422500,9.087422607421875,-0.81451416015625,-0.42755126953125,0.0043792724609375
1789757714956433400,9.097433349609375,-0.8410797119140625,-0.4132080078125,0.0641326904296875
1789757714966444500,9.107444580078125,-0.9360504150390625,-0.373687744140625,0.111785888671875
1789757714976454400,9.117454345703125,-1.055633544921875,-0.3060760498046875,0.0492095947265625
1789757714986465500,9.127465576171875,-0.9714813232421875,-0.4869232177734375,0.0256500244140625
1789757714996476700,9.1374765625,-0.9046173095703125,-0.4803314208984375,0.0115509033203125
1789757715006487600,9.147487548828124,-1.010833740234375,-0.3375396728515625,0.0224609375
1789757715016497700,9.15749755859375,-0.886199951171875,-0.456573486328125,0.1112213134765625
1789757715026508500,9.167508544921875,-0.8643035888671875,-0.34820556640625,0.1069488525390625
1789757715036519400,9.17751953125,-0.7774658203125,-0.3869781494140625,0.0843048095703125
1789757715046530600,9.187530517578125,-0.7744140625,-0.4033355712890625,0.0035552978515625
1789757715056541700,9.197541748046875,-0.8718414306640625,-0.4194793701171875,-0.032562255859375
1789757715066551800,9.2075517578125,-0.9879302978515625,-0.42608642578125,-0.003326416015625
1789757715076562700,9.217562744140626,-1.0504608154296875,-0.402252197265625,0.09173583984375
1789757715086573600,9.227573486328126,-0.951141357421875,-0.4381256103515625,0.1251220703125
1789757715096584400,9.23758447265625,-0.814544677734375,-0.4565582275390625,0.0914764404296875
1789757715106594600,9.247594482421874,-0.7125091552734375,-0.4860687255859375,0.0908966064453125
1789757715116605400,9.25760546875,-0.789276123046875,-0.3734893798828125,0.078643798828125
1789757715126616600,9.267616455078125,-0.9083404541015625,-0.372802734375,0.0202178955078125
1789757715136627700,9.277627685546875,-1.0648193359375,-0.292236328125,0.06097412109375
1789757715146637600,9.287637451171875,-1.1092071533203125,-0.386322021484375,0.1315155029296875
1789757715156648700,9.297648681640625,-1.0864105224609375,-0.3039703369140625,0.1612701416015625
1789757715166659600,9.30765966796875,-0.906463623046875,-0.4762115478515625,0.15106201171875
1789757715176670500,9.31767041015625,-0.8271484375,-0.3864898681640625,0.1444091796875
1789757715186681600,9.327681640625,-0.8135528564453125,-0.4411773681640625,0.113525390625
1789757715196691500,9.33769140625,-0.949951171875,-0.3207244873046875,0.0831146240234375
1789757715207328500,9.34832861328125,-0.965972900390625,-0.417999267578125,0.0458831787109375
1789757715217339400,9.35833935546875,-1.0214385986328125,-0.448699951171875,0.0603790283203125
1789757715227349500,9.368349609375,-1.039215087890625,-0.431182861328125,0.0958251953125
1789757715237360400,9.3783603515625,-0.9895172119140625,-0.3543701171875,0.127838134765625
1789757715247371800,9.388371826171875,-0.7567901611328125,-0.3310394287109375,0.079925537109375
1789757715257382700,9.398382568359375,-0.3493499755859375,-0.5377349853515625,-0.001800537109375
1789757715267392500,9.408392578125,0.060028076171875,-0.6691741943359375,0.0168304443359375
1789757715277403600,9.418403564453126,-0.3436431884765625,-0.41607666015625,0.055999755859375
1789757715287414500,9.42841455078125,-2.21832275390625,0.2352447509765625,0.1139068603515625
1789757715297425400,9.43842529296875,-3.202362060546875,0.300262451171875,-0.0682373046875
1789757715307435500,9.448435546875,-2.1151885986328125,-0.49664306640625,-0.0874481201171875
1789757715317446400,9.4584462890625,-0.464599609375,-0.9820098876953125,0.046600341796875
1789757715327457800,9.468457763671875,0.26123046875,-0.729461669921875,0.0783843994140625
1789757715337468700,9.47846875,0.3377685546875,-0.4166259765625,-0.013153076171875
1789757715347478500,9.488478515625,-0.140289306640625,-0.227508544921875,0.022918701171875
1789757715357489700,9.49848974609375,-1.0919647216796875,-0.241363525390625,0.0464324951171875
1789757715367500500,9.50850048828125,-1.4569549560546875,-0.553070068359375,0.127899169921875
1789757715377511400,9.518511474609374,-1.7698516845703125,-0.432403564453125,0.12188720703125
1789757715387522600,9.5285224609375,-1.418670654296875,-0.5130767822265625,0.11529541015625
1789757715397532400,9.538532470703124,-0.852203369140625,-0.308441162109375,0.0551300048828125
1789757715407543600,9.54854345703125,-0.5943603515625,-0.3057861328125,0.119171142578125
1789757715417554700,9.5585546875,-0.661865234375,-0.36865234375,0.0953521728515625
1789757715427565600,9.568565673828125,-0.941162109375,-0.3909759521484375,-0.0480499267578125
1789757715437575700,9.57857568359375,-1.0433349609375,-0.40521240234375,-0.09808349609375
1789757715447586600,9.588586669921876,-0.966522216796875,-0.4498443603515625,-0.0256500244140625
1789757715457597400,9.598597412109376,-0.8821868896484375,-0.3887481689453125,0.142059326171875
1789757715467608600,9.608608642578124,-0.7504425048828125,-0.4278106689453125,0.16107177734375
1789757715477618400,9.618618408203124,-0.8439483642578125,-0.3798065185546875,0.0625
1789757715487629600,9.628629638671875,-0.9698028564453125,-0.3968048095703125,-0.0161895751953125
1789757715497640700,9.638640625,-0.93048095703125,-0.566497802734375,-0.1132354736328125
1789757715507651600,9.648651611328125,-0.885284423828125,-0.6160888671875,-0.02740478515625
1789757715517662500,9.658662353515625,-0.8545379638671875,-0.40875244140625,0.1119232177734375
1789757715527672600,9.668672607421875,-0.9052581787109375,-0.360931396484375,0.113372802734375
1789757715537683500,9.678683349609376,-0.9882659912109375,-0.2831878662109375,0.1280364990234375
1789757715548320500,9.689320556640626,-1.0867156982421875,-0.402435302734375,0.0002593994140625
1789757715558330600,9.69933056640625,-1.09210205078125,-0.4357147216796875,-0.157318115234375
1789757715568341500,9.709341552734376,-1.034912109375,-0.5137939453125,-0.172393798828125
1789757715578353000,9.719352783203124,-1.051971435546875,-0.389739990234375,-0.0484771728515625
1789757715588363800,9.72936376953125,-0.769378662109375,-0.51422119140625,0.0464019775390625
1789757715598374000,9.739373779296875,-0.842041015625,-0.36517333984375,0.1251373291015625
1789757715608384800,9.749384765625,-0.9683990478515625,-0.267242431640625,-0.0164794921875
1789757715618396000,9.75939599609375,-1.1227874755859375,-0.1064453125,-0.1478118896484375
1789757715628406800,9.76940673828125,-0.880645751953125,-0.1249542236328125,-0.1009368896484375
1789757715638416600,9.779416748046875,-0.2655029296875,-1.1408843994140625,-0.0160980224609375
1789757715648427800,9.789427734375,-0.4298248291015625,-1.300018310546875,0.173736572265625
1789757715658439000,9.79943896484375,-1.1714019775390625,-0.667999267578125,0.2314300537109375
1789757715668449800,9.80944970703125,-1.6186981201171875,-0.0724945068359375,0.026641845703125
1789757715678461000,9.8194609375,-1.33135986328125,0.0498504638671875,0.00445556640625
1789757715688470800,9.829470703125,-0.8376312255859375,-0.0934906005859375,0.0684967041015625
1789757715698482000,9.83948193359375,-0.3091583251953125,-0.44512939453125,0.0792388916015625
1789757715708492800,9.849492919921875,-0.3235321044921875,-0.7551422119140625,0.05206298828125
1789757715718503700,9.859503662109375,-0.8571929931640625,-0.4467010498046875,0.1209259033203125
1789757715728513800,9.869513671875,-1.2545166015625,-0.2427520751953125,0.1230316162109375
1789757715738525000,9.87952490234375,-1.161285400390625,-0.27203369140625,0.211395263671875
1789757715748535800,9.889535888671874,-1.1588592529296875,-0.4198150634765625,0.09710693359375
1789757715758547000,9.899546875,-1.1302490234375,-0.6236419677734375,0.00994873046875
1789757715768557800,9.909557861328125,-0.9927825927734375,-0.6041412353515625,-0.1387939453125
1789757715778567700,9.919567626953125,-0.7562713623046875,-0.3588714599609375,-0.0529937744140625
1789757715788578800,9.929578857421875,-0.600341796875,-0.294342041015625,0.1708831787109375
1789757715798589700,9.939589599609375,-0.7711639404296875,-0.2750244140625,0.1711273193359375
1789757715808600800,9.949600830078126,-0.897003173828125,-0.3928375244140625,0.1009521484375
1789757715818611000,9.95961083984375,-1.07745361328125,-0.4654541015625,-0.0346832275390625
1789757715828621800,9.969621826171876,-1.1206512451171875,-0.365814208984375,-0.072418212890625
1789757715838632700,9.9796328125,-0.99725341796875,-0.3015899658203125,0.08111572265625
1789757715848643800,9.989643798828125,-0.8588714599609375,-0.463470458984375,0.0850830078125
1789757715858653700,9.99965380859375,-0.805084228515625,-0.413238525390625,0.05047607421875
1789757715868664800,10.009664794921875,-0.85198974609375,-0.474822998046875,-0.0727996826171875
1789757715878675700,10.01967578125,-0.947967529296875,-0.34295654296875,0.0118560791015625
1789757715888686800,10.029686767578125,-0.966583251953125,-0.34765625,0.016326904296875
1789757715898697700,10.03969775390625,-0.867156982421875,-0.4198760986328125,0.045135498046875
1789757715908707800,10.049707763671876,-0.6923065185546875,-0.52325439453125,0.0167388916015625
1789757715918718700,10.05971875,-0.5485687255859375,-0.65618896484375,0.0901336669921875
1789757715928729900,10.069729736328124,-0.8343658447265625,-0.3553466796875,-0.031097412109375
1789757715938740700,10.07974072265625,-0.972320556640625,-0.3639678955078125,0.0301513671875
1789757715948750800,10.089750732421875,-1.199920654296875,-0.3152618408203125,0.010894775390625
1789757715958762000,10.099761962890625,-1.1983642578125,-0.358001708984375,0.0551910400390625
1789757715968772900,10.10977294921875,-1.20196533203125,-0.359588623046875,0.140350341796875
1789757715978783700,10.11978369140625,-0.857330322265625,-0.532379150390625,0.0543670654296875
1789757715988793900,10.1297939453125,-0.7028961181640625,-0.3735809326171875,-0.040740966796875
1789757715998804700,10.1398046875,-0.740631103515625,-0.3291473388671875,0.0189971923828125
1789757716008815900,10.14981591796875,-0.8671875,-0.2896575927734375,0.0611572265625
1789757716018826800,10.15982666015625,-0.8588714599609375,-0.36383056640625,0.032501220703125
1789757716028838000,10.169837890625,-0.8299102783203125,-0.449951171875,0.1065673828125
1789757716038848000,10.179847900390625,-0.7874755859375,-0.5662689208984375,0.12420654296875
1789757716048859000,10.18985888671875,-0.968994140625,-0.3436279296875,0.018798828125
1789757716058869800,10.199869873046875,-1.0845184326171875,-0.2907867431640625,-0.011322021484375
1789757716068881000,10.209880859375,-0.9901885986328125,-0.388214111328125,0.117584228515625
1789757716078890800,10.219890869140626,-0.994354248046875,-0.2596282958984375,0.155242919921875
1789757716088901600,10.229901611328126,-0.8216400146484375,-0.47479248046875,0.1103363037109375
1789757716098912800,10.239912841796874,-0.8844146728515625,-0.229217529296875,0.155853271484375
1789757716108924000,10.249923828125,-0.843841552734375,-0.3428802490234375,0.0877838134765625
1789757716118934000,10.25993408203125,-0.5022735595703125,-0.8007659912109375,0.1782073974609375
1789757716128945000,10.26994482421875,-0.7324981689453125,-0.473480224609375,0.1353302001953125
1789757716138955800,10.279955810546875,-1.037506103515625,-0.53753662109375,0.0579376220703125
1789757716148967000,10.289966796875,-1.3732757568359375,0.0045166015625,0.0547637939453125
1789757716158977800,10.299977783203126,-1.3776702880859375,-0.0870819091796875,0.0334625244140625
1789757716168987600,10.309987548828126,-1.01165771484375,-0.3365936279296875,0.162933349609375
1789757716178998800,10.319998779296874,-0.6641387939453125,-0.717376708984375,0.2184295654296875
1789757716189010000,10.330010009765624,-0.836212158203125,-0.4182891845703125,0.1537017822265625
1789757716199020800,10.340020751953125,-0.817138671875,-0.4446563720703125,0.0297393798828125
1789757716209031000,10.350031005859375,-1.0047760009765625,-0.1392822265625,-0.106597900390625
1789757716219041800,10.360041748046875,-0.9549102783203125,-0.295135498046875,0.00103759765625
1789757716229052700,10.370052734375,-0.9890594482421875,-0.3445892333984375,0.12054443359375
1789757716239063800,10.380063720703125,-0.9488067626953125,-0.5396881103515625,0.0314178466796875
1789757716249075000,10.390074951171876,-0.8868865966796875,-0.5146026611328125,0.0048980712890625
1789757716259084800,10.400084716796876,-0.856658935546875,-0.4111480712890625,0.0101318359375
1789757716269096000,10.410095947265624,-0.87554931640625,-0.2905426025390625,0.0673370361328125
1789757716279106800,10.42010693359375,-0.7571563720703125,-0.5352783203125,0.0802001953125
1789757716289117700,10.43011767578125,-0.8988800048828125,-0.3371734619140625,0.0344696044921875
1789757716299127800,10.4401279296875,-0.8688812255859375,-0.4217071533203125,0.0514678955078125
1789757716309138700,10.450138671875,-0.84844970703125,-0.5156097412109375,0.102874755859375
1789757716319149800,10.46014990234375,-0.8435211181640625,-0.3664093017578125,0.0651702880859375
1789757716329161000,10.470160888671876,-0.917449951171875,-0.3551483154296875,0.08819580078125
1789757716339170800,10.4801708984375,-0.9393768310546875,-0.403656005859375,0.1318206787109375
1789757716349182000,10.490181884765626,-0.9215850830078125,-0.4633026123046875,0.1681671142578125
1789757716359192800,10.50019287109375,-0.9989013671875,-0.40814208984375,0.0777740478515625
1789757716369203700,10.51020361328125,-0.88555908203125,-0.46331787109375,-0.015594482421875
1789757716379214800,10.52021484375,-1.0049896240234375,-0.37054443359375,0.0491790771484375
1789757716389224700,10.530224609375,-1.1131591796875,-0.4001007080078125,0.1094512939453125
1789757716399235800,10.54023583984375,-1.1407470703125,-0.335418701171875,0.142120361328125
1789757716409247000,10.5502470703125,-0.9644775390625,-0.5603485107421875,0.0051422119140625
1789757716419257900,10.5602578125,-0.7789306640625,-0.510955810546875,-0.012359619140625
1789757716429268000,10.57026806640625,-0.58575439453125,-0.5821380615234375,-0.00970458984375
1789757716439278800,10.58027880859375,-0.5944366455078125,-0.469024658203125,-0.03692626953125
1789757716449289700,10.590289794921874,-0.771331787109375,-0.3944549560546875,-0.007171630859375
1789757716459300900,10.60030078125,-0.932037353515625,-0.3499298095703125,-0.055206298828125
1789757716469310700,10.610310791015625,-0.8298797607421875,-0.56182861328125,-0.1332550048828125
1789757716479321600,10.620321533203125,-0.9876251220703125,-0.394775390625,-0.093994140625
1789757716489333000,10.6303330078125,-1.1162109375,-0.2434234619140625,-0.0389404296875
1789757716499344000,10.64034375,-0.979217529296875,-0.373809814453125,-0.0689849853515625
1789757716509354800,10.650354736328126,-0.8251190185546875,-0.5944366455078125,-0.0877532958984375
1789757716519364900,10.66036474609375,-0.81219482421875,-0.4857330322265625,-0.0953826904296875
1789757716529375700,10.670375732421874,-0.839691162109375,-0.5611419677734375,-0.08587646484375
1789757716539386600,10.68038671875,-0.9572906494140625,-0.4359283447265625,-0.047119140625
1789757716549397800,10.690397705078125,-1.0998687744140625,-0.2238616943359375,0.028289794921875
1789757716559407600,10.70040771484375,-0.82940673828125,-0.4677886962890625,0.0948638916015625
1789757716569419000,10.7104189453125,-0.6779937744140625,-0.4164276123046875,0.0518646240234375
1789757716579430100,10.72043017578125,-0.6646728515625,-0.5219268798828125,0.0323944091796875
1789757716589441300,10.730441162109376,-0.9765777587890625,-0.3166046142578125,-0.0177764892578125
1789757716599452200,10.7404521484375,-1.1088104248046875,-0.36846923828125,0.0838165283203125
1789757716609462300,10.750462158203124,-1.0076904296875,-0.550079345703125,0.0479736328125
1789757716619473200,10.76047314453125,-1.057708740234375,-0.4394073486328125,0.0956268310546875
1789757716629484300,10.770484375,-0.965362548828125,-0.400238037109375,0.1747894287109375
1789757716639495200,10.7804951171875,-0.9199981689453125,-0.2979583740234375,0.110443115234375
1789757716649505000,10.790505126953125,-0.8296661376953125,-0.3848114013671875,0.0910797119140625
1789757716659516200,10.80051611328125,-0.8011322021484375,-0.50091552734375,0.1279296875
1789757716669527300,10.81052734375,-0.931396484375,-0.4169769287109375,0.0725555419921875
1789757716679538200,10.8205380859375,-0.9235992431640625,-0.3996734619140625,0.082489013671875
1789757716689548300,10.83054833984375,-0.843292236328125,-0.3843994140625,0.03729248046875
1789757716699559200,10.84055908203125,-0.76361083984375,-0.41607666015625,0.033416748046875
1789757716709570000,10.850570068359374,-0.7310943603515625,-0.4760284423828125,-0.0262451171875
1789757716719581200,10.860581298828125,-0.7965545654296875,-0.4999542236328125,-0.08056640625
1789757716729592000,10.870592041015625,-0.9805908203125,-0.3867034912109375,-0.0238189697265625
1789757716739602200,10.880602294921875,-1.10650634765625,-0.2256011962890625,-0.0667877197265625
1789757716749613300,10.89061328125,-0.9414825439453125,-0.484405517578125,-0.0121612548828125
1789757716759624200,10.900624267578126,-0.925018310546875,-0.44268798828125,0.0130462646484375
1789757716769635300,10.91063525390625,-0.870391845703125,-0.542388916015625,-0.0391082763671875
1789757716779645200,10.920645263671876,-0.8969879150390625,-0.46087646484375,-0.0138092041015625
1789757716789656000,10.930656005859374,-0.9499969482421875,-0.3122406005859375,-0.021392822265625
1789757716799667200,10.940667236328125,-0.973175048828125,-0.179168701171875,-0.0271148681640625
1789757716809678000,10.950677978515625,-0.7876739501953125,-0.4774932861328125,0.0716400146484375
1789757716819689200,10.960689208984375,-0.8037872314453125,-0.4165496826171875,0.0485382080078125
1789757716829699300,10.97069921875,-0.801177978515625,-0.455169677734375,0.10113525390625
1789757716839710200,10.980710205078125,-0.8943939208984375,-0.402374267578125,0.10406494140625
1789757716849721000,10.99072119140625,-1.0869293212890625,-0.1674041748046875,0.0903167724609375
1789757716859732200,11.000732177734376,-1.003326416015625,-0.3777923583984375,0.12078857421875
1789757716869742000,11.0107421875,-0.96551513671875,-0.4063720703125,0.105377197265625
1789757716879753200,11.020753173828124,-0.8516845703125,-0.464447021484375,0.1614990234375
1789757716889764400,11.030764404296875,-0.818878173828125,-0.4405975341796875,0.09588623046875
1789757716899775200,11.040775146484375,-0.8730316162109375,-0.3299560546875,0.097076416015625
1789757716909786000,11.0507861328125,-0.849029541015625,-0.3657073974609375,0.1504364013671875
1789757716919796200,11.060796142578125,-0.78997802734375,-0.40899658203125,0.0462646484375
1789757716929807000,11.07080712890625,-1.0091094970703125,-0.3365478515625,-0.016265869140625
1789757716939818200,11.080818359375,-1.0165557861328125,-0.467132568359375,0.054351806640625
1789757716949829000,11.0908291015625,-1.0869598388671875,-0.3216552734375,0.07672119140625
1789757716959839200,11.100839111328124,-0.953887939453125,-0.412445068359375,0.0193939208984375
1789757716969850400,11.110850341796874,-0.8509521484375,-0.4979095458984375,-0.0565338134765625
1789757716979861200,11.120861328125,-0.8572540283203125,-0.3647613525390625,-0.0838775634765625
1789757716989872000,11.1308720703125,-0.8355560302734375,-0.3208160400390625,-0.0792694091796875
1789757716999882200,11.14088232421875,-0.8594207763671875,-0.3393096923828125,-0.0431060791015625
1789757717009893000,11.15089306640625,-0.9157867431640625,-0.45172119140625,-0.000335693359375
1789757717019904300,11.160904296875,-0.932647705078125,-0.462310791015625,-0.0362396240234375
1789757717029915100,11.1709150390625,-0.9476165771484375,-0.44189453125,-0.0401458740234375
1789757717039926300,11.18092626953125,-0.932525634765625,-0.3681182861328125,-0.0173492431640625
1789757717049936400,11.190936279296874,-0.8590240478515625,-0.3996124267578125,-0.006866455078125
1789757717059947300,11.200947265625,-0.745025634765625,-0.5072784423828125,0.0308074951171875
1789757717069958100,11.210958251953125,-0.3958282470703125,-0.5990142822265625,0.0478057861328125
1789757717079969300,11.22096923828125,-0.258209228515625,-0.485870361328125,0.0348358154296875
1789757717089979100,11.230979248046875,-0.4538116455078125,-0.3774261474609375,0.0367584228515625
1789757717099990000,11.240989990234375,-1.216888427734375,-0.0860748291015625,0.032958984375
1789757717110001200,11.251001220703126,-1.9916229248046875,-0.0175933837890625,0.05731201171875
1789757717120012300,11.26101220703125,-1.957275390625,-0.35809326171875,0.08258056640625
1789757717130023200,11.271023193359374,-1.3595428466796875,-0.6321258544921875,0.0281524658203125
1789757717140033300,11.281033203125,-0.87823486328125,-0.4759368896484375,0.072723388671875
1789757717150044200,11.291044189453125,-0.506561279296875,-0.3368072509765625,0.0339202880859375
1789757717160055000,11.301054931640625,-0.31787109375,-0.433380126953125,-0.000732421875
1789757717170066200,11.311066162109375,-0.428955078125,-0.454345703125,0.0049896240234375
1789757717180076000,11.321075927734375,-0.634552001953125,-0.53131103515625,-0.0018310546875
1789757717190087200,11.331087158203125,-1.092010498046875,-0.3148193359375,0.03857421875
1789757717200098300,11.341098388671876,-1.4388275146484375,-0.12481689453125,0.019317626953125
1789757717210109200,11.351109130859374,-1.2585601806640625,-0.3500823974609375,0.024078369140625
1789757717220120000,11.3611201171875,-0.93572998046875,-0.4512176513671875,0.0689544677734375
1789757717230130200,11.371130126953124,-0.571624755859375,-0.5547027587890625,0.0619049072265625
1789757717240141000,11.38114111328125,-0.486358642578125,-0.4645538330078125,0.014678955078125
1789757717250152200,11.391152099609375,-0.675750732421875,-0.3317718505859375,0.0252532958984375
1789757717260163300,11.401163330078125,-0.9806976318359375,-0.239501953125,0.052734375
1789757717270173200,11.411173095703125,-1.17333984375,-0.42474365234375,0.0489959716796875
1789757717280184300,11.421184326171876,-1.3045196533203125,-0.39300537109375,0.0959930419921875
1789757717290195200,11.4311953125,-1.1443939208984375,-0.4333343505859375,0.0314788818359375
1789757717300206000,11.4412060546875,-0.765228271484375,-0.4729766845703125,0.0490264892578125
1789757717310217200,11.45121728515625,-0.5386810302734375,-0.447906494140625,0.0902862548828125
1789757717320227000,11.46122705078125,-0.5059051513671875,-0.4878692626953125,0.135498046875
1789757717330238200,11.47123828125,-0.8143310546875,-0.3513641357421875,0.10052490234375
1789757717340249300,11.481249267578125,-1.06744384765625,-0.316558837890625,0.071685791015625
1789757717350260200,11.49126025390625,-1.100433349609375,-0.3828125,0.07720947265625
1789757717360270300,11.501270263671875,-0.9801025390625,-0.486053466796875,0.08587646484375
1789757717370281200,11.51128125,-0.8737030029296875,-0.508575439453125,0.0645294189453125
1789757717380292000,11.5212919921875,-0.8050537109375,-0.4037322998046875,0.0752716064453125
1789757717390303200,11.53130322265625,-0.87445068359375,-0.29876708984375,0.0552825927734375
1789757717400314000,11.541314208984375,-0.94268798828125,-0.2924652099609375,0.0177764892578125
1789757717410324200,11.55132421875,-1.03778076171875,-0.345733642578125,0.008056640625
1789757717420335400,11.56133544921875,-1.0319976806640625,-0.407257080078125,0.01861572265625
1789757717430346200,11.57134619140625,-0.9443511962890625,-0.3595123291015625,-0.0089111328125
1789757717440357000,11.581357177734375,-0.94140625,-0.0737152099609375,-0.036865234375
1789757717450367200,11.5913671875,-0.7496337890625,-0.3005828857421875,0.0139617919921875
1789757717460378000,11.601378173828126,-0.7826080322265625,-0.382171630859375,-0.0341796875
1789757717470389200,11.61138916015625,-0.7967529296875,-0.691497802734375,0.040557861328125
1789757717480400100,11.621400146484374,-0.8903350830078125,-0.7313079833984375,0.10284423828125
1789757717490411300,11.631411376953125,-0.951904296875,-0.7174530029296875,0.036590576171875
1789757717500421400,11.64142138671875,-1.110260009765625,-0.347412109375,-0.0317840576171875
1789757717510432300,11.651432373046875,-1.119293212890625,-0.184722900390625,-0.02630615234375
1789757717520443100,11.661443115234375,-1.01300048828125,-0.2037506103515625,-0.0132293701171875
1789757717530454300,11.671454345703125,-0.9534759521484375,-0.186553955078125,0.0074462890625
1789757717540464000,11.681464111328125,-0.862213134765625,-0.284423828125,0.029754638671875
1789757717550475000,11.69147509765625,-0.7760467529296875,-0.3985137939453125,0.0223236083984375
1789757717560486100,11.701486083984374,-0.829345703125,-0.3466033935546875,0.0193023681640625
1789757717570497300,11.711497314453124,-0.9018096923828125,-0.373992919921875,0.0381011962890625
1789757717580507600,11.721507568359375,-1.0703582763671875,-0.26025390625,0.0139312744140625
1789757717590517800,11.731517822265625,-0.9748382568359375,-0.40313720703125,0.0064544677734375
1789757717600528600,11.741528564453125,-0.919281005859375,-0.4091949462890625,0.0159454345703125
1789757717610539800,11.751539794921875,-0.9235992431640625,-0.28753662109375,0.066162109375
1789757717620550700,11.761550537109375,-0.863800048828125,-0.3827362060546875,0.0718536376953125
1789757717630560500,11.771560546875,-0.9198760986328125,-0.3610687255859375,0.0720367431640625
1789757717640572000,11.781572021484376,-0.9242706298828125,-0.319427490234375,0.0616607666015625
1789757717650582800,11.791582763671874,-0.8355560302734375,-0.3704376220703125,0.0565338134765625
1789757717660593700,11.80159375,-0.7769927978515625,-0.4006805419921875,0.060943603515625
1789757717670604800,11.811604736328125,-0.819366455078125,-0.3369140625,0.0393218994140625
1789757717680614700,11.82161474609375,-0.90673828125,-0.24932861328125,0.0244293212890625
1789757717690625800,11.831625732421875,-0.98358154296875,-0.266632080078125,0.070892333984375
1789757717700636700,11.84163671875,-0.9737091064453125,-0.3440704345703125,0.0816802978515625
1789757717710647800,11.851647705078125,-0.9475250244140625,-0.5077667236328125,0.0858917236328125
1789757717720658000,11.861657958984376,-0.969482421875,-0.50897216796875,0.06646728515625
1789757717730668800,11.871668701171876,-0.995025634765625,-0.3905181884765625,0.0192718505859375
1789757717740679700,11.8816796875,-0.909454345703125,-0.4137420654296875,0.0624237060546875
1789757717750690800,11.89169091796875,-0.931365966796875,-0.3016204833984375,0.0395355224609375
1789757717760701700,11.90170166015625,-0.8879241943359375,-0.349334716796875,0.0452117919921875
1789757717770711600,11.911711669921875,-0.8335723876953125,-0.43414306640625,0.0664520263671875
1789757717780722700,11.92172265625,-0.830169677734375,-0.44781494140625,0.04248046875
1789757717790733800,11.93173388671875,-0.861602783203125,-0.3953399658203125,0.091552734375
1789757717800744700,11.94174462890625,-0.9458465576171875,-0.3047332763671875,0.0508880615234375
1789757717810754800,11.9517548828125,-1.00750732421875,-0.3547515869140625,-0.0001220703125
1789757717820765700,11.961765625,-0.957611083984375,-0.4415283203125,-0.003082275390625
1789757717830776600,11.971776611328124,-0.9493408203125,-0.409698486328125,-0.010284423828125
1789757717840787700,11.98178759765625,-0.9174346923828125,-0.4608154296875,0.03021240234375
1789757717850798800,11.991798828125,-1.0151519775390625,-0.2891845703125,0.0868988037109375
1789757717860809000,12.00180908203125,-1.0883636474609375,-0.226287841796875,0.04400634765625
1789757717870819800,12.01181982421875,-0.9901275634765625,-0.3158721923828125,0.0328369140625
1789757717880830700,12.021830810546875,-0.8379058837890625,-0.4167327880859375,0.010986328125
1789757717890841600,12.031841552734376,-0.6950836181640625,-0.466644287109375,-0.0234375
1789757717900851700,12.041851806640626,-0.757354736328125,-0.360260009765625,-0.0126953125
1789757717910862600,12.051862548828124,-0.929290771484375,-0.2682342529296875,-0.015899658203125
1789757717920873700,12.061873779296874,-0.9815521240234375,-0.357269287109375,-0.004486083984375
1789757717930884900,12.071884765625,-1.051788330078125,-0.3480224609375,-0.0070343017578125
1789757717940895700,12.081895751953125,-1.07147216796875,-0.35308837890625,0.015960693359375
1789757717950905900,12.09190576171875,-0.9894256591796875,-0.3563079833984375,0.0296173095703125
1789757717960916700,12.101916748046875,-0.93438720703125,-0.3609619140625,0.036102294921875
1789757717970927600,12.111927734375,-0.914154052734375,-0.352935791015625,0.0291900634765625
1789757717980938800,12.121938720703126,-0.8902435302734375,-0.3679962158203125,0.0682373046875
1789757717990948600,12.131948486328126,-0.872344970703125,-0.4151611328125,0.0539093017578125
1789757718000959700,12.141959716796874,-0.883056640625,-0.4301300048828125,0.054443359375
1789757718010971000,12.151970947265625,-0.8836669921875,-0.378204345703125,0.049652099609375
1789757718020981800,12.161981689453125,-0.877166748046875,-0.368255615234375,0.0625
1789757718030992600,12.17199267578125,-0.8407135009765625,-0.413909912109375,0.03564453125
1789757718041002800,12.182002685546875,-0.9458160400390625,-0.29498291015625,0.0241241455078125
1789757718051013600,12.192013671875,-1.0294036865234375,-0.3159942626953125,0.0446929931640625
1789757718061024800,12.202024658203126,-1.108245849609375,-0.3643035888671875,0.021820068359375
1789757718071035600,12.21203564453125,-1.237823486328125,-0.3107757568359375,0.0135955810546875
1789757718081046800,12.222046875,-1.1774749755859375,-0.4046630859375,0.0082244873046875
1789757718091057000,12.232056884765624,-0.883880615234375,-0.457794189453125,-0.00421142578125
1789757718101067800,12.24206787109375,-0.7925567626953125,-0.3959503173828125,0.0285797119140625
1789757718111078700,12.25207861328125,-0.6616973876953125,-0.477142333984375,0.0114898681640625
1789757718121089800,12.26208984375,-0.829498291015625,-0.3670654296875,0.00250244140625
1789757718131099600,12.272099609375,-0.9039459228515625,-0.3484344482421875,0.0371246337890625
1789757718141110800,12.28211083984375,-0.90020751953125,-0.3515167236328125,0.0282440185546875
1789757718151121700,12.29212158203125,-0.9509429931640625,-0.3711700439453125,-0.011016845703125
1789757718161132800,12.3021328125,-0.97021484375,-0.3131256103515625,0.03289794921875
1789757718171143700,12.312143798828124,-0.9888458251953125,-0.2834320068359375,0.0663604736328125
1789757718181153800,12.32215380859375,-0.9254608154296875,-0.3345489501953125,0.0514373779296875
1789757718191164700,12.33216455078125,-0.884735107421875,-0.309173583984375,0.071990966796875
1789757718201175800,12.34217578125,-0.7919921875,-0.3869781494140625,0.1040191650390625
1789757718211186700,12.352186767578125,-0.8160552978515625,-0.4000701904296875,0.060089111328125
1789757718221196500,12.362196533203125,-0.9436798095703125,-0.337127685546875,0.0396575927734375
1789757718231208000,12.3722080078125,-1.0484161376953125,-0.2935638427734375,0.0738067626953125
1789757718241218800,12.38221875,-1.046051025390625,-0.310943603515625,0.02874755859375
1789757718251229700,12.392229736328124,-0.9764556884765625,-0.4863739013671875,0.046875
1789757718261240800,12.40224072265625,-0.9647064208984375,-0.362945556640625,0.05267333984375
1789757718271250700,12.412250732421874,-0.933502197265625,-0.315399169921875,0.0447845458984375
1789757718281261600,12.422261474609375,-0.844024658203125,-0.462738037109375,0.0418548583984375
1789757718291272700,12.432272705078125,-0.9300689697265625,-0.2764739990234375,0.0617218017578125
1789757718301283800,12.442283935546875,-0.9449920654296875,-0.2724761962890625,0.0381927490234375
1789757718311294000,12.4522939453125,-0.8918914794921875,-0.379852294921875,-0.001373291015625
1789757718321304800,12.462304931640626,-0.91986083984375,-0.3974151611328125,-0.0040283203125
1789757718331315700,12.472315673828126,-0.9369049072265625,-0.410614013671875,0.04217529296875
1789757718341326600,12.48232666015625,-0.989349365234375,-0.3634796142578125,0.0290069580078125
1789757718351337700,12.492337646484375,-1.014556884765625,-0.32476806640625,0.0312957763671875
1789757718361347600,12.50234765625,-0.997467041015625,-0.3646697998046875,0.037445068359375
1789757718371358700,12.512358642578125,-0.945159912109375,-0.3923797607421875,0.0232391357421875
1789757718381369900,12.522369873046875,-1.0241546630859375,-0.3713836669921875,0.0323333740234375
1789757718391380700,12.532380615234375,-1.065704345703125,-0.3722381591796875,-0.0067901611328125
1789757718401391900,12.542391845703126,-1.0495452880859375,-0.402923583984375,0.0219268798828125
1789757718411401700,12.552401611328126,-0.9712677001953125,-0.3720550537109375,0.026824951171875
1789757718421412600,12.56241259765625,-0.9165191650390625,-0.4136810302734375,0.03717041015625
1789757718431423700,12.572423828125,-0.7993927001953125,-0.476715087890625,0.006744384765625
1789757718441434600,12.5824345703125,-0.683837890625,-0.5705718994140625,-0.042236328125
1789757718451444700,12.59244482421875,-0.8337860107421875,-0.410736083984375,-0.034210205078125
1789757718461456000,12.602455810546875,-1.0286407470703125,-0.222442626953125,0.02154541015625
1789757718471466800,12.612466796875,-0.9779052734375,-0.4808349609375,0.017974853515625
1789757718481477600,12.6224775390625,-1.0739288330078125,-0.2539825439453125,0.0201873779296875
1789757718491488800,12.63248876953125,-0.932708740234375,-0.455902099609375,0.0288848876953125
1789757718501498600,12.64249853515625,-0.9909515380859375,-0.29107666015625,-0.056915283203125
1789757718511509800,12.652509765625,-1.050079345703125,-0.0927581787109375,0.0256805419921875
1789757718521521000,12.66252099609375,-0.888916015625,-0.273681640625,-0.0005035400390625
1789757718531531800,12.67253173828125,-0.8296051025390625,-0.3476715087890625,-0.029510498046875
1789757718541542000,12.6825419921875,-0.7772064208984375,-0.4163818359375,-0.0218048095703125
1789757718551552800,12.692552734375,-0.821533203125,-0.4543304443359375,-0.0330657958984375
1789757718561563600,12.702563720703125,-0.927337646484375,-0.34619140625,-0.004638671875
1789757718571574800,12.71257470703125,-0.9441986083984375,-0.297332763671875,-0.010711669921875
1789757718581586200,12.722586181640626,-0.993377685546875,-0.378204345703125,-0.0384521484375
1789757718591596000,12.732595947265626,-1.036895751953125,-0.35638427734375,-0.0000762939453125
1789757718601607200,12.742607177734374,-1.03594970703125,-0.45782470703125,0.03851318359375
1789757718611618000,12.7526181640625,-0.967376708984375,-0.4059906005859375,0.07489013671875
1789757718621629000,12.76262890625,-0.837310791015625,-0.3808746337890625,-0.006256103515625
1789757718631640000,12.77264013671875,-0.8479766845703125,-0.357269287109375,-0.031005859375
1789757718641650000,12.78264990234375,-0.8689422607421875,-0.366485595703125,0.0151824951171875
1789757718651661000,12.7926611328125,-0.886016845703125,-0.4612274169921875,0.01678466796875
1789757718661672200,12.802672119140626,-0.9017486572265625,-0.4547119140625,0.032501220703125
1789757718671683000,12.81268310546875,-0.8493499755859375,-0.41845703125,0.012420654296875
1789757718681693200,12.822693115234374,-0.947113037109375,-0.313262939453125,-0.0246734619140625
1789757718691704000,12.8327041015625,-0.9594268798828125,-0.3581085205078125,0.00518798828125
1789757718701715000,12.84271484375,-1.078094482421875,-0.3096466064453125,0.008026123046875
1789757718711725800,12.852725830078125,-1.0499267578125,-0.3698272705078125,-0.00238037109375
1789757718721737200,12.8627373046875,-0.9584808349609375,-0.4004669189453125,-0.0043792724609375
1789757718731747000,12.8727470703125,-0.90185546875,-0.3505706787109375,-0.0213470458984375
1789757718741758200,12.88275830078125,-0.8037109375,-0.433746337890625,0.002410888671875
1789757718751769000,12.89276904296875,-0.8265380859375,-0.4379119873046875,0.0259246826171875
1789757718761780000,12.902780029296874,-0.96923828125,-0.3524932861328125,0.01434326171875
