time,seconds_elapsed,z,y,x
1789757705909830000,0.050829833984375,-0.2145991325378418,-0.08943277597427368,-0.009275783784687519
1789757705919840800,0.0608408203125,-0.24808692932128906,-0.10157441347837448,-0.009376820176839828
1789757705929851600,0.0708515625,-0.2725811004638672,-0.1108400821685791,-0.010375771671533585
1789757705939861800,0.08086181640625,-0.29992297291755676,-0.12353777140378952,-0.010737428441643715
1789757705949872600,0.09087255859375,-0.32374441623687744,-0.13460825383663177,-0.011298555880784988
1789757705959884000,0.100884033203125,-0.3416387140750885,-0.14631040394306183,-0.012533146888017654
1789757705969895000,0.11089501953125,-0.3556133806705475,-0.15348948538303375,-0.01388949528336525
1789757705979904800,0.12090478515625,-0.368976354598999,-0.15742748975753784,-0.015911253169178963
1789757705989916000,0.130916015625,-0.3749207854270935,-0.16500498354434967,-0.01692565158009529
1789757705999926800,0.1409267578125,-0.3770992159843445,-0.16465027630329132,-0.013197720050811768
1789757706009937700,0.150937744140625,-0.36691582202911377,-0.16828575730323792,-0.012450169771909714
1789757706019948800,0.16094873046875,-0.3463297486305237,-0.17272284626960754,-0.01196614746004343
1789757706029958700,0.170958740234375,-0.31796547770500183,-0.16900479793548584,-0.012797585688531399
1789757706039970000,0.180969970703125,-0.28085407614707947,-0.16878588497638702,-0.008880342356860638
1789757706049981000,0.19098095703125,-0.23961664736270905,-0.1646052598953247,-0.008786865510046482
1789757706059991800,0.20099169921875,-0.19858722388744354,-0.15477710962295532,-0.005292303394526243
1789757706070002000,0.211001953125,-0.14995044469833374,-0.14221924543380737,-0.0062814014963805676
1789757706080012800,0.2210126953125,-0.11089926213026047,-0.12775647640228271,-0.0042802137322723866
1789757706090023700,0.231023681640625,-0.06457650661468506,-0.1177469789981842,-0.007597181014716625
1789757706100034800,0.241034912109375,-0.027745358645915985,-0.11019264906644821,-0.007442730478942394
1789757706110044700,0.251044677734375,0.008730094879865646,-0.10445646196603775,-0.009091759100556374
1789757706120055800,0.261055908203125,0.033820945769548416,-0.10219675302505493,-0.0057653700932860374
1789757706130067000,0.27106689453125,0.059562526643276215,-0.09794741123914719,-0.005191991105675697
1789757706140077800,0.281077880859375,0.06887168437242508,-0.09208472818136215,-0.006120774894952774
1789757706150088700,0.291088623046875,0.07699566334486008,-0.09032624214887619,-0.007402820512652397
1789757706160098800,0.301098876953125,0.07297127693891525,-0.08518080413341522,-0.00638966541737318
1789757706170109700,0.311109619140625,0.06680898368358612,-0.08643142879009247,-0.010308773256838322
1789757706180120800,0.321120849609375,0.05087674781680107,-0.08827856183052063,-0.00590901542454958
1789757706190132000,0.331132080078125,0.040008388459682465,-0.0941055566072464,-0.00496572395786643
1789757706200141800,0.341141845703125,0.009915713220834732,-0.09766485542058945,-0.003898747731000185
1789757706210153000,0.351153076171875,-0.009577826596796513,-0.09479796141386032,-0.005293179303407669
1789757706220163800,0.361163818359375,-0.04038054123520851,-0.09195639193058014,-0.006127522327005863
1789757706230174700,0.3711748046875,-0.06832269579172134,-0.08985143154859543,-0.0042707659304142
1789757706240184800,0.381184814453125,-0.08532077074050903,-0.08745937049388885,-0.003741468768566847
1789757706250195700,0.39119580078125,-0.11618494242429733,-0.08180521428585052,0.000809074379503727
1789757706260206600,0.40120654296875,-0.11647529155015945,-0.09097182750701904,-0.0076120817102491856
1789757706270218000,0.411218017578125,-0.1619652807712555,-0.08603273332118988,-0.0011978584807366133
1789757706280227800,0.421227783203125,-0.17689616978168488,-0.0806184932589531,-0.0021177649032324553
1789757706290239000,0.431239013671875,-0.2115851640701294,-0.0687197595834732,-0.0001254540402442217
1789757706300249900,0.441249755859375,-0.24088642001152039,-0.07781824469566345,-0.00046891323290765285
1789757706310260700,0.4512607421875,-0.26885122060775757,-0.07638439536094666,-0.0030886647291481495
1789757706320271600,0.461271728515625,-0.2944391965866089,-0.0810602605342865,-0.0004790583625435829
1789757706330281700,0.47128173828125,-0.3313434422016144,-0.07580319046974182,0.006145022343844175
1789757706340292900,0.48129296875,-0.3574206829071045,-0.07261122018098831,-0.0011383052915334702
1789757706350304000,0.491303955078125,-0.3867471516132355,-0.0674513503909111,0.0035525867715477943
1789757706360315000,0.50131494140625,-0.3923404812812805,-0.07028387486934662,-0.005475668702274561
1789757706370324700,0.51132470703125,-0.39663511514663696,-0.06990225613117218,-0.0032023945823311806
1789757706380335900,0.5213359375,-0.39729055762290955,-0.07371772825717926,-0.005191166885197163
1789757706390346800,0.5313466796875,-0.3869718611240387,-0.07116775214672089,-0.006313422694802284
1789757706400357600,0.541357666015625,-0.39164137840270996,-0.0686473399400711,-0.003025471931323409
1789757706410367700,0.55136767578125,-0.38736167550086975,-0.06374206393957138,-0.002326125977560878
1789757706420379000,0.56137890625,-0.40413081645965576,-0.06675460189580917,0.0037138857878744602
1789757706430389800,0.5713896484375,-0.3959117829799652,-0.06395828723907471,-0.0008507724851369858
1789757706440401000,0.58140087890625,-0.3427107036113739,-0.06650081276893616,-0.01690150424838066
1789757706450411800,0.591411865234375,-0.3513649106025696,-0.07490787655115128,0.0019813724793493748
1789757706460422000,0.601421875,-0.29346171021461487,-0.07154613733291626,-0.01541724894195795
1789757706470432800,0.611432861328125,-0.28599101305007935,-0.06330471485853195,-0.0011999632697552443
1789757706480443600,0.621443603515625,-0.2912648022174835,-0.06470493972301483,0.0025526087265461683
1789757706490455000,0.631455078125,-0.28892335295677185,-0.07296766340732574,-0.004353500436991453
1789757706500465000,0.64146484375,-0.31689831614494324,-0.03457293286919594,0.030326005071401596
1789757706510475800,0.651475830078125,-0.3272457718849182,-0.040257181972265244,0.058901190757751465
1789757706520487000,0.66148681640625,-0.2940552234649658,-0.06149107590317726,-0.056861259043216705
1789757706530497800,0.671497802734375,-0.34796637296676636,-0.09123779088258743,-0.06264031678438187
1789757706540508000,0.6815078125,-0.36491936445236206,-0.023877914994955063,0.002404980594292283
1789757706550518800,0.691518798828125,-0.4095587134361267,-0.05298466607928276,-0.03069198690354824
1789757706560529700,0.70152978515625,-0.4154474139213562,0.0118174459785223,-0.037005465477705
1789757706570540800,0.711540771484375,-0.38648873567581177,-0.07505247741937637,-0.033532436937093735
1789757706580550400,0.72155029296875,-0.35453760623931885,-0.0428873673081398,-0.012731920927762985
1789757706590561300,0.731561279296875,-0.34798356890678406,-0.01360377948731184,0.06208878755569458
1789757706600572400,0.741572509765625,-0.34429672360420227,-0.0402287058532238,0.10365723073482513
1789757706610583300,0.751583251953125,-0.3620496094226837,-0.0809851884841919,0.011976051144301891
1789757706620594200,0.76159423828125,-0.403239369392395,-0.013295385055243969,-0.01182644534856081
1789757706630604300,0.771604248046875,-0.4640537202358246,-0.02344256266951561,-0.010079944506287575
1789757706640615200,0.781615234375,-0.48626598715782166,-0.004879469517618418,-0.09766926616430283
1789757706650626300,0.791626220703125,-0.4915608763694763,-0.0188410896807909,-0.12539809942245483
1789757706660637400,0.801637451171875,-0.4747348725795746,-0.0392950177192688,-0.004809434525668621
1789757706670647300,0.811647216796875,-0.46338021755218506,-0.02491074986755848,-0.01067398115992546
1789757706680658400,0.821658447265625,-0.46242251992225647,-0.04254935681819916,-0.012052763253450394
1789757706690669300,0.83166943359375,-0.49482786655426025,0.009621172212064266,0.02426103502511978
1789757706700680200,0.84168017578125,-0.517388105392456,0.035628799349069595,0.010676924139261246
1789757706710690300,0.851690185546875,-0.49102869629859924,0.04148109629750252,0.04927464947104454
1789757706720701200,0.861701171875,-0.4793160855770111,0.05090410262346268,0.05419106036424637
1789757706730712300,0.87171240234375,-0.4525987207889557,0.04883642494678497,0.07978536933660507
1789757706740723500,0.881723388671875,-0.412932425737381,0.0721474140882492,0.027838701382279396
1789757706750733300,0.8917333984375,-0.3979875445365906,0.05286533385515213,0.018280882388353348
1789757706760744400,0.901744384765625,-0.358967125415802,0.07135636359453201,-0.0005283525679260492
1789757706770755300,0.91175537109375,-0.32125943899154663,0.0664801150560379,-0.011191915720701218
1789757706780766200,0.92176611328125,-0.2695367634296417,0.06647565215826035,-0.029678070917725563
1789757706790777000,0.931777099609375,-0.21072538197040558,0.07982634007930756,-0.0064012436196208
1789757706800787200,0.941787109375,-0.14516094326972961,0.10623261332511902,-0.003928308840841055
1789757706810798300,0.95179833984375,-0.040616437792778015,0.11678671836853027,0.007116086781024933
1789757706820809500,0.9618095703125,0.052536532282829285,0.12407869845628738,-0.0009525940986350179
1789757706830820400,0.9718203125,0.18366739153862,0.1210770532488823,-0.009760732762515545
1789757706840830200,0.981830322265625,0.2437792420387268,0.14699022471904755,-0.02747167833149433
1789757706850841300,0.99184130859375,0.2868843376636505,0.17711856961250305,-0.03459031134843826
1789757706860852200,1.001852294921875,0.32681727409362793,0.20552462339401245,-0.0332910530269146
1789757706870863000,1.011863037109375,0.36085325479507446,0.22929413616657257,-0.030406318604946136
1789757706880873200,1.021873291015625,0.40592721104621887,0.22701123356819153,-0.031447816640138626
1789757706890884400,1.03188427734375,0.4374319016933441,0.21519026160240173,-0.026987021788954735
1789757706900895200,1.041895263671875,0.4222869873046875,0.21015742421150208,-0.019512632861733437
1789757706910906400,1.05190625,0.40263819694519043,0.18371650576591492,-0.017031898722052574
1789757706920916200,1.061916259765625,0.3491608798503876,0.15293407440185547,-0.015565257519483566
1789757706930927400,1.07192724609375,0.2595748007297516,0.12121023237705231,-0.01764199137687683
1789757706940938200,1.081938232421875,0.13455794751644135,0.10248134285211563,-0.02228117734193802
1789757706950949400,1.091949462890625,-0.04712051525712013,0.1001172587275505,-0.016004107892513275
1789757706960960500,1.10196044921875,-0.2086302489042282,0.09305883944034576,-0.018545322120189667
1789757706970970400,1.111970458984375,-0.36224380135536194,0.09415312856435776,-0.016315722838044167
1789757706980981200,1.121981201171875,-0.47392696142196655,0.08449456840753555,-0.02495184727013111
1789757706990992400,1.131992431640625,-0.5382401347160339,0.05713644623756409,-0.03807084262371063
1789757707001003300,1.142003173828125,-0.5705527663230896,0.024377450346946716,-0.03420023247599602
1789757707011013400,1.152013427734375,-0.5922762155532837,0.00011019455268979073,-0.022196831181645393
1789757707021024300,1.162024169921875,-0.6145930886268616,-0.009118253365159035,0.00029778527095913887
1789757707031035400,1.172035400390625,-0.6402204036712646,-0.00800452008843422,0.01600351184606552
1789757707041046300,1.18204638671875,-0.6640554666519165,-0.0015508150681853294,0.03811057657003403
1789757707051056400,1.192056396484375,-0.6809329986572266,0.004534508101642132,0.06494645029306412
1789757707061067300,1.2020673828125,-0.6769900918006897,-0.006618818733841181,0.04587263986468315
1789757707071078400,1.212078369140625,-0.6584153175354004,-0.02115115523338318,0.03923630714416504
1789757707081089300,1.22208935546875,-0.6412242650985718,-0.027918821200728416,0.022102518007159233
1789757707091100200,1.23210009765625,-0.6461763978004456,-0.026044486090540886,-0.002772471634671092
1789757707101110300,1.2421103515625,-0.6719585657119751,-0.005234436132013798,-0.01853281818330288
1789757707111121400,1.252121337890625,-0.703041672706604,0.01644342765212059,-0.005301966331899166
1789757707121132300,1.26213232421875,-0.7163777947425842,0.040560152381658554,0.008071450516581535
1789757707131143400,1.272143310546875,-0.7126461863517761,0.04662337154150009,0.004096150863915682
1789757707141153300,1.2821533203125,-0.7128844857215881,0.04306850582361221,0.005219992250204086
1789757707151164400,1.292164306640625,-0.7117204070091248,0.036639101803302765,-0.005389775615185499
1789757707161175300,1.30217529296875,-0.7154091000556946,0.033968064934015274,-0.016796929761767387
1789757707171186200,1.312186279296875,-0.7300609946250916,0.042711492627859116,-0.020456645637750626
1789757707181196300,1.3221962890625,-0.7549877762794495,0.04419807717204094,-0.03614747151732445
1789757707191207400,1.33220751953125,-0.8004612922668457,0.047413576394319534,-0.04350019618868828
1789757707201218300,1.34221826171875,-0.8661004900932312,0.04878190904855728,-0.04486959055066109
1789757707211229400,1.3522294921875,-0.8995944857597351,0.03359594941139221,-0.04240937530994415
1789757707221240300,1.362240234375,-0.9198965430259705,0.011803273111581802,-0.01740717515349388
1789757707231250200,1.372250244140625,-0.9534571766853333,-0.011512967757880688,-0.0004241976421326399
1789757707241261300,1.38226123046875,-0.9682663679122925,-0.03963451460003853,0.0012747475411742926
1789757707251272200,1.392272216796875,-0.9614494442939758,-0.06690262258052826,0.004775739274919033
1789757707261283300,1.402283447265625,-0.9568073153495789,-0.08531706035137177,-0.01631527952849865
1789757707271293400,1.41229345703125,-0.9710440039634705,-0.09523600339889526,-0.024417681619524956
1789757707281304300,1.42230419921875,-0.988771915435791,-0.09704536944627762,-0.03904787078499794
1789757707291315200,1.432315185546875,-0.9714800119400024,-0.08931873738765717,-0.026061497628688812
1789757707301326300,1.442326416015625,-0.9368062019348145,-0.08200173079967499,-0.010917788371443748
1789757707311336200,1.452336181640625,-0.8584152460098267,-0.08594001829624176,0.009328627958893776
1789757707321347300,1.462347412109375,-0.730015754699707,-0.10599067062139511,0.052313875406980515
1789757707331358500,1.4723583984375,-0.6133951544761658,-0.1142326220870018,0.07568284124135971
1789757707341369300,1.482369384765625,-0.5087770223617554,-0.11107994616031647,0.1068442091345787
1789757707351379500,1.49237939453125,-0.43742433190345764,-0.09914685785770416,0.10985970497131348
1789757707361390300,1.502390380859375,-0.3697702884674072,-0.08585800230503082,0.11530526727437973
1789757707371401200,1.512401123046875,-0.33366474509239197,-0.07869516313076019,0.08170629292726517
1789757707381412400,1.522412353515625,-0.2856158912181854,-0.08534236252307892,0.05111569166183472
1789757707391423200,1.53242333984375,-0.24153871834278107,-0.0882212370634079,0.042378127574920654
1789757707401433300,1.542433349609375,-0.23017144203186035,-0.0992639884352684,0.020225752145051956
1789757707411444500,1.552444580078125,-0.24959494173526764,-0.09328731894493103,0.018170855939388275
1789757707421455400,1.562455322265625,-0.2874888777732849,-0.08913294970989227,0.0018636228051036596
1789757707431466200,1.57246630859375,-0.34069085121154785,-0.08656139671802521,0.0006457590498030186
1789757707441476400,1.582476318359375,-0.38066035509109497,-0.0887909010052681,0.011745802126824856
1789757707451487200,1.5924873046875,-0.41775473952293396,-0.10434402525424957,0.010011019185185432
1789757707461498400,1.602498291015625,-0.444566011428833,-0.12040822207927704,0.01803593523800373
1789757707471509200,1.61250927734375,-0.47929468750953674,-0.12210118770599365,0.011677637696266174
1789757707481519000,1.62251904296875,-0.5293979048728943,-0.10406980663537979,0.020445004105567932
1789757707491530500,1.632530517578125,-0.5863873958587646,-0.07785896956920624,0.016354389488697052
1789757707501541400,1.642541259765625,-0.628550112247467,-0.0609118826687336,0.00915723480284214
1789757707511552300,1.65255224609375,-0.6617546677589417,-0.04716810956597328,-0.008121088147163391
1789757707521562400,1.662562255859375,-0.6778021454811096,-0.04718148335814476,-0.030666522681713104
1789757707531573200,1.6725732421875,-0.7074514031410217,-0.05211206153035164,-0.04063659906387329
1789757707541584100,1.682584228515625,-0.7351167798042297,-0.05115857720375061,-0.045236118137836456
1789757707551595300,1.69259521484375,-0.7970805764198303,-0.028683362528681755,-0.020805610343813896
1789757707561606400,1.7026064453125,-0.84868323802948,-0.028672482818365097,-0.007802535779774189
1789757707571616500,1.712616455078125,-0.8823429346084595,-0.04549673572182655,0.00022849254310131073
1789757707581628000,1.7226279296875,-0.914604663848877,-0.06464807689189911,0.011965461075305939
1789757707591638800,1.732638671875,-0.9470717906951904,-0.07399336993694305,0.01595328003168106
1789757707601649700,1.742649658203125,-0.9549268484115601,-0.08723694831132889,0.011452321894466877
1789757707611659800,1.75265966796875,-0.977488100528717,-0.09636333584785461,-0.004071510396897793
1789757707621670700,1.762670654296875,-1.0023638010025024,-0.0846899002790451,-0.00025999429635703564
1789757707631681800,1.772681884765625,-0.978765070438385,-0.08753521740436554,-0.009811155498027802
1789757707641693000,1.78269287109375,-0.9416372179985046,-0.10008611530065536,-0.006665504537522793
1789757707651702800,1.792702880859375,-0.8885023593902588,-0.10349442809820175,0.0225022342056036
1789757707661714000,1.8027138671875,-0.7992832064628601,-0.11028988659381866,0.034537527710199356
1789757707671724800,1.812724853515625,-0.6988272070884705,-0.13222047686576843,0.049329254776239395
1789757707681735700,1.822735595703125,-0.6148754358291626,-0.13952888548374176,0.05812925472855568
1789757707691745800,1.832745849609375,-0.5318636298179626,-0.12922458350658417,0.07235746085643768
1789757707701756700,1.842756591796875,-0.45799899101257324,-0.12263656407594681,0.07001614570617676
1789757707711767800,1.852767822265625,-0.4146405756473541,-0.12330687791109085,0.05175218731164932
1789757707721779000,1.862779052734375,-0.38900962471961975,-0.116243876516819,0.051943883299827576
1789757707731789800,1.872789794921875,-0.37083250284194946,-0.12044713646173477,0.03369377553462982
1789757707741800000,1.882800048828125,-0.3893381655216217,-0.12129239737987518,0.026797469705343246
1789757707751810800,1.892810791015625,-0.42878997325897217,-0.10691371560096741,0.048451364040374756
1789757707761821700,1.90282177734375,-0.4594368636608124,-0.10033232718706131,0.04857837036252022
1789757707771832800,1.912832763671875,-0.5030557513237,-0.10738463699817657,0.04161180928349495
1789757707781842700,1.9228427734375,-0.5503419637680054,-0.11569122970104218,0.03162817656993866
1789757707791853800,1.932853759765625,-0.5876674652099609,-0.11934109032154083,0.027864864096045494
1789757707801865000,1.942864990234375,-0.6274826526641846,-0.12519076466560364,0.006749127991497517
1789757707811875800,1.952875732421875,-0.6656920909881592,-0.1371861845254898,0.0036521379370242357
1789757707821886000,1.962885986328125,-0.6886599659919739,-0.15111854672431946,0.001039234921336174
1789757707831896800,1.972896728515625,-0.6987234950065613,-0.14960961043834686,0.0062406547367572784
1789757707841907700,1.98290771484375,-0.6953589916229248,-0.16294929385185242,0.013882596045732498
1789757707851918800,1.9929189453125,-0.6817728877067566,-0.15893323719501495,0.032637909054756165
1789757707861930000,2.002929931640625,-0.6336520314216614,-0.16190984845161438,0.0450463593006134
1789757707871939800,2.01293994140625,-0.5630964040756226,-0.17503763735294342,0.06422937661409378
1789757707881951000,2.022950927734375,-0.49005523324012756,-0.19820982217788696,0.05782332271337509
1789757707891961900,2.0329619140625,-0.40120312571525574,-0.21642637252807617,0.0711740106344223
1789757707901972700,2.04297265625,-0.31081560254096985,-0.21147587895393372,0.08871390670537949
1789757707911982800,2.05298291015625,-0.24913783371448517,-0.20381715893745422,0.10616160929203033
1789757707921993700,2.06299365234375,-0.17436501383781433,-0.19141259789466858,0.12622733414173126
1789757707932004900,2.0730048828125,-0.08002493530511856,-0.17341281473636627,0.15448667109012604
1789757707942016000,2.08301611328125,0.03155418485403061,-0.17492318153381348,0.14726749062538147
1789757707952025900,2.09302587890625,0.17797024548053741,-0.19736243784427643,0.1430908441543579
1789757707962036700,2.10303662109375,0.3216336965560913,-0.1976599246263504,0.142011359333992
1789757707972048000,2.1130478515625,0.4513821005821228,-0.21210969984531403,0.11688389629125595
1789757707982058800,2.123058837890625,0.5550522804260254,-0.19735416769981384,0.10593507438898087
1789757707992069600,2.133069580078125,0.6117128729820251,-0.17258676886558533,0.08279779553413391
1789757708002079700,2.143079833984375,0.657443106174469,-0.15328197181224823,0.06376208364963531
1789757708012091000,2.1530908203125,0.7040420174598694,-0.1335386335849762,0.04902947321534157
1789757708022101800,2.163101806640625,0.7510092854499817,-0.12468281388282776,0.03634403645992279
1789757708032113000,2.17311279296875,0.8161046504974365,-0.1253633350133896,0.018011877313256264
1789757708042122800,2.183122802734375,0.8772265911102295,-0.13730283081531525,0.006928752176463604
1789757708052134000,2.1931337890625,0.9408098459243774,-0.11100677400827408,0.007103456184267998
1789757708062144800,2.203144775390625,1.020977258682251,-0.09024179726839066,-0.003999466076493263
1789757708072155600,2.21315576171875,1.0651332139968872,-0.05184061452746391,-0.010681869462132454
1789757708082165800,2.223165771484375,1.0774463415145874,-0.0014619403518736362,-0.021254099905490875
1789757708092177000,2.233177001953125,1.1254738569259644,0.008352607488632202,-0.02103571966290474
1789757708102187800,2.243187744140625,1.1701300144195557,0.007846185006201267,-0.03175058215856552
1789757708112199000,2.253198974609375,1.1406522989273071,0.01602288708090782,-0.04345783591270447
1789757708122208800,2.263208740234375,1.054908275604248,0.028835032135248184,-0.042727380990982056
1789757708132220000,2.273219970703125,0.9605876803398132,0.04554396867752075,-0.03408116102218628
1789757708142230800,2.283230712890625,0.8826929926872253,0.04284803196787834,-0.03543894737958908
1789757708152241700,2.29324169921875,0.8005989193916321,0.03451446816325188,-0.047065507620573044
1789757708162252800,2.303252685546875,0.68071448802948,0.049141667783260345,-0.05229043960571289
1789757708172263000,2.313262939453125,0.5707818865776062,0.06440530717372894,-0.042683083564043045
1789757708182273800,2.323273681640625,0.44183698296546936,0.08839213103055954,-0.06795409321784973
1789757708192285000,2.333284912109375,0.37009114027023315,0.07574184983968735,-0.07267613708972931
1789757708202295800,2.3432958984375,0.3315570652484894,0.04955040663480759,-0.06345206499099731
1789757708212305700,2.3533056640625,0.2603723704814911,0.015235042199492455,-0.05746474489569664
1789757708222316800,2.36331689453125,0.15706336498260498,-0.005521085113286972,-0.047511741518974304
1789757708232327700,2.37332763671875,0.06223377585411072,-0.03425659239292145,-0.06266245990991592
1789757708242338800,2.3833388671875,-0.057342007756233215,-0.05268537998199463,-0.05715494230389595
1789757708252349000,2.393348876953125,-0.18140989542007446,-0.07218345254659653,-0.029435696080327034
1789757708262359800,2.40335986328125,-0.2698832154273987,-0.09682939946651459,0.021432403475046158
1789757708272370700,2.41337060546875,-0.33954352140426636,-0.1267486810684204,0.03347335383296013
1789757708282381800,2.4233818359375,-0.41785928606987,-0.14538580179214478,0.04792320728302002
1789757708292391700,2.4333916015625,-0.4978313446044922,-0.1500958651304245,0.0070396913215518
1789757708302402800,2.44340283203125,-0.574666440486908,-0.09680595993995667,0.09258286654949188
1789757708312414000,2.4534140625,-0.5761412978172302,-0.09504587203264236,0.13252975046634674
1789757708322424800,2.4634248046875,-0.554191529750824,-0.10374615341424942,0.17127129435539246
1789757708332436000,2.47343603515625,-0.5014180541038513,-0.12157522141933441,0.16286128759384155
1789757708342445800,2.48344580078125,-0.40087589621543884,-0.15970025956630707,0.14282651245594025
1789757708352456700,2.493456787109375,-0.2898186445236206,-0.207822784781456,0.10580962151288986
1789757708362467800,2.5034677734375,-0.21677900850772858,-0.21151337027549744,0.10543766617774963
1789757708372478700,2.513478759765625,-0.17067302763462067,-0.1991134136915207,0.08186043798923492
1789757708382488800,2.52348876953125,-0.17542681097984314,-0.1517411470413208,0.0936317890882492
1789757708392500000,2.5335,-0.18904222548007965,-0.0959460437297821,0.0869363322854042
1789757708402510800,2.5435107421875,-0.17103266716003418,-0.0842408835887909,0.07146558165550232
1789757708412521700,2.553521728515625,-0.12315328419208527,-0.1021817997097969,0.04361690208315849
1789757708422531800,2.56353173828125,-0.04542369768023491,-0.11917298287153244,0.052946146577596664
1789757708432542700,2.573542724609375,0.0545087568461895,-0.1394963562488556,0.049885910004377365
1789757708442553900,2.583553955078125,0.15314960479736328,-0.15064820647239685,0.07163972407579422
1789757708452564700,2.593564697265625,0.22995437681674957,-0.11828894168138504,0.09838824719190598
1789757708462575900,2.603575927734375,0.3280641436576843,-0.07665009051561356,0.10889100283384323
1789757708472586000,2.6135859375,0.43876057863235474,-0.011622624471783638,0.10363338887691498
1789757708482596900,2.623596923828125,0.5862817764282227,0.019166922196745872,0.0546526238322258
1789757708492607700,2.633607666015625,0.7804632186889648,0.026096733286976814,0.04020657390356064
1789757708502619000,2.643618896484375,0.9585193395614624,0.03155520558357239,0.05227832868695259
1789757708512628700,2.653628662109375,1.0893462896347046,0.0645962506532669,0.07873976230621338
1789757708522640000,2.663639892578125,1.1885371208190918,0.10010094940662384,0.05003891512751579
1789757708532650800,2.673650634765625,1.2793903350830078,0.1271117925643921,0.021949753165245056
1789757708542662000,2.683661865234375,1.4018467664718628,0.15219639241695404,0.032172005623579025
1789757708552672000,2.693672119140625,1.4638441801071167,0.17025688290596008,0.05688986927270889
1789757708562683000,2.703682861328125,1.425229549407959,0.20250962674617767,0.07096347957849503
1789757708572693800,2.71369384765625,1.3728907108306885,0.2161886841058731,0.017058439552783966
1789757708582704600,2.72370458984375,1.3727511167526245,0.2242056280374527,-0.009922347962856293
1789757708592714500,2.733714599609375,1.2507436275482178,0.21811151504516602,0.022300835698843002
1789757708602725600,2.7437255859375,1.1257227659225464,0.20100712776184082,0.07748495787382126
1789757708612736500,2.753736572265625,1.000478982925415,0.14677372574806213,0.07828657329082489
1789757708622747400,2.763747314453125,0.8378809094429016,0.1281600445508957,0.01714523509144783
1789757708632758300,2.77375830078125,0.6560868620872498,0.1174706518650055,0.02533818408846855
1789757708642768400,2.783768310546875,0.43718892335891724,0.13654476404190063,0.012799995020031929
1789757708652779300,2.793779296875,0.23806916177272797,0.1342235505580902,0.0340040847659111
1789757708662790700,2.803790771484375,0.05303190276026726,0.10977271944284439,0.037515319883823395
1789757708672801500,2.813801513671875,-0.07617934793233871,0.0751606747508049,0.0500662662088871
1789757708682811400,2.823811279296875,-0.172763854265213,0.04070470109581947,0.027264408767223358
1789757708692822500,2.833822509765625,-0.2500991225242615,0.02643761783838272,0.052154842764139175
1789757708702833400,2.84383349609375,-0.3477551341056824,0.04069571942090988,0.06289073824882507
1789757708712844300,2.85384423828125,-0.42909207940101624,0.041610248386859894,0.032473985105752945
1789757708722854400,2.8638544921875,-0.4886239469051361,0.05527886375784874,0.06847760826349258
1789757708732865300,2.873865234375,-0.5181312561035156,0.03754647076129913,0.06909892708063126
1789757708742876400,2.88387646484375,-0.5295603275299072,0.052653830498456955,0.07656169682741165
1789757708752887600,2.893887451171875,-0.5529511570930481,0.07357802242040634,0.05749373510479927
1789757708762897400,2.9038974609375,-0.5234982967376709,0.08118482679128647,-0.0014435156481340528
1789757708772908500,2.913908447265625,-0.4914216101169586,0.04467768594622612,0.014081381261348724
1789757708782919400,2.92391943359375,-0.44369691610336304,0.11888637393712997,0.09459996223449707
1789757708792930300,2.933930419921875,-0.473369300365448,0.00922938622534275,-0.0938359946012497
1789757708802941400,2.94394140625,-0.3747376501560211,0.06673023849725723,0.052660755813121796
1789757708812951300,2.953951416015625,-0.3850395679473877,0.05132491514086723,0.03705942630767822
1789757708822962400,2.96396240234375,-0.4303213357925415,0.051015160977840424,0.0251544751226902
1789757708832973600,2.9739736328125,-0.5219479203224182,0.06110561266541481,-0.050084881484508514
1789757708842984400,2.983984375,-0.4931994378566742,-0.00206085667014122,-0.034818824380636215
1789757708852994600,2.99399462890625,-0.4186844527721405,-0.052456650882959366,0.040828268975019455
1789757708863005400,3.00400537109375,-0.3088633418083191,-0.09626137465238571,0.07889652997255325
1789757708873016300,3.014016357421875,-0.2829371988773346,-0.1252269744873047,0.08621329814195633
1789757708883027500,3.02402734375,-0.3062784969806671,-0.09202806651592255,0.04836121201515198
1789757708893038600,3.03403857421875,-0.3010307252407074,-0.046590276062488556,0.005096028093248606
1789757708903048400,3.04404833984375,-0.16964924335479736,-0.0865834429860115,0.04537399113178253
1789757708913059600,3.0540595703125,-0.0313667431473732,-0.10028034448623657,0.07420830428600311
1789757708923070500,3.064070556640625,0.11514236778020859,-0.10198818892240524,0.07421129941940308
1789757708933081300,3.074081298828125,0.21873028576374054,-0.09175658971071243,0.07320595532655716
1789757708943091500,3.084091552734375,0.27752694487571716,-0.03881454840302467,0.06870961934328079
1789757708953102300,3.094102294921875,0.3734816908836365,0.010441413149237633,0.08179719001054764
1789757708963113500,3.104113525390625,0.4704775810241699,0.024451440200209618,0.0656815618276596
1789757708973124600,3.11412451171875,0.5855453014373779,0.022830374538898468,0.04981018602848053
1789757708983134500,3.124134521484375,0.6861089468002319,0.04438094049692154,0.0315888375043869
1789757708993145300,3.134145263671875,0.7255426049232483,0.09002964943647385,0.010406852699816227
1789757709003156500,3.144156494140625,0.8172351717948914,0.10947025567293167,0.021480580791831017
1789757709013167400,3.15416748046875,0.875232458114624,0.14060288667678833,0.019139662384986877
1789757709023177500,3.164177490234375,0.9010233283042908,0.15189440548419952,0.04710513725876808
1789757709033188400,3.174188232421875,0.8989966511726379,0.12995581328868866,0.04805854707956314
1789757709043199500,3.184199462890625,0.8668729662895203,0.12628410756587982,0.03912990912795067
1789757709053210600,3.194210693359375,0.8443213105201721,0.11882752180099487,0.036030519753694534
1789757709063221500,3.204221435546875,0.8128014206886292,0.10801830142736435,0.021877000108361244
1789757709073231400,3.2142314453125,0.7795736789703369,0.11168147623538971,0.0569380484521389
1789757709083242500,3.224242431640625,0.7479953169822693,0.103932686150074,0.0469769723713398
1789757709093253400,3.23425341796875,0.7103677988052368,0.11242523789405823,0.07611116021871567
1789757709103264300,3.24426416015625,0.6334042549133301,0.1140282079577446,0.08012864738702774
1789757709113274400,3.2542744140625,0.5751124620437622,0.11279197037220001,0.07895153015851974
1789757709123285500,3.264285400390625,0.4968577027320862,0.10371644049882889,0.053769491612911224
1789757709133296400,3.27429638671875,0.47136297821998596,0.07350634038448334,0.07285210490226746
1789757709143307500,3.2843076171875,0.3725045919418335,0.08982917666435242,0.09252147376537323
1789757709153317400,3.2943173828125,0.27243179082870483,0.07677462697029114,0.08139745146036148
1789757709163328500,3.30432861328125,0.20153357088565826,0.0702400729060173,0.06937574595212936
1789757709173339400,3.31433935546875,0.15421825647354126,0.05946199595928192,0.07117125391960144
1789757709183350300,3.324350341796875,0.07773032784461975,0.06411941349506378,0.07407397031784058
1789757709193360400,3.3343603515625,0.040281228721141815,0.056445520371198654,0.11278460919857025
1789757709203371500,3.34437158203125,-0.01062232069671154,0.04608410596847534,0.09323291480541229
1789757709213382400,3.35438232421875,-0.03806459903717041,0.047135256230831146,0.1303160935640335
1789757709223393500,3.3643935546875,-0.09662407636642456,0.024498403072357178,0.11694208532571793
1789757709233404400,3.374404296875,-0.17720121145248413,0.04334559291601181,0.06227723881602287
1789757709243414500,3.38441455078125,-0.25118017196655273,0.029725274071097374,-0.034851402044296265
1789757709253425400,3.39442529296875,-0.2373029738664627,0.01653170771896839,-0.016306478530168533
1789757709263436500,3.4044365234375,-0.25714635848999023,0.01606202870607376,-0.03425047919154167
1789757709273447400,3.414447509765625,-0.22612345218658447,0.006826983764767647,-0.01739479787647724
1789757709283457500,3.42445751953125,-0.28397148847579956,0.032319772988557816,-0.031250081956386566
1789757709293468400,3.434468505859375,-0.30287405848503113,0.022013340145349503,-0.07244759052991867
1789757709303479600,3.4444794921875,-0.29466813802719116,0.03387535363435745,-0.0488717257976532
1789757709313490400,3.454490478515625,-0.28309136629104614,-0.015045318752527237,-0.04335791617631912
1789757709323500300,3.464500244140625,-0.23696942627429962,-0.022466246038675308,-0.04519079625606537
1789757709333511400,3.474511474609375,-0.19499827921390533,-0.044654905796051025,-0.07796525210142136
1789757709343522600,3.4845224609375,-0.14842595160007477,-0.028117384761571884,-0.06162235513329506
1789757709353533400,3.494533447265625,-0.06407485902309418,-0.0255034938454628,-0.06909225881099701
1789757709363544600,3.504544677734375,0.037768423557281494,0.0005472232587635517,-0.028822382912039757
1789757709373554400,3.514554443359375,0.1040521040558815,-0.011008499190211296,-0.06867579370737076
1789757709383565300,3.5245654296875,0.19576352834701538,0.019119009375572205,-0.061016492545604706
1789757709393576400,3.534576416015625,0.2707235515117645,0.016164498403668404,-0.051753751933574677
1789757709403587300,3.54458740234375,0.3576841652393341,0.014002261683344841,-0.030257752165198326
1789757709413597400,3.554597412109375,0.4329775869846344,0.019061468541622162,-0.008151917718350887
1789757709423608600,3.564608642578125,0.4978461265563965,0.02836260199546814,-0.0033753348980098963
1789757709433619500,3.574619384765625,0.5373626351356506,0.0561060830950737,0.0002827832940965891
1789757709443630300,3.58463037109375,0.5612155795097351,0.06733150780200958,-0.028453562408685684
1789757709453640400,3.594640380859375,0.5733020901679993,0.12841111421585083,0.016321897506713867
1789757709463651300,3.6046513671875,0.5649796724319458,0.12328487634658813,-0.00742644676938653
1789757709473662500,3.614662353515625,0.5775029063224792,0.12406119704246521,0.020665908232331276
1789757709483673300,3.62467333984375,0.5151085257530212,0.11243457347154617,-0.02553439512848854
1789757709493683500,3.634683349609375,0.501147449016571,0.10295478999614716,-0.013969617895781994
1789757709503694600,3.644694580078125,0.4206303060054779,0.06732061505317688,-0.029830327257514
1789757709513705500,3.65470556640625,0.3163782060146332,0.052852731198072433,-0.014781069941818714
1789757709523716400,3.66471630859375,0.15347620844841003,0.07416199147701263,0.04469653591513634
1789757709533727500,3.6747275390625,0.006487036123871803,0.07691596448421478,0.025233088061213493
1789757709543737300,3.6847373046875,-0.08703058212995529,0.0871787816286087,0.026005851104855537
1789757709553748500,3.69474853515625,-0.19450192153453827,0.029833735898137093,-0.0357869416475296
1789757709563759400,3.70475927734375,-0.2390705645084381,0.003111276775598526,0.022760039195418358
1789757709573770500,3.7147705078125,-0.3198966979980469,0.0027461573481559753,-0.00768921198323369
1789757709583781000,3.724781005859375,-0.33963853120803833,0.02214914560317993,0.004975856281816959
1789757709593792000,3.7347919921875,-0.37977689504623413,0.058642443269491196,0.02794482186436653
1789757709603803000,3.744802978515625,-0.3767366409301758,0.048706457018852234,0.018817901611328125
1789757709614439000,3.75543896484375,-0.31950274109840393,0.04413387179374695,0.00038913218304514885
1789757709624450000,3.765449951171875,-0.3171585500240326,0.043763961642980576,-0.04529380798339844
1789757709634461000,3.7754609375,-0.28719478845596313,0.04265742003917694,-0.0024555295240134
1789757709644471000,3.785470947265625,-0.24320881068706512,0.02812930755317211,0.01513709593564272
1789757709654482000,3.79548193359375,-0.2241690754890442,0.04804735630750656,-0.02797708287835121
1789757709664492800,3.805492919921875,-0.20393714308738708,0.03367694839835167,-0.027863645926117897
1789757709674504000,3.81550390625,-0.20882751047611237,0.0363297238945961,0.0052255974151194096
1789757709684514000,3.82551416015625,-0.21110035479068756,0.020885951817035675,-0.0010976602789014578
1789757709694525000,3.83552490234375,-0.21748794615268707,0.01321498304605484,-0.030304281041026115
1789757709704536000,3.8455361328125,-0.25963065028190613,0.030706115067005157,-0.01140972413122654
1789757709714547000,3.855546875,-0.2570878565311432,-0.02151154913008213,-0.008632313460111618
1789757709724556800,3.865556884765625,-0.253968745470047,-0.031150761991739273,-0.0289439894258976
1789757709734568000,3.87556787109375,-0.2632714509963989,-0.030143555253744125,0.022816676646471024
1789757709744578800,3.885578857421875,-0.29125458002090454,-0.06942898035049438,0.022490806877613068
1789757709754590000,3.89558984375,-0.2878633141517639,-0.07167083024978638,0.025536665692925453
1789757709764601000,3.90560107421875,-0.28552666306495667,-0.10559703409671783,-0.03382556140422821
1789757709774611000,3.91561083984375,-0.2634325623512268,-0.07979100942611694,0.02545160800218582
1789757709784622000,3.9256220703125,-0.2738008201122284,-0.10121750086545944,-0.012827958911657333
1789757709794633000,3.935633056640625,-0.1897415965795517,-0.10451395809650421,-0.025521116331219673
1789757709804643800,3.945643798828125,-0.1318056881427765,-0.08776719123125076,-0.014721745625138283
1789757709814654000,3.955654052734375,-0.057423871010541916,-0.08075082302093506,0.007640285883098841
1789757709824664800,3.965664794921875,0.02840844914317131,-0.06793136894702911,0.01597081869840622
1789757709834676000,3.975676025390625,0.11589355766773224,-0.05742332711815834,-0.008660225197672844
1789757709844687000,3.98568701171875,0.18318751454353333,-0.04200024530291557,-0.007619081996381283
1789757709854697000,3.995697021484375,0.2461150735616684,-0.02776884287595749,-0.027322478592395782
1789757709864707800,4.005707763671875,0.3098800778388977,0.0006401808932423592,0.0013335018884390593
1789757709874719000,4.015718994140625,0.33711037039756775,-0.018610479310154915,-0.03217252716422081
1789757709884729900,4.025729736328125,0.41471990942955017,-0.012648503296077251,0.0018784473650157452
1789757709894741000,4.035740966796875,0.4395480453968048,-0.04439045488834381,-0.03519408404827118
1789757709904750800,4.045750732421875,0.4501167833805084,-0.01028760988265276,0.004229485988616943
1789757709914762000,4.055761962890625,0.40634453296661377,-0.014427759684622288,-0.016394034028053284
1789757709924772900,4.06577294921875,0.37539175152778625,0.016045689582824707,0.017773447558283806
1789757709934784000,4.075783935546875,0.34199783205986023,0.011025896295905113,0.003995584324002266
1789757709944793900,4.0857939453125,0.36125999689102173,-0.05153168737888336,-0.019572565332055092
1789757709954805000,4.095804931640625,0.3318943977355957,-0.045825064182281494,-0.06962215155363083
1789757709964816000,4.10581591796875,0.3498794138431549,-0.058891355991363525,0.03950290381908417
1789757709974827000,4.115826904296875,0.2884879410266876,-0.057255908846855164,0.027076059952378273
1789757709984837000,4.125837158203125,0.2764909863471985,-0.0830736979842186,0.01827252469956875
1789757709994848000,4.135847900390625,0.2679145634174347,-0.06359907239675522,-0.012698972597718239
1789757710004859000,4.14585888671875,0.27799955010414124,-0.07994154095649719,-0.021554680541157722
1789757710014870000,4.1558701171875,0.3402669131755829,-0.05707377567887306,0.033965300768613815
1789757710024879900,4.1658798828125,0.3661804497241974,-0.07912793755531311,-0.043511658906936646
1789757710034891000,4.17589111328125,0.4389212429523468,-0.02050190605223179,-0.012949754483997822
1789757710044902000,4.18590185546875,0.5330828428268433,-0.05142383277416229,0.012659545987844467
1789757710054913000,4.1959130859375,0.5853870511054993,0.0014590895734727383,0.01562018133699894
1789757710064924000,4.205923828125,0.6474499106407166,-0.01690717227756977,0.008328636176884174
1789757710074934000,4.21593408203125,0.6897582411766052,0.02526984177529812,-0.060710616409778595
1789757710084945000,4.22594482421875,0.6741218566894531,0.05424255505204201,-0.09826571494340897
1789757710094956000,4.2359560546875,0.7357668876647949,0.07466553896665573,-0.09257853776216507
1789757710104967000,4.245966796875,0.8046813011169434,0.08071902394294739,0.037621352821588516
1789757710114976800,4.255976806640625,0.8788354396820068,0.10806330293416977,0.04981756582856178
1789757710124988000,4.26598779296875,0.943415105342865,0.07249248772859573,0.055007584393024445
1789757710134999000,4.2759990234375,0.9653662443161011,0.10462672263383865,0.07696720957756042
1789757710145010000,4.286010009765625,0.934055745601654,0.09051734954118729,-0.013793138787150383
1789757710155020000,4.29602001953125,0.8758638501167297,0.15646734833717346,0.008501247502863407
1789757710165031000,4.306031005859375,0.8209659457206726,0.1711186021566391,-0.08435502648353577
1789757710175041800,4.316041748046875,0.860244631767273,0.1522682160139084,-0.010167613625526428
1789757710185053000,4.326052978515625,0.8606885075569153,0.12095479667186737,-0.053578902035951614
1789757710195062800,4.336062744140625,0.8746764659881592,0.08921124786138535,0.05761100351810455
1789757710205074000,4.346073974609375,0.8390055894851685,0.08690500259399414,0.025065362453460693
1789757710215085000,4.3560849609375,0.7649084329605103,0.12647132575511932,0.0719417855143547
1789757710225096000,4.366095947265625,0.6894348859786987,0.11464498937129974,0.02450401708483696
1789757710235107000,4.376107177734375,0.6105059385299683,0.17024487257003784,0.034584078937768936
1789757710245117000,4.386116943359375,0.5017402768135071,0.1831023395061493,0.041076742112636566
1789757710255127800,4.3961279296875,0.49512574076652527,0.13439978659152985,0.011275969445705414
1789757710265139000,4.406138916015625,0.4466412663459778,0.12631365656852722,0.0402202308177948
1789757710275150000,4.416150146484375,0.4715428948402405,0.13546347618103027,0.09248875826597214
1789757710285160000,4.426159912109375,0.44952982664108276,0.15459397435188293,-0.011485762894153595
1789757710295171000,4.436171142578125,0.38224664330482483,0.17822393774986267,0.035144321620464325
1789757710305182000,4.446181884765625,0.39277124404907227,0.21005438268184662,-0.003174545243382454
1789757710315192800,4.45619287109375,0.41958287358283997,0.18962447345256805,0.05487464368343353
1789757710325203000,4.466202880859375,0.4286067485809326,0.1747319996356964,0.019755639135837555
1789757710335213800,4.4762138671875,0.4169839322566986,0.18367703258991241,0.05558048188686371
1789757710345225000,4.486224853515625,0.36909690499305725,0.19164255261421204,0.028388934209942818
1789757710355236000,4.496236083984375,0.33630141615867615,0.22242683172225952,0.1084962859749794
1789757710365247000,4.5062470703125,0.2964286208152771,0.2178345024585724,0.039765629917383194
1789757710375257000,4.516257080078125,0.2715807855129242,0.23921597003936768,0.10050567239522934
1789757710385268000,4.52626806640625,0.21808136999607086,0.21847285330295563,-0.046673618257045746
1789757710395278800,4.53627880859375,0.19513477385044098,0.22534647583961487,0.02811061032116413
1789757710405290000,4.5462900390625,0.15023228526115417,0.21253670752048492,0.0651637464761734
1789757710415299800,4.5562998046875,0.103472501039505,0.2205834537744522,0.08560830354690552
1789757710425311000,4.56631103515625,-0.0035212449729442596,0.23579111695289612,0.05978903919458389
1789757710435322000,4.576322021484375,-0.05166453868150711,0.2459300458431244,0.049919094890356064
1789757710445333000,4.5863330078125,-0.13239772617816925,0.25558292865753174,-0.02301594614982605
1789757710455343000,4.596343017578125,-0.12890924513339996,0.21024739742279053,-0.013567582704126835
1789757710465354000,4.60635400390625,-0.1333487629890442,0.18903566896915436,0.028322508558630943
1789757710475364900,4.61636474609375,-0.10303638130426407,0.18977601826190948,0.06379076093435287
1789757710485376000,4.6263759765625,-0.1765410304069519,0.18660485744476318,0.06866346299648285
1789757710495385900,4.6363857421875,-0.28978848457336426,0.2778700888156891,0.058282993733882904
1789757710505396700,4.646396728515625,-0.3683372735977173,0.26003655791282654,0.03841817378997803
1789757710515408100,4.656408203125,-0.389085978269577,0.28856274485588074,0.0358000174164772
1789757710525419000,4.6664189453125,-0.37394627928733826,0.18530771136283875,0.06810010224580765
1789757710535430000,4.676429931640625,-0.3683789372444153,0.17871291935443878,0.046295203268527985
1789757710545440000,4.68643994140625,-0.4134555459022522,0.18636761605739594,-0.0010794618865475059
1789757710555451000,4.696450927734375,-0.4567824900150299,0.1875378042459488,-0.015144415199756622
1789757710565461800,4.706461669921875,-0.47455206513404846,0.22788073122501373,0.03566332161426544
1789757710575473000,4.716472900390625,-0.5231547951698303,0.2199317365884781,-0.045659229159355164
1789757710585482800,4.726482666015625,-0.4634287357330322,0.19502747058868408,-0.06252516806125641
1789757710595494100,4.736494140625,-0.4911162853240967,0.20586144924163818,0.024488825350999832
1789757710605505000,4.746505126953125,-0.4830854535102844,0.16728955507278442,0.0302849430590868
1789757710615516000,4.756515869140625,-0.4267401397228241,0.13859505951404572,-0.06161808595061302
1789757710625526000,4.766526123046875,-0.44821056723594666,0.15462173521518707,0.03547061234712601
1789757710635537000,4.776536865234375,-0.45979294180870056,0.1075439602136612,-0.013976567424833775
1789757710645547800,4.7865478515625,-0.4831956923007965,0.14463064074516296,0.03901882842183113
1789757710655559000,4.796558837890625,-0.520104169845581,0.10546113550662994,-0.01653284579515457
1789757710665568800,4.80656884765625,-0.4909495413303375,0.1238725483417511,0.02181067317724228
1789757710675580000,4.816579833984375,-0.5530771017074585,0.09580309689044952,0.07158754765987396
1789757710685591000,4.826591064453125,-0.5380089282989502,0.06219693273305893,0.04425499588251114
1789757710695602000,4.836601806640625,-0.5666105151176453,0.05945602059364319,-0.015608489513397217
1789757710705612800,4.84661279296875,-0.5602040886878967,0.051038578152656555,-0.02167145349085331
1789757710715623000,4.856622802734375,-0.5499943494796753,0.0306566059589386,-0.06075281277298927
1789757710725633800,4.8666337890625,-0.5214940309524536,0.017733894288539886,-0.050018295645713806
1789757710735645000,4.87664501953125,-0.5246189832687378,0.023312153294682503,-0.05671507865190506
1789757710745656000,4.886656005859375,-0.4283088445663452,-0.011120917275547981,-0.012099812738597393
1789757710755666000,4.896666015625,-0.4342125356197357,0.02149508148431778,-0.010509905405342579
1789757710765677000,4.906677001953125,-0.35139384865760803,0.007368302904069424,0.0836387574672699
1789757710775688000,4.91668798828125,-0.3358103632926941,-0.010150503367185593,0.010982133448123932
1789757710785698800,4.92669873046875,-0.325046181678772,-0.000333534087985754,-0.0040786126628518105
1789757710795709000,4.936708984375,-0.3642628490924835,0.04396442323923111,-0.019765961915254593
1789757710805719800,4.9467197265625,-0.3057684898376465,0.011578123085200787,-0.06644218415021896
1789757710815731000,4.95673095703125,-0.29309824109077454,0.027350429445505142,0.0006593549624085426
1789757710825742000,4.9667421875,-0.25588342547416687,-0.010436199605464935,-0.038662876933813095
1789757710835752000,4.976751953125,-0.24968171119689941,-0.008093414828181267,-0.05524478480219841
1789757710845763000,4.98676318359375,-0.2716451585292816,0.026204058900475502,0.0741962268948555
1789757710855774000,4.99677392578125,-0.2964511811733246,-0.006870271172374487,-0.03373795747756958
1789757710865784800,5.006784912109375,-0.293300062417984,0.0084347203373909,0.012356857769191265
1789757710875796000,5.0167958984375,-0.3578217923641205,0.005845062900334597,-0.041953250765800476
1789757710885805800,5.026805908203125,-0.3087487518787384,-0.017334915697574615,-0.01612444594502449
1789757710895817000,5.03681689453125,-0.3354237675666809,-0.009490042924880981,0.0026931846514344215
1789757710905828000,5.046828125,-0.35981178283691406,-0.024091867730021477,-0.0013214291539043188
1789757710915839000,5.0568388671875,-0.3703906536102295,-0.022517940029501915,0.011092363856732845
1789757710925849000,5.06684912109375,-0.3646451234817505,-0.004260877147316933,0.002240370959043503
1789757710935860000,5.07685986328125,-0.332146555185318,-0.05035034194588661,0.020955735817551613
1789757710945870800,5.086870849609375,-0.3317926228046417,-0.046415776014328,-0.02745642513036728
1789757710955881700,5.0968818359375,-0.3389520049095154,-0.006835076026618481,0.05252709239721298
1789757710965891800,5.106891845703125,-0.31246647238731384,-0.003895512316375971,-0.025031564757227898
1789757710975903000,5.116903076171875,-0.2710162401199341,-0.030543101951479912,-0.029717130586504936
1789757710985914000,5.1269140625,-0.20610329508781433,-0.04288018122315407,-0.014490392990410328
1789757710995925000,5.136925048828125,-0.18641135096549988,-0.09648402780294418,-0.10174407064914703
1789757711005935900,5.146935791015625,-0.21396148204803467,-0.04730720818042755,0.022021761164069176
1789757711015946000,5.156946044921875,-0.24763210117816925,-0.03184302896261215,0.04581524059176445
1789757711025956900,5.166956787109375,-0.24102430045604706,0.005878805182874203,0.035159096121788025
1789757711035967700,5.1769677734375,-0.20898035168647766,-0.021221786737442017,-0.0012854639207944274
1789757711045979100,5.186979248046875,-0.13520292937755585,-0.04238111525774002,0.059656817466020584
1789757711055989000,5.196989013671875,-0.13519281148910522,-0.09371381253004074,-0.004418305121362209
1789757711066000000,5.206999755859375,-0.13709141314029694,-0.06475089490413666,-0.013378866016864777
1789757711076011000,5.217010986328125,-0.13672976195812225,-0.08491742610931396,-0.008199283853173256
1789757711086022000,5.22702197265625,-0.1097971647977829,-0.06694744527339935,0.0029165728483349085
1789757711096032000,5.237031982421875,-0.0966147854924202,-0.10872232168912888,-0.06915576010942459
1789757711106043000,5.24704296875,-0.04738277196884155,-0.11798880249261856,0.0035846461541950703
1789757711116054000,5.257053955078125,-0.05351363494992256,-0.10162714123725891,0.016647718846797943
1789757711126065000,5.26706494140625,-0.01144367828965187,-0.08131968230009079,0.12722328305244446
1789757711136075000,5.277074951171875,0.008588086813688278,-0.07943922281265259,0.04317738115787506
1789757711146086000,5.2870859375,0.053038131445646286,-0.045400843024253845,0.03843417763710022
1789757711156097000,5.297096923828125,0.09705352783203125,-0.06814024597406387,0.016146712005138397
1789757711166108000,5.30710791015625,0.16139675676822662,-0.08142714947462082,0.027031928300857544
1789757711176118000,5.317117919921875,0.1760774403810501,-0.08654654771089554,0.01960144378244877
1789757711186129000,5.32712890625,0.20896001160144806,-0.10309609770774841,-0.011061863973736763
1789757711196140000,5.33714013671875,0.19171524047851562,-0.06885610520839691,0.017631564289331436
1789757711207403000,5.348403076171875,0.17553414404392242,-0.0862731784582138,-0.009859980084002018
1789757711218039000,5.3590390625,0.16012082993984222,-0.05626228451728821,-0.043450430035591125
1789757711228050000,5.3690498046875,0.15125010907649994,-0.048227258026599884,-0.011862676590681076
1789757711238060000,5.37906005859375,0.1606004685163498,-0.047092221677303314,-0.016250235959887505
1789757711248071000,5.38907080078125,0.19279329478740692,-0.04260293394327164,0.03495170176029205
1789757711258081800,5.399081787109375,0.2278485894203186,-0.05853449925780296,-0.022704659029841423
1789757711268093000,5.409093017578125,0.2541551887989044,-0.04723348468542099,-0.014885313808918
1789757711278102800,5.419102783203125,0.22502419352531433,-0.055263977497816086,-0.05344256013631821
1789757711288114000,5.429114013671875,0.24320799112319946,-0.029166333377361298,0.022695617750287056
1789757711298125000,5.439125,0.24808993935585022,-0.038314249366521835,-0.007773811928927898
1789757711308136000,5.449135986328125,0.2475905865430832,-0.00587815884500742,-0.0144988764077425
1789757711318146000,5.45914599609375,0.19652128219604492,-0.026834573596715927,-0.04019917920231819
1789757711328157000,5.469156982421875,0.20556510984897614,-0.03563418984413147,0.030725058168172836
1789757711338167800,5.479167724609375,0.20478129386901855,-0.03258037567138672,-0.0762408971786499
1789757711348179000,5.489178955078125,0.20181351900100708,-0.04578040912747383,-0.05441896244883537
1789757711358190000,5.499190185546875,0.11564534157514572,-0.072295643389225,-0.09903836250305176
1789757711368200000,5.509199951171875,0.04846097156405449,-0.0027623693458735943,-0.0013605395797640085
1789757711378211000,5.519211181640625,0.02804272435605526,-0.051608968526124954,0.05531373247504234
1789757711388222000,5.529221923828125,0.09906306117773056,-0.0709213837981224,0.026060735806822777
1789757711398232800,5.53923291015625,0.07860945165157318,-0.08829904347658157,-0.009948397055268288
1789757711408243000,5.549242919921875,0.035547204315662384,-0.06640014052391052,-0.007260468788444996
1789757711418253800,5.55925390625,-0.0017348169349133968,-0.032004889100790024,-0.022762715816497803
1789757711428265000,5.569264892578125,0.015125365927815437,-0.03842528164386749,-0.00787291955202818
1789757711438276000,5.579276123046875,0.05292520672082901,-0.04302722215652466,-0.012206414714455605
1789757711448286000,5.589285888671875,0.0880855992436409,-0.060955360531806946,-0.03855093941092491
1789757711458297000,5.599297119140625,0.09391263127326965,-0.06295403093099594,-0.03796655312180519
1789757711468308000,5.609307861328125,0.08394188433885574,-0.08991190046072006,-0.06617432087659836
1789757711478318800,5.61931884765625,0.09180539846420288,-0.0782022476196289,-0.05474270507693291
1789757711488330000,5.629330078125,0.12596629559993744,-0.0905609130859375,0.04511678218841553
1789757711498339800,5.63933984375,0.12550871074199677,-0.09101787209510803,0.014555487781763077
1789757711508351000,5.64935107421875,0.08809194713830948,-0.06520254164934158,0.0028667717706412077
1789757711518362000,5.659362060546875,0.07402432709932327,-0.06576553732156754,-0.010646373964846134
1789757711528373000,5.669373046875,0.08586234599351883,-0.07815296202898026,-0.05892495810985565
1789757711538383000,5.679383056640625,0.10828450322151184,-0.07515207678079605,-0.06218618527054787
1789757711548394000,5.68939404296875,0.13944534957408905,-0.07912018895149231,0.05717163160443306
1789757711559030000,5.700030029296875,0.14449644088745117,-0.07912685722112656,0.009915335103869438
1789757711569041000,5.710041015625,0.1557762622833252,-0.06994035094976425,-0.009087549522519112
1789757711579052300,5.72005224609375,0.159919872879982,-0.05369400605559349,-0.054477132856845856
1789757711589062100,5.730062255859375,0.16007587313652039,-0.037552230060100555,-0.1162160113453865
1789757711599073300,5.7400732421875,0.19653481245040894,-0.058733150362968445,-0.15766704082489014
1789757711609084200,5.750084228515625,0.2258920818567276,-0.05414005368947983,-0.18307296931743622
1789757711619095300,5.76009521484375,0.23825527727603912,-0.05549746751785278,-0.16438770294189453
1789757711629106200,5.770106201171875,0.22765886783599854,-0.04255122318863869,-0.17864878475666046
1789757711639116300,5.7801162109375,0.23410798609256744,-0.036751922219991684,-0.13397079706192017
1789757711649127200,5.790127197265625,0.2851381003856659,-0.0484868623316288,0.07905503362417221
1789757711659138300,5.80013818359375,0.3281039595603943,-0.06281387060880661,0.15122322738170624
1789757711669149200,5.810149169921875,0.32824233174324036,-0.07346596568822861,0.09119914472103119
1789757711679159000,5.820158935546875,0.28230252861976624,-0.036317259073257446,0.025780191645026207
1789757711689170200,5.830170166015625,0.2703441381454468,-0.015533152036368847,-0.02287895604968071
1789757711699181300,5.840181396484375,0.2912122309207916,0.009164300747215748,-0.04303735867142677
1789757711709192200,5.850192138671875,0.3222634792327881,-0.03139055147767067,-0.08593667298555374
1789757711719202300,5.860202392578125,0.3373638689517975,-0.02518618479371071,-0.04383236542344093
1789757711729213200,5.870213134765625,0.33435046672821045,-0.036129891872406006,-0.040873631834983826
1789757711739224300,5.880224365234375,0.33791670203208923,-0.06676103174686432,-0.0005525746382772923
1789757711749235200,5.890235107421875,0.2829864025115967,-0.005696575157344341,0.09945704787969589
1789757711759245000,5.9002451171875,0.23602180182933807,-0.01450657844543457,0.10269518196582794
1789757711769256400,5.91025634765625,0.2272299826145172,-0.012074308469891548,0.06303391605615616
1789757711779267300,5.920267333984375,0.20874178409576416,0.0020457711070775986,0.04278164729475975
1789757711789278200,5.9302783203125,0.21557743847370148,-0.01835624687373638,0.017332062125205994
1789757711799289300,5.940289306640625,0.21732260286808014,-0.046352460980415344,-0.013253810815513134
1789757711809299200,5.95029931640625,0.19587209820747375,-0.034741561859846115,0.03174261748790741
1789757711819310000,5.96031005859375,0.19111675024032593,-0.04542270302772522,0.021593576297163963
1789757711829321200,5.9703212890625,0.15879487991333008,-0.016508184373378754,0.003639139700680971
1789757711839332400,5.980332275390625,0.15500839054584503,-0.014505486935377121,-0.015965986996889114
1789757711849342500,5.990342529296875,0.16763639450073242,-0.029261581599712372,-0.029556553810834885
1789757711859353300,6.000353271484375,0.1653527319431305,-0.019770607352256775,-0.02344859391450882
1789757711869364200,6.0103642578125,0.1682247519493103,-0.03134070709347725,-0.029069602489471436
1789757711879375000,6.020375,0.17336812615394592,-0.03434182330965996,-0.013149225153028965
1789757711889385200,6.03038525390625,0.16918441653251648,-0.02417123131453991,-0.022090356796979904
1789757711899396000,6.04039599609375,0.1795302778482437,-0.023374412208795547,-0.03932100906968117
1789757711909407200,6.0504072265625,0.19825716316699982,-0.03916269540786743,-0.08866872638463974
1789757711919418400,6.06041845703125,0.2084602564573288,-0.02121431939303875,-0.061081837862730026
1789757711929428200,6.07042822265625,0.21935205161571503,-0.012179267592728138,-0.06303408741950989
1789757711939439400,6.080439453125,0.22046871483325958,-0.005468633025884628,-0.03809278458356857
1789757711949450200,6.0904501953125,0.24115179479122162,0.01370612159371376,-0.05414405092597008
1789757711959461000,6.100461181640625,0.26050472259521484,0.014521848410367966,-0.0727052167057991
1789757711969472300,6.11047216796875,0.2959615886211395,0.003933403640985489,-0.06642097979784012
1789757711979482000,6.120482177734375,0.3024596869945526,0.02018720842897892,-0.04127434641122818
1789757711989493200,6.1304931640625,0.3069310188293457,0.018505709245800972,-0.0513114333152771
1789757711999504400,6.14050439453125,0.29188549518585205,0.0626305565237999,0.0119490260258317
1789757712009515300,6.150515380859375,0.2822584807872772,0.06214828044176102,0.01715707965195179
1789757712019525400,6.160525390625,0.2776954472064972,0.06836596131324768,0.04904044419527054
1789757712029536300,6.170536376953125,0.275484561920166,0.09511358290910721,0.05063224211335182
1789757712039547100,6.180547119140625,0.27268317341804504,0.09908915311098099,0.14398854970932007
1789757712049558300,6.190558349609375,0.28042101860046387,0.10511751472949982,0.14565935730934143
1789757712059568000,6.200568115234375,0.2803954482078552,0.10276248306035995,0.029844071716070175
1789757712069579000,6.2105791015625,0.31091049313545227,0.08386016637086868,-0.11716242134571075
1789757712079590400,6.22059033203125,0.31156376004219055,0.08233150839805603,-0.19075673818588257
1789757712089601300,6.230601318359375,0.2946840524673462,0.07758983224630356,-0.12020612508058548
1789757712099611400,6.240611328125,0.24266640841960907,0.0913703590631485,-0.06890299171209335
1789757712109622300,6.250622314453125,0.19196230173110962,0.08625729382038116,-0.018414294347167015
1789757712119633200,6.260633056640625,0.19836029410362244,0.07983401417732239,-0.011799801141023636
1789757712129644000,6.27064404296875,0.21437843143939972,0.09548620134592056,-0.015859104692935944
1789757712139654100,6.280654052734375,0.26066017150878906,0.07531195878982544,-0.077374666929245
1789757712149665000,6.2906650390625,0.28005310893058777,0.07564465701580048,-0.056183334439992905
1789757712159676400,6.300676513671875,0.2899984121322632,0.08449967205524445,-0.05478037893772125
1789757712169687300,6.310687255859375,0.32069259881973267,0.08485135436058044,-0.058675214648246765
1789757712179698200,6.3206982421875,0.34337979555130005,0.09045171737670898,-0.06835900247097015
1789757712189708300,6.330708251953125,0.35791003704071045,0.10256172716617584,-0.07761494815349579
1789757712199719200,6.34071923828125,0.36513546109199524,0.1219806969165802,-0.10760480165481567
1789757712209730000,6.35072998046875,0.3736145496368408,0.13562160730361938,-0.11378402262926102
1789757712219741400,6.360741455078125,0.40510961413383484,0.1366005837917328,-0.0685664713382721
1789757712229751300,6.370751220703125,0.4373864531517029,0.1302441954612732,-0.07297234982252121
1789757712239762400,6.380762451171875,0.4475615918636322,0.133731871843338,-0.07528210431337357
1789757712249773300,6.390773193359375,0.44449084997177124,0.14873693883419037,-0.0516003742814064
1789757712259784200,6.4007841796875,0.43766331672668457,0.1574590653181076,-0.008257162757217884
1789757712269794300,6.410794189453125,0.4337412714958191,0.1738441437482834,0.028363050892949104
1789757712279805200,6.42080517578125,0.42029765248298645,0.18506591022014618,0.017110930755734444
1789757712289816000,6.430816162109375,0.4137880802154541,0.17382651567459106,0.01672418788075447
1789757712299827500,6.440827392578125,0.4130817949771881,0.18609729409217834,0.0388135127723217
1789757712309837300,6.45083740234375,0.3968759775161743,0.1682642251253128,0.050779134035110474
1789757712319848200,6.46084814453125,0.36439287662506104,0.1838839203119278,0.07194913178682327
1789757712329859300,6.470859375,0.3048402667045593,0.19275762140750885,0.07849643379449844
1789757712339870200,6.4808701171875,0.25078287720680237,0.19156906008720398,0.06169135868549347
1789757712349881000,6.490881103515625,0.19279086589813232,0.17814432084560394,0.04866144806146622
1789757712359891200,6.50089111328125,0.1455674171447754,0.14837656915187836,0.042156413197517395
1789757712369902000,6.510902099609375,0.09981591254472733,0.1449977606534958,0.015217688865959644
1789757712379913200,6.520913330078125,0.0305114034563303,0.1505720317363739,0.04706510156393051
1789757712389924400,6.53092431640625,-0.02202269621193409,0.12359828501939774,0.04769080504775047
1789757712399934200,6.540934326171875,-0.05679558962583542,0.1149965450167656,0.05075983330607414
1789757712409945300,6.5509453125,-0.08004748821258545,0.07695057988166809,0.06374693661928177
1789757712419956200,6.560956298828125,-0.08757304400205612,0.055742762982845306,0.010601162910461426
1789757712429967000,6.570967041015625,-0.12250419706106186,0.06979870051145554,0.0016572782769799232
1789757712439977200,6.580977294921875,-0.13938836753368378,0.06779679656028748,0.012880638241767883
1789757712449988000,6.590988037109375,-0.13419029116630554,0.08347433060407639,0.041352976113557816
1789757712459999200,6.600999267578125,-0.12196823954582214,0.08787734061479568,0.025629673153162003
1789757712470010400,6.61101025390625,-0.09060011804103851,0.07914509624242783,0.02858830615878105
1789757712480020200,6.621020263671875,-0.06107151880860329,0.07503876835107803,0.0006328364834189415
1789757712490031400,6.63103125,-0.05522197112441063,0.07046366482973099,-0.004410036839544773
1789757712500042200,6.641042236328125,-0.03940412402153015,0.055955566465854645,0.026795286685228348
1789757712510053000,6.65105322265625,-0.03518370911478996,0.08452999591827393,0.06807407736778259
1789757712520064000,6.66106396484375,-0.03294052928686142,0.08214274048805237,0.05097871646285057
1789757712530074000,6.67107421875,-0.032141152769327164,0.1001182347536087,0.0331202931702137
1789757712540085200,6.681085205078125,-0.027566106989979744,0.11103266477584839,0.007255674339830875
1789757712550096400,6.691096435546875,0.0029597007669508457,0.08835481852293015,-0.011692501604557037
1789757712560107300,6.701107177734375,0.034720294177532196,0.09424573183059692,-0.0007876555901020765
1789757712570117000,6.7111171875,0.07155279070138931,0.07862649857997894,0.015518169850111008
1789757712580127700,6.721127685546875,0.09029239416122437,0.09420226514339447,0.039218172430992126
1789757712590139000,6.731138916015625,0.09364257007837296,0.1050507053732872,0.021449752151966095
1789757712600149800,6.741149658203125,0.12401964515447617,0.11598297953605652,0.04007457196712494
1789757712610159900,6.751159912109375,0.13427123427391052,0.11280213296413422,0.029965944588184357
1789757712620170800,6.761170654296875,0.14948107302188873,0.11437419801950455,0.04050301015377045
1789757712630182000,6.771181884765625,0.16591230034828186,0.09860128909349442,0.03171829134225845
1789757712640192800,6.78119287109375,0.16243234276771545,0.09948092699050903,0.05282943695783615
1789757712650202600,6.79120263671875,0.14473126828670502,0.12004885077476501,0.04858706146478653
1789757712660213800,6.8012138671875,0.1335153728723526,0.0990048199892044,0.026260981336236
1789757712670225000,6.811224853515625,0.13514858484268188,0.10684569925069809,-0.02526986598968506
1789757712680235800,6.82123583984375,0.13493072986602783,0.07776878029108047,-0.016879577189683914
1789757712690247000,6.831246826171875,0.11443493515253067,0.07672803848981857,-0.06595593690872192
1789757712700256800,6.8412568359375,0.11413479596376419,0.0728057324886322,-0.040590930730104446
1789757712710268000,6.851267822265625,0.11595162004232407,0.07828911393880844,-0.04119297116994858
1789757712720278800,6.86127880859375,0.12571397423744202,0.09807053953409195,0.03762088343501091
1789757712730290000,6.8712900390625,0.10577889531850815,0.11109040677547455,-0.005819431971758604
1789757712740299800,6.8812998046875,0.13604679703712463,0.127195343375206,0.00935312919318676
1789757712750311000,6.891310791015625,0.16604503989219666,0.11129209399223328,-0.02074085734784603
1789757712760321800,6.90132177734375,0.21069958806037903,0.10486508905887604,-0.022762462496757507
1789757712770333000,6.9113330078125,0.2414519339799881,0.08653665333986282,-0.02713267132639885
1789757712780342800,6.9213427734375,0.22320528328418732,0.11246012896299362,-0.013821926899254322
1789757712790353700,6.931353759765625,0.18395265936851501,0.1419815570116043,-0.005781348794698715
1789757712800364800,6.94136474609375,0.17269468307495117,0.1590721309185028,-0.016988463699817657
1789757712810376000,6.9513759765625,0.18068943917751312,0.16160689294338226,-0.01817898452281952
1789757712820386000,6.961385986328125,0.20463073253631592,0.1706632375717163,-0.0018535414710640907
1789757712830397000,6.97139697265625,0.24465659260749817,0.1571117788553238,0.004061973188072443
1789757712840407800,6.98140771484375,0.2751931846141815,0.13163304328918457,-0.00020467699505388737
1789757712850418700,6.991418701171875,0.2648659944534302,0.14778274297714233,0.01188989169895649
1789757712860428800,7.0014287109375,0.21847668290138245,0.1577666699886322,0.013871816918253899
1789757712870439700,7.011439697265625,0.16917626559734344,0.17280547320842743,-0.0030063986778259277
1789757712880450800,7.021450927734375,0.12612015008926392,0.1732339709997177,-0.012150362133979797
1789757712890462000,7.0314619140625,0.08899763971567154,0.15895713865756989,-0.008437002077698708
1789757712900472800,7.041472900390625,0.0571259967982769,0.14811967313289642,-0.012453049421310425
1789757712910483000,7.05148291015625,0.020104967057704926,0.14789430797100067,-0.0015290670562535524
1789757712920493800,7.061493896484375,-0.021167105063796043,0.14367932081222534,0.026445575058460236
1789757712930504700,7.071504638671875,-0.05809900164604187,0.150657057762146,0.03185008093714714
1789757712940515800,7.081515869140625,-0.08950778841972351,0.14537760615348816,-0.018373940140008926
1789757712950525700,7.091525634765625,-0.11940771341323853,0.14677949249744415,-0.0033802050165832043
1789757712960536800,7.101536865234375,-0.14554265141487122,0.13141198456287384,0.01565180905163288
1789757712970548000,7.1115478515625,-0.1595853865146637,0.11820007860660553,-0.023372074589133263
1789757712980558800,7.121558837890625,-0.16942575573921204,0.10784224420785904,-0.01215909980237484
1789757712990569000,7.13156884765625,-0.18493115901947021,0.10617268085479736,0.008080963045358658
1789757713000579800,7.141579833984375,-0.18560972809791565,0.09542442858219147,0.0019024289213120937
1789757713010590700,7.1515908203125,-0.18949583172798157,0.10560004413127899,-0.003463625442236662
1789757713020601900,7.161601806640625,-0.1805902123451233,0.10722564160823822,-0.011179868131875992
1789757713030611700,7.17161181640625,-0.1502039134502411,0.10205911099910736,-0.010701310820877552
1789757713040622600,7.18162255859375,-0.11544354259967804,0.10450655966997147,-0.00485300924628973
1789757713050634000,7.191634033203125,-0.08822257071733475,0.10968700051307678,-0.005434859078377485
1789757713060644900,7.201644775390625,-0.05954724922776222,0.11977744847536087,0.014834193512797356
1789757713070655700,7.21165576171875,-0.043617818504571915,0.12216950207948685,0.02280556783080101
1789757713080665900,7.221665771484375,-0.015376592986285686,0.12846681475639343,0.013246683403849602
1789757713090676700,7.2316767578125,-0.003337651723995805,0.1296820491552353,-0.0012588067911565304
1789757713100687600,7.2416875,-0.003659894224256277,0.13868671655654907,-0.0030622994527220726
1789757713110698800,7.25169873046875,-0.004291820339858532,0.13947072625160217,-0.010836562141776085
1789757713120708600,7.26170849609375,-0.0267619751393795,0.142546147108078,-0.003680647350847721
1789757713130720000,7.271719970703125,-0.05004030093550682,0.13894188404083252,-0.035413481295108795
1789757713140731000,7.28173095703125,-0.07936596125364304,0.13395138084888458,-0.03207920119166374
1789757713150741800,7.29174169921875,-0.11395427584648132,0.1279357522726059,-0.031911853700876236
1789757713160751900,7.301751953125,-0.15181830525398254,0.1230669692158699,-0.013530183583498001
1789757713170762800,7.3117626953125,-0.1908014416694641,0.13171795010566711,-0.00122886523604393
1789757713180773600,7.321773681640625,-0.22994591295719147,0.12754851579666138,-0.006103515625
1789757713190785000,7.331784912109375,-0.2579094469547272,0.12177008390426636,-0.032905325293540955
1789757713200795000,7.341794921875,-0.28572964668273926,0.10928598791360855,0.003600486321374774
1789757713210806000,7.351805908203125,-0.32665112614631653,0.09918993711471558,0.05529005825519562
1789757713220817000,7.36181689453125,-0.37412649393081665,0.0874299481511116,0.07816501706838608
1789757713230827800,7.371827880859375,-0.4276941120624542,0.0774928480386734,0.06961807608604431
1789757713240838700,7.381838623046875,-0.45335155725479126,0.047653451561927795,0.05540292710065842
1789757713250848800,7.391848876953125,-0.47417256236076355,0.04708404839038849,0.060128599405288696
1789757713260859600,7.401859619140625,-0.4928756654262543,0.029784686863422394,0.05047757178544998
1789757713270871000,7.41187109375,-0.49846094846725464,0.025655996054410934,0.053533270955085754
1789757713280882000,7.4218818359375,-0.5087740421295166,0.03350965678691864,0.042399127036333084
1789757713290891800,7.431891845703125,-0.5122488141059875,0.013087999075651169,-0.003981407266110182
1789757713300903000,7.44190283203125,-0.49323999881744385,-0.010748092085123062,-0.011582335457205772
1789757713310913800,7.451913818359375,-0.5051069855690002,-0.006404235027730465,0.011015956290066242
1789757713320924700,7.461924560546875,-0.5236287117004395,0.01633356884121895,0.03866622596979141
1789757713330934800,7.471934814453125,-0.4874046742916107,-0.021416909992694855,0.042209018021821976
1789757713340945700,7.481945556640625,-0.44669318199157715,-0.014934508129954338,0.05780715122818947
1789757713350956800,7.491956787109375,-0.41405969858169556,-0.016052283346652985,0.02505207061767578
1789757713360968000,7.501968017578125,-0.39246147871017456,-0.003284558653831482,0.04891772195696831
1789757713370977800,7.511977783203125,-0.3777843117713928,0.005089202430099249,0.042760785669088364
1789757713380989000,7.521989013671875,-0.33396652340888977,-0.01164716761559248,0.03900918737053871
1789757713390999800,7.531999755859375,-0.2854820787906647,-0.025643635541200638,0.025031527504324913
1789757713401010700,7.5420107421875,-0.2700751721858978,-0.02410086616873741,0.012381244450807571
1789757713411021800,7.552021728515625,-0.2820059061050415,-0.016937309876084328,0.01100744679570198
1789757713421031700,7.56203173828125,-0.2950037121772766,-0.014162829145789146,0.04981210082769394
1789757713431042800,7.572042724609375,-0.2888602614402771,-0.014189068228006363,0.05847251042723656
1789757713441054000,7.582053955078125,-0.26277488470077515,-0.03839879855513573,0.02834949642419815
1789757713451064800,7.59206494140625,-0.2512090802192688,-0.05336931347846985,0.014847662299871445
1789757713461075000,7.602074951171875,-0.27023735642433167,-0.04814472422003746,0.007309584878385067
1789757713471085800,7.6120859375,-0.28760552406311035,-0.0347660593688488,0.026630273088812828
1789757713481096700,7.6220966796875,-0.2831993103027344,-0.034429967403411865,0.0403096005320549
1789757713491107600,7.632107666015625,-0.2571328282356262,-0.04961718991398811,0.059181973338127136
1789757713501117700,7.64211767578125,-0.22586758434772491,-0.06575328856706619,0.032511480152606964
1789757713511128800,7.65212890625,-0.2285744845867157,-0.07045990228652954,0.03542207553982735
1789757713521140000,7.662139892578125,-0.21462857723236084,-0.08052452653646469,0.04073375090956688
1789757713531150800,7.67215087890625,-0.2023259997367859,-0.07929063588380814,0.05315826088190079
1789757713541160700,7.68216064453125,-0.1775471419095993,-0.08523188531398773,0.05306105688214302
1789757713551171800,7.692171875,-0.15206117928028107,-0.08533390611410141,0.04081188142299652
1789757713561182700,7.7021826171875,-0.13996537029743195,-0.08095406740903854,0.03976605832576752
1789757713571193900,7.71219384765625,-0.12860150635242462,-0.07231688499450684,0.005543211009353399
1789757713581204200,7.722204345703125,-0.09947532415390015,-0.06475590169429779,0.033635832369327545
1789757713591215000,7.732215087890625,-0.05440505966544151,-0.07224397361278534,0.013184834271669388
1789757713601226000,7.74222607421875,-0.01683051697909832,-0.07573643326759338,0.01042979396879673
1789757713611237400,7.7522373046875,-0.00019413791596889496,-0.0642557367682457,0.024682918563485146
1789757713621248300,7.762248291015625,0.010190059430897236,-0.0600905604660511,-0.004423834383487701
1789757713631258400,7.77225830078125,0.01810675673186779,-0.06200910359621048,0.0023945302236825228
1789757713641269200,7.782269287109375,0.043775368481874466,-0.08102966845035553,-0.012641411274671555
1789757713651280100,7.792280029296875,0.05510437488555908,-0.08030635863542557,-0.03543606400489807
1789757713661291000,7.802291015625,0.033340487629175186,-0.0654672235250473,-0.03322138264775276
1789757713671301000,7.812301025390625,0.014348365366458893,-0.06268967688083649,-0.02730509266257286
1789757713681312000,7.82231201171875,-0.003452469827607274,-0.06219299137592316,-0.019438114017248154
1789757713691323400,7.832323486328125,-0.00831485353410244,-0.05710465833544731,-0.006303036585450172
1789757713701334300,7.842334228515625,-0.006310557946562767,-0.06909714639186859,-0.013560417108237743
1789757713711344000,7.85234423828125,-0.008415888994932175,-0.07201861590147018,0.007901718840003014
1789757713721355300,7.862355224609375,-0.01620323769748211,-0.07779315114021301,0.03266086429357529
1789757713731366100,7.8723662109375,-0.0138956094160676,-0.0848981961607933,0.031494662165641785
1789757713741377000,7.882376953125,-0.02007148042321205,-0.09258834272623062,0.02201167866587639
1789757713751388400,7.892388427734375,-0.04363488778471947,-0.1015469953417778,0.016421766951680183
1789757713761398000,7.90239794921875,-0.07287079840898514,-0.10902141779661179,-0.010272960178554058
1789757713771409200,7.9124091796875,-0.10463407635688782,-0.0904405266046524,-0.012856910936534405
1789757713781420300,7.922420166015625,-0.13684527575969696,-0.063730888068676,-0.0036863163113594055
1789757713791431200,7.93243115234375,-0.13893015682697296,-0.06886041164398193,0.006491498555988073
1789757713801441300,7.942441162109375,-0.10020221024751663,-0.09320676326751709,0.018669867888092995
1789757713811452200,7.9524521484375,-0.029907355085015297,-0.14441536366939545,-0.004355682525783777
1789757713821463000,7.962463134765625,0.007381959818303585,-0.1517244130373001,0.0012958114966750145
1789757713831474400,7.972474365234375,-0.03491026908159256,-0.11642463505268097,-0.0159794669598341
1789757713841484300,7.982484375,-0.08093341439962387,-0.07559385150671005,-0.0017302240012213588
1789757713851495200,7.9924951171875,-0.07145006209611893,-0.07495209574699402,0.02789181098341942
1789757713861506300,8.00250634765625,-0.02351156622171402,-0.06881058216094971,-0.014366162940859795
1789757713871517200,8.01251708984375,0.024567892774939537,-0.08200893551111221,-0.017314154654741287
1789757713881527300,8.02252734375,0.04509234428405762,-0.10163936018943787,-0.0417230948805809
1789757713891538200,8.0325380859375,0.034859392791986465,-0.0856822207570076,-0.04194002225995064
1789757713901549000,8.042549072265626,0.014953861013054848,-0.06784597039222717,-0.01734919473528862
1789757713911560200,8.052560302734374,0.022631075233221054,-0.061775896698236465,0.0005191320087760687
1789757713921571300,8.0625712890625,0.05956166237592697,-0.06234368309378624,-0.007139054127037525
1789757713931581200,8.072581298828124,0.10403315722942352,-0.06931071728467941,-0.010153181850910187
1789757713941592300,8.08259228515625,0.1237645149230957,-0.052960507571697235,0.03326113522052765
1789757713951603200,8.092603271484375,0.14775928854942322,-0.07024066895246506,0.0692601129412651
1789757713961614000,8.102614013671875,0.1688792109489441,-0.0618722140789032,0.15474332869052887
1789757713971624200,8.112624267578125,0.14890828728675842,-0.039980508387088776,0.17998185753822327
1789757713981635000,8.122635009765625,0.12248892337083817,-0.03067568875849247,0.14749900996685028
1789757713991646200,8.132646240234376,0.11073239892721176,-0.03958902135491371,0.08891239017248154
1789757714001657300,8.1426572265625,0.1043647825717926,-0.04074563458561897,0.00806308165192604
1789757714011667200,8.152667236328124,0.107024647295475,-0.047962792217731476,-0.027438199147582054
1789757714021678300,8.16267822265625,0.11807835847139359,-0.04425434023141861,-0.00566499400883913
1789757714031689200,8.172689208984375,0.12257201224565506,-0.0436253659427166,0.023055560886859894
1789757714041700000,8.1827001953125,0.12116453796625137,-0.04244611784815788,0.0393487811088562
1789757714051711000,8.1927109375,0.11326875537633896,-0.038596756756305695,0.04636270925402641
1789757714061721000,8.20272119140625,0.09577152132987976,-0.03302649036049843,0.041293915361166
1789757714071732200,8.212732177734376,0.07187140733003616,-0.033041927963495255,0.016617584973573685
1789757714081743400,8.222743408203126,0.059495434165000916,-0.03970089927315712,0.036901287734508514
1789757714091754200,8.232754150390624,0.05595901980996132,-0.032902590930461884,0.023438524454832077
1789757714101764000,8.24276416015625,0.05537419021129608,-0.025748539716005325,0.023615891113877296
1789757714111775200,8.252775146484375,0.04841412603855133,-0.03484143316745758,0.032164331525564194
1789757714121786000,8.2627861328125,0.038564953953027725,0.006031961180269718,0.04124784097075462
1789757714131797000,8.272796875,0.024959906935691833,0.0021454128436744213,0.05841687321662903
1789757714141807000,8.28280712890625,0.005795801058411598,0.0031233257614076138,0.0301482193171978
1789757714151818200,8.292818359375,-0.017790483310818672,0.016289938241243362,0.04102931171655655
1789757714161829000,8.3028291015625,-0.04056024178862572,0.008264502510428429,0.021732579916715622
1789757714171840300,8.31284033203125,-0.058738838881254196,0.012740232050418854,0.021172352135181427
1789757714181850000,8.32285009765625,-0.06821808964014053,-0.005332778673619032,-0.0017726444639265537
1789757714191861200,8.332861328125,-0.06510903686285019,0.0006249835714697838,0.020502693951129913
1789757714201872100,8.3428720703125,-0.09340965002775192,-0.0018395055085420609,0.04082527756690979
1789757714211883300,8.35288330078125,-0.10304544121026993,-0.002444291952997446,0.051863521337509155
1789757714221894100,8.36289404296875,-0.12145746499300003,0.010867518372833729,0.0650315210223198
1789757714231904300,8.372904296875,-0.11814062297344208,-0.004891771823167801,0.06298866122961044
1789757714241915100,8.3829150390625,-0.09919170290231705,-0.024215934798121452,0.051018550992012024
1789757714251926300,8.39292626953125,-0.09736637026071548,-0.024501746520400047,0.0421626903116703
1789757714261937200,8.402937255859374,-0.11051173508167267,-0.02992793545126915,-0.007104458287358284
1789757714271947300,8.412947265625,-0.10746823251247406,-0.030710289254784584,0.023501262068748474
1789757714281958100,8.422958251953125,-0.12489036470651627,-0.010434845462441444,0.02335478737950325
1789757714291969300,8.43296923828125,-0.09973996877670288,-0.017342787235975266,0.051216866821050644
1789757714301980200,8.442980224609375,-0.09183144569396973,-0.0006058849394321442,0.07357623428106308
1789757714311990300,8.452990234375,-0.07342901825904846,-0.006884331814944744,0.03530853986740112
1789757714322001200,8.463001220703125,-0.055766135454177856,-0.01555718295276165,0.002399057848379016
1789757714332012300,8.47301220703125,-0.04738648235797882,-0.02359919622540474,-0.035234235227108
1789757714342023200,8.483023193359376,-0.015952657908201218,-0.047097597271203995,-0.0802704244852066
1789757714352033000,8.493032958984376,0.006620194762945175,-0.07293366640806198,-0.08743216097354889
1789757714362044200,8.503044189453124,0.005821513012051582,-0.06766859441995621,-0.06929496675729752
1789757714372055300,8.51305517578125,0.003582368139177561,-0.056457772850990295,-0.053658172488212585
1789757714382066200,8.523066162109375,-0.0015905555337667465,-0.03765159472823143,-0.06891702115535736
1789757714392077300,8.533077392578125,0.011689399369060993,-0.011963284574449062,-0.007342329248785973
1789757714402087200,8.543087158203125,0.05374204367399216,-0.009471630677580833,-0.024791626259684563
1789757714412098000,8.55309814453125,0.12357901781797409,-0.003688263241201639,-0.006098303012549877
1789757714422109200,8.563109130859376,0.17053213715553284,0.0012990385293960571,-0.015982626006007195
1789757714432120000,8.5731201171875,0.21133676171302795,0.002767221536487341,-0.008171549066901207
1789757714442130200,8.583130126953124,0.21798136830329895,0.017071058973670006,-0.01973659358918667
1789757714452141300,8.593141357421874,0.22863630950450897,0.01713828556239605,-0.01812833361327648
1789757714462152200,8.603152099609375,0.22211742401123047,0.02742447704076767,-0.00024307589046657085
1789757714472163300,8.613163330078125,0.19650118052959442,0.03891164809465408,-0.0008977961260825396
1789757714482173200,8.623173095703125,0.18897083401679993,0.05019945651292801,0.004112674854695797
1789757714492184000,8.63318408203125,0.19365368783473969,0.06268997490406036,0.005459397565573454
1789757714502195200,8.6431953125,0.1955447942018509,0.056143127381801605,-0.02271684631705284
1789757714512206000,8.6532060546875,0.2031063288450241,0.06878753006458282,-0.02979484386742115
1789757714522216200,8.66321630859375,0.1794539988040924,0.08195366710424423,-0.022485531866550446
1789757714532227300,8.673227294921874,0.16857321560382843,0.09241162985563278,0.0067709023132920265
1789757714542238200,8.68323828125,0.13401764631271362,0.11015360802412033,-0.008788881823420525
1789757714552249000,8.6932490234375,0.10471037030220032,0.11761529743671417,-0.0029246644116938114
1789757714562260200,8.70326025390625,0.08419045060873032,0.09943655878305435,-0.041684046387672424
1789757714572270000,8.71327001953125,0.04772106185555458,0.09907770156860352,-0.05016229301691055
1789757714582280700,8.72328076171875,-0.0035466516856104136,0.09344006329774857,-0.0003284253180027008
1789757714592291600,8.73329150390625,-0.06229845806956291,0.0952230915427208,-0.0027160251047462225
1789757714602302500,8.743302490234376,-0.13070788979530334,0.08300317823886871,-0.014477609656751156
1789757714612312600,8.7533125,-0.17825375497341156,0.06675365567207336,-0.014026494696736336
1789757714622323500,8.763323486328124,-0.2506949305534363,0.048892900347709656,-0.057713788002729416
1789757714632334600,8.77333447265625,-0.3036578893661499,0.05007564276456833,-0.02657402865588665
1789757714642345700,8.783345703125,-0.3324463963508606,0.028127731755375862,0.014359287917613983
1789757714652355600,8.79335546875,-0.3550758957862854,0.027878988534212112,0.002443114295601845
1789757714662366700,8.80336669921875,-0.34748348593711853,0.018103057518601418,0.003718768246471882
1789757714672377600,8.813377685546875,-0.32342299818992615,-0.01044889260083437,-0.004795851651579142
1789757714682388500,8.823388427734375,-0.30345168709754944,-0.03321146219968796,-0.02101024053990841
1789757714692399600,8.833399658203126,-0.30852726101875305,-0.028124399483203888,-0.011469049379229546
1789757714702409500,8.843409423828126,-0.3113595247268677,-0.03637194260954857,-0.01799885369837284
1789757714712420400,8.85342041015625,-0.29521602392196655,-0.034276049584150314,-0.002543173497542739
1789757714722431700,8.863431640625,-0.27599120140075684,-0.04152756929397583,-0.009317723102867603
1789757714732442600,8.873442626953125,-0.25117799639701843,-0.03401420637965202,-0.018182534724473953
1789757714742452700,8.88345263671875,-0.23230816423892975,-0.03446215018630028,-0.025582928210496902
1789757714752463600,8.893463623046875,-0.21113713085651398,-0.029518021270632744,-0.037176553159952164
1789757714762474500,8.903474609375,-0.1839904636144638,-0.03273565322160721,-0.0393315851688385
1789757714772485400,8.9134853515625,-0.1547618806362152,-0.04068057984113693,-0.03196326270699501
1789757714782495500,8.92349560546875,-0.1259416937828064,-0.02399401366710663,-0.020367329940199852
1789757714792506400,8.93350634765625,-0.11389808356761932,-0.02244308963418007,-0.019670633599162102
1789757714802517800,8.943517822265624,-0.0934082567691803,-0.018264587968587875,0.014029005542397499
1789757714812528600,8.953528564453125,-0.09195206314325333,-0.02128566801548004,0.014150826260447502
1789757714822539500,8.96353955078125,-0.08571520447731018,-0.019723989069461823,0.015605976805090904
1789757714832549600,8.973549560546875,-0.09392897039651871,-0.023290202021598816,-0.014830796048045158
1789757714842560500,8.983560546875,-0.09349167346954346,-0.027310244739055634,-0.01207469031214714
1789757714852571400,8.9935712890625,-0.10530208051204681,-0.01796708069741726,-0.005143674090504646
1789757714862582800,9.003582763671876,-0.11104544997215271,-0.026472151279449463,-0.021078430116176605
1789757714872592400,9.01359228515625,-0.1050730049610138,-0.038826849311590195,-0.028036966919898987
1789757714882603500,9.023603515625,-0.09690402448177338,-0.034297876060009,-0.013863624073565006
1789757714892614700,9.03361474609375,-0.08980041742324829,-0.047174353152513504,-0.014255881309509277
1789757714902625500,9.04362548828125,-0.08507783710956573,-0.0469791404902935,-0.002401085337623954
1789757714912635600,9.0536357421875,-0.0903506651520729,-0.044997625052928925,0.009359089657664299
1789757714922646500,9.063646484375,-0.09569908678531647,-0.03923720866441727,0.015605268999934196
1789757714932657400,9.073657470703125,-0.11058224737644196,-0.05154208093881607,0.004662211984395981
1789757714942668800,9.083668701171876,-0.1375848352909088,-0.035136207938194275,-0.006738514639437199
1789757714952678700,9.0936787109375,-0.16659782826900482,-0.04092167317867279,-0.008934138342738152
1789757714962689500,9.103689453125,-0.18074560165405273,-0.07157891988754272,-0.023893913254141808
1789757714972700700,9.11370068359375,-0.1760328710079193,-0.0658765584230423,0.01300764549523592
1789757714982711600,9.123711669921875,-0.1947900503873825,-0.07022204250097275,0.005336144007742405
1789757714992722400,9.133722412109375,-0.19087538123130798,-0.07334373891353607,-0.013226975686848164
1789757715002732500,9.143732666015625,-0.17830899357795715,-0.04601490870118141,0.026382485404610634
1789757715012743400,9.153743408203125,-0.16537633538246155,-0.0754852369427681,0.008150826208293438
1789757715022754600,9.163754638671875,-0.09241397678852081,-0.07518164068460464,0.02232763171195984
1789757715032765700,9.173765625,-0.06131458654999733,-0.09626027196645737,0.027238475158810616
1789757715042775600,9.183775634765626,-0.02781068906188011,-0.07463433593511581,0.026810770854353905
1789757715052786700,9.19378662109375,-0.043427690863609314,-0.058840490877628326,0.02427973970770836
1789757715062797600,9.203797607421874,-0.029751025140285492,-0.042275622487068176,0.009552461095154285
1789757715072808400,9.213808349609375,0.01629357412457466,-0.03962474688887596,0.03570794686675072
1789757715082818600,9.223818603515625,0.05822771042585373,-0.05067313462495804,0.027567731216549873
1789757715092829400,9.233829345703125,0.10078166425228119,-0.04471985995769501,0.020222796127200127
1789757715102840600,9.243840576171875,0.11929995566606522,-0.05557330697774887,-0.011114087887108326
1789757715112851700,9.253851806640625,0.13470378518104553,-0.06153314933180809,-0.01365680992603302
1789757715122862600,9.263862548828126,0.12312887609004974,-0.037182267755270004,-0.023308372125029564
1789757715132872700,9.273872802734376,0.11845099925994873,-0.014210404828190804,0.017854154109954834
1789757715142883600,9.283883544921874,0.1278088092803955,-0.030292170122265816,0.007459837011992931
1789757715152894500,9.29389453125,0.17444728314876556,-0.0276947058737278,0.04944765567779541
1789757715162905300,9.3039052734375,0.18527835607528687,-0.03692761808633804,0.02399715594947338
1789757715172915500,9.31391552734375,0.21818889677524567,-0.03574959561228752,0.03260338678956032
1789757715182926600,9.323926513671875,0.20496869087219238,-0.033068589866161346,-0.007496095262467861
1789757715192937700,9.333937744140625,0.21850644052028656,-0.032110545784235,0.0081391716375947
1789757715202948600,9.343948486328125,0.18676236271858215,-0.02212875336408615,0.000548363896086812
1789757715213584600,9.354584716796875,0.1789097636938095,-0.009171143174171448,0.009028933942317963
1789757715223595500,9.364595458984375,0.16074195504188538,-0.015361661091446877,-0.0045324149541556835
1789757715233606700,9.374606689453126,0.1768103986978531,-0.017898114398121834,0.006034424528479576
1789757715243617500,9.384617431640624,0.17018792033195496,-0.027358459308743477,0.02759670838713646
1789757715253628400,9.39462841796875,0.11227268725633621,-0.0196624007076025,-0.018322529271245003
1789757715263638500,9.404638427734374,0.018248185515403748,-0.02381320297718048,-0.11769731342792511
1789757715273649400,9.4146494140625,-0.050466977059841156,-0.03289095312356949,-0.2136869579553604
1789757715283660500,9.42466064453125,-0.04434037581086159,-0.05570652335882187,-0.04355436936020851
1789757715293671700,9.434671630859375,0.020945154130458832,-0.0059961676597595215,0.18495342135429382
1789757715303681500,9.444681640625,0.07922311127185822,0.01546731311827898,0.23622620105743408
1789757715313692700,9.454692626953126,0.15242981910705566,0.011834091506898403,0.20479752123355865
1789757715323703600,9.46470361328125,0.23296807706356049,-0.014213488437235355,0.08152778446674347
1789757715333714400,9.47471435546875,0.18046526610851288,0.021451938897371292,-0.04086434841156006
1789757715343724500,9.484724609375,0.052396245300769806,-0.02309182658791542,-0.0670355036854744
1789757715353735700,9.494735595703125,-0.027607405558228493,0.005041798111051321,-0.002749175066128373
1789757715363746600,9.50474658203125,-0.12656408548355103,-0.029529761523008347,-0.02380945347249508
1789757715373757700,9.5147578125,-0.15238316357135773,-0.021320302039384842,0.05621667206287384
1789757715383768600,9.5247685546875,-0.16037744283676147,-0.04364265128970146,0.03363892436027527
1789757715393778700,9.53477880859375,-0.13078096508979797,-0.023311255499720573,0.0659416988492012
1789757715403789600,9.54478955078125,-0.08580391108989716,-0.030114034190773964,0.07762844860553741
1789757715413800400,9.554800537109376,0.007596940267831087,-0.05960239842534065,0.04523506388068199
1789757715423811600,9.5648115234375,0.03141039237380028,-0.030729208141565323,0.06194400414824486
1789757715433821700,9.57482177734375,0.01654372736811638,-0.010674051940441132,0.06831128895282745
1789757715443832600,9.58483251953125,0.008210429921746254,0.024016816169023514,0.0573478564620018
1789757715453843700,9.59484375,0.05221875384449959,0.012287280522286892,0.07030866295099258
1789757715463854600,9.6048544921875,0.09153686463832855,-0.03422775864601135,0.06950812041759491
1789757715473864400,9.614864501953125,0.08893613517284393,-0.016271889209747314,0.07909224927425385
1789757715483875600,9.62487548828125,0.032575394958257675,-0.011151695623993874,0.09029430896043777
1789757715493886500,9.634886474609376,-0.010885544121265411,0.02215242013335228,0.07526055723428726
1789757715503897600,9.644897705078124,-0.04423071816563606,0.04930894076824188,0.03336210921406746
1789757715513907700,9.65490771484375,-0.0229036845266819,0.03174677863717079,0.04943154752254486
1789757715523918600,9.664918701171874,-0.025271233171224594,0.0074012260884046555,0.04388817772269249
1789757715533929500,9.674929443359375,0.006353999488055706,-0.02251812070608139,0.05606983229517937
1789757715544565800,9.685565673828124,0.02385576069355011,-0.0362539067864418,0.0645192489027977
1789757715554576600,9.69557666015625,-0.0334826298058033,0.005536416079849005,0.11794625222682953
1789757715564587500,9.70558740234375,-0.13024140894412994,0.0401470810174942,0.06832975149154663
1789757715574597600,9.71559765625,-0.16362041234970093,0.05524001270532608,0.08106259256601334
1789757715584608800,9.72560888671875,-0.17698337137699127,0.04392324760556221,0.06689634174108505
1789757715594619600,9.73561962890625,-0.14537164568901062,0.0020932424813508987,0.08436774462461472
1789757715604630800,9.745630859375,-0.16166925430297852,-0.014669261872768402,0.10284826904535294
1789757715614642000,9.755641845703124,-0.20149976015090942,0.012436391785740852,0.16873779892921448
1789757715624652000,9.765652099609374,-0.23589684069156647,0.036290090531110764,0.2977909445762634
1789757715634663000,9.775662841796875,-0.3000422716140747,0.02418229542672634,0.14884647727012634
1789757715644673800,9.785673828125,-0.3269994556903839,-0.020864032208919525,-0.08532404154539108
1789757715654684700,9.7956845703125,-0.3498685657978058,-0.09145404398441315,-0.09602116048336029
1789757715664694800,9.80569482421875,-0.3799746036529541,-0.06935302168130875,0.04446753114461899
1789757715674705700,9.81570556640625,-0.4133964776992798,-0.0838741734623909,0.11188305914402008
1789757715684716800,9.825716796875,-0.3735142648220062,-0.0778830498456955,0.1559157818555832
1789757715694728000,9.83572802734375,-0.3557871878147125,-0.10423476248979568,0.11066814512014389
1789757715704737800,9.84573779296875,-0.3219984471797943,-0.09320884197950363,0.031810883432626724
1789757715714749000,9.8557490234375,-0.3152153491973877,-0.08827586472034454,0.03738967329263687
1789757715724759800,9.865759765625,-0.2533781826496124,-0.09213905036449432,0.02105957269668579
1789757715734770700,9.875770751953125,-0.13695570826530457,-0.13743941485881805,0.06807342171669006
1789757715744781800,9.88578173828125,-0.027374768629670143,-0.1394469290971756,0.11176285147666931
1789757715754791700,9.895791748046875,0.0431651771068573,-0.11426512897014618,0.10164950042963028
1789757715764802800,9.905802734375,0.03786829486489296,-0.07492382824420929,0.040510617196559906
1789757715774814000,9.91581396484375,0.05882204324007034,-0.01915830560028553,0.031042281538248062
1789757715784824800,9.925824951171874,0.10532074421644211,-0.06234806030988693,0.03041662834584713
1789757715794835000,9.9358349609375,0.1993119716644287,-0.06019756197929382,0.03205447271466255
1789757715804845800,9.945845703125,0.22092902660369873,-0.07722029089927673,0.04389391094446182
1789757715814856700,9.955856689453125,0.23364828526973724,-0.05267206206917763,0.04045230895280838
1789757715824867800,9.965867919921875,0.17997848987579346,-0.014825567603111267,0.02838585525751114
1789757715834877700,9.975877685546875,0.2152954787015915,-0.019726315513253212,0.06130891665816307
1789757715844888800,9.985888916015625,0.25103893876075745,-0.01637793332338333,0.04107476398348808
1789757715854900000,9.99589990234375,0.26883286237716675,-0.029274554923176765,0.027604494243860245
1789757715864910800,10.005910888671876,0.21428826451301575,0.0011054626666009426,0.021514100953936577
1789757715874921700,10.015921630859374,0.1780567616224289,0.021665599197149277,0.03236488252878189
1789757715884931800,10.025931884765624,0.1446649432182312,0.020897570997476578,0.03182795271277428
1789757715894942700,10.035942626953124,0.12221822142601013,0.0035353582352399826,0.030493175610899925
1789757715904953600,10.04595361328125,0.08402488380670547,0.03703577071428299,0.031040886417031288
1789757715914965000,10.055965087890625,0.02766786888241768,-0.018525226041674614,-0.04953544959425926
1789757715924974800,10.065974853515625,-0.021642008796334267,0.010762318968772888,-0.05199535936117172
1789757715934986000,10.075986083984375,-0.09111083298921585,-0.012102250009775162,-0.06090576574206352
1789757715944996900,10.085996826171876,-0.10775525867938995,0.00819520652294159,-0.03775236755609512
1789757715955007700,10.0960078125,-0.12527114152908325,-0.020303279161453247,-0.0348692312836647
1789757715965018600,10.1060185546875,-0.10195600986480713,-0.02015533857047558,0.02037305012345314
1789757715975028700,10.11602880859375,-0.09915196895599365,-0.05281447991728783,-0.00959550216794014
1789757715985039600,10.12603955078125,-0.12296082079410553,-0.018919672816991806,-0.0151725048199296
1789757715995051000,10.136051025390625,-0.13781914114952087,-0.031909771263599396,-0.029912302270531654
1789757716005062000,10.146061767578125,-0.11730341613292694,-0.03305187448859215,0.002539078239351511
1789757716015071700,10.15607177734375,-0.13733278214931488,-0.025890901684761047,-0.011050233617424965
1789757716025083000,10.166082763671875,-0.10819368064403534,-0.03745639696717262,-0.028120970353484154
1789757716035093800,10.17609375,-0.07999692857265472,-0.07273370027542114,-0.04761957377195358
1789757716045104600,10.186104736328126,-0.06586750596761703,-0.06287681311368942,-0.05226743593811989
1789757716055114800,10.19611474609375,-0.07078556716442108,-0.03584706410765648,-0.04378819465637207
1789757716065125600,10.206125732421874,-0.052171096205711365,-0.054851826280355453,-0.05819122865796089
1789757716075137000,10.216136962890625,-0.0005454521160572767,-0.06179841607809067,0.0023687866050750017
1789757716085148000,10.22614794921875,0.022857727482914925,-0.047860193997621536,-0.027224842458963394
1789757716095158800,10.23615869140625,0.05696509778499603,-0.06906800717115402,0.01236784178763628
1789757716105169000,10.2461689453125,0.07830911129713058,-0.056853488087654114,0.031234435737133026
1789757716115179800,10.2561796875,0.05361148715019226,-0.09753140807151794,-0.11621440947055817
1789757716125190700,10.266190673828126,0.07222573459148407,-0.09663018584251404,-0.0940605103969574
1789757716135202000,10.2762021484375,0.04127953574061394,-0.08935815840959549,-0.13684898614883423
1789757716145212000,10.2862119140625,0.04559864476323128,-0.07932145148515701,-0.07242173701524734
1789757716155222800,10.296222900390624,0.05271594226360321,-0.0687553659081459,-0.019642682746052742
1789757716165234000,10.30623388671875,0.08491694182157516,-0.06463412195444107,0.05888901650905609
1789757716175244800,10.316244873046875,0.15673121809959412,-0.10672937333583832,-0.06683722138404846
1789757716185255000,10.3262548828125,0.24020227789878845,-0.09606079012155533,-0.03274870663881302
1789757716195265800,10.336265869140625,0.21389079093933105,-0.11004451662302017,-0.10109367221593857
1789757716205276700,10.346276611328125,0.20279473066329956,-0.053835056722164154,-0.03834785148501396
1789757716215287800,10.356287841796876,0.17702865600585938,-0.04717289283871651,-0.04936401918530464
1789757716225299000,10.366298828125,0.26436740159988403,-0.05049439147114754,0.01778573729097843
1789757716235308800,10.376308837890624,0.30061009526252747,-0.06157314032316208,-0.01038810983300209
1789757716245320000,10.38631982421875,0.35014861822128296,-0.033110033720731735,-0.004956389777362347
1789757716255330800,10.396330810546875,0.36195680499076843,-0.01393527165055275,-0.018640244379639626
1789757716265341700,10.406341796875,0.41999003291130066,-0.002495930530130863,0.013039122335612774
1789757716275351800,10.416351806640625,0.466661661863327,-0.0028626471757888794,-0.04109788313508034
1789757716285362700,10.42636279296875,0.5032943487167358,0.014055918902158737,-0.03244905173778534
1789757716295373800,10.436373779296876,0.5095804929733276,0.029042590409517288,-0.004762561991810799
1789757716305385000,10.446385009765624,0.5046563744544983,0.03528477996587753,-0.03873664513230324
1789757716315395800,10.456395751953124,0.4905829131603241,0.046897225081920624,-0.03188113868236542
1789757716325406000,10.466406005859374,0.47802743315696716,0.05928410589694977,-0.023747693747282028
1789757716335416800,10.476416748046875,0.47296130657196045,0.057339467108249664,-0.04125824198126793
1789757716345427700,10.486427734375,0.4707908630371094,0.04155383259057999,-0.03245687484741211
1789757716355438600,10.4964384765625,0.4378824532032013,0.05114307627081871,0.007780292071402073
1789757716365448700,10.50644873046875,0.3589555025100708,0.07065168768167496,0.02537022903561592
1789757716375459800,10.5164599609375,0.2769149839878082,0.07500328868627548,0.03933877497911453
1789757716385471000,10.526470947265626,0.26205968856811523,0.06846745312213898,0.011238165199756622
1789757716395481900,10.53648193359375,0.24619285762310028,0.05018245801329613,0.10529062896966934
1789757716405491700,10.54649169921875,0.1989160031080246,0.06373152881860733,0.0419781319797039
1789757716415502800,10.5565029296875,0.12729166448116302,0.06040287762880325,0.03283984959125519
1789757716425513700,10.566513671875,0.08232232183218002,0.05895571783185005,0.009407230652868748
1789757716435524600,10.576524658203125,0.05952886492013931,0.07076656818389893,-0.00950600765645504
1789757716445536000,10.586535888671875,0.008020094595849514,0.05314626544713974,-0.029721086844801903
1789757716455545900,10.5965458984375,-0.00590477604418993,0.05688587948679924,0.022129060700535774
1789757716465556700,10.606556640625,-0.055386122316122055,0.06563888490200043,-0.02808869630098343
1789757716475567900,10.61656787109375,-0.0943060889840126,0.07106135040521622,-0.006692859809845686
1789757716485578800,10.626578857421874,-0.06499581038951874,0.0719178318977356,0.024565700441598892
1789757716495588900,10.6365888671875,-0.05125310644507408,0.07421880960464478,0.05385035276412964
1789757716505599700,10.646599853515625,-0.05287265405058861,0.07165443897247314,0.006208405364304781
1789757716515611000,10.65661083984375,-0.062065888196229935,0.08287326991558075,0.027463359758257866
1789757716525622000,10.6666220703125,-0.09422338753938675,0.08625411242246628,-0.03507358208298683
1789757716535633000,10.6766328125,-0.0836503729224205,0.09587238729000092,-0.0789952352643013
1789757716545642800,10.686642822265625,-0.07278663665056229,0.1072055771946907,0.0374557189643383
1789757716555654000,10.69665380859375,-0.08170529454946518,0.0622255876660347,-0.009873447008430958
1789757716565664800,10.706664794921876,-0.06005425006151199,0.06728693097829819,-0.0230740774422884
1789757716575675600,10.716675537109374,-0.0770510733127594,0.05195990577340126,-0.05344929173588753
1789757716585686300,10.726686279296874,-0.08238866925239563,0.08480455726385117,-0.021900538355112076
1789757716595697200,10.736697265625,-0.08643640577793121,0.07506032288074493,-0.016006428748369217
1789757716605708000,10.7467080078125,-0.08447428047657013,0.06846239417791367,-0.048799872398376465
1789757716615719200,10.75671923828125,-0.09383316338062286,0.07405369728803635,-0.018693633377552032
1789757716625729000,10.76672900390625,-0.07876183837652206,0.048005882650613785,-0.02906748279929161
1789757716635740200,10.776740234375,-0.0786297470331192,0.025241447612643242,-0.01290422584861517
1789757716645751300,10.786751220703126,-0.13253669440746307,0.036050062626600266,0.006961217615753412
1789757716655762200,10.79676220703125,-0.15928947925567627,0.008055980317294598,-0.015056466683745384
1789757716665773000,10.80677294921875,-0.1833169013261795,0.005405682139098644,-0.0008270442485809326
1789757716675783200,10.816783203125,-0.2203364372253418,-0.0038266987539827824,0.009241036139428616
1789757716685794000,10.8267939453125,-0.2180597484111786,0.0002146163024008274,-0.005204837769269943
1789757716695805200,10.83680517578125,-0.21715188026428223,-0.02060144953429699,-0.013643329963088036
1789757716705816300,10.84681640625,-0.2099204808473587,-0.015177086926996708,-0.027407662943005562
1789757716715826200,10.856826171875,-0.18667641282081604,-0.00013049272820353508,-0.07409127801656723
1789757716725837300,10.86683740234375,-0.16091404855251312,-0.01187716331332922,-0.0695284828543663
1789757716735848200,10.87684814453125,-0.13800127804279327,0.007504257373511791,-0.002700984012335539
1789757716745859000,10.886859130859374,-0.129934161901474,0.0010620481334626675,-0.03792405501008034
1789757716755870200,10.8968701171875,-0.10581818222999573,-0.017657577991485596,-0.025388820096850395
1789757716765880000,10.906880126953125,-0.08478343486785889,-0.006661353167146444,-0.05147705599665642
1789757716775891200,10.91689111328125,-0.07886828482151031,0.00800227839499712,-0.07248513400554657
1789757716785902300,10.92690234375,-0.049685508012771606,0.003080466529354453,-0.08088431507349014
1789757716795913200,10.936913330078125,-0.0500548854470253,0.014812756329774857,-0.02098795957863331
1789757716805923300,10.94692333984375,-0.027280911803245544,-0.002379783894866705,-0.05887146294116974
1789757716815934200,10.956934326171876,0.0051545253954827785,0.007076035253703594,-0.050356537103652954
1789757716825945000,10.966945068359376,0.023321334272623062,0.007951701059937477,-0.06202573701739311
1789757716835956200,10.976956298828124,0.04363726079463959,-0.00588235491886735,-0.10110975801944733
1789757716845967400,10.98696728515625,0.05154489353299141,0.0025795220863074064,-0.02792508900165558
1789757716855977200,10.996977294921875,0.041056033223867416,-0.007317583076655865,-0.01944212056696415
1789757716865988400,11.00698828125,0.04007371515035629,0.0016210274770855904,-0.017335662618279457
1789757716875999200,11.016999267578125,0.01893141306936741,-0.013119036331772804,-0.03322248533368111
1789757716886010000,11.027010009765625,0.013714038766920567,-0.014771433547139168,-0.035456202924251556
1789757716896020200,11.037020263671875,-0.00010829931125044823,-0.017884403467178345,-0.02266397327184677
1789757716906031000,11.047031005859376,0.015927817672491074,-0.03725234046578407,-0.022138800472021103
1789757716916042000,11.0570419921875,0.023580145090818405,-0.03938979282975197,-0.040749501436948776
1789757716926053400,11.067053466796875,-0.021392744034528732,-0.02566966600716114,-0.005626212805509567
1789757716936063200,11.077063232421875,-0.01944570802152157,-0.017674056813120842,-0.03639451041817665
1789757716946074400,11.087074462890625,-0.0003538427990861237,-0.037434134632349014,-0.027010787278413773
1789757716956085200,11.097085205078125,-0.006808280013501644,-0.03614356741309166,-0.007526834029704332
1789757716966096100,11.10709619140625,0.005384332500398159,-0.026015589013695717,-0.0218797754496336
1789757716976107000,11.11710693359375,0.006579292938113213,-0.01002623699605465,-0.022395363077521324
1789757716986117000,11.1271171875,0.010751329362392426,0.0027472826186567545,-0.03123750351369381
1789757716996128000,11.1371279296875,0.029055235907435417,0.01071226503700018,-0.024769751355051994
1789757717006139400,11.147139404296874,0.044834502041339874,0.0005488754250109196,-0.023711055517196655
1789757717016150300,11.157150390625,0.07027407735586166,0.01552622765302658,-0.02536381222307682
1789757717026160000,11.16716015625,0.06271950900554657,0.02081909030675888,-0.050552647560834885
1789757717036171300,11.177171142578125,0.052650365978479385,0.03283607214689255,-0.032203469425439835
1789757717046182100,11.18718212890625,0.05119103938341141,0.03613083064556122,-0.03652004897594452
1789757717056193000,11.197193115234375,0.0378403477370739,0.04069708287715912,-0.04613699018955231
1789757717066204400,11.207204345703126,0.02801395393908024,0.03758813068270683,-0.11181123554706573
1789757717076214000,11.217214111328126,0.01838662661612034,0.029489194974303246,-0.15275254845619202
1789757717086225200,11.22722509765625,0.013944399543106556,0.0293024443089962,-0.21242058277130127
1789757717096236300,11.237236328125,-0.004798928275704384,0.03302953764796257,-0.1592409759759903
1789757717106247200,11.2472470703125,-0.044447485357522964,0.03143251687288284,-0.045456599444150925
1789757717116257300,11.25725732421875,-0.11362602561712265,0.014724910259246826,0.04273877292871475
1789757717126268200,11.26726806640625,-0.18062616884708405,0.026576710864901543,0.05447753891348839
1789757717136279000,11.277279052734375,-0.23146085441112518,-0.0013465327210724354,0.0435015894472599
1789757717146290200,11.287290283203125,-0.22996525466442108,-0.018893495202064514,0.020525598898530006
1789757717156301300,11.29730126953125,-0.18353889882564545,-0.016148308292031288,-0.03663249686360359
1789757717166311200,11.307311279296876,-0.13516750931739807,-0.015078539028763771,-0.05456152930855751
1789757717176322300,11.317322265625,-0.10830340534448624,-0.010717347264289856,-0.09300026297569275
1789757717186333200,11.327333251953124,-0.09429194033145905,-0.022802799940109253,-0.09552623331546783
1789757717196344000,11.337343994140625,-0.10108380019664764,-0.027044150978326797,-0.015360827557742596
1789757717206354200,11.347354248046875,-0.1403363049030304,-0.025047041475772858,0.0011362505611032248
1789757717216365000,11.357364990234375,-0.16414843499660492,-0.034591544419527054,0.012555353343486786
1789757717226376200,11.367376220703125,-0.1680133044719696,-0.03925847262144089,-0.013598081655800343
1789757717236387300,11.37738720703125,-0.16284969449043274,-0.03715191036462784,-0.06683573126792908
1789757717246398200,11.387398193359376,-0.1427217572927475,-0.03475083038210869,-0.09037324786186218
1789757717256408300,11.397408203125,-0.10180653631687164,-0.05294607952237129,-0.05531885847449303
1789757717266419200,11.407419189453124,-0.07381836324930191,-0.0424901582300663,-0.06321724504232407
1789757717276430000,11.41743017578125,-0.061461832374334335,-0.054502878338098526,-0.01913793757557869
1789757717286441000,11.42744091796875,-0.05480466037988663,-0.05636047571897507,0.005559608340263367
1789757717296451000,11.437451171875,-0.052803292870521545,-0.04812251776456833,-0.0028237556107342243
1789757717306462200,11.447462158203125,-0.03797387331724167,-0.043780479580163956,-0.03495629131793976
1789757717316473300,11.457473388671875,0.00043982674833387136,-0.06371770054101944,-0.06910254061222076
1789757717326484200,11.467484130859376,0.0322720892727375,-0.07558641582727432,-0.0652318000793457
1789757717336494000,11.477494140625,0.04354951158165932,-0.05925484746694565,-0.05078522115945816
1789757717346505200,11.487505126953126,0.036909084767103195,-0.06447362899780273,-0.047831304371356964
1789757717356516000,11.49751611328125,0.04777771234512329,-0.06963057070970535,-0.05115918815135956
1789757717366527000,11.50752685546875,0.05070741847157478,-0.06286947429180145,-0.05760116130113602
1789757717376538400,11.517538330078125,0.06348633021116257,-0.061191149055957794,-0.0728008896112442
1789757717386548200,11.52754833984375,0.07467075437307358,-0.07020703703165054,-0.07343016564846039
1789757717396559400,11.537559326171875,0.06244497373700142,-0.07398632913827896,-0.05608845874667168
1789757717406570200,11.5475703125,0.05596373230218887,-0.05655093118548393,-0.027294553816318512
1789757717416581000,11.5575810546875,0.05008853226900101,-0.051090385764837265,-0.022449731826782227
1789757717426591200,11.56759130859375,0.03773772343993187,-0.0471152700483799,-0.022356901317834854
1789757717436602000,11.57760205078125,0.02064422145485878,-0.029238801449537277,0.07167691737413406
1789757717446613200,11.58761328125,0.019108528271317482,-0.04812357947230339,0.06323608011007309
1789757717456624400,11.597624267578125,0.01256647240370512,-0.0333225317299366,0.07442029565572739
1789757717466635300,11.60763525390625,0.01630205288529396,-0.019396359100937843,0.03947367146611214
1789757717476645000,11.61764501953125,0.05355434864759445,-0.0525902658700943,-0.027684859931468964
1789757717486656300,11.62765625,0.08464058488607407,-0.06176482513546944,-0.13949690759181976
1789757717496667100,11.637667236328125,0.06862194091081619,-0.04578825831413269,-0.1142733171582222
1789757717506678000,11.647677978515626,0.04783084616065025,-0.0428372286260128,-0.07106403261423111
1789757717516689400,11.657689453125,0.02728455886244774,-0.028095833957195282,-0.062214355915784836
1789757717526699300,11.66769921875,0.02144036814570427,-0.025742627680301666,-0.010918458923697472
1789757717536710100,11.677710205078125,0.03147464990615845,-0.029505953192710876,0.00866498239338398
1789757717546721300,11.68772119140625,0.049876827746629715,-0.04040627181529999,-0.032114140689373016
1789757717556732200,11.697732177734375,0.05937153100967407,-0.027147192507982254,-0.03772089257836342
1789757717566742300,11.7077421875,0.07428034394979477,-0.030267292633652687,-0.062004204839468
1789757717576753200,11.717753173828125,0.08961527794599533,-0.02884591929614544,-0.026084208860993385
1789757717586763500,11.727763427734375,0.09166032075881958,-0.024021070450544357,-0.027932975441217422
1789757717596775000,11.73777490234375,0.09749636799097061,-0.014042521826922894,-0.04125324636697769
1789757717606784800,11.74778466796875,0.091060571372509,-0.01509953010827303,-0.025097180157899857
1789757717616796000,11.7577958984375,0.10465361177921295,-0.020713474601507187,-0.039704885333776474
1789757717626806800,11.767806884765625,0.11834841966629028,-0.027739502489566803,-0.03912527859210968
1789757717636817700,11.777817626953125,0.10728192329406738,-0.03326556086540222,-0.04051864519715309
1789757717646828500,11.78782861328125,0.08610879629850388,-0.025179872289299965,-0.029549438506364822
1789757717656838700,11.797838623046875,0.07220923155546188,-0.03446232154965401,-0.04748982563614845
1789757717666849800,11.807849853515625,0.061318427324295044,-0.032692182809114456,-0.050587791949510574
1789757717676861000,11.81786083984375,0.053380876779556274,-0.023766864091157913,-0.026630526408553123
1789757717686871800,11.827871826171876,0.04897373542189598,-0.029884327203035355,-0.006363716907799244
1789757717696881700,11.837881591796876,0.0649644210934639,-0.036020781844854355,0.007413880899548531
1789757717706892800,11.847892822265624,0.07782841473817825,-0.034704141318798065,-0.006800843868404627
1789757717716903700,11.857903564453125,0.08840063214302063,-0.04533734545111656,-0.032470785081386566
1789757717726914600,11.86791455078125,0.0894477441906929,-0.044406116008758545,-0.029665973037481308
1789757717736926000,11.877926025390625,0.08444632589817047,-0.040420692414045334,-0.03743814304471016
1789757717746935800,11.887935791015625,0.09193192422389984,-0.043533336371183395,-0.022943835705518723
1789757717756946700,11.89794677734375,0.08524978905916214,-0.03953859582543373,-0.004094780422747135
1789757717766957800,11.907957763671876,0.08562415838241577,-0.04628913104534149,-0.004629200324416161
1789757717776968700,11.91796875,0.08541297167539597,-0.04038010910153389,-0.024943526834249496
1789757717786979600,11.9279794921875,0.09227806329727173,-0.05368371307849884,-0.0423690602183342
1789757717796989700,11.93798974609375,0.11163497716188431,-0.05973760783672333,-0.029884692281484604
1789757717807000600,11.94800048828125,0.10697440803050995,-0.05019702389836311,-0.02530255727469921
1789757717817011700,11.95801171875,0.09740699827671051,-0.04813227429986,-0.05302579700946808
1789757717827022800,11.96802294921875,0.09366052597761154,-0.04390326887369156,-0.041675686836242676
1789757717837032700,11.97803271484375,0.08867456018924713,-0.03676066920161247,-0.059785980731248856
1789757717847043800,11.9880439453125,0.10958801209926605,-0.043957971036434174,-0.04556596651673317
1789757717857054700,11.9980546875,0.12851189076900482,-0.041865792125463486,-0.024109408259391785
1789757717867065600,12.008065673828124,0.1340225636959076,-0.03912622481584549,-0.004496523179113865
1789757717877076700,12.01807666015625,0.1545797735452652,-0.03904074430465698,-0.006490698084235191
1789757717887086600,12.028086669921874,0.17467190325260162,-0.02079925686120987,-0.03741053119301796
1789757717897097700,12.03809765625,0.1981111764907837,-0.014817530289292336,-0.06461845338344574
1789757717907108900,12.04810888671875,0.23091597855091095,-0.009140516631305218,-0.05987636372447014
1789757717917119700,12.05811962890625,0.24412205815315247,-0.004202750511467457,-0.05712318792939186
1789757717927129900,12.0681298828125,0.254580020904541,0.01107522752135992,-0.03441754728555679
1789757717937140700,12.078140625,0.2570647597312927,0.013676070608198643,-0.023181403055787086
1789757717947151600,12.088151611328126,0.26036369800567627,0.019862109795212746,-0.01822599582374096
1789757717957162500,12.09816259765625,0.26335230469703674,0.019255440682172775,-0.01564912125468254
1789757717967174000,12.108173828125,0.2395300269126892,0.01966489478945732,-0.009896323084831238
1789757717977183700,12.118183837890625,0.21463027596473694,0.016068030148744583,-0.0032437469344586134
1789757717987195000,12.12819482421875,0.1872159242630005,0.01981554739177227,-0.006497890222817659
1789757717997205800,12.138205810546875,0.14527645707130432,0.014166450127959251,-0.023081127554178238
1789757718007216600,12.148216552734375,0.10835899412631989,0.004980945028364658,-0.02248258888721466
1789757718017226800,12.158226806640625,0.07761067152023315,0.009455588646233082,-0.007232529576867819
