time,seconds_elapsed,z,y,x
1789059089162707500,0.03770751953125,-1.0036468505859375,-0.3461761474609375,-0.1148834228515625
1789059089172717300,0.04771728515625,-0.9542999267578125,-0.320892333984375,-0.118743896484375
1789059089182727400,0.0577275390625,-0.9513397216796875,-0.283843994140625,-0.1337432861328125
1789059089192737300,0.0677373046875,-0.9030609130859375,-0.3417510986328125,-0.188568115234375
1789059089202747400,0.077747314453125,-0.8449249267578125,-0.444976806640625,-0.22198486328125
1789059089212757200,0.08775732421875,-0.847686767578125,-0.452789306640625,-0.2021942138671875
1789059089222767400,0.097767333984375,-0.8995361328125,-0.321380615234375,-0.0888214111328125
1789059089232776200,0.107776123046875,-0.9256134033203125,-0.33575439453125,-0.0876007080078125
1789059089242786000,0.1177861328125,-0.9705657958984375,-0.2918243408203125,-0.08013916015625
1789059089252796200,0.127796142578125,-0.9384613037109375,-0.40045166015625,-0.1156768798828125
1789059089262806300,0.13780615234375,-0.957977294921875,-0.353179931640625,-0.110382080078125
1789059089272816000,0.147816162109375,-0.9283447265625,-0.2907257080078125,-0.049835205078125
1789059089282826200,0.157826171875,-0.874053955078125,-0.326416015625,-0.050750732421875
1789059089292836000,0.167836181640625,-0.8470306396484375,-0.38671875,-0.087921142578125
1789059089302846200,0.17784619140625,-0.901092529296875,-0.407501220703125,-0.080596923828125
1789059089312856300,0.187856201171875,-1.031585693359375,-0.30810546875,-0.0361480712890625
1789059089322866200,0.1978662109375,-1.1157379150390625,-0.27001953125,0.01190185546875
1789059089332876300,0.207876220703125,-1.0910186767578125,-0.2835845947265625,0.013519287109375
1789059089342886100,0.21788623046875,-1.023681640625,-0.359619140625,-0.0750274658203125
1789059089352896300,0.227896240234375,-0.9824676513671875,-0.34698486328125,-0.0935211181640625
1789059089362906000,0.237906005859375,-0.9121246337890625,-0.3385772705078125,-0.0777130126953125
1789059089372916200,0.247916259765625,-0.8962860107421875,-0.3210906982421875,-0.0679473876953125
1789059089382926300,0.25792626953125,-0.9573974609375,-0.2394866943359375,0.0538330078125
1789059089392936200,0.267936279296875,-1.0392303466796875,-0.34539794921875,0.011810302734375
1789059089402946300,0.2779462890625,-1.211151123046875,-0.245361328125,-0.0528106689453125
1789059089412956200,0.2879560546875,-0.9576416015625,-0.41796875,-0.160369873046875
1789059089422966300,0.29796630859375,-0.8358917236328125,-0.3350372314453125,-0.1749114990234375
1789059089432976100,0.30797607421875,-1.1533203125,-0.155364990234375,-0.1204376220703125
1789059089442986200,0.317986328125,-1.3082427978515625,-0.152557373046875,-0.1049652099609375
1789059089452996400,0.327996337890625,-1.03509521484375,-0.35693359375,-0.143707275390625
1789059089463006200,0.338006103515625,-0.873382568359375,-0.417205810546875,-0.13848876953125
1789059089473016300,0.348016357421875,-0.843994140625,-0.3727264404296875,-0.1194000244140625
1789059089483026200,0.358026123046875,-0.736846923828125,-0.3516998291015625,-0.0743560791015625
1789059089493036300,0.368036376953125,-0.75128173828125,-0.4020233154296875,-0.0206146240234375
1789059089503046400,0.37804638671875,-0.880035400390625,-0.43292236328125,-0.081634521484375
1789059089513056300,0.38805615234375,-0.93133544921875,-0.4280242919921875,-0.0058746337890625
1789059089523066400,0.39806640625,-0.893463134765625,-0.42431640625,0.0418853759765625
1789059089533076200,0.408076171875,-0.888092041015625,-0.3804779052734375,0.0799102783203125
1789059089543086300,0.41808642578125,-0.8600311279296875,-0.3868865966796875,0.0735931396484375
1789059089553096200,0.42809619140625,-0.7628021240234375,-0.419891357421875,0.035552978515625
1789059089563106300,0.438106201171875,-0.6258392333984375,-0.5139617919921875,0.0706787109375
1789059089573116400,0.448116455078125,-0.746856689453125,-0.4293212890625,0.0521087646484375
1789059089583126300,0.458126220703125,-0.9599609375,-0.2509765625,0.0305328369140625
1789059089593136400,0.468136474609375,-1.052337646484375,-0.2853546142578125,0.0036468505859375
1789059089603146200,0.478146240234375,-1.02789306640625,-0.3952789306640625,-0.0118560791015625
1789059089613156400,0.48815625,-1.0681304931640625,-0.398406982421875,-0.011505126953125
1789059089623166200,0.498166259765625,-1.104583740234375,-0.2485198974609375,0.033966064453125
1789059089633175300,0.50817529296875,-0.9954071044921875,-0.2882537841796875,0.053802490234375
1789059089643186400,0.5181865234375,-0.9098968505859375,-0.2848052978515625,0.079986572265625
1789059089653195300,0.5281953125,-0.9215545654296875,-0.2404327392578125,0.0319366455078125
1789059089663205400,0.538205322265625,-0.9266357421875,-0.2999420166015625,-0.0196990966796875
1789059089673215200,0.54821533203125,-0.9284820556640625,-0.330352783203125,-0.0214080810546875
1789059089683225300,0.558225341796875,-0.941925048828125,-0.3384552001953125,0.004638671875
1789059089693235500,0.5682353515625,-0.959320068359375,-0.3443145751953125,0.007476806640625
1789059089703245300,0.578245361328125,-0.9523773193359375,-0.3709869384765625,0.0206756591796875
1789059089713255400,0.58825537109375,-0.9288177490234375,-0.43603515625,0.0348663330078125
1789059089723265500,0.598265625,-0.9508514404296875,-0.40185546875,0.0097198486328125
1789059089733275400,0.608275390625,-0.9202423095703125,-0.3552703857421875,-0.0115814208984375
1789059089743285500,0.618285400390625,-0.86834716796875,-0.400848388671875,-0.0260772705078125
1789059089753295400,0.62829541015625,-0.8346710205078125,-0.491851806640625,-0.0362396240234375
1789059089763305500,0.638305419921875,-0.867218017578125,-0.560882568359375,-0.0543212890625
1789059089773315000,0.648315185546875,-0.8870391845703125,-0.5261077880859375,-0.029693603515625
1789059089783325200,0.6583251953125,-0.9246826171875,-0.48822021484375,-0.0683441162109375
1789059089793335300,0.668335205078125,-1.0213165283203125,-0.36572265625,-0.053619384765625
1789059089803345200,0.67834521484375,-1.063934326171875,-0.3180084228515625,-0.0518341064453125
1789059089813355300,0.688355224609375,-1.02117919921875,-0.3100738525390625,-0.0537567138671875
1789059089823365000,0.698365234375,-0.91204833984375,-0.3457183837890625,-0.0213165283203125
1789059089833375200,0.708375244140625,-0.924407958984375,-0.2729949951171875,-0.026763916015625
1789059089843385300,0.71838525390625,-0.8856658935546875,-0.316375732421875,-0.0238037109375
1789059089853395200,0.728395263671875,-0.8804168701171875,-0.3700103759765625,0.023193359375
1789059089863405300,0.7384052734375,-0.881195068359375,-0.39410400390625,0.0153961181640625
1789059089873415200,0.748415283203125,-0.9316864013671875,-0.401397705078125,0.0047607421875
1789059089883425300,0.75842529296875,-0.97296142578125,-0.448394775390625,-0.0368804931640625
1789059089893435100,0.76843505859375,-0.968658447265625,-0.4413299560546875,-0.095245361328125
1789059089903445200,0.7784453125,-0.9310760498046875,-0.4088134765625,-0.0615234375
1789059089913455400,0.788455322265625,-0.9551239013671875,-0.319183349609375,-0.04150390625
1789059089923465200,0.79846533203125,-0.9412078857421875,-0.3510894775390625,0.011138916015625
1789059089933475300,0.808475341796875,-0.966583251953125,-0.37921142578125,0.0565338134765625
1789059089943485200,0.818485107421875,-1.021148681640625,-0.366424560546875,0.0223388671875
1789059089953495300,0.828495361328125,-0.979949951171875,-0.3892059326171875,0.011474609375
1789059089963505200,0.838505126953125,-0.900787353515625,-0.4406585693359375,0.0472564697265625
1789059089973515300,0.848515380859375,-0.8800048828125,-0.443389892578125,0.0547943115234375
1789059089983525400,0.858525390625,-0.844573974609375,-0.4554595947265625,0.01995849609375
1789059089993535200,0.86853515625,-0.8414764404296875,-0.489410400390625,-0.01416015625
1789059090003545300,0.87854541015625,-0.9196319580078125,-0.4195556640625,-0.05267333984375
1789059090013555200,0.88855517578125,-0.961090087890625,-0.4466094970703125,-0.059906005859375
1789059090023565300,0.8985654296875,-1.0626068115234375,-0.281890869140625,-0.0155487060546875
1789059090033575400,0.908575439453125,-0.98443603515625,-0.3205108642578125,0.007354736328125
1789059090043585300,0.918585205078125,-0.7263641357421875,-0.7531585693359375,0.04949951171875
1789059090053595400,0.928595458984375,-0.9170074462890625,-0.4080657958984375,0.035308837890625
1789059090063605200,0.938605224609375,-1.03717041015625,-0.2314453125,0.0103302001953125
1789059090073615400,0.948615478515625,-0.96868896484375,-0.298248291015625,-0.0005950927734375
1789059090083624400,0.95862451171875,-0.829986572265625,-0.5168609619140625,0.0311126708984375
1789059090093634300,0.96863427734375,-0.936492919921875,-0.2678070068359375,0.0391998291015625
1789059090103644400,0.97864453125,-0.9379119873046875,-0.2845458984375,0.01776123046875
1789059090113654300,0.988654296875,-0.8843994140625,-0.2947540283203125,0.042205810546875
1789059090123664400,0.998664306640625,-0.8223419189453125,-0.34765625,0.08038330078125
1789059090133674500,1.008674560546875,-0.8964996337890625,-0.3295745849609375,0.080413818359375
1789059090143684400,1.018684326171875,-0.9259796142578125,-0.372344970703125,0.111602783203125
1789059090153694500,1.028694580078125,-0.9725494384765625,-0.33380126953125,0.1331634521484375
1789059090163704300,1.038704345703125,-0.9661865234375,-0.2787017822265625,0.0919189453125
1789059090173714400,1.04871435546875,-0.8899078369140625,-0.3622894287109375,0.0733184814453125
1789059090183724300,1.058724365234375,-0.857574462890625,-0.3689422607421875,0.0810089111328125
1789059090193734400,1.068734375,-0.8315277099609375,-0.4756927490234375,0.04071044921875
1789059090203744500,1.07874462890625,-0.8251495361328125,-0.509521484375,0.067657470703125
1789059090213754400,1.08875439453125,-0.8544921875,-0.4716949462890625,0.056488037109375
1789059090223764500,1.098764404296875,-0.973175048828125,-0.3702239990234375,0.0604095458984375
1789059090233774300,1.1087744140625,-0.9656982421875,-0.4033966064453125,0.1040191650390625
1789059090243784400,1.118784423828125,-0.984527587890625,-0.3783721923828125,-0.003997802734375
1789059090253794300,1.128794189453125,-0.951751708984375,-0.44439697265625,0.001007080078125
1789059090263804200,1.13880419921875,-0.8758544921875,-0.4987335205078125,0.011260986328125
1789059090273814300,1.148814208984375,-0.8983612060546875,-0.4114990234375,0.031402587890625
1789059090283824000,1.15882421875,-0.9059295654296875,-0.3814697265625,0.051513671875
1789059090293834200,1.168834228515625,-0.8647308349609375,-0.4393157958984375,0.042724609375
1789059090303844000,1.178843994140625,-0.868255615234375,-0.4654541015625,0.0511322021484375
1789059090313854200,1.188854248046875,-0.96026611328125,-0.412384033203125,0.048553466796875
1789059090323864300,1.1988642578125,-1.017669677734375,-0.3481597900390625,0.0450592041015625
1789059090333874200,1.208874267578125,-0.9875335693359375,-0.3929443359375,-0.00140380859375
1789059090343884300,1.21888427734375,-0.8533172607421875,-0.4583587646484375,-0.01336669921875
1789059090353894100,1.22889404296875,-0.8536529541015625,-0.4256744384765625,0.0162506103515625
1789059090363904300,1.238904296875,-0.9529876708984375,-0.3485870361328125,0.0008544921875
1789059090373914400,1.248914306640625,-1.0122528076171875,-0.345306396484375,0.0166473388671875
1789059090383924200,1.25892431640625,-0.988616943359375,-0.3869171142578125,-0.0154876708984375
1789059090393934300,1.268934326171875,-0.94140625,-0.4133148193359375,-0.0414276123046875
1789059090403944200,1.278944091796875,-0.922760009765625,-0.365203857421875,-0.0097808837890625
1789059090413954300,1.288954345703125,-0.851593017578125,-0.417724609375,-0.03076171875
1789059090423964200,1.298964111328125,-0.8261260986328125,-0.4224090576171875,-0.0299072265625
1789059090433974300,1.308974365234375,-0.8451690673828125,-0.3860931396484375,-0.028961181640625
1789059090443984400,1.318984375,-0.9215240478515625,-0.3248443603515625,0.0030670166015625
1789059090453994200,1.328994140625,-0.9138946533203125,-0.3887939453125,0.011383056640625
1789059090464004400,1.33900439453125,-0.876922607421875,-0.45062255859375,-0.0018463134765625
1789059090474014200,1.34901416015625,-0.94232177734375,-0.36065673828125,-0.0025787353515625
1789059090484024300,1.3590244140625,-0.9771728515625,-0.353668212890625,-0.0309600830078125
1789059090494034200,1.3690341796875,-0.968017578125,-0.3466949462890625,-0.05584716796875
1789059090504044300,1.379044189453125,-0.9473114013671875,-0.3794097900390625,-0.072265625
1789059090514054400,1.389054443359375,-0.991485595703125,-0.3614044189453125,-0.0957489013671875
1789059090524064300,1.399064208984375,-1.0225067138671875,-0.3482666015625,-0.119781494140625
1789059090534074400,1.409074462890625,-1.0337066650390625,-0.3648223876953125,-0.1157073974609375
1789059090544084200,1.419084228515625,-1.0201873779296875,-0.3672637939453125,-0.1244964599609375
1789059090554094300,1.42909423828125,-0.9539031982421875,-0.38543701171875,-0.10882568359375
1789059090564104200,1.439104248046875,-0.9194488525390625,-0.3388519287109375,-0.0943450927734375
1789059090574113300,1.44911328125,-0.84234619140625,-0.3716278076171875,-0.085235595703125
1789059090584123400,1.459123291015625,-0.8057098388671875,-0.41741943359375,-0.0800018310546875
1789059090594133500,1.469133544921875,-0.9078521728515625,-0.34637451171875,-0.1023712158203125
1789059090604143400,1.479143310546875,-1.021575927734375,-0.2629547119140625,-0.090118408203125
1789059090614153500,1.489153564453125,-0.96783447265625,-0.359649658203125,-0.0392913818359375
1789059090624163300,1.499163330078125,-0.8684234619140625,-0.4937896728515625,-0.0338897705078125
1789059090634173400,1.50917333984375,-0.9113006591796875,-0.4241180419921875,-0.0137481689453125
1789059090644183300,1.519183349609375,-0.9865264892578125,-0.27508544921875,-0.0011749267578125
1789059090654193400,1.529193359375,-0.941009521484375,-0.35809326171875,0.024200439453125
1789059090664203500,1.53920361328125,-0.967132568359375,-0.3570404052734375,0.015625
1789059090674213400,1.54921337890625,-0.92303466796875,-0.37890625,-0.001220703125
1789059090684223000,1.559222900390625,-0.9185943603515625,-0.3769989013671875,-0.0220184326171875
1789059090694232800,1.56923291015625,-0.910797119140625,-0.3541717529296875,0.0063934326171875
1789059090704243000,1.579242919921875,-0.9444427490234375,-0.3296356201171875,-0.004302978515625
1789059090714253000,1.589253173828125,-0.8921051025390625,-0.383453369140625,-0.06109619140625
1789059090724263000,1.599262939453125,-0.880859375,-0.3966522216796875,-0.0692138671875
1789059090734273000,1.60927294921875,-0.88232421875,-0.3837127685546875,-0.074249267578125
1789059090744283000,1.619282958984375,-0.905548095703125,-0.35382080078125,-0.0667724609375
1789059090754293000,1.62929296875,-0.8815765380859375,-0.3681640625,-0.050384521484375
1789059090764302800,1.639302734375,-0.8505401611328125,-0.409759521484375,-0.0782318115234375
1789059090774313000,1.64931298828125,-0.916107177734375,-0.3593292236328125,-0.075897216796875
1789059090784323000,1.659322998046875,-0.9600677490234375,-0.37615966796875,-0.0655364990234375
1789059090794333000,1.6693330078125,-1.0708770751953125,-0.31304931640625,-0.0844268798828125
1789059090804343000,1.679343017578125,-1.0979766845703125,-0.308837890625,-0.07489013671875
1789059090814353000,1.689352783203125,-1.0955963134765625,-0.3186492919921875,-0.052520751953125
1789059090824363000,1.699363037109375,-0.9839019775390625,-0.3949737548828125,-0.0414276123046875
1789059090834373000,1.709373046875,-0.8588714599609375,-0.378387451171875,-0.019134521484375
1789059090844383000,1.719383056640625,-0.830291748046875,-0.3717803955078125,-0.0335693359375
1789059090854393000,1.72939306640625,-0.9064788818359375,-0.327056884765625,-0.036163330078125
1789059090864403000,1.73940283203125,-0.9467926025390625,-0.3439483642578125,-0.0095367431640625
1789059090874413000,1.7494130859375,-0.98577880859375,-0.3813934326171875,-0.0059051513671875
1789059090884423000,1.7594228515625,-1.0396270751953125,-0.377044677734375,-0.0006866455078125
1789059090894433000,1.76943310546875,-0.9436187744140625,-0.442840576171875,0.0164794921875
1789059090904443100,1.779443115234375,-0.9019775390625,-0.3829498291015625,-0.013641357421875
1789059090914453000,1.789452880859375,-0.9338836669921875,-0.366485595703125,-0.0253753662109375
1789059090924463000,1.799463134765625,-0.928558349609375,-0.3986358642578125,0.003875732421875
1789059090934473000,1.809472900390625,-0.9112701416015625,-0.356109619140625,0.050323486328125
1789059090944483000,1.819483154296875,-0.9328155517578125,-0.356414794921875,0.05029296875
1789059090954493000,1.829492919921875,-0.8957366943359375,-0.408966064453125,0.0355072021484375
1789059090964503000,1.8395029296875,-0.9088592529296875,-0.3832855224609375,0.044586181640625
1789059090974513200,1.84951318359375,-0.9515380859375,-0.3121185302734375,0.0104827880859375
1789059090984523000,1.85952294921875,-0.8566131591796875,-0.3500823974609375,0.0309295654296875
1789059090994533000,1.869533203125,-0.793426513671875,-0.3920440673828125,0.03338623046875
1789059091004543000,1.87954296875,-0.8989410400390625,-0.3292999267578125,0.0103607177734375
1789059091014553000,1.889552978515625,-0.983673095703125,-0.29571533203125,-0.007904052734375
1789059091024563200,1.899563232421875,-0.9607391357421875,-0.3873291015625,-0.012603759765625
1789059091034573000,1.909572998046875,-0.8619384765625,-0.47357177734375,-0.004150390625
1789059091044583200,1.919583251953125,-0.9243621826171875,-0.408660888671875,-0.0169219970703125
1789059091054593000,1.929593017578125,-0.950775146484375,-0.3773040771484375,-0.0286865234375
1789059091064603100,1.93960302734375,-0.92437744140625,-0.365753173828125,-0.038238525390625
1789059091074613000,1.949613037109375,-0.8511199951171875,-0.3927764892578125,-0.0175628662109375
1789059091084623000,1.959623046875,-0.8441314697265625,-0.389923095703125,0.005523681640625
1789059091094632000,1.9696318359375,-0.832611083984375,-0.4024505615234375,-0.00299072265625
1789059091104643000,1.97964306640625,-0.8553314208984375,-0.3704071044921875,-0.012481689453125
1789059091114652000,1.98965185546875,-0.8396148681640625,-0.409881591796875,0.0070343017578125
1789059091124662000,1.999662109375,-0.8903656005859375,-0.387725830078125,-0.0128021240234375
1789059091134672000,2.009671875,-0.9191436767578125,-0.3426055908203125,0.0090789794921875
1789059091144682000,2.019681884765625,-0.887298583984375,-0.3746490478515625,0.0482177734375
1789059091154691800,2.02969189453125,-0.8614501953125,-0.4159393310546875,0.021697998046875
1789059091164702000,2.039701904296875,-0.84686279296875,-0.4427490234375,0.030059814453125
1789059091174712000,2.049712158203125,-0.87432861328125,-0.3833160400390625,-0.0058135986328125
1789059091184722000,2.059721923828125,-0.8365325927734375,-0.4621429443359375,-0.0253753662109375
1789059091194732000,2.06973193359375,-0.8822021484375,-0.4040069580078125,-0.0331878662109375
1789059091204742000,2.079741943359375,-0.883697509765625,-0.382843017578125,-0.020782470703125
1789059091214752000,2.089751953125,-0.9139556884765625,-0.33966064453125,-0.0472564697265625
1789059091224761900,2.099761962890625,-0.8964996337890625,-0.342315673828125,-0.044281005859375
1789059091234772000,2.10977197265625,-0.835968017578125,-0.45391845703125,-0.0318450927734375
1789059091244782000,2.119781982421875,-0.807525634765625,-0.5516357421875,-0.0347900390625
1789059091254792000,2.1297919921875,-0.9366607666015625,-0.3771209716796875,-0.0157318115234375
1789059091264802000,2.139802001953125,-1.015838623046875,-0.3005828857421875,-0.0167388916015625
1789059091274812000,2.14981201171875,-0.9660186767578125,-0.3648223876953125,0.004119873046875
1789059091284822000,2.159822021484375,-0.835540771484375,-0.50262451171875,-0.00628662109375
1789059091294831900,2.169831787109375,-0.9116058349609375,-0.3796539306640625,-0.020263671875
1789059091304842000,2.179842041015625,-0.9768218994140625,-0.3265838623046875,-0.0330047607421875
1789059091314852000,2.18985205078125,-0.9439544677734375,-0.3353424072265625,-0.058563232421875
1789059091324862000,2.199862060546875,-0.88275146484375,-0.463287353515625,-0.026641845703125
1789059091334872000,2.2098720703125,-0.9221038818359375,-0.446258544921875,-0.0360260009765625
1789059091344882000,2.2198818359375,-0.97705078125,-0.425262451171875,-0.0319366455078125
1789059091354892000,2.22989208984375,-0.9882354736328125,-0.4062652587890625,-0.043731689453125
1789059091364902100,2.239902099609375,-0.9691162109375,-0.4439544677734375,-0.0750274658203125
1789059091374912000,2.249912109375,-0.980621337890625,-0.4102020263671875,-0.02978515625
1789059091384922000,2.259922119140625,-0.954345703125,-0.408721923828125,-0.0150604248046875
1789059091394932000,2.269931884765625,-0.92755126953125,-0.4493560791015625,-0.0111541748046875
1789059091404942000,2.279942138671875,-0.94097900390625,-0.39849853515625,-0.0089569091796875
1789059091414952000,2.289951904296875,-0.997711181640625,-0.323486328125,-0.0301513671875
1789059091424962000,2.299962158203125,-1.0089569091796875,-0.34442138671875,-0.0161285400390625
1789059091434972200,2.30997216796875,-0.9709930419921875,-0.434417724609375,0.0111083984375
1789059091444982000,2.31998193359375,-0.9947967529296875,-0.4261627197265625,-0.0023345947265625
1789059091454992100,2.3299921875,-1.0257568359375,-0.331512451171875,-0.026275634765625
1789059091465002000,2.340001953125,-0.9907379150390625,-0.3697357177734375,-0.0162200927734375
1789059091475012000,2.35001220703125,-0.9558563232421875,-0.3663787841796875,-0.0043182373046875
1789059091485022000,2.36002197265625,-0.941131591796875,-0.39166259765625,-0.0301666259765625
1789059091495032000,2.370031982421875,-0.9533538818359375,-0.4290771484375,-0.0329437255859375
1789059091505042200,2.380042236328125,-0.995941162109375,-0.3764190673828125,-0.058868408203125
1789059091515052000,2.390052001953125,-0.94281005859375,-0.4046630859375,-0.0224151611328125
1789059091525062100,2.400062255859375,-0.89111328125,-0.410614013671875,0.00689697265625
1789059091535072000,2.410072021484375,-0.8958892822265625,-0.3114776611328125,-0.0028533935546875
1789059091545082000,2.42008203125,-0.781982421875,-0.4158477783203125,0.0104522705078125
1789059091555092200,2.43009228515625,-0.7382659912109375,-0.4584808349609375,-0.001556396484375
1789059091565102000,2.44010205078125,-0.8856658935546875,-0.281707763671875,-0.0521087646484375
1789059091575112200,2.4501123046875,-0.8988494873046875,-0.3401641845703125,-0.0300445556640625
1789059091585122000,2.4601220703125,-0.8220367431640625,-0.5293426513671875,-0.005615234375
1789059091595132200,2.470132080078125,-0.8800048828125,-0.5058746337890625,-0.01416015625
1789059091605142000,2.48014208984375,-0.9931182861328125,-0.2608184814453125,-0.043670654296875
1789059091615152000,2.490152099609375,-0.8814849853515625,-0.410919189453125,0.008026123046875
1789059091625162200,2.500162353515625,-0.8511505126953125,-0.3828887939453125,-0.0087738037109375
1789059091635172000,2.510172119140625,-0.885406494140625,-0.3521728515625,-0.0886077880859375
1789059091645182200,2.52018212890625,-0.9393310546875,-0.2963714599609375,-0.02435302734375
1789059091655192000,2.530192138671875,-0.8907623291015625,-0.4041290283203125,-0.0235443115234375
1789059091665202000,2.540201904296875,-0.94268798828125,-0.3686370849609375,-0.0051422119140625
1789059091675212000,2.5502119140625,-0.9384765625,-0.4076385498046875,-0.0157470703125
1789059091685222000,2.560221923828125,-0.9577178955078125,-0.3677215576171875,-0.041961669921875
1789059091695231000,2.57023095703125,-0.88360595703125,-0.4363861083984375,0.01361083984375
1789059091705241000,2.580240966796875,-0.7701263427734375,-0.4286041259765625,-0.0016021728515625
1789059091715251000,2.5902509765625,-0.7769622802734375,-0.3794403076171875,0.0019378662109375
1789059091725261000,2.600260986328125,-0.842437744140625,-0.3590850830078125,0.0134429931640625
1789059091735271000,2.61027099609375,-0.978607177734375,-0.38079833984375,-0.0171661376953125
1789059091745281000,2.620281005859375,-1.06732177734375,-0.380157470703125,0.0344696044921875
1789059091755291000,2.630290771484375,-1.1195220947265625,-0.3116455078125,0.025604248046875
1789059091765301000,2.640301025390625,-0.9668426513671875,-0.4160308837890625,0.0135955810546875
1789059091775311000,2.65031103515625,-0.85595703125,-0.4324798583984375,-0.03033447265625
1789059091785321000,2.660321044921875,-0.7943572998046875,-0.42559814453125,-0.0381927490234375
1789059091795331000,2.6703310546875,-0.834991455078125,-0.365936279296875,-0.048797607421875
1789059091805341000,2.6803408203125,-0.829803466796875,-0.4479217529296875,-0.0356292724609375
1789059091815351000,2.69035107421875,-0.8974151611328125,-0.4523773193359375,-0.02777099609375
1789059091825361000,2.70036083984375,-0.90155029296875,-0.513336181640625,0.0075836181640625
1789059091835371000,2.71037109375,-0.9600677490234375,-0.4021453857421875,-0.021148681640625
1789059091845381000,2.720381103515625,-0.920867919921875,-0.4735260009765625,-0.0523834228515625
1789059091855391000,2.730390869140625,-0.9565277099609375,-0.4149627685546875,0.031524658203125
1789059091865401000,2.740401123046875,-0.959808349609375,-0.3560791015625,0.028533935546875
1789059091875411000,2.750410888671875,-0.86529541015625,-0.4589996337890625,0.06622314453125
1789059091885421000,2.760421142578125,-0.8697967529296875,-0.4411468505859375,0.0564727783203125
1789059091895431200,2.77043115234375,-0.9254150390625,-0.38580322265625,0.018402099609375
1789059091905441000,2.78044091796875,-0.887725830078125,-0.4472503662109375,0.0658111572265625
1789059091915451100,2.790451171875,-0.9400634765625,-0.4514312744140625,0.036346435546875
1789059091925461000,2.8004609375,-1.006866455078125,-0.4062347412109375,0.046051025390625
1789059091935471000,2.81047119140625,-1.0064849853515625,-0.3952789306640625,0.0273590087890625
1789059091945481000,2.82048095703125,-0.9791717529296875,-0.4671173095703125,0.0074310302734375
1789059091955491000,2.830490966796875,-0.9350433349609375,-0.4378814697265625,0.0603790283203125
1789059091965501200,2.840501220703125,-0.8812713623046875,-0.40069580078125,0.0439453125
1789059091975511000,2.850510986328125,-0.865875244140625,-0.3941192626953125,0.023162841796875
1789059091985521200,2.860521240234375,-0.8690185546875,-0.338836669921875,0.044677734375
1789059091995531000,2.870531005859375,-0.9102020263671875,-0.3452606201171875,0.003082275390625
1789059092005541000,2.880541015625,-0.95166015625,-0.3821868896484375,0.00469970703125
1789059092015551000,2.890551025390625,-0.992401123046875,-0.3657073974609375,0.0383148193359375
1789059092025561000,2.90056103515625,-0.97705078125,-0.3329010009765625,-0.0186920166015625
1789059092035571200,2.9105712890625,-0.93634033203125,-0.3568267822265625,-0.00103759765625
1789059092045581000,2.9205810546875,-0.91796875,-0.3531646728515625,0.007537841796875
1789059092055591200,2.930591064453125,-0.9300079345703125,-0.3682861328125,-0.0236358642578125
1789059092065601000,2.94060107421875,-0.9412994384765625,-0.4160919189453125,-0.01605224609375
1789059092075611100,2.950611083984375,-0.9625091552734375,-0.42608642578125,0.0109405517578125
1789059092085621000,2.96062109375,-0.9879302978515625,-0.3772430419921875,-0.01495361328125
1789059092095631000,2.970631103515625,-0.9575042724609375,-0.34124755859375,-0.0115509033203125
1789059092105641200,2.98064111328125,-0.8498382568359375,-0.420867919921875,-0.02044677734375
1789059092115651000,2.990651123046875,-0.7943115234375,-0.5145721435546875,-0.02783203125
1789059092125661200,3.0006611328125,-0.8759613037109375,-0.4069366455078125,0.0104217529296875
1789059092135670800,3.0106708984375,-0.8932342529296875,-0.40313720703125,0.05316162109375
1789059092145681000,3.020680908203125,-0.9055633544921875,-0.41937255859375,0.0291290283203125
1789059092155691000,3.03069091796875,-0.960235595703125,-0.315460205078125,0.014923095703125
1789059092165700900,3.040700927734375,-0.924835205078125,-0.44647216796875,-0.06976318359375
1789059092175711000,3.0507109375,-0.9281768798828125,-0.4239349365234375,-0.09967041015625
1789059092185720800,3.060720947265625,-0.89019775390625,-0.361328125,-0.0108795166015625
1789059092195731000,3.07073095703125,-0.95111083984375,-0.314910888671875,0.0875701904296875
1789059092205741000,3.080740966796875,-0.99371337890625,-0.34918212890625,0.0417633056640625
1789059092215751000,3.0907509765625,-0.9639434814453125,-0.413360595703125,-0.0677642822265625
1789059092225761000,3.100760986328125,-0.8970184326171875,-0.3958587646484375,-0.103973388671875
1789059092235771000,3.11077099609375,-0.871917724609375,-0.4361572265625,-0.1796417236328125
1789059092245781000,3.120781005859375,-0.916961669921875,-0.373291015625,-0.0647125244140625
1789059092255790800,3.130790771484375,-0.8951416015625,-0.396575927734375,0.048187255859375
1789059092265801000,3.140801025390625,-0.8969268798828125,-0.4023590087890625,0.107452392578125
1789059092275811000,3.15081103515625,-0.8715972900390625,-0.385101318359375,0.036865234375
1789059092285821000,3.160821044921875,-0.919677734375,-0.349884033203125,-0.0147247314453125
1789059092295831000,3.1708310546875,-0.9712066650390625,-0.322967529296875,-0.0759735107421875
1789059092305841000,3.1808408203125,-0.9906768798828125,-0.3805694580078125,-0.0784759521484375
1789059092315851000,3.19085107421875,-0.94793701171875,-0.4343719482421875,-0.0542449951171875
1789059092325860900,3.20086083984375,-0.9420166015625,-0.4551239013671875,-0.008544921875
1789059092335870000,3.210869873046875,-0.9289703369140625,-0.4975433349609375,0.027587890625
1789059092345880000,3.220880126953125,-0.930938720703125,-0.3537139892578125,0.011260986328125
1789059092355890000,3.230889892578125,-0.9138336181640625,-0.420166015625,-0.0151824951171875
1789059092365900000,3.240900146484375,-0.8615264892578125,-0.5396575927734375,-0.0499725341796875
1789059092375910100,3.25091015625,-0.948272705078125,-0.28399658203125,-0.041259765625
1789059092385920000,3.260919921875,-0.770599365234375,-0.5189056396484375,-0.01519775390625
1789059092395930000,3.27093017578125,-0.582611083984375,-0.657623291015625,-0.0189361572265625
1789059092405940000,3.28093994140625,-0.6391448974609375,-0.3656158447265625,-0.0278778076171875
1789059092415950000,3.2909501953125,-0.5098876953125,-0.521514892578125,0.0180206298828125
1789059092425960000,3.3009599609375,-0.657470703125,-0.3529052734375,-0.0547332763671875
1789059092435970000,3.310969970703125,-0.7964935302734375,-0.352203369140625,-0.0222320556640625
1789059092445980200,3.320980224609375,-0.87591552734375,-0.37811279296875,-0.02227783203125
1789059092455990000,3.330989990234375,-0.7779693603515625,-0.5011749267578125,-0.0682220458984375
1789059092466000100,3.341000244140625,-1.1822509765625,-0.3074493408203125,-0.069000244140625
1789059092476010000,3.351010009765625,-2.2666778564453125,0.1330718994140625,-0.14447021484375
1789059092486020000,3.36102001953125,-2.728973388671875,-0.0552825927734375,-0.1164703369140625
1789059092496030200,3.3710302734375,-2.0998382568359375,-0.501068115234375,-0.1384735107421875
1789059092506040000,3.3810400390625,-0.9952545166015625,-0.76318359375,-0.012054443359375
1789059092516050200,3.39105029296875,-0.4515838623046875,-0.5271759033203125,-0.03045654296875
1789059092526060000,3.40106005859375,-0.28485107421875,-0.2270050048828125,-0.050048828125
1789059092536070100,3.411070068359375,-0.267303466796875,-0.4071197509765625,0.004150390625
1789059092546080000,3.421080078125,-0.636077880859375,-0.5362396240234375,-0.026092529296875
1789059092556090000,3.431090087890625,-1.0282745361328125,-0.464569091796875,0.1015777587890625
1789059092566100200,3.441100341796875,-1.1761322021484375,-0.4058837890625,0.1339111328125
1789059092576110000,3.451110107421875,-1.08538818359375,-0.3811798095703125,0.0182952880859375
1789059092586120200,3.4611201171875,-0.859893798828125,-0.37579345703125,0.0360260009765625
1789059092596130000,3.471130126953125,-0.7644805908203125,-0.3760833740234375,-0.04986572265625
1789059092606140200,3.48114013671875,-0.8217315673828125,-0.3533477783203125,-0.0074615478515625
1789059092616150000,3.49114990234375,-0.9657745361328125,-0.1609649658203125,0.06976318359375
1789059092626159900,3.501159912109375,-0.979949951171875,-0.2544708251953125,0.0544891357421875
1789059092636170000,3.511169921875,-0.938446044921875,-0.353271484375,0.010345458984375
1789059092646179800,3.521179931640625,-0.90240478515625,-0.364959716796875,0.0093841552734375
1789059092656190000,3.53118994140625,-0.8486175537109375,-0.348114013671875,-0.023345947265625
1789059092666199800,3.54119970703125,-0.8307342529296875,-0.342437744140625,-0.000244140625
1789059092676210000,3.5512099609375,-0.8180694580078125,-0.36474609375,-0.0353240966796875
1789059092686219800,3.5612197265625,-0.849365234375,-0.448577880859375,-0.09075927734375
1789059092696229600,3.571229736328125,-0.8938140869140625,-0.4600677490234375,-0.1117095947265625
1789059092706239700,3.58123974609375,-0.87109375,-0.4330902099609375,-0.0905609130859375
1789059092716249600,3.59124951171875,-0.85614013671875,-0.3902587890625,-0.0710906982421875
1789059092726259700,3.601259765625,-0.94879150390625,-0.347930908203125,-0.1332244873046875
1789059092736269800,3.611269775390625,-1.079193115234375,-0.304901123046875,-0.1373748779296875
1789059092746279700,3.62127978515625,-1.1197967529296875,-0.400848388671875,-0.1157989501953125
1789059092756289800,3.631289794921875,-1.0753173828125,-0.4285888671875,-0.0987091064453125
1789059092766299600,3.641299560546875,-0.9497528076171875,-0.4625701904296875,-0.0584564208984375
1789059092776309800,3.651309814453125,-0.8644866943359375,-0.433135986328125,-0.0839691162109375
1789059092786319600,3.661319580078125,-0.751007080078125,-0.4574737548828125,-0.115875244140625
1789059092796329700,3.671329833984375,-0.7983245849609375,-0.3578338623046875,-0.1132965087890625
1789059092806339800,3.68133984375,-0.85479736328125,-0.334808349609375,-0.0707855224609375
1789059092816349700,3.691349609375,-0.8642425537109375,-0.3261260986328125,-0.114044189453125
1789059092826359800,3.70135986328125,-0.853729248046875,-0.299041748046875,-0.0923309326171875
1789059092836369700,3.71136962890625,-0.7961578369140625,-0.3739013671875,-0.0587310791015625
1789059092846379800,3.7213798828125,-0.805633544921875,-0.4678955078125,-0.073944091796875
1789059092856390000,3.731389892578125,-1.0966949462890625,-0.2805633544921875,-0.061279296875
1789059092866399500,3.7413994140625,-0.953765869140625,-0.8055877685546875,-0.0235595703125
1789059092876409600,3.75140966796875,-0.903564453125,-1.2035980224609375,-0.0592193603515625
1789059092886419500,3.76141943359375,-1.096343994140625,-1.1434478759765625,-0.080322265625
1789059092896429600,3.7714296875,-1.377197265625,-0.5963897705078125,-0.016876220703125
1789059092906439400,3.781439453125,-1.285003662109375,-0.148223876953125,0.0041961669921875
1789059092916449500,3.791449462890625,-0.8816375732421875,-0.0642852783203125,0.0001373291015625
1789059092926459600,3.801459716796875,-0.552337646484375,-0.1504364013671875,0.0624237060546875
1789059092936469500,3.811469482421875,-0.5241241455078125,-0.41064453125,-0.093963623046875
1789059092946479600,3.821479736328125,-0.7359466552734375,-0.4503936767578125,-0.0536346435546875
1789059092956489500,3.831489501953125,-0.8978729248046875,-0.3360443115234375,0.024658203125
1789059092966499600,3.84149951171875,-1.0107269287109375,-0.1738739013671875,0.0321807861328125
1789059092976508700,3.8515087890625,-1.0532684326171875,-0.1316375732421875,0.047607421875
1789059092986518500,3.8615185546875,-0.8883056640625,-0.3491363525390625,0.044586181640625
1789059092996528600,3.871528564453125,-0.80078125,-0.418548583984375,-0.0532379150390625
1789059093006538800,3.881538818359375,-0.8177642822265625,-0.4076080322265625,-0.0705718994140625
1789059093016548600,3.891548583984375,-1.0059814453125,-0.3190155029296875,-0.0540313720703125
1789059093026558700,3.901558837890625,-1.155120849609375,-0.37921142578125,-0.063812255859375
1789059093036568600,3.911568603515625,-1.1961517333984375,-0.4113006591796875,-0.0440521240234375
1789059093046578700,3.92157861328125,-1.06439208984375,-0.32281494140625,-0.0065155029296875
1789059093056588500,3.931588623046875,-0.811614990234375,-0.3872833251953125,-0.0040740966796875
1789059093066598700,3.9415986328125,-0.7216644287109375,-0.3343353271484375,0.0277099609375
1789059093076608800,3.95160888671875,-0.6562042236328125,-0.4075775146484375,0.034088134765625
1789059093086618600,3.96161865234375,-0.6293182373046875,-0.6571502685546875,0.0076446533203125
1789059093096628700,3.971628662109375,-0.913360595703125,-0.354766845703125,0.0626373291015625
1789059093106638600,3.981638671875,-0.9865570068359375,-0.46856689453125,0.0977325439453125
1789059093116648700,3.991648681640625,-1.1144866943359375,-0.4127655029296875,0.0484161376953125
1789059093126658600,4.001658447265625,-1.079833984375,-0.4936981201171875,0.04791259765625
1789059093136668700,4.011668701171875,-0.9384002685546875,-0.481658935546875,0.066009521484375
1789059093146678800,4.0216787109375,-0.8152618408203125,-0.5352020263671875,0.0071258544921875
1789059093156688600,4.031688720703125,-0.825958251953125,-0.39874267578125,0.0482177734375
1789059093166698800,4.04169873046875,-0.828125,-0.3889312744140625,0.0272064208984375
1789059093176708600,4.05170849609375,-0.81280517578125,-0.3815460205078125,-0.00128173828125
1789059093186718700,4.06171875,-0.96868896484375,-0.3561248779296875,0.0241241455078125
1789059093196728800,4.071728759765625,-1.1237030029296875,-0.4033203125,0.0154876708984375
1789059093206738700,4.08173876953125,-1.3346405029296875,-0.2868804931640625,-0.046173095703125
1789059093216748800,4.091748779296875,-1.196502685546875,-0.3834075927734375,0.0002899169921875
1789059093226758700,4.101758544921875,-0.8650970458984375,-0.5049896240234375,0.006866455078125
1789059093236768800,4.111768798828125,-0.72637939453125,-0.48931884765625,-0.0366668701171875
1789059093246778600,4.121778564453125,-0.6988677978515625,-0.532073974609375,0.0097808837890625
1789059093256788700,4.131788818359375,-0.7549896240234375,-0.6395263671875,-0.0468292236328125
1789059093266798800,4.141798828125,-0.891357421875,-0.541412353515625,-0.055938720703125
1789059093276808700,4.15180859375,-1.0526885986328125,-0.4954071044921875,-0.0543060302734375
1789059093286818800,4.16181884765625,-1.189361572265625,-0.3151397705078125,-0.1100921630859375
1789059093296828700,4.17182861328125,-1.237091064453125,-0.1548614501953125,-0.0519866943359375
1789059093306838800,4.1818388671875,-0.967041015625,-0.4006805419921875,-0.0076751708984375
1789059093316848600,4.1918486328125,-0.8070220947265625,-0.3609771728515625,-0.0421600341796875
1789059093326858800,4.201858642578125,-0.7294769287109375,-0.3385467529296875,-0.025177001953125
1789059093336868600,4.21186865234375,-0.7581329345703125,-0.283172607421875,-0.0605010986328125
1789059093346878500,4.22187841796875,-0.88037109375,-0.279541015625,-0.0786285400390625
1789059093356888600,4.231888671875,-1.001190185546875,-0.413299560546875,-0.0429840087890625
1789059093366898400,4.2418984375,-1.0319366455078125,-0.535247802734375,-0.0357818603515625
1789059093376908500,4.251908447265625,-1.0276641845703125,-0.501495361328125,0.0027618408203125
1789059093386918700,4.261918701171875,-0.9119415283203125,-0.53533935546875,0.0108642578125
1789059093396928500,4.271928466796875,-0.79412841796875,-0.510650634765625,-0.0020751953125
1789059093406938600,4.281938720703125,-0.796173095703125,-0.499908447265625,-0.0184326171875
1789059093416948500,4.291948486328125,-0.8511810302734375,-0.4925384521484375,-0.0284271240234375
1789059093426958600,4.30195849609375,-0.966949462890625,-0.4198455810546875,-0.0382080078125
1789059093436968400,4.311968505859375,-1.054046630859375,-0.32122802734375,-0.0932464599609375
1789059093446978600,4.321978515625,-1.021148681640625,-0.3459014892578125,-0.0659942626953125
1789059093456988700,4.33198876953125,-0.966278076171875,-0.3933258056640625,0.004730224609375
1789059093466998500,4.34199853515625,-0.7826995849609375,-0.54608154296875,-0.012908935546875
1789059093477008600,4.352008544921875,-0.7442474365234375,-0.51214599609375,0.0135345458984375
1789059093487018500,4.3620185546875,-0.828277587890625,-0.3609771728515625,-0.0575103759765625
1789059093497028600,4.372028564453125,-0.84588623046875,-0.49774169921875,-0.0536346435546875
1789059093507038700,4.382038818359375,-0.98541259765625,-0.4553375244140625,0.063323974609375
1789059093517048600,4.392048583984375,-1.02142333984375,-0.4633941650390625,0.0546722412109375
1789059093527058700,4.40205859375,-0.897979736328125,-0.615570068359375,0.1256866455078125
1789059093537068500,4.412068603515625,-0.8304290771484375,-0.4283599853515625,0.096221923828125
1789059093547078700,4.42207861328125,-0.81292724609375,-0.36065673828125,0.0714263916015625
1789059093557088500,4.432088623046875,-0.781951904296875,-0.466033935546875,0.083221435546875
1789059093567098600,4.4420986328125,-0.89715576171875,-0.551666259765625,0.0266265869140625
1789059093577108700,4.452108642578125,-0.939300537109375,-0.608489990234375,0.0252685546875
1789059093587118600,4.46211865234375,-0.9361114501953125,-0.569915771484375,0.0872650146484375
1789059093597128700,4.472128662109375,-0.929473876953125,-0.4794158935546875,0.0717926025390625
1789059093607137800,4.4821376953125,-0.88330078125,-0.4153289794921875,0.0806732177734375
1789059093617147600,4.492147705078125,-0.8712005615234375,-0.38348388671875,0.0947113037109375
1789059093627157800,4.50215771484375,-0.898773193359375,-0.412689208984375,0.0428619384765625
1789059093637167600,4.512167724609375,-0.9176483154296875,-0.4019317626953125,0.047454833984375
1789059093647177700,4.522177734375,-0.9991912841796875,-0.310272216796875,0.018798828125
1789059093657187600,4.5321875,-1.0436248779296875,-0.3498077392578125,-0.053131103515625
1789059093667197700,4.54219775390625,-1.0310821533203125,-0.4897613525390625,-0.0488128662109375
1789059093677207800,4.552207763671875,-0.9967193603515625,-0.497406005859375,-0.0368804931640625
1789059093687218200,4.56221826171875,-0.902557373046875,-0.42828369140625,-0.0271148681640625
1789059093697228300,4.572228271484375,-0.79541015625,-0.3466339111328125,-0.0301055908203125
1789059093707238100,4.582238037109375,-0.7159881591796875,-0.367095947265625,-0.0473785400390625
1789059093717248300,4.592248291015625,-0.8337249755859375,-0.287139892578125,-0.0897674560546875
1789059093727258000,4.602258056640625,-0.8173675537109375,-0.595367431640625,-0.108795166015625
1789059093737268200,4.612268310546875,-0.8946380615234375,-0.6375732421875,-0.09619140625
1789059093747278300,4.6222783203125,-1.03564453125,-0.48431396484375,-0.047027587890625
1789059093757288200,4.6322880859375,-1.0109710693359375,-0.4379425048828125,-0.0437774658203125
1789059093767298300,4.64229833984375,-0.9812469482421875,-0.3566741943359375,-0.0416259765625
1789059093777308200,4.65230810546875,-0.8337554931640625,-0.4904937744140625,0.0320587158203125
1789059093787318300,4.662318359375,-0.7854156494140625,-0.5012664794921875,-0.08087158203125
1789059093797328100,4.672328125,-0.75738525390625,-0.5267486572265625,-0.1094512939453125
1789059093807338200,4.682338134765625,-0.76287841796875,-0.4856109619140625,-0.0549163818359375
1789059093817348400,4.692348388671875,-0.843994140625,-0.4947052001953125,-0.0667724609375
1789059093827358200,4.702358154296875,-1.0189208984375,-0.349090576171875,0.0635986328125
1789059093837368300,4.712368408203125,-1.108673095703125,-0.374176025390625,0.0051116943359375
1789059093847378200,4.722378173828125,-1.0566558837890625,-0.412445068359375,-0.0355682373046875
1789059093857388300,4.73238818359375,-0.8492584228515625,-0.5051422119140625,-0.0021820068359375
1789059093867398100,4.742398193359375,-0.7881927490234375,-0.4238739013671875,-0.0592498779296875
1789059093877408300,4.752408203125,-0.7806854248046875,-0.3531341552734375,-0.0474853515625
1789059093887418400,4.76241845703125,-0.8025360107421875,-0.409271240234375,-0.04742431640625
1789059093897428200,4.77242822265625,-0.8972625732421875,-0.3663330078125,-0.108795166015625
1789059093907438300,4.782438232421875,-1.0123443603515625,-0.4711151123046875,-0.0719757080078125
1789059093917448200,4.7924482421875,-1.136627197265625,-0.3536376953125,-0.0262298583984375
1789059093927458300,4.802458251953125,-1.1255950927734375,-0.3693389892578125,-0.0635223388671875
1789059093937468400,4.812468505859375,-0.874237060546875,-0.4726409912109375,0.00958251953125
1789059093947478300,4.822478271484375,-0.713958740234375,-0.4439697265625,-0.03277587890625
1789059093957488400,4.83248828125,-0.6792755126953125,-0.3830413818359375,-0.0546417236328125
1789059093967498200,4.842498291015625,-0.8018341064453125,-0.3475799560546875,-0.0650177001953125
1789059093977508400,4.85250830078125,-0.9553070068359375,-0.45697021484375,-0.0784912109375
1789059093987518200,4.862518310546875,-0.9882659912109375,-0.5549163818359375,-0.0442352294921875
1789059093997528300,4.8725283203125,-0.9467010498046875,-0.5970611572265625,-0.006805419921875
1789059094007538400,4.882538330078125,-0.8986053466796875,-0.4575958251953125,0.02886962890625
1789059094017548300,4.89254833984375,-0.779937744140625,-0.485015869140625,0.0386199951171875
1789059094027558400,4.902558349609375,-0.7755279541015625,-0.462921142578125,-0.0017852783203125
1789059094037568300,4.912568359375,-0.858489990234375,-0.413360595703125,-0.0116119384765625
1789059094047578400,4.922578369140625,-1.0033416748046875,-0.3808441162109375,0.02783203125
1789059094057588200,4.932588134765625,-1.084991455078125,-0.36444091796875,0.0309906005859375
1789059094067598300,4.942598388671875,-0.988525390625,-0.470458984375,0.02093505859375
1789059094077608400,4.9526083984375,-0.905487060546875,-0.5746612548828125,-0.0018768310546875
1789059094087618300,4.962618408203125,-0.9494781494140625,-0.4535980224609375,0.016510009765625
1789059094097628400,4.97262841796875,-0.975616455078125,-0.334259033203125,-0.03704833984375
1789059094107638300,4.98263818359375,-0.8581085205078125,-0.3707733154296875,-0.0585479736328125
1789059094117648400,4.9926484375,-0.71453857421875,-0.5454254150390625,0.020111083984375
1789059094127658200,5.002658203125,-0.8540191650390625,-0.3224945068359375,0.0507354736328125
1789059094137668400,5.01266845703125,-0.89569091796875,-0.4134674072265625,0.081817626953125
1789059094147678500,5.022678466796875,-1.0174102783203125,-0.21697998046875,-0.0061492919921875
1789059094157688300,5.032688232421875,-1.007720947265625,-0.3141937255859375,-0.0153961181640625
1789059094167698400,5.042698486328125,-0.9968109130859375,-0.3389129638671875,0.0039520263671875
1789059094177708000,5.0527080078125,-0.94989013671875,-0.445281982421875,-0.0191497802734375
1789059094187718100,5.06271826171875,-0.934417724609375,-0.4065704345703125,0.0115203857421875
1789059094197728300,5.072728271484375,-0.92559814453125,-0.3368072509765625,-0.01849365234375
1789059094207738000,5.082738037109375,-0.869659423828125,-0.43316650390625,-0.00079345703125
1789059094217747200,5.092747314453125,-0.817138671875,-0.480926513671875,-0.043121337890625
1789059094227757300,5.10275732421875,-0.8332366943359375,-0.4367218017578125,-0.0440826416015625
1789059094237767200,5.11276708984375,-0.836700439453125,-0.4101409912109375,-0.0302886962890625
1789059094247777300,5.12277734375,-0.970794677734375,-0.3502044677734375,-0.003265380859375
1789059094257787100,5.132787109375,-1.1058807373046875,-0.3380584716796875,-0.017730712890625
1789059094267797200,5.14279736328125,-1.083709716796875,-0.505615234375,0.015838623046875
1789059094277807400,5.152807373046875,-0.9439697265625,-0.5886077880859375,0.029998779296875
1789059094287817200,5.162817138671875,-0.76202392578125,-0.5814361572265625,0.0027618408203125
1789059094297827300,5.172827392578125,-0.7892303466796875,-0.34747314453125,-0.0342559814453125
1789059094307837200,5.182837158203125,-0.765106201171875,-0.46002197265625,-0.0116424560546875
1789059094317847300,5.192847412109375,-0.9138336181640625,-0.4292144775390625,-0.0055999755859375
1789059094327857200,5.202857177734375,-1.0095977783203125,-0.50640869140625,-0.034881591796875
1789059094337867300,5.2128671875,-0.9590911865234375,-0.616180419921875,-0.0045166015625
1789059094347877400,5.22287744140625,-0.899383544921875,-0.428497314453125,-0.0212249755859375
1789059094357887200,5.23288720703125,-0.84033203125,-0.466094970703125,-0.0741729736328125
1789059094367897300,5.2428974609375,-0.9081878662109375,-0.335296630859375,-0.0898590087890625
1789059094377907200,5.2529072265625,-0.941375732421875,-0.4263916015625,-0.123992919921875
1789059094387917300,5.262917236328125,-0.9433746337890625,-0.4611663818359375,-0.1063690185546875
1789059094397927200,5.27292724609375,-0.763763427734375,-0.5116424560546875,-0.0499725341796875
1789059094407937300,5.282937255859375,-0.6430206298828125,-0.548828125,-0.0846710205078125
1789059094417947400,5.292947509765625,-0.80804443359375,-0.3868865966796875,-0.068939208984375
1789059094427957200,5.302957275390625,-1.019317626953125,-0.366546630859375,-0.0718841552734375
1789059094437967400,5.31296728515625,-1.078765869140625,-0.4351043701171875,-0.0589752197265625
1789059094447977200,5.322977294921875,-1.020050048828125,-0.4744873046875,0.00225830078125
1789059094457987300,5.3329873046875,-0.92767333984375,-0.391204833984375,0.0189056396484375
1789059094467997400,5.34299755859375,-0.8542633056640625,-0.2970428466796875,-0.03668212890625
1789059094478008300,5.35300830078125,-0.73394775390625,-0.4183197021484375,-0.0162200927734375
1789059094488018200,5.36301806640625,-0.8182373046875,-0.4688873291015625,-0.0115966796875
1789059094498028300,5.3730283203125,-1.085601806640625,-0.3409271240234375,-0.0678863525390625
1789059094508038400,5.383038330078125,-1.2022857666015625,-0.2983856201171875,-0.00677490234375
1789059094518048300,5.39304833984375,-1.1378936767578125,-0.3358001708984375,0.0175323486328125
1789059094528058400,5.403058349609375,-0.9317626953125,-0.511993408203125,-0.0240020751953125
1789059094538068200,5.413068115234375,-0.8657073974609375,-0.4366302490234375,0.004547119140625
1789059094548078300,5.423078369140625,-0.827606201171875,-0.3689422607421875,-0.0207977294921875
1789059094558088200,5.433088134765625,-0.9138946533203125,-0.240966796875,-0.083221435546875
1789059094568098300,5.443098388671875,-0.9947967529296875,-0.3042449951171875,-0.0416259765625
1789059094578108400,5.4531083984375,-0.9591217041015625,-0.56072998046875,-0.04803466796875
1789059094588118300,5.4631181640625,-0.9326934814453125,-0.591522216796875,-0.0433502197265625
1789059094598128400,5.47312841796875,-0.8452606201171875,-0.4778289794921875,0.0113372802734375
1789059094608138200,5.48313818359375,-0.7935791015625,-0.3569183349609375,-0.0186309814453125
1789059094618148400,5.4931484375,-0.781982421875,-0.3868865966796875,-0.0153656005859375
1789059094628158200,5.503158203125,-0.808441162109375,-0.3766021728515625,0.0142059326171875
1789059094638168300,5.513168212890625,-0.8090057373046875,-0.437713623046875,-0.0152130126953125
1789059094648178400,5.523178466796875,-0.8852386474609375,-0.4337615966796875,-0.027984619140625
1789059094658188300,5.533188232421875,-0.962554931640625,-0.40863037109375,0.0138092041015625
1789059094668198400,5.543198486328125,-0.9920806884765625,-0.45294189453125,0.00140380859375
1789059094678208300,5.553208251953125,-1.017486572265625,-0.3469696044921875,-0.018646240234375
1789059094688218000,5.563218017578125,-0.888702392578125,-0.3759307861328125,-0.010162353515625
1789059094698228200,5.573228271484375,-0.7179718017578125,-0.5850372314453125,-0.0187835693359375
1789059094708238000,5.583238037109375,-0.8099822998046875,-0.46734619140625,0.0413818359375
1789059094718248200,5.593248291015625,-0.8546142578125,-0.474273681640625,0.056854248046875
1789059094728258000,5.603258056640625,-0.9865570068359375,-0.201507568359375,-0.0126495361328125
1789059094738268200,5.61326806640625,-0.911590576171875,-0.3138580322265625,-0.0248565673828125
1789059094748278000,5.623278076171875,-1.0035400390625,-0.3264312744140625,-0.0179901123046875
1789059094758288000,5.633287841796875,-1.0066375732421875,-0.4752197265625,-0.066131591796875
1789059094768298000,5.643298095703125,-0.932647705078125,-0.482940673828125,-0.0688018798828125
1789059094778307800,5.653307861328125,-0.7666473388671875,-0.4937286376953125,-0.015411376953125
1789059094788318000,5.66331787109375,-0.7373504638671875,-0.4424285888671875,-0.0110015869140625
1789059094798327800,5.673327880859375,-0.824859619140625,-0.3992767333984375,0.024566650390625
1789059094808338000,5.683337890625,-0.958282470703125,-0.3710174560546875,-0.0125885009765625
1789059094818348000,5.69334814453125,-1.0392303466796875,-0.4110260009765625,-0.0412139892578125
1789059094828358000,5.70335791015625,-1.0901336669921875,-0.3340301513671875,-0.0138397216796875
1789059094838367000,5.713366943359375,-1.0106964111328125,-0.4702911376953125,-0.0504913330078125
1789059094848377000,5.723377197265625,-0.95489501953125,-0.473602294921875,-0.0186004638671875
1789059094858387000,5.733386962890625,-0.8320465087890625,-0.51220703125,-0.00250244140625
1789059094868397000,5.74339697265625,-0.7924041748046875,-0.42364501953125,-0.009979248046875
1789059094878407000,5.753406982421875,-0.76531982421875,-0.43389892578125,0.0723419189453125
1789059094888417000,5.7634169921875,-0.9188690185546875,-0.359771728515625,0.04437255859375
1789059094898427100,5.77342724609375,-1.09796142578125,-0.394622802734375,-0.008941650390625
1789059094908437000,5.78343701171875,-1.1331329345703125,-0.5531158447265625,0.058502197265625
1789059094918447000,5.793447021484375,-1.3767547607421875,-0.27142333984375,0.0349273681640625
1789059094928457000,5.80345703125,-1.2929534912109375,-0.2876129150390625,0.0492401123046875
1789059094938467000,5.813467041015625,-1.115142822265625,-0.2403564453125,0.017669677734375
1789059094948477000,5.823476806640625,-0.8523406982421875,-0.3554840087890625,-0.0391082763671875
1789059094958487000,5.833487060546875,-0.6392974853515625,-0.43865966796875,-0.0194854736328125
1789059094968497200,5.8434970703125,-0.4780426025390625,-0.4741363525390625,-0.0493621826171875
1789059094978507000,5.853507080078125,-0.4667510986328125,-0.4508514404296875,-0.00701904296875
1789059094988517000,5.86351708984375,-0.73553466796875,-0.29791259765625,0.0376434326171875
1789059094998527000,5.87352685546875,-0.9242706298828125,-0.4000244140625,-0.0186309814453125
1789059095008537000,5.883537109375,-1.0616912841796875,-0.416839599609375,-0.016387939453125
1789059095018547000,5.893546875,-1.040496826171875,-0.402801513671875,-0.0050048828125
1789059095028557000,5.90355712890625,-0.9337158203125,-0.3320465087890625,-0.038848876953125
1789059095038567200,5.913567138671875,-0.744171142578125,-0.30560302734375,-0.0507049560546875
1789059095048577000,5.923576904296875,-0.6050262451171875,-0.402923583984375,-0.0614166259765625
1789059095058587100,5.933587158203125,-0.696319580078125,-0.447021484375,-0.092620849609375
1789059095068597000,5.943596923828125,-1.04541015625,-0.30267333984375,-0.0579071044921875
1789059095078607000,5.953607177734375,-1.2163543701171875,-0.3603668212890625,-0.0117950439453125
1789059095088617000,5.963616943359375,-1.1537933349609375,-0.375030517578125,-0.0139617919921875
1789059095098627000,5.973626953125,-0.9705963134765625,-0.4826812744140625,-0.05029296875
1789059095108637200,5.98363720703125,-0.9530792236328125,-0.2921600341796875,-0.071807861328125
1789059095118647000,5.99364697265625,-0.8660430908203125,-0.321807861328125,-0.0084686279296875
1789059095128657200,6.0036572265625,-0.89013671875,-0.3155975341796875,-0.050384521484375
1789059095138667000,6.0136669921875,-0.827606201171875,-0.4935455322265625,-0.078399658203125
1789059095148677000,6.023677001953125,-0.8824920654296875,-0.502166748046875,-0.055938720703125
1789059095158686000,6.03368603515625,-0.8542633056640625,-0.4304351806640625,-0.0349578857421875
1789059095168695800,6.04369580078125,-0.883056640625,-0.321685791015625,0.0201568603515625
1789059095178706000,6.053705810546875,-0.93359375,-0.28900146484375,0.0313720703125
1789059095188716000,6.063716064453125,-1.051239013671875,-0.29998779296875,-0.0091705322265625
1789059095198726000,6.073725830078125,-1.1021728515625,-0.3168792724609375,-0.03826904296875
1789059095208736000,6.083736083984375,-1.0507965087890625,-0.360321044921875,-0.011688232421875
1789059095218745900,6.093745849609375,-1.0220947265625,-0.2902679443359375,0.0331268310546875
1789059095228756000,6.103755859375,-0.8523712158203125,-0.478790283203125,-0.026092529296875
1789059095238766000,6.11376611328125,-0.855987548828125,-0.4758148193359375,-0.0399169921875
1789059095248776000,6.12377587890625,-0.80596923828125,-0.4861602783203125,-0.0075225830078125
1789059095258786000,6.1337861328125,-0.8203277587890625,-0.40484619140625,-0.018524169921875
1789059095268796000,6.1437958984375,-0.9097900390625,-0.360198974609375,0.0092926025390625
1789059095278806000,6.153805908203125,-1.1165008544921875,-0.2071685791015625,0.0339202880859375
1789059095288815900,6.16381591796875,-1.1314697265625,-0.3025665283203125,-0.034515380859375
1789059095298826000,6.173825927734375,-1.1279754638671875,-0.13037109375,-0.046417236328125
1789059095308836000,6.183836181640625,-1.052337646484375,-0.168701171875,0.0037689208984375
1789059095318846000,6.193845947265625,-0.786712646484375,-0.268218994140625,0.0067138671875
1789059095328856000,6.20385595703125,-0.823394775390625,-0.2982025146484375,-0.0278167724609375
1789059095338866000,6.213865966796875,-0.876068115234375,-0.361541748046875,-0.0063323974609375
1789059095348876000,6.2238759765625,-0.91265869140625,-0.3594512939453125,0.03875732421875
1789059095358886000,6.233885986328125,-0.968017578125,-0.3321990966796875,0.0282745361328125
1789059095368896000,6.24389599609375,-0.939361572265625,-0.3279876708984375,-0.0003662109375
1789059095378906000,6.253906005859375,-0.87030029296875,-0.380096435546875,-0.0606231689453125
1789059095388916000,6.263916015625,-0.862457275390625,-0.351470947265625,-0.038299560546875
1789059095398926000,6.273926025390625,-0.9779510498046875,-0.2408905029296875,-0.0452728271484375
1789059095408936000,6.28393603515625,-1.050506591796875,-0.315582275390625,-0.1151123046875
1789059095418946000,6.293946044921875,-1.0319671630859375,-0.484466552734375,-0.054168701171875
1789059095428956000,6.303955810546875,-0.9682464599609375,-0.543609619140625,-0.0729827880859375
1789059095438966000,6.313966064453125,-0.9127655029296875,-0.45428466796875,-0.1292572021484375
1789059095448976100,6.32397607421875,-0.8541412353515625,-0.3448486328125,-0.106414794921875
1789059095458986000,6.333986083984375,-0.7783355712890625,-0.4844970703125,-0.076385498046875
1789059095468996000,6.34399609375,-0.9317169189453125,-0.34332275390625,-0.098968505859375
1789059095479006000,6.354005859375,-0.8322906494140625,-0.5869903564453125,-0.020599365234375
1789059095489016000,6.36401611328125,-0.9998779296875,-0.3909912109375,0.0222625732421875
1789059095499026200,6.374026123046875,-1.0531005859375,-0.333587646484375,0.00537109375
1789059095509036000,6.3840361328125,-0.99700927734375,-0.390472412109375,-0.001190185546875
1789059095519046100,6.394046142578125,-0.9687652587890625,-0.3110809326171875,-0.0417327880859375
1789059095529056000,6.404055908203125,-0.9060516357421875,-0.3984527587890625,-0.1169281005859375
1789059095539066000,6.414066162109375,-0.818939208984375,-0.4265289306640625,-0.0566253662109375
1789059095549076000,6.424075927734375,-0.792266845703125,-0.3862762451171875,-0.0045318603515625
1789059095559086000,6.434086181640625,-0.8884735107421875,-0.3824920654296875,-0.001953125
1789059095569096200,6.44409619140625,-1.0565185546875,-0.29498291015625,0.0133209228515625
1789059095579106000,6.45410595703125,-1.132843017578125,-0.3030548095703125,-0.021087646484375
1789059095589116200,6.4641162109375,-1.0687408447265625,-0.3378143310546875,-0.078094482421875
1789059095599126000,6.4741259765625,-0.950836181640625,-0.398773193359375,-0.0544586181640625
1789059095609136000,6.48413623046875,-0.8706817626953125,-0.3162689208984375,-0.0355987548828125
1789059095619146000,6.49414599609375,-0.6621856689453125,-0.44696044921875,-0.0783538818359375
1789059095629156000,6.504156005859375,-0.6028289794921875,-0.46038818359375,-0.091400146484375
1789059095639166200,6.514166259765625,-0.8219451904296875,-0.442901611328125,-0.095947265625
1789059095649176000,6.524176025390625,-1.1367645263671875,-0.281951904296875,-0.0466461181640625
1789059095659186200,6.534186279296875,-1.1417694091796875,-0.36663818359375,-0.02166748046875
1789059095669196000,6.544196044921875,-0.95880126953125,-0.400054931640625,-0.0721588134765625
1789059095679206100,6.5542060546875,-0.800872802734375,-0.515716552734375,-0.099365234375
1789059095689216300,6.56421630859375,-0.8787078857421875,-0.3095550537109375,-0.076873779296875
1789059095699226400,6.574226318359375,-1.038970947265625,-0.186004638671875,-0.066650390625
1789059095709236500,6.584236572265625,-1.131622314453125,-0.204254150390625,-0.050506591796875
1789059095719246000,6.59424609375,-1.000732421875,-0.37823486328125,-0.077972412109375
1789059095729256200,6.604256103515625,-0.8618011474609375,-0.5247039794921875,-0.1179046630859375
1789059095739266000,6.61426611328125,-0.8193511962890625,-0.436553955078125,-0.08306884765625
1789059095749276200,6.624276123046875,-0.8799285888671875,-0.2799224853515625,-0.046630859375
1789059095759285200,6.63428515625,-0.9576263427734375,-0.2908935546875,-0.0484161376953125
1789059095769295000,6.644295166015625,-1.0589141845703125,-0.25390625,-0.07421875
1789059095779305200,6.65430517578125,-1.228424072265625,-0.2823944091796875,-0.039276123046875
1789059095789315300,6.6643154296875,-1.3554229736328125,-0.1192626953125,-0.0571136474609375
1789059095799325200,6.6743251953125,-1.17474365234375,-0.2922515869140625,-0.0971221923828125
1789059095809335300,6.684335205078125,-0.9358062744140625,-0.3580474853515625,-0.0913543701171875
1789059095819345200,6.69434521484375,-0.5981903076171875,-0.586669921875,-0.0570526123046875
1789059095829355300,6.704355224609375,-0.6031951904296875,-0.4130706787109375,-0.0992431640625
1789059095839365000,6.714365234375,-0.6328125,-0.2878265380859375,0.014862060546875
1789059095849375200,6.724375244140625,-0.8292388916015625,-0.2141265869140625,0.022918701171875
1789059095859385300,6.73438525390625,-1.0103912353515625,-0.3519744873046875,-0.0326385498046875
1789059095869395200,6.744395263671875,-1.1417388916015625,-0.3986968994140625,0.049652099609375
1789059095879405300,6.7544052734375,-1.152191162109375,-0.4546051025390625,-0.010406494140625
1789059095889415200,6.764415283203125,-1.08819580078125,-0.2965545654296875,-0.0377044677734375
1789059095899425300,6.77442529296875,-0.8903961181640625,-0.2744903564453125,0.0676116943359375
1789059095909435400,6.784435302734375,-0.7996063232421875,-0.3143157958984375,0.0610504150390625
1789059095919445200,6.7944453125,-0.7762298583984375,-0.439697265625,0.0247802734375
1789059095929455400,6.804455322265625,-0.841033935546875,-0.47882080078125,0.0897216796875
1789059095939465200,6.81446533203125,-1.0069427490234375,-0.3912811279296875,0.09228515625
1789059095949475300,6.824475341796875,-0.9262847900390625,-0.4824981689453125,0.0122528076171875
1789059095959485200,6.834485107421875,-0.7801361083984375,-0.4458770751953125,0.0754241943359375
1789059095969495300,6.844495361328125,-0.6622772216796875,-0.4105377197265625,0.0401153564453125
1789059095979505400,6.85450537109375,-0.622894287109375,-0.407470703125,0.0187835693359375
1789059095989515300,6.864515380859375,-0.754425048828125,-0.2743682861328125,0.03948974609375
1789059095999525400,6.874525390625,-0.9339752197265625,-0.33343505859375,-0.005828857421875
1789059096009535200,6.88453515625,-1.0185546875,-0.4827880859375,-0.01727294921875
1789059096019545300,6.89454541015625,-0.974212646484375,-0.439361572265625,-0.022247314453125
1789059096029555200,6.90455517578125,-0.7074127197265625,-0.5548858642578125,-0.0454864501953125
1789059096039565300,6.9145654296875,-0.5696563720703125,-0.41583251953125,-0.00152587890625
1789059096049575400,6.924575439453125,-0.595794677734375,-0.3794403076171875,0.0128631591796875
1789059096059585300,6.934585205078125,-0.832000732421875,-0.284881591796875,0.0143585205078125
1789059096069595400,6.944595458984375,-1.1300811767578125,-0.203338623046875,-0.01708984375
1789059096079605200,6.954605224609375,-1.152374267578125,-0.505096435546875,-0.0277557373046875
1789059096089615400,6.964615478515625,-1.2564849853515625,-0.3721466064453125,-0.0240325927734375
1789059096099625500,6.97462548828125,-1.105926513671875,-0.4380950927734375,-0.010406494140625
1789059096109635300,6.98463525390625,-1.0100250244140625,-0.2845306396484375,0.0185089111328125
1789059096119645400,6.9946455078125,-0.9264984130859375,-0.231048583984375,0.02911376953125
1789059096129655300,7.0046552734375,-0.8882598876953125,-0.3859405517578125,-0.0264129638671875
1789059096139665400,7.01466552734375,-0.93609619140625,-0.4799957275390625,-0.079315185546875
1789059096149675300,7.02467529296875,-0.9535675048828125,-0.4586181640625,-0.0573272705078125
1789059096159685400,7.034685302734375,-1.020660400390625,-0.30572509765625,-0.0095672607421875
1789059096169695500,7.044695556640625,-1.0835113525390625,-0.2122650146484375,-0.064422607421875
1789059096179705300,7.054705322265625,-1.10260009765625,-0.2657012939453125,-0.0608367919921875
1789059096189715500,7.064715576171875,-1.053009033203125,-0.317901611328125,-0.049835205078125
1789059096199725000,7.07472509765625,-0.8989410400390625,-0.4503326416015625,-0.0293731689453125
1789059096209735200,7.084735107421875,-0.86572265625,-0.338531494140625,-0.0294952392578125
1789059096219745300,7.094745361328125,-0.7926788330078125,-0.3615875244140625,-0.0614471435546875
1789059096229755100,7.104755126953125,-0.769378662109375,-0.419586181640625,-0.0441741943359375
1789059096239765200,7.11476513671875,-0.84130859375,-0.50189208984375,-0.0531005859375
1789059096249775000,7.124775146484375,-1.043609619140625,-0.3857879638671875,-0.01531982421875
1789059096259785200,7.13478515625,-1.108795166015625,-0.3496856689453125,-0.0495758056640625
1789059096269795000,7.144795166015625,-0.9997100830078125,-0.4187469482421875,-0.0354461669921875
1789059096279805200,7.15480517578125,-0.8967132568359375,-0.3587646484375,-0.0008087158203125
1789059096289815300,7.164815185546875,-0.729766845703125,-0.5309295654296875,0.0023040771484375
1789059096299825200,7.1748251953125,-0.77740478515625,-0.3552093505859375,0.0474700927734375
1789059096309835300,7.184835205078125,-0.9214630126953125,-0.2186431884765625,0.024139404296875
1789059096319845000,7.19484521484375,-0.99102783203125,-0.214202880859375,0.007049560546875
1789059096329855200,7.204855224609375,-1.0288238525390625,-0.3201751708984375,-0.0167083740234375
1789059096339864300,7.2148642578125,-1.08343505859375,-0.4123992919921875,0.0008087158203125
1789059096349874200,7.224874267578125,-1.0836334228515625,-0.4721832275390625,-0.0238037109375
1789059096359884300,7.23488427734375,-0.9430999755859375,-0.4848785400390625,-0.0284271240234375
1789059096369894100,7.24489404296875,-0.7333831787109375,-0.441253662109375,0.010711669921875
1789059096379904300,7.254904296875,-0.643218994140625,-0.3482513427734375,0.0257110595703125
1789059096389914400,7.264914306640625,-0.6407470703125,-0.3579864501953125,0.0677490234375
1789059096399924200,7.27492431640625,-0.8237152099609375,-0.28118896484375,-0.022125244140625
1789059096409934300,7.284934326171875,-1.0045013427734375,-0.2905426025390625,-0.0334625244140625
1789059096419944200,7.294944091796875,-1.02410888671875,-0.458251953125,-0.0367584228515625
1789059096429954300,7.304954345703125,-0.9561614990234375,-0.5931549072265625,-0.065704345703125
1789059096439964400,7.31496435546875,-0.8533477783203125,-0.638824462890625,0.00421142578125
1789059096449974300,7.324974365234375,-0.88885498046875,-0.40106201171875,-0.017120361328125
1789059096459984400,7.334984375,-0.8729248046875,-0.3528900146484375,-0.068084716796875
1789059096469994200,7.344994140625,-0.828216552734375,-0.4790496826171875,-0.0456695556640625
1789059096480004400,7.35500439453125,-0.9841766357421875,-0.3769378662109375,-0.0079803466796875
1789059096490014200,7.36501416015625,-1.002105712890625,-0.4720306396484375,0.0034637451171875
1789059096500024300,7.3750244140625,-1.0656585693359375,-0.3810272216796875,-0.05035400390625
1789059096510034400,7.385034423828125,-1.0385589599609375,-0.275360107421875,-0.0040283203125
1789059096520044300,7.395044189453125,-1.0260467529296875,-0.31170654296875,-0.0229034423828125
1789059096530054400,7.405054443359375,-0.965728759765625,-0.412841796875,-0.0223846435546875
1789059096540064300,7.415064208984375,-0.8937530517578125,-0.481903076171875,0.011474609375
1789059096550074400,7.425074462890625,-0.8744049072265625,-0.395599365234375,0.0029754638671875
1789059096560084200,7.435084228515625,-0.87249755859375,-0.3184814453125,0.0261688232421875
1789059096570094300,7.44509423828125,-0.870697021484375,-0.31402587890625,0.0244293212890625
1789059096580104400,7.4551044921875,-0.9390106201171875,-0.328857421875,0.0758209228515625
1789059096590114300,7.4651142578125,-0.9659423828125,-0.360992431640625,0.0773773193359375
1789059096600124400,7.47512451171875,-0.9357147216796875,-0.361968994140625,0.056732177734375
1789059096610134300,7.48513427734375,-0.959716796875,-0.276641845703125,0.027984619140625
1789059096620144400,7.495144287109375,-0.955108642578125,-0.30487060546875,0.010833740234375
1789059096630154500,7.505154541015625,-0.9107666015625,-0.3883209228515625,0.0243377685546875
1789059096640164400,7.515164306640625,-0.817779541015625,-0.470733642578125,0.018035888671875
1789059096650174500,7.525174560546875,-0.8468170166015625,-0.3789825439453125,0.0287628173828125
1789059096660184300,7.535184326171875,-0.9010467529296875,-0.2268218994140625,0.0283050537109375
1789059096670194200,7.545194091796875,-0.942169189453125,-0.3374481201171875,0.0211029052734375
1789059096680204000,7.5552041015625,-1.06561279296875,-0.2904510498046875,0.03741455078125
1789059096690214100,7.565214111328125,-0.8612213134765625,-0.691925048828125,0.0524444580078125
1789059096700224300,7.575224365234375,-0.929107666015625,-0.60150146484375,0.0406646728515625
1789059096710234000,7.585234130859375,-1.04827880859375,-0.335723876953125,0.01104736328125
1789059096720244200,7.595244140625,-0.9882659912109375,-0.2374725341796875,-0.0017547607421875
1789059096730254000,7.605254150390625,-0.9095916748046875,-0.15814208984375,0.0185089111328125
1789059096740264200,7.61526416015625,-0.8038330078125,-0.3342437744140625,0.0388031005859375
1789059096750274300,7.6252744140625,-0.7370147705078125,-0.4876861572265625,0.013641357421875
1789059096760284200,7.6352841796875,-0.770782470703125,-0.4832763671875,-0.0785369873046875
1789059096770294300,7.645294189453125,-0.9149169921875,-0.3484039306640625,-0.0701751708984375
1789059096780304100,7.65530419921875,-1.1295318603515625,-0.282470703125,-0.0582733154296875
1789059096790314200,7.665314208984375,-1.1922760009765625,-0.345611572265625,-0.037933349609375
1789059096800324000,7.675323974609375,-1.08551025390625,-0.4233245849609375,0.02838134765625
1789059096810334200,7.685334228515625,-0.9015350341796875,-0.421417236328125,-0.0004730224609375
1789059096820344300,7.69534423828125,-0.71295166015625,-0.4096221923828125,-0.0422210693359375
1789059096830354200,7.705354248046875,-0.699951171875,-0.277618408203125,-0.0693359375
1789059096840364300,7.7153642578125,-0.6632843017578125,-0.3915863037109375,-0.0879669189453125
1789059096850374100,7.7253740234375,-0.85302734375,-0.4004364013671875,-0.087677001953125
1789059096860384300,7.73538427734375,-1.0837554931640625,-0.424346923828125,-0.0644989013671875
1789059096870394000,7.74539404296875,-1.1939544677734375,-0.3591461181640625,-0.0569915771484375
1789059096880403000,7.75540283203125,-1.0724639892578125,-0.4067840576171875,0.0168609619140625
1789059096890413000,7.7654130859375,-0.9210357666015625,-0.3674774169921875,0.0151214599609375
1789059096900423200,7.775423095703125,-0.7089080810546875,-0.4685516357421875,-0.03216552734375
1789059096910433000,7.78543310546875,-0.8242340087890625,-0.2720947265625,-0.0506744384765625
1789059096920443100,7.795443115234375,-0.889373779296875,-0.3520355224609375,-0.0352020263671875
1789059096930453000,7.805452880859375,-1.019775390625,-0.2989349365234375,-0.0063934326171875
1789059096940463000,7.815463134765625,-0.971221923828125,-0.45025634765625,0.0379638671875
1789059096950473000,7.825472900390625,-0.882476806640625,-0.5203857421875,0.0219268798828125
1789059096960483000,7.835483154296875,-0.844146728515625,-0.3849639892578125,0.0704803466796875
1789059096970493200,7.8454931640625,-0.7028350830078125,-0.4725189208984375,0.0684051513671875
1789059096980503000,7.8555029296875,-0.838287353515625,-0.333343505859375,0.017852783203125
1789059096990513200,7.86551318359375,-0.9596710205078125,-0.3582763671875,0.0272064208984375
1789059097000523000,7.87552294921875,-1.0921173095703125,-0.3516998291015625,0.0520782470703125
1789059097010533000,7.885533203125,-1.138824462890625,-0.3254241943359375,0.036865234375
1789059097020543000,7.89554296875,-0.9459075927734375,-0.4368896484375,0.051422119140625
1789059097030553000,7.905552978515625,-0.8040924072265625,-0.48565673828125,-0.006927490234375
1789059097040563200,7.915563232421875,-0.7293853759765625,-0.5247344970703125,-0.0038299560546875
1789059097050573000,7.925572998046875,-0.8415679931640625,-0.3995208740234375,0.0010223388671875
1789059097060583200,7.935583251953125,-0.9777984619140625,-0.367462158203125,-0.046234130859375
1789059097070593000,7.945593017578125,-0.9618072509765625,-0.356903076171875,-0.028045654296875
1789059097080603100,7.95560302734375,-0.83697509765625,-0.5879669189453125,-0.02056884765625
1789059097090613200,7.96561328125,-0.9284820556640625,-0.4037322998046875,-0.017364501953125
1789059097100623000,7.975623046875,-0.8628387451171875,-0.499664306640625,0.0093994140625
1789059097110633200,7.98563330078125,-0.95465087890625,-0.3016510009765625,-0.031219482421875
1789059097120643000,7.99564306640625,-0.87738037109375,-0.342864990234375,-0.0552520751953125
1789059097130653200,8.005653076171875,-0.7984771728515625,-0.4605560302734375,-0.014007568359375
1789059097140663000,8.0156630859375,-0.7681427001953125,-0.4617462158203125,-0.0471649169921875
1789059097150673200,8.025673095703125,-0.7762908935546875,-0.4566802978515625,-0.02777099609375
1789059097160683300,8.035683349609375,-0.8801422119140625,-0.315155029296875,0.030731201171875
1789059097170693000,8.045693115234375,-0.9664306640625,-0.270660400390625,-0.0187225341796875
1789059097180703200,8.055703125,-1.12884521484375,-0.287811279296875,-0.0286712646484375
1789059097190713000,8.065713134765625,-1.2790069580078125,-0.2779388427734375,-0.0229644775390625
1789059097200723200,8.07572314453125,-1.25372314453125,-0.3494110107421875,-0.040802001953125
1789059097210733000,8.085733154296875,-1.2007293701171875,-0.30316162109375,-0.0294952392578125
1789059097220743200,8.0957431640625,-1.0107574462890625,-0.361175537109375,-0.0860443115234375
1789059097230753300,8.105753173828125,-0.7608642578125,-0.471710205078125,-0.09478759765625
1789059097240763100,8.11576318359375,-0.630859375,-0.4798736572265625,-0.1065521240234375
1789059097250773200,8.125773193359375,-0.716552734375,-0.40045166015625,-0.13232421875
1789059097260783000,8.135783203125,-0.9190826416015625,-0.301544189453125,-0.083740234375
1789059097270793200,8.145793212890625,-1.0165252685546875,-0.3783111572265625,-0.08819580078125
1789059097280803300,8.15580322265625,-1.143646240234375,-0.2755584716796875,-0.0938873291015625
1789059097290813200,8.165813232421876,-0.93402099609375,-0.4820556640625,-0.0285491943359375
1789059097300823300,8.1758232421875,-0.891998291015625,-0.4690704345703125,-0.0204010009765625
1789059097310833200,8.185833251953126,-0.9911346435546875,-0.2900543212890625,-0.044708251953125
1789059097320843300,8.19584326171875,-0.9639434814453125,-0.294342041015625,0.0003814697265625
1789059097330853000,8.20585302734375,-0.958282470703125,-0.3180389404296875,-0.008941650390625
1789059097340863200,8.21586328125,-0.9341278076171875,-0.345733642578125,-0.022430419921875
1789059097350873300,8.225873291015626,-0.7653045654296875,-0.4457550048828125,0.0435028076171875
1789059097360883200,8.23588330078125,-0.709442138671875,-0.3951568603515625,0.0420989990234375
1789059097370893300,8.245893310546874,-0.811492919921875,-0.3768157958984375,0.078582763671875
1789059097380903200,8.255903076171874,-1.0433502197265625,-0.266632080078125,0.087921142578125
1789059097390913300,8.265913330078124,-1.077728271484375,-0.4156646728515625,0.040069580078125
1789059097400923100,8.275923095703124,-1.046234130859375,-0.4440460205078125,0.0612030029296875
1789059097410932000,8.285931884765626,-0.9309844970703125,-0.4156646728515625,0.1085205078125
1789059097420943400,8.295943359375,-0.8132781982421875,-0.3541717529296875,0.0640716552734375
1789059097430952200,8.3059521484375,-0.683135986328125,-0.3556976318359375,0.072509765625
1789059097440962000,8.315962158203124,-0.7493896484375,-0.3870086669921875,0.0248260498046875
1789059097450972200,8.32597216796875,-0.9936981201171875,-0.4141387939453125,-0.02874755859375
1789059097460982000,8.33598193359375,-1.11041259765625,-0.4016876220703125,0.000823974609375
1789059097470992100,8.3459921875,-1.071380615234375,-0.3731536865234375,-0.013427734375
1789059097481002000,8.356001953125,-0.9716796875,-0.334442138671875,-0.0360107421875
1789059097491012000,8.36601220703125,-0.8645477294921875,-0.38043212890625,0.0366668701171875
1789059097501022200,8.376022216796875,-0.897491455078125,-0.387451171875,0.0221099853515625
1789059097511032000,8.386031982421875,-0.97613525390625,-0.4151153564453125,-0.0155029296875
1789059097521042200,8.396042236328125,-0.986724853515625,-0.46734619140625,-0.012359619140625
1789059097531052000,8.406052001953125,-0.9459228515625,-0.532196044921875,-0.0291290283203125
1789059097541062100,8.416062255859375,-0.8544464111328125,-0.540283203125,0.010986328125
1789059097551072000,8.426072021484375,-0.7642364501953125,-0.5120086669921875,0.0352783203125
1789059097561082000,8.43608203125,-0.787811279296875,-0.383056640625,0.024658203125
1789059097571092200,8.44609228515625,-0.9033966064453125,-0.24835205078125,0.02337646484375
1789059097581102000,8.45610205078125,-0.9750518798828125,-0.2626190185546875,0.0501251220703125
1789059097591112200,8.4661123046875,-1.0372314453125,-0.395843505859375,0.0151824951171875
1789059097601122000,8.4761220703125,-1.17877197265625,-0.3134307861328125,-0.0161590576171875
1789059097611132200,8.486132080078125,-1.125762939453125,-0.3669586181640625,0.002349853515625
1789059097621142300,8.496142333984375,-1.008453369140625,-0.3746337890625,0.0240478515625
1789059097631152000,8.506152099609375,-0.791412353515625,-0.4966583251953125,0.0150604248046875
1789059097641162200,8.516162353515625,-0.654052734375,-0.4846954345703125,0.01934814453125
1789059097651172000,8.526172119140625,-0.768157958984375,-0.3101959228515625,-0.0476531982421875
1789059097661182200,8.53618212890625,-0.817047119140625,-0.4065399169921875,-0.0836029052734375
1789059097671192000,8.546192138671875,-0.921417236328125,-0.4200439453125,-0.0460205078125
1789059097681202200,8.5562021484375,-1.0289459228515625,-0.4044647216796875,-0.055267333984375
1789059097691211800,8.566211669921875,-1.016143798828125,-0.4288482666015625,-0.09185791015625
1789059097701221600,8.5762216796875,-1.0768890380859375,-0.15716552734375,-0.0545806884765625
1789059097711231700,8.586231689453125,-0.9446868896484375,-0.2743072509765625,-0.0619049072265625
1789059097721241600,8.59624169921875,-0.838623046875,-0.4250946044921875,-0.06488037109375
1789059097731251700,8.606251708984376,-0.7666778564453125,-0.5219879150390625,-0.0269622802734375
1789059097741261800,8.61626171875,-0.7882843017578125,-0.454803466796875,-0.067779541015625
1789059097751271700,8.626271728515626,-0.8554229736328125,-0.363922119140625,-0.0682220458984375
1789059097761281800,8.63628173828125,-0.9086761474609375,-0.3452301025390625,-0.027984619140625
1789059097771291600,8.646291748046876,-1.01019287109375,-0.3495330810546875,-0.064971923828125
1789059097781301800,8.6563017578125,-1.0081939697265625,-0.4597930908203125,-0.0221099853515625
1789059097791311600,8.6663115234375,-1.089202880859375,-0.38104248046875,-0.023773193359375
1789059097801321700,8.67632177734375,-1.1051177978515625,-0.274688720703125,-0.04254150390625
1789059097811331800,8.686331787109374,-0.914947509765625,-0.4372406005859375,-0.006561279296875
1789059097821341700,8.696341796875,-0.730316162109375,-0.54510498046875,-0.0225677490234375
1789059097831351800,8.706351806640624,-0.7766876220703125,-0.511688232421875,-0.0628509521484375
1789059097841361700,8.716361572265624,-0.9071197509765625,-0.366455078125,0.0049591064453125
1789059097851371500,8.72637158203125,-0.911041259765625,-0.418212890625,0.007965087890625
1789059097861381600,8.736381591796874,-1.0496368408203125,-0.2389373779296875,0.0269927978515625
1789059097871391500,8.7463916015625,-0.9242095947265625,-0.4563446044921875,0.0943756103515625
1789059097881401600,8.756401611328124,-1.007904052734375,-0.405609130859375,0.0093231201171875
1789059097891411500,8.766411376953124,-1.0584869384765625,-0.3195953369140625,0.0230560302734375
1789059097901421600,8.776421630859375,-0.9717559814453125,-0.3176422119140625,-0.012725830078125
1789059097911431400,8.786431396484375,-0.944854736328125,-0.243316650390625,-0.0409698486328125
1789059097921441500,8.796441650390625,-0.7597198486328125,-0.390625,-0.0367584228515625
1789059097931451600,8.80645166015625,-0.6587982177734375,-0.4510040283203125,-0.019287109375
1789059097941460700,8.816460693359375,-0.8273162841796875,-0.3715667724609375,-0.0014495849609375
1789059097951470600,8.826470703125,-1.13897705078125,-0.2437591552734375,-0.0146331787109375
1789059097961480700,8.836480712890625,-1.2301025390625,-0.2183685302734375,-0.009765625
1789059097971490600,8.846490478515625,-0.97503662109375,-0.459503173828125,0.037994384765625
1789059097981500700,8.856500732421875,-0.8319091796875,-0.35980224609375,0.01409912109375
1789059097991510500,8.866510498046875,-0.7201690673828125,-0.39593505859375,0.040008544921875
1789059098001520600,8.876520751953125,-0.880462646484375,-0.15924072265625,0.029998779296875
1789059098011530800,8.88653076171875,-0.9539031982421875,-0.308380126953125,-0.0399169921875
1789059098021540600,8.89654052734375,-1.081756591796875,-0.384429931640625,-0.0165252685546875
1789059098031550700,8.90655078125,-1.093414306640625,-0.4878082275390625,0.0135040283203125
1789059098041560600,8.916560546875,-1.0257415771484375,-0.4378662109375,-0.0206451416015625
1789059098051570700,8.92657080078125,-0.85205078125,-0.400634765625,0.007415771484375
1789059098061580500,8.93658056640625,-0.8137054443359375,-0.3094024658203125,0.01708984375
1789059098071590700,8.946590576171875,-0.7832489013671875,-0.3982391357421875,-0.00213623046875
1789059098081600800,8.956600830078125,-0.8669586181640625,-0.2972869873046875,0.045135498046875
1789059098091610600,8.966610595703125,-0.9658966064453125,-0.364044189453125,0.0198974609375
1789059098101620700,8.976620849609375,-1.2701873779296875,-0.2403717041015625,0.02099609375
1789059098111630600,8.986630615234375,-1.644134521484375,-0.2481689453125,0.257904052734375
1789059098121640700,8.996640625,-0.706207275390625,-0.60479736328125,0.051177978515625
1789059098131650600,9.006650634765625,-0.2450408935546875,-0.6865386962890625,-0.2960205078125
1789059098141660700,9.01666064453125,-0.4044036865234375,-0.4522857666015625,-0.551788330078125
1789059098151670800,9.0266708984375,-0.3530426025390625,-0.5434112548828125,-0.328765869140625
1789059098161680600,9.0366806640625,-1.0897064208984375,-0.1304168701171875,0.2105255126953125
1789059098171690800,9.046690673828126,-1.7286224365234375,0.0837249755859375,0.404998779296875
1789059098181700600,9.05670068359375,-1.6083526611328125,-0.3447265625,0.2655029296875
1789059098191710700,9.066710693359376,-1.138702392578125,-0.607818603515625,0.11456298828125
1789059098201720800,9.076720947265626,-0.597259521484375,-0.6901702880859375,-0.0180511474609375
1789059098211730700,9.086730712890626,-0.42974853515625,-0.4451446533203125,-0.0848541259765625
1789059098221740800,9.09674072265625,-0.656219482421875,-0.093353271484375,-0.1048126220703125
1789059098231750700,9.106750732421874,-0.8347320556640625,-0.328765869140625,-0.09027099609375
1789059098241760800,9.1167607421875,-1.0597381591796875,-0.4882965087890625,-0.05352783203125
1789059098251770600,9.1267705078125,-1.25421142578125,-0.3663177490234375,0.0120697021484375
1789059098261780700,9.13678076171875,-1.1908416748046875,-0.3327178955078125,0.0483245849609375
1789059098271790800,9.146790771484374,-1.1231689453125,-0.1581268310546875,0.0162811279296875
1789059098281800700,9.15680078125,-0.81195068359375,-0.45013427734375,-0.080047607421875
1789059098291810800,9.166810791015624,-0.6941070556640625,-0.4831695556640625,-0.1325836181640625
1789059098301820700,9.176820556640624,-0.7008514404296875,-0.427093505859375,-0.1013641357421875
1789059098311830800,9.186830810546875,-0.8136749267578125,-0.2281036376953125,-0.0202484130859375
1789059098321840600,9.196840576171875,-0.8327178955078125,-0.3828125,0.0558929443359375
1789059098331850500,9.2068505859375,-0.9609527587890625,-0.4556121826171875,0.009796142578125
1789059098341860600,9.216860595703125,-1.0897674560546875,-0.464263916015625,0.01800537109375
1789059098351870500,9.226870361328125,-1.0897674560546875,-0.365814208984375,0.0667266845703125
1789059098361880600,9.236880615234375,-1.038970947265625,-0.302978515625,0.017791748046875
1789059098371890400,9.246890380859375,-0.9644012451171875,-0.3008575439453125,0.020233154296875
1789059098381900500,9.256900634765625,-0.84979248046875,-0.4506378173828125,-0.0227203369140625
1789059098391910700,9.26691064453125,-0.7929229736328125,-0.4516448974609375,-0.0496826171875
1789059098401920500,9.27692041015625,-0.8181304931640625,-0.4428253173828125,0.01318359375
1789059098411930600,9.2869306640625,-0.9914703369140625,-0.284393310546875,-0.0009765625
1789059098421940500,9.2969404296875,-0.9215087890625,-0.4555511474609375,0.02667236328125
1789059098431950600,9.30695068359375,-0.9554443359375,-0.3951873779296875,0.0587005615234375
1789059098441959700,9.316959716796875,-0.8731536865234375,-0.5260772705078125,0.031951904296875
1789059098451969500,9.326969482421875,-0.8656158447265625,-0.557586669921875,-0.0063629150390625
1789059098461979600,9.336979736328125,-1.0260772705078125,-0.3573760986328125,0.0230865478515625
1789059098471989500,9.346989501953125,-0.9754638671875,-0.3702239990234375,0.050567626953125
1789059098482000600,9.357000732421875,-0.9437103271484375,-0.2949981689453125,0.0530548095703125
1789059098492010500,9.367010498046875,-0.7657318115234375,-0.395599365234375,-0.0057525634765625
1789059098502020600,9.3770205078125,-0.6961669921875,-0.4297027587890625,-0.009033203125
1789059098512030700,9.38703076171875,-0.8690643310546875,-0.3628997802734375,0.0197906494140625
1789059098522040600,9.39704052734375,-1.088592529296875,-0.328643798828125,0.0097503662109375
1789059098532050700,9.40705078125,-1.1814117431640625,-0.33612060546875,0.015838623046875
1789059098542060500,9.417060546875,-0.9854888916015625,-0.50274658203125,0.0150146484375
1789059098552070700,9.427070556640626,-0.93115234375,-0.3526153564453125,0.0087890625
1789059098562080500,9.43708056640625,-0.8344573974609375,-0.3238525390625,0.023468017578125
1789059098572090600,9.447090576171876,-0.8004150390625,-0.280059814453125,0.0113677978515625
1789059098582100700,9.457100830078126,-0.756591796875,-0.3769073486328125,-0.033111572265625
1789059098592110600,9.467110595703126,-0.8546142578125,-0.4698944091796875,-0.0426788330078125
1789059098602120700,9.47712060546875,-1.0369415283203125,-0.4105682373046875,-0.0374755859375
1789059098612130600,9.487130615234374,-1.109619140625,-0.411834716796875,0.017364501953125
1789059098622140700,9.497140625,-1.079132080078125,-0.248291015625,0.01849365234375
1789059098632150500,9.507150634765624,-0.8711700439453125,-0.4130859375,-0.0172119140625
1789059098642160600,9.51716064453125,-0.931884765625,-0.2695159912109375,-0.0288543701171875
1789059098652170800,9.527170654296874,-0.9569549560546875,-0.32763671875,-0.03985595703125
1789059098662180600,9.5371806640625,-0.8919677734375,-0.392425537109375,-0.0717315673828125
1789059098672190700,9.547190673828124,-0.7860107421875,-0.4410400390625,-0.054779052734375
1789059098682200600,9.55720068359375,-0.913055419921875,-0.3790283203125,-0.0692138671875
1789059098692211000,9.5672109375,-0.9633026123046875,-0.360626220703125,-0.0873565673828125
1789059098702220800,9.577220703125,-0.9012603759765625,-0.420989990234375,-0.0813446044921875
1789059098712231000,9.58723095703125,-0.907196044921875,-0.3765106201171875,-0.1024627685546875
1789059098722241000,9.597240966796875,-1.0389862060546875,-0.303070068359375,-0.0727081298828125
1789059098732250600,9.607250732421875,-1.0918731689453125,-0.2556915283203125,-0.0460662841796875
1789059098742260700,9.6172607421875,-1.1056671142578125,-0.2396087646484375,-0.057952880859375
1789059098752270600,9.6272705078125,-1.055267333984375,-0.3133697509765625,-0.0487518310546875
1789059098762280700,9.63728076171875,-0.8995361328125,-0.449127197265625,-0.0177001953125
1789059098772290800,9.647290771484375,-0.7675628662109375,-0.512298583984375,0.008544921875
1789059098782300700,9.65730078125,-0.8490753173828125,-0.339324951171875,0.0572357177734375
1789059098792309800,9.667309814453125,-0.8491668701171875,-0.278839111328125,0.054534912109375
1789059098802318800,9.67731884765625,-0.7676544189453125,-0.4252166748046875,0.0379180908203125
1789059098812328700,9.68732861328125,-0.8201751708984375,-0.4158172607421875,0.0805511474609375
1789059098822338800,9.6973388671875,-0.99017333984375,-0.43780517578125,0.0254669189453125
1789059098832349000,9.707348876953125,-1.147003173828125,-0.289886474609375,0.001251220703125
1789059098842358800,9.71735888671875,-1.0064849853515625,-0.3657073974609375,0.13751220703125
1789059098852369000,9.727368896484375,-0.8151702880859375,-0.4879913330078125,0.1821136474609375
1789059098862378800,9.737378662109375,-0.8095550537109375,-0.410003662109375,0.0482025146484375
1789059098872388900,9.747388916015625,-0.834930419921875,-0.39703369140625,-0.1168975830078125
1789059098882398700,9.757398681640625,-0.8609771728515625,-0.4259033203125,-0.1013031005859375
1789059098892408800,9.767408935546875,-0.910614013671875,-0.4333343505859375,-0.0380859375
1789059098902419000,9.7774189453125,-1.005889892578125,-0.33819580078125,0.0078277587890625
1789059098912428800,9.7874287109375,-1.0657958984375,-0.3006134033203125,-0.012786865234375
1789059098922439000,9.79743896484375,-1.064208984375,-0.340576171875,-0.0501861572265625
1789059098932448800,9.80744873046875,-1.0962982177734375,-0.2978515625,-0.0730743408203125
1789059098942459000,9.817458984375,-0.9640045166015625,-0.4257354736328125,-0.1166229248046875
1789059098952469000,9.827468994140625,-0.799591064453125,-0.5574493408203125,-0.0857696533203125
1789059098962478800,9.837478759765625,-0.7270355224609375,-0.5195465087890625,-0.0468597412109375
1789059098972489000,9.847489013671876,-0.8451080322265625,-0.326934814453125,0.013702392578125
1789059098982498800,9.857498779296876,-0.9329986572265625,-0.3257293701171875,0.01593017578125
1789059098992509000,9.867509033203126,-1.050628662109375,-0.22308349609375,-0.0063934326171875
1789059099002518800,9.877518798828126,-0.9322967529296875,-0.4287261962890625,-0.0167999267578125
1789059099012529000,9.88752880859375,-0.921478271484375,-0.5442352294921875,0.01513671875
1789059099022539000,9.8975390625,-0.996337890625,-0.3718414306640625,0.0220947265625
1789059099032548900,9.907548828125,-0.9793243408203125,-0.285308837890625,-0.0130462646484375
1789059099042559000,9.91755908203125,-0.8323211669921875,-0.3288116455078125,-0.023895263671875
1789059099052568800,9.92756884765625,-0.7101287841796875,-0.3775634765625,-0.038482666015625
1789059099062579000,9.937578857421874,-0.6129150390625,-0.5243072509765625,-0.02117919921875
1789059099072588800,9.9475888671875,-0.9209747314453125,-0.37420654296875,-0.0037078857421875
1789059099082599000,9.957598876953124,-1.265960693359375,-0.252593994140625,0.0411376953125
1789059099092609000,9.967609130859374,-1.3154449462890625,-0.3291015625,-0.0382232666015625
1789059099102618600,9.97761865234375,-1.1583099365234375,-0.389251708984375,-0.0819091796875
1789059099112628700,9.987628662109374,-0.873260498046875,-0.3262939453125,0.0823211669921875
1789059099122638600,9.997638671875,-0.6754150390625,-0.3532867431640625,-0.0201416015625
1789059099132648700,10.007648681640624,-0.60833740234375,-0.332305908203125,0.049468994140625
1789059099142658800,10.017658935546875,-0.7209625244140625,-0.5553131103515625,-0.09893798828125
1789059099152668700,10.027668701171875,-1.1664886474609375,-0.2601318359375,-0.08026123046875
1789059099162678800,10.0376787109375,-1.0835723876953125,-0.5340423583984375,0.02783203125
1789059099172688600,10.047688720703125,-0.9642486572265625,-0.5116729736328125,-0.047332763671875
1789059099182698800,10.05769873046875,-0.8923187255859375,-0.30035400390625,0.0916748046875
1789059099192708600,10.06770849609375,-0.7742767333984375,-0.4944610595703125,0.0696868896484375
1789059099202718700,10.07771875,-1.2660980224609375,-0.2173309326171875,-0.059326171875
1789059099212728800,10.087728759765625,-1.1814422607421875,-0.359893798828125,-0.083770751953125
1789059099222738700,10.09773876953125,-0.692413330078125,-0.4149627685546875,-0.0387725830078125
1789059099232748800,10.107748779296875,-0.614288330078125,-0.5952911376953125,0.0029144287109375
1789059099242758700,10.117758544921875,-0.387908935546875,-0.576263427734375,0.11163330078125
1789059099252768800,10.127768798828125,-0.7168426513671875,-0.4507293701171875,-0.049224853515625
1789059099262779000,10.13777880859375,-1.1876220703125,-0.158050537109375,-0.1398468017578125
1789059099272788700,10.147788818359375,-1.3160400390625,-0.272216796875,-0.0767669677734375
1789059099282798800,10.157798828125,-1.255767822265625,-0.43682861328125,0.0223541259765625
1789059099292808700,10.16780859375,-1.1184539794921875,-0.370697021484375,-0.0421295166015625
1789059099302818800,10.17781884765625,-0.9165496826171875,-0.3129119873046875,-0.02197265625
1789059099312828000,10.187827880859375,-0.7274932861328125,-0.3519439697265625,-0.0258636474609375
1789059099322837800,10.197837646484375,-0.676177978515625,-0.46197509765625,-0.0181121826171875
1789059099332847900,10.207847900390625,-0.812408447265625,-0.4519805908203125,-0.02789306640625
1789059099342857700,10.217857666015625,-1.0875091552734375,-0.2456512451171875,-0.0631866455078125
1789059099352867800,10.227867919921875,-1.1362457275390625,-0.359619140625,-0.0752410888671875
1789059099362878000,10.2378779296875,-1.111968994140625,-0.30792236328125,-0.00103759765625
1789059099372887800,10.2478876953125,-0.9355010986328125,-0.47540283203125,-0.027069091796875
1789059099382898000,10.25789794921875,-0.868438720703125,-0.3654022216796875,-0.0319366455078125
1789059099392907800,10.26790771484375,-0.7596435546875,-0.33441162109375,-0.0433349609375
1789059099402918000,10.27791796875,-0.79412841796875,-0.311553955078125,-0.0861968994140625
1789059099412927700,10.287927734375,-0.86639404296875,-0.387847900390625,-0.0929412841796875
1789059099422937900,10.297937744140626,-0.9503631591796875,-0.475921630859375,-0.0871124267578125
1789059099432948000,10.307947998046876,-0.952484130859375,-0.43951416015625,-0.0550689697265625
1789059099442957800,10.317957763671876,-0.908050537109375,-0.3997039794921875,-0.056365966796875
1789059099452968000,10.327968017578126,-0.940673828125,-0.322235107421875,-0.0196380615234375
1789059099462977800,10.337977783203126,-1.051483154296875,-0.2850494384765625,-0.0480499267578125
1789059099472988000,10.34798779296875,-1.1794281005859375,-0.2860260009765625,-0.051513671875
1789059099482998000,10.357998046875,-1.1743927001953125,-0.3098602294921875,0.0113677978515625
1789059099493008000,10.3680078125,-0.8781280517578125,-0.442657470703125,0.0254669189453125
1789059099503018000,10.37801806640625,-0.6167144775390625,-0.498687744140625,-0.010650634765625
1789059099513027800,10.38802783203125,-0.4348297119140625,-0.7804412841796875,-0.0157012939453125
1789059099523038000,10.398037841796874,-0.8703460693359375,-0.2696380615234375,-0.002197265625
1789059099533047800,10.4080478515625,-1.2813568115234375,0.2054443359375,0.0772247314453125
1789059099543058000,10.418057861328125,-0.91058349609375,-0.6511077880859375,0.03155517578125
1789059099553068000,10.428068115234375,-1.185302734375,-0.1376495361328125,0.096405029296875
1789059099563078000,10.438077880859375,-1.6333770751953125,-0.351593017578125,0.088653564453125
1789059099573087700,10.448087646484375,-0.864898681640625,-0.724609375,0.122100830078125
1789059099583097600,10.45809765625,-0.3715362548828125,-0.4131317138671875,0.1527252197265625
1789059099593107700,10.468107666015625,-0.1864166259765625,-0.4225006103515625,-0.0282440185546875
1789059099603117800,10.478117919921875,-0.19647216796875,-0.329833984375,-0.056549072265625
1789059099613127700,10.488127685546875,-1.044830322265625,-0.1211395263671875,-0.0810394287109375
1789059099623137800,10.4981376953125,-1.778900146484375,-0.0939178466796875,-0.11700439453125
1789059099633147600,10.508147705078125,-1.76318359375,-0.432342529296875,0.105316162109375
1789059099643157800,10.51815771484375,-1.2721710205078125,-0.557647705078125,0.14581298828125
1789059099653167600,10.528167724609375,-0.6998291015625,-0.5839996337890625,0.0771636962890625
1789059099663177700,10.538177734375,-0.5150146484375,-0.222625732421875,0.0315093994140625
1789059099673187800,10.548187744140625,-0.41180419921875,-0.2967529296875,-0.0651397705078125
1789059099683197700,10.55819775390625,-0.6346588134765625,-0.32305908203125,-0.0078277587890625
1789059099693208000,10.5682080078125,-1.055816650390625,-0.3786468505859375,-0.030792236328125
1789059099703218000,10.578218017578125,-1.360504150390625,-0.29815673828125,-0.0255279541015625
1789059099713228000,10.58822802734375,-1.263336181640625,-0.3524322509765625,0.054962158203125
1789059099723238000,10.59823779296875,-0.96612548828125,-0.4471282958984375,0.0925445556640625
1789059099733248000,10.608248046875,-0.785003662109375,-0.416900634765625,0.05596923828125
1789059099743258000,10.618258056640625,-0.7671661376953125,-0.3977203369140625,-0.0358734130859375
1789059099753268000,10.62826806640625,-0.99444580078125,-0.2132720947265625,-0.04364013671875
1789059099763278000,10.638278076171876,-0.8697662353515625,-0.382476806640625,-0.0076141357421875
1789059099773288000,10.648287841796876,-0.9662933349609375,-0.5018157958984375,-0.0876007080078125
1789059099783298000,10.658298095703126,-0.830352783203125,-0.5946807861328125,-0.0505828857421875
1789059099793308000,10.668307861328126,-0.8770599365234375,-0.448455810546875,0.1061553955078125
1789059099803316700,10.678316650390625,-1.005767822265625,-0.2755126953125,0.050201416015625
1789059099813326800,10.688326904296876,-0.9925079345703125,-0.309173583984375,-0.0331573486328125
1789059099823337000,10.6983369140625,-0.99334716796875,-0.39788818359375,-0.0230712890625
1789059099833346800,10.708346923828126,-1.010467529296875,-0.42779541015625,-0.0426483154296875
1789059099843357000,10.71835693359375,-1.013397216796875,-0.3014678955078125,-0.03887939453125
1789059099853366800,10.72836669921875,-0.8778228759765625,-0.326080322265625,-0.0051116943359375
1789059099863377000,10.738376953125,-0.7465362548828125,-0.499053955078125,-0.061187744140625
1789059099873386800,10.74838671875,-0.659515380859375,-0.699737548828125,-0.0129547119140625
1789059099883396900,10.75839697265625,-0.7904510498046875,-0.687957763671875,0.080108642578125
1789059099893407000,10.768406982421874,-1.39361572265625,0.3222808837890625,-0.0481414794921875
1789059099903416800,10.778416748046874,-0.936676025390625,-0.529205322265625,-0.174072265625
1789059099913427000,10.788427001953124,-1.0074615478515625,-0.3331146240234375,-0.2083587646484375
1789059099923436800,10.798436767578124,-0.9636077880859375,-0.472503662109375,-0.0879974365234375
1789059099933447000,10.808447021484374,-0.9493560791015625,-0.581268310546875,-0.055816650390625
1789059099943456800,10.818456787109374,-0.8552703857421875,-0.432769775390625,-0.0491943359375
1789059099953467000,10.828466796875,-0.7729034423828125,-0.24725341796875,-0.0512847900390625
1789059099963477000,10.83847705078125,-0.7165679931640625,-0.3271484375,-0.0299224853515625
1789059099973486800,10.84848681640625,-0.7734832763671875,-0.407012939453125,-0.034088134765625
1789059099983497000,10.8584970703125,-0.8402557373046875,-0.4643096923828125,-0.016815185546875
1789059099993506800,10.8685068359375,-0.9610748291015625,-0.358245849609375,-0.02978515625
1789059100003517000,10.878516845703125,-1.2028045654296875,-0.123870849609375,-0.0806121826171875
1789059100013527000,10.888527099609375,-1.2772064208984375,-0.1992950439453125,-0.05029296875
1789059100023537000,10.898536865234375,-1.098480224609375,-0.377227783203125,0.0118560791015625
1789059100033547000,10.908547119140625,-0.841796875,-0.437255859375,-0.0577239990234375
1789059100043556900,10.918556884765625,-0.6755828857421875,-0.4237823486328125,-0.040557861328125
1789059100053567000,10.92856689453125,-0.788055419921875,-0.2282562255859375,-0.0785064697265625
1789059100063576800,10.938576904296875,-0.9471893310546875,-0.2567901611328125,-0.1501922607421875
1789059100073587000,10.9485869140625,-1.0605010986328125,-0.3811187744140625,-0.0567779541015625
1789059100083597000,10.95859716796875,-1.0938568115234375,-0.408294677734375,-0.0474090576171875
1789059100093607000,10.96860693359375,-1.07061767578125,-0.3539886474609375,-0.0361785888671875
1789059100103617000,10.978616943359375,-0.9153900146484375,-0.5015869140625,0.010589599609375
1789059100113627000,10.988626953125,-0.960784912109375,-0.3030548095703125,-0.025482177734375
1789059100123637000,10.998636962890625,-0.9295806884765625,-0.3736114501953125,-0.0390167236328125
1789059100133646800,11.008646728515625,-0.8980865478515625,-0.264892578125,-0.0350799560546875
1789059100143657000,11.018656982421875,-0.681854248046875,-0.400848388671875,0.016754150390625
1789059100153667000,11.0286669921875,-0.6506805419921875,-0.4531097412109375,0.0510101318359375
1789059100163677000,11.038677001953126,-0.9393157958984375,-0.3392486572265625,0.0162811279296875
1789059100173687000,11.04868701171875,-1.1999664306640625,-0.243408203125,0.0102996826171875
1789059100183697000,11.05869677734375,-1.177398681640625,-0.3571624755859375,0.0125274658203125
1789059100193707000,11.06870703125,-1.07952880859375,-0.4320831298828125,0.0176239013671875
1789059100203717000,11.078717041015626,-0.925628662109375,-0.4315185546875,0.0093231201171875
1789059100213727000,11.08872705078125,-0.6688232421875,-0.4628448486328125,0.024627685546875
1789059100223737000,11.098737060546876,-0.6146392822265625,-0.3459930419921875,0.0325927734375
1789059100233747000,11.108746826171876,-0.7819671630859375,-0.3235321044921875,0.0100555419921875
1789059100243757000,11.118757080078124,-1.024688720703125,-0.342315673828125,-0.011322021484375
1789059100253767000,11.128766845703124,-1.1674957275390625,-0.4563751220703125,0.0138702392578125
1789059100263777000,11.138777099609374,-1.1612091064453125,-0.41961669921875,-0.0073394775390625
1789059100273787100,11.148787109375,-1.0032806396484375,-0.31427001953125,0.008941650390625
1789059100283795700,11.158795654296876,-0.8032684326171875,-0.2805938720703125,0.044647216796875
1789059100293805800,11.168805908203124,-0.7549896240234375,-0.30889892578125,0.0162200927734375
1789059100303816000,11.17881591796875,-0.78839111328125,-0.338104248046875,0.0407867431640625
1789059100313825800,11.18882568359375,-0.821624755859375,-0.4697265625,-0.0137481689453125
1789059100323836000,11.1988359375,-0.90435791015625,-0.4699554443359375,-0.0073089599609375
1789059100333845800,11.208845703125,-1.0159912109375,-0.4073333740234375,0.0157318115234375
1789059100343855900,11.21885595703125,-1.1056976318359375,-0.290313720703125,-0.0172119140625
1789059100353866000,11.228865966796874,-1.044189453125,-0.3388824462890625,0.037506103515625
1789059100363875800,11.238875732421874,-0.9972686767578125,-0.3764801025390625,0.066925048828125
1789059100373886000,11.248885986328125,-0.977142333984375,-0.45050048828125,0.0517425537109375
1789059100383895800,11.258895751953125,-1.0419921875,-0.3146209716796875,-0.02178955078125
1789059100393906000,11.268906005859375,-0.9138641357421875,-0.381927490234375,0.0054931640625
1789059100403915800,11.278915771484375,-0.778411865234375,-0.4264068603515625,0.043731689453125
1789059100413926000,11.28892578125,-0.668792724609375,-0.55169677734375,0.0726776123046875
1789059100423936000,11.29893603515625,-0.8332061767578125,-0.351593017578125,0.0139617919921875
1789059100433945900,11.30894580078125,-0.9631195068359375,-0.2905426025390625,-0.0497283935546875
1789059100443956000,11.3189560546875,-0.9557037353515625,-0.424560546875,-0.0441131591796875
1789059100453965800,11.3289658203125,-1.081146240234375,-0.4290313720703125,0.0148162841796875
1789059100463976000,11.338975830078125,-1.1429290771484375,-0.4080657958984375,0.0274658203125
1789059100473985800,11.34898583984375,-1.1018218994140625,-0.2787017822265625,-0.0387725830078125
1789059100483996000,11.358995849609375,-0.8705902099609375,-0.323577880859375,0.0043792724609375
1789059100494006000,11.369006103515625,-0.66473388671875,-0.4561767578125,0.007904052734375
1789059100504016000,11.379015869140625,-0.653656005859375,-0.482818603515625,-0.03424072265625
1789059100514026000,11.38902587890625,-0.6757659912109375,-0.5703277587890625,-0.014801025390625
1789059100524035800,11.399035888671875,-0.876800537109375,-0.4358673095703125,0.0074615478515625
1789059100534046000,11.4090458984375,-1.0123748779296875,-0.3688507080078125,-0.0135345458984375
1789059100544056000,11.41905615234375,-1.15936279296875,-0.2423553466796875,-0.003173828125
1789059100554066000,11.42906591796875,-1.183197021484375,-0.3035125732421875,-0.027435302734375
1789059100564076000,11.439075927734375,-1.1060791015625,-0.343963623046875,-0.017303466796875
1789059100574086000,11.4490859375,-0.846160888671875,-0.5146942138671875,0.0600738525390625
1789059100584096000,11.459095947265626,-0.6839599609375,-0.498321533203125,0.0606536865234375
1789059100594105900,11.46910595703125,-0.67889404296875,-0.422393798828125,0.0191192626953125
1789059100604116000,11.479115966796876,-0.84442138671875,-0.331817626953125,0.0185089111328125
1789059100614126000,11.4891259765625,-1.0316009521484375,-0.2550811767578125,0.045196533203125
1789059100624136000,11.499135986328126,-1.01123046875,-0.416839599609375,0.06524658203125
1789059100634146000,11.50914599609375,-1.0174560546875,-0.304351806640625,0.1161651611328125
1789059100644156000,11.519156005859376,-0.860137939453125,-0.639129638671875,0.077606201171875
1789059100654166000,11.529166015625,-0.9772491455078125,-0.370361328125,0.02801513671875
1789059100664175900,11.53917578125,-0.9709320068359375,-0.3351898193359375,0.0259246826171875
1789059100674186000,11.54918603515625,-1.0197296142578125,-0.2055206298828125,-0.024322509765625
1789059100684196000,11.559196044921874,-0.826690673828125,-0.3405914306640625,0.0139923095703125
1789059100694205200,11.569205078125,-0.7015228271484375,-0.4019622802734375,0.0356292724609375
1789059100704215300,11.57921533203125,-0.8413238525390625,-0.391876220703125,-0.015167236328125
1789059100714225400,11.589225341796874,-1.136871337890625,-0.204742431640625,-0.0406341552734375
1789059100724235300,11.5992353515625,-1.1787109375,-0.2432861328125,-0.0347442626953125
1789059100734245400,11.609245361328124,-1.0087738037109375,-0.4241943359375,-0.02362060546875
1789059100744255200,11.619255126953124,-0.8859100341796875,-0.45489501953125,0.0135498046875
1789059100754265300,11.629265380859374,-0.738433837890625,-0.419677734375,0.0425872802734375
1789059100764275200,11.639275146484374,-0.7109222412109375,-0.305084228515625,-0.0356292724609375
1789059100774284300,11.6492841796875,-0.856170654296875,-0.3547821044921875,-0.0829620361328125
1789059100784294400,11.65929443359375,-1.0989227294921875,-0.3837738037109375,-0.0567779541015625
1789059100794304300,11.66930419921875,-1.178436279296875,-0.4029541015625,-0.0294036865234375
1789059100804314400,11.679314453125,-1.040252685546875,-0.4560546875,-0.03173828125
1789059100814324500,11.689324462890625,-0.8835296630859375,-0.375274658203125,0.03192138671875
1789059100824334300,11.699334228515625,-0.7586669921875,-0.35552978515625,0.06903076171875
1789059100834344400,11.709344482421875,-0.8212127685546875,-0.3225860595703125,-0.027374267578125
1789059100844354300,11.719354248046875,-0.8975372314453125,-0.39093017578125,-0.0691680908203125
1789059100854364400,11.729364501953125,-1.0268402099609375,-0.340118408203125,-0.0510101318359375
1789059100864374300,11.739374267578125,-1.0825653076171875,-0.3982696533203125,0.0335235595703125
1789059100874384400,11.74938427734375,-1.001373291015625,-0.4901123046875,0.048980712890625
1789059100884394500,11.75939453125,-0.9076385498046875,-0.4608001708984375,0.0645751953125
1789059100894404400,11.769404296875,-0.8033599853515625,-0.49517822265625,0.040252685546875
1789059100904414500,11.77941455078125,-0.8951416015625,-0.285369873046875,-0.024566650390625
1789059100914424300,11.78942431640625,-0.9434661865234375,-0.3404388427734375,-0.01336669921875
1789059100924434400,11.799434326171875,-1.046661376953125,-0.3033447265625,-0.0051116943359375
1789059100934444500,11.809444580078125,-0.9910736083984375,-0.35540771484375,0.0146331787109375
1789059100944454400,11.819454345703125,-0.8454437255859375,-0.4533233642578125,0.0117034912109375
1789059100954464500,11.829464599609375,-0.65814208984375,-0.589630126953125,0.0151214599609375
1789059100964474400,11.839474365234375,-0.7694244384765625,-0.407440185546875,-0.0091705322265625
1789059100974484500,11.849484375,-0.9227752685546875,-0.291839599609375,-0.079132080078125
1789059100984494300,11.859494384765625,-0.9395599365234375,-0.503204345703125,-0.12896728515625
1789059100994504400,11.86950439453125,-1.0539703369140625,-0.4204559326171875,-0.0941925048828125
1789059101004514600,11.8795146484375,-1.062164306640625,-0.456329345703125,0.0102996826171875
1789059101014524400,11.8895244140625,-1.0897674560546875,-0.1789703369140625,0.0082855224609375
1789059101024534500,11.899534423828126,-0.845855712890625,-0.370269775390625,-0.0319671630859375
1789059101034544400,11.90954443359375,-0.711883544921875,-0.46710205078125,-0.06500244140625
1789059101044554500,11.919554443359376,-0.7440643310546875,-0.498046875,-0.0878753662109375
1789059101054564400,11.929564453125,-0.9197540283203125,-0.4063873291015625,0.0098114013671875
1789059101064574500,11.939574462890626,-0.91839599609375,-0.4916839599609375,0.043701171875
1789059101074584600,11.94958447265625,-0.991424560546875,-0.3884124755859375,0.0137939453125
1789059101084594400,11.959594482421876,-0.991424560546875,-0.34326171875,0.044403076171875
1789059101094604500,11.9696044921875,-0.9643096923828125,-0.4236907958984375,0.012908935546875
1789059101104614400,11.979614501953124,-0.962249755859375,-0.406585693359375,0.0003814697265625
1789059101114624500,11.98962451171875,-0.8877410888671875,-0.4462432861328125,-0.02984619140625
1789059101124634600,11.999634521484374,-0.868377685546875,-0.398590087890625,0.0013427734375
1789059101134644500,12.00964453125,-0.8527679443359375,-0.477691650390625,-0.0313873291015625
1789059101144654300,12.019654296875,-0.9232025146484375,-0.4170684814453125,-0.0390625
1789059101154664200,12.029664306640624,-0.847869873046875,-0.559112548828125,-0.0012054443359375
1789059101164674300,12.03967431640625,-0.892364501953125,-0.3993377685546875,0.0172119140625
1789059101174684200,12.04968408203125,-0.8856353759765625,-0.4981231689453125,0.0501251220703125
1789059101184694300,12.0596943359375,-1.010955810546875,-0.4323272705078125,0.0628662109375
1789059101194704400,12.069704345703125,-1.1192169189453125,-0.3416595458984375,-0.030975341796875
1789059101204713500,12.07971337890625,-0.9474945068359375,-0.33001708984375,-0.0188751220703125
1789059101214723300,12.089723388671874,-0.74713134765625,-0.3423004150390625,-0.0517578125
1789059101224733400,12.0997333984375,-0.543243408203125,-0.456024169921875,-0.059356689453125
1789059101234743300,12.109743408203125,-0.810577392578125,-0.32623291015625,-0.0129241943359375
1789059101244753400,12.11975341796875,-1.14251708984375,-0.280364990234375,0.01068115234375
1789059101254763300,12.12976318359375,-1.2374114990234375,-0.284820556640625,-0.035552978515625
1789059101264773400,12.1397734375,-1.08746337890625,-0.4125823974609375,-0.005126953125
1789059101274783500,12.149783447265625,-0.86212158203125,-0.418670654296875,0.0245513916015625
1789059101284793300,12.15979345703125,-0.71697998046875,-0.4171142578125,-0.0161895751953125
1789059101294803500,12.169803466796875,-0.694305419921875,-0.3219146728515625,-0.030670166015625
1789059101304813300,12.179813232421875,-0.85919189453125,-0.3675689697265625,-0.05023193359375
1789059101314823400,12.189823486328125,-1.114501953125,-0.309539794921875,-0.0923309326171875
1789059101324833300,12.199833251953125,-1.110198974609375,-0.411376953125,-0.0262451171875
1789059101334843400,12.209843505859375,-0.9956512451171875,-0.48052978515625,-0.0215911865234375
1789059101344853500,12.219853515625,-0.9331512451171875,-0.3975067138671875,-0.0511932373046875
1789059101354863400,12.22986328125,-0.8903045654296875,-0.3849334716796875,-0.067108154296875
1789059101364873500,12.23987353515625,-0.98858642578125,-0.2704620361328125,-0.080413818359375
1789059101374883300,12.24988330078125,-0.8722076416015625,-0.34381103515625,-0.062591552734375
1789059101384893400,12.2598935546875,-0.8466949462890625,-0.3892822265625,-0.1018829345703125
1789059101394903300,12.2699033203125,-0.742523193359375,-0.5102996826171875,-0.0920562744140625
1789059101404913400,12.279913330078125,-0.800262451171875,-0.453460693359375,-0.0141143798828125
1789059101414923500,12.289923583984375,-0.9534454345703125,-0.3932952880859375,-0.0196075439453125
1789059101424933400,12.299933349609375,-1.1416168212890625,-0.3395233154296875,0.00482177734375
1789059101434943500,12.309943603515626,-1.1627960205078125,-0.3397216796875,0.054656982421875
1789059101444953300,12.319953369140626,-1.0722198486328125,-0.3775482177734375,-0.0262908935546875
1789059101454963500,12.32996337890625,-0.8975830078125,-0.3789825439453125,-0.0789794921875
1789059101464973600,12.3399736328125,-0.719024658203125,-0.4005126953125,0.0059814453125
1789059101474983400,12.3499833984375,-0.63092041015625,-0.500213623046875,0.0330963134765625
1789059101484993500,12.35999365234375,-0.80706787109375,-0.4337615966796875,0.0654144287109375
1789059101495003400,12.37000341796875,-1.0812225341796875,-0.3192596435546875,0.037750244140625
1789059101505013500,12.380013427734376,-1.130767822265625,-0.4638214111328125,-0.0419921875
1789059101515023400,12.3900234375,-1.1429595947265625,-0.446746826171875,-0.046234130859375
1789059101525033500,12.400033447265624,-1.05218505859375,-0.4492034912109375,-0.0525360107421875
1789059101535043600,12.410043701171874,-0.946319580078125,-0.2999725341796875,-0.098052978515625
1789059101545053400,12.420053466796874,-0.587554931640625,-0.383819580078125,-0.0774078369140625
1789059101555063600,12.4300634765625,-0.35845947265625,-0.5484619140625,-0.0296478271484375
1789059101565073400,12.440073486328124,-0.463531494140625,-0.557403564453125,-0.06787109375
1789059101575083500,12.45008349609375,-0.7397308349609375,-0.4249114990234375,-0.0367889404296875
1789059101585093400,12.46009326171875,-1.0647430419921875,-0.3386077880859375,-0.0507965087890625
1789059101595103500,12.470103515625,-1.3262176513671875,-0.29632568359375,-0.0424041748046875
1789059101605112300,12.4801123046875,-1.3459014892578125,-0.333282470703125,-0.018951416015625
1789059101615122400,12.490122314453124,-1.222198486328125,-0.3429412841796875,-0.1190338134765625
1789059101625132300,12.50013232421875,-0.908233642578125,-0.45819091796875,-0.0565643310546875
1789059101635142400,12.510142333984374,-0.629150390625,-0.4441070556640625,-0.0351104736328125
1789059101645152300,12.52015234375,-0.5426788330078125,-0.4650115966796875,-0.10455322265625
1789059101655162400,12.530162353515625,-0.798065185546875,-0.3458404541015625,-0.0395965576171875
1789059101665172200,12.540172119140625,-1.153076171875,-0.2487335205078125,-0.0449066162109375
1789059101675182300,12.550182373046875,-1.172882080078125,-0.4072113037109375,0.0105438232421875
1789059101685192400,12.5601923828125,-1.09393310546875,-0.398712158203125,0.06219482421875
1789059101695203000,12.570203125,-0.816497802734375,-0.603851318359375,-0.0005035400390625
1789059101705213200,12.580213134765625,-0.93408203125,-0.3758392333984375,-0.07598876953125
1789059101715223000,12.59022314453125,-0.920135498046875,-0.35906982421875,-0.0325775146484375
1789059101725233200,12.600233154296875,-0.908538818359375,-0.3025054931640625,-0.1153564453125
1789059101735243000,12.610242919921875,-0.7265777587890625,-0.4527740478515625,-0.080841064453125
1789059101745253000,12.620253173828125,-0.84796142578125,-0.402557373046875,-0.0665130615234375
1789059101755263000,12.630262939453125,-1.129547119140625,-0.292724609375,-0.1186065673828125
1789059101765273000,12.640273193359375,-1.09796142578125,-0.3781280517578125,-0.0651397705078125
1789059101775283200,12.650283203125,-0.9516448974609375,-0.4716796875,-0.059783935546875
1789059101785293000,12.66029296875,-0.8552398681640625,-0.51165771484375,-0.0485687255859375
1789059101795303200,12.67030322265625,-0.7487945556640625,-0.388580322265625,0.022186279296875
1789059101805313000,12.68031298828125,-0.7402496337890625,-0.37725830078125,-0.08062744140625
1789059101815323100,12.6903232421875,-0.9942779541015625,-0.2967529296875,-0.0908355712890625
1789059101825333000,12.7003330078125,-1.11376953125,-0.369171142578125,-0.039306640625
1789059101835343000,12.710343017578126,-1.0849456787109375,-0.4069976806640625,-0.0206756591796875
1789059101845353200,12.720353271484376,-0.9268646240234375,-0.4118194580078125,0.03155517578125
1789059101855363000,12.730363037109376,-0.8824310302734375,-0.2431793212890625,0.0628204345703125
1789059101865373200,12.740373291015626,-0.813507080078125,-0.389984130859375,0.066070556640625
1789059101875383000,12.750383056640626,-0.9122772216796875,-0.3264923095703125,-0.0128936767578125
1789059101885393200,12.76039306640625,-1.14605712890625,-0.362640380859375,0.042144775390625
1789059101895403300,12.7704033203125,-0.745849609375,-0.5599212646484375,0.0284423828125
1789059101905413000,12.7804130859375,-0.6950225830078125,-0.5775909423828125,-0.180511474609375
1789059101915423200,12.79042333984375,-0.6490478515625,-0.5239715576171875,-0.12188720703125
1789059101925433000,12.80043310546875,-1.4686431884765625,-0.073577880859375,0.203460693359375
1789059101935443200,12.810443115234374,-1.8264617919921875,-0.056304931640625,0.3298187255859375
