time,seconds_elapsed,z,y,x
1789059089172717300,0.04771728515625,-0.3440098367810249,0.049021805061399935,-0.5502983522411435
1789059089182727400,0.0577275390625,-0.21047639560401438,0.5529699826031923,-0.5355579522922634
1789059089192737300,0.0677373046875,0.01106733745932579,0.4564674644425511,-0.9136372319355607
1789059089202747400,0.077747314453125,0.67550505990386,-0.5055164497718214,-1.3600700629673896
1789059089212757200,0.08775732421875,1.0780500877618788,-1.3339695531576872,-1.6136875350311397
1789059089222767400,0.097767333984375,0.5676829830884933,-0.35651071417480706,-0.7798123335313052
1789059089232776200,0.107776123046875,0.15008943918049333,0.40879152103215455,-0.08655161751061677
1789059089242786000,0.1177861328125,-0.0005471124887466431,0.10088555555045604,-0.2580037973891944
1789059089252796200,0.127796142578125,-0.22283844904899597,0.12182605224847792,-0.3005136267406866
1789059089262806300,0.13780615234375,-0.11354629968106746,-0.5642863263875245,-0.6757144648708403
1789059089272816000,0.147816162109375,-0.18332710739374158,0.46199937960654497,-0.1788492678599432
1789059089282826200,0.157826171875,0.5425993952363729,0.11045213305801152,0.1591974227329716
1789059089292836000,0.167836181640625,0.6814362035185099,0.14721242243945598,-0.1197330985572189
1789059089302846200,0.17784619140625,0.7496358795195818,-0.7462246097713708,-0.41109044562429187
1789059089312856300,0.187856201171875,-0.2963894229501486,-0.11899638178050517,-0.0807061794180423
1789059089322866200,0.1978662109375,-1.3664789070963859,0.5053960382625461,0.39861536025889216
1789059089332876300,0.207876220703125,-1.814288725569844,0.8561071262478828,0.7597698816515505
1789059089342886100,0.21788623046875,-1.0373960058122873,0.0728454559803009,0.16797310559116302
1789059089352896300,0.227896240234375,-0.7587737102210521,-0.08550912272036075,-0.5152395330153405
1789059089362906000,0.237906005859375,-0.04355097243487835,0.007141980709135532,-0.3693216438984498
1789059089372916200,0.247916259765625,0.40626024898886676,0.11122136386483907,-0.347123475289531
1789059089382926300,0.25792626953125,0.251022341004014,0.5274149778470397,0.08046568519305437
1789059089392936200,0.267936279296875,-0.5439268444478511,0.840877116151154,1.2799471633300183
1789059089402946300,0.2779462890625,-1.930993781542778,0.11225567534863948,-0.19322624132391064
1789059089412956200,0.2879560546875,-2.1134084502667188,0.7293240361139178,-0.5581751500308514
1789059089422966300,0.29796630859375,1.462267431768775,-1.3808122606143354,-1.6359174870178101
1789059089432976100,0.30797607421875,-0.7469564311772584,1.8066361649900673,-0.985735303614661
1789059089442986200,0.317986328125,-3.184468240749836,1.7185004931584,-0.8818413600284606
1789059089452996400,0.327996337890625,-2.6703128497093913,1.2396388260781763,-0.9164739166662097
1789059089463006200,0.338006103515625,0.09124620506763458,-0.5900728018119931,-1.3541504636600612
1789059089473016300,0.348016357421875,0.8553279585689306,-0.617600567945838,-0.9585150690600276
1789059089483026200,0.358026123046875,1.3905553637325763,-0.0030111645147204396,-0.8323219076432288
1789059089493036300,0.368036376953125,2.0164882912158966,-0.023389058893918988,-0.18764422167418524
1789059089503046400,0.37804638671875,1.345995506516099,-1.0276569943472742,-0.49937159034125506
1789059089513056300,0.38805615234375,0.06679916155338286,-0.571310818196833,-0.36029370331224053
1789059089523066400,0.39806640625,0.21368892790973185,-0.8394535130888223,0.34777971070855856
1789059089533076200,0.408076171875,0.48402621023654935,-0.44821810701340437,0.5789212566679344
1789059089543086300,0.41808642578125,0.5283960978388786,-0.2904521418556571,0.8759376158773898
1789059089553096200,0.42809619140625,1.1351818417817354,-0.4717305000260472,0.5077535611741244
1789059089563106300,0.438106201171875,2.483604283183813,-1.0335469291687012,0.5392117255594581
1789059089573116400,0.448116455078125,2.829164272016287,-1.598127270066738,0.553072493129596
1789059089583126300,0.458126220703125,0.6832891379088163,0.28055589400231834,0.37816611767653374
1789059089593136400,0.468136474609375,-0.9050064739733934,1.1315262418836354,0.0963143021121621
1789059089603146200,0.478146240234375,-0.9933546195119619,0.01811608692705631,-0.12295207887003197
1789059089613156400,0.48815625,-0.9920698403984307,-0.7104732051715255,-0.2775486384777352
1789059089623166200,0.498166259765625,-1.6133797842562199,0.3364367711782455,0.0014156572178937493
1789059089633175300,0.50817529296875,-1.3312129479259251,1.0730205691620707,0.31592644605841486
1789059089643186400,0.5181865234375,0.025346038180589673,0.4083069523856044,0.5387085618102923
1789059089653195300,0.5281953125,0.2758013929516077,1.0246128043457865,0.5350209593387321
1789059089663205400,0.538205322265625,0.0834942757666111,0.8040463918820023,-0.13894952967530116
1789059089673215200,0.54821533203125,0.04420622147321701,0.306409297183156,-0.466680194366537
1789059089683225300,0.558225341796875,-0.011841828963160514,0.2936404165029526,-0.23144980819094924
1789059089693235500,0.5682353515625,0.023140052568912505,-0.13243190967589616,0.01478593785734847
1789059089703245300,0.578245361328125,-0.38800095419883723,0.14136135832369326,-0.11671769625879823
1789059089713255400,0.58825537109375,-0.017165654334425927,-0.4427738701328635,0.14223733744062483
1789059089723265500,0.598265625,-0.08073883957862854,-0.8070578486576676,0.06702199225751683
1789059089733275400,0.608275390625,0.017617489755153655,-0.21617343820184468,-0.20242986727058887
1789059089743285500,0.618285400390625,0.2659440158039331,-0.0354489145219326,-0.4049433942366391
1789059089753295400,0.62829541015625,0.9443407054960727,-0.9044158146038651,-0.47544732859209177
1789059089763305500,0.638305419921875,0.852386059898138,-1.778374823884666,-0.6636980099931359
1789059089773315000,0.648315185546875,0.5268476993530988,-1.8942571652978657,-0.6147467128846794
1789059089783325200,0.6583251953125,0.3593552899509668,-1.522406258650124,-0.6648544865518808
1789059089793335300,0.668335205078125,-0.27694939394295215,-0.9249772488564252,-0.9279021963924169
1789059089803345200,0.67834521484375,-1.3297171564102173,0.5237491488158702,-0.6638127224139869
1789059089813355300,0.688355224609375,-1.1194938587844372,0.33849750310033555,-0.8332733631491661
1789059089823365000,0.698365234375,-0.15625088441967963,0.09134937318116426,-0.5829127009242773
1789059089833375200,0.708375244140625,0.11577391260266304,0.5893807278946042,-0.4433546656955033
1789059089843385300,0.71838525390625,0.24426292987167833,0.6856546979963779,-0.6714448247276246
1789059089853395200,0.728395263671875,0.5774222868144512,0.09442541962563991,-0.20988875017547978
1789059089863405300,0.7384052734375,0.5696002148866653,-0.32501375214904543,-0.08300915913078934
1789059089873415200,0.748415283203125,0.27999358394443985,-0.316373934097588,-0.18440074624093247
1789059089883425300,0.75842529296875,-0.25477380249202247,-0.6267012815073132,-0.38624702320359644
1789059089893435100,0.76843505859375,-0.4860147537052631,-0.8656231426119804,-1.0385616155255586
1789059089903445200,0.7784453125,-0.030944004318118095,-0.8023790431916713,-1.1419354076951742
1789059089913455400,0.788455322265625,-0.12703648037314413,0.06591244184672831,-0.7904907447382807
1789059089923465200,0.79846533203125,-0.13321487674713134,0.28756051206737754,-0.5532536218501627
1789059089933475300,0.808475341796875,-0.16313947488963604,-0.13583353481292723,0.06117869132310152
1789059089943485200,0.818485107421875,-0.754758629360795,0.0952779448017478,0.09454389490615576
1789059089953495300,0.828495361328125,-0.7399258018881082,-0.2482221888914704,-0.25264895582515745
1789059089963505200,0.838505126953125,0.054797173592448234,-0.60958648057729,-0.04748312425203621
1789059089973515300,0.848515380859375,0.3625421032935381,-0.7789879384711385,0.14929478167146443
1789059089983525400,0.858525390625,0.7156435935467481,-0.850269213874638,0.06895199220571667
1789059089993535200,0.86853515625,0.888697728729248,-1.0915069507062434,-0.3960239555262029
1789059090003545300,0.87854541015625,0.5531202047288417,-0.9003197774618864,-0.6288209770750254
1789059090013555200,0.88855517578125,-0.07161912905573845,-0.711315208953619,-1.0313678315639496
1789059090023565300,0.8985654296875,-0.7695517093449831,-0.26761107223331926,-0.7406837806485593
1789059090033575400,0.908575439453125,-1.4549883806765078,1.5480916117876766,-0.47985919021759177
1789059090043585300,0.918585205078125,1.3098369824200868,-2.5964155465885996,0.012386749494820833
1789059090053595400,0.928595458984375,1.1887182016581297,-2.309936692278087,0.07030256656445562
1789059090063605200,0.938605224609375,-0.7276333065479993,0.9284738588005303,-0.13547843776494264
1789059090073615400,0.948615478515625,-0.7517144393593073,0.850459475749731,-0.3584243292437866
1789059090083624400,0.95862451171875,0.3506774779766798,-0.3965054554328322,-0.22714012829829006
1789059090093634300,0.96863427734375,0.6888420958608389,-0.7658966939687728,0.07610997420158237
1789059090103644400,0.97864453125,-0.28535364967286586,1.3741753068178892,-0.044048912019655106
1789059090113654300,0.988654296875,0.22951310450732706,0.4195768266797065,-0.09265037277713417
1789059090123664400,0.998664306640625,0.8871277029335498,0.48108343478292226,0.3526631353685632
1789059090133674500,1.008674560546875,0.7707271828651427,0.1727159892693162,0.48819275533147155
1789059090143684400,1.018684326171875,0.17807167108356953,0.07181815875917673,0.6569442979492247
1789059090153694500,1.028694580078125,-0.17028876212239263,-0.00708148269355297,0.9931569780480116
1789059090163704300,1.038704345703125,-0.5122229616731405,0.7188727847263217,0.9559507715299725
1789059090173714400,1.04871435546875,0.1436737269192934,0.21940029129385946,0.5150924526948482
1789059090183724300,1.058724365234375,0.49520577589869497,0.1999950413390994,0.5806876452859491
1789059090193734400,1.068734375,0.9063695790201425,-0.6071402564689516,0.4218555122014135
1789059090203744500,1.07874462890625,1.043198554611206,-1.4542042445614933,0.2964924449332058
1789059090213754400,1.08875439453125,1.0101783285409212,-1.2748030784398316,0.6281530877508222
1789059090223764500,1.098764404296875,0.23149930988848208,-0.6266761470660567,0.3068913450790569
1789059090233774300,1.1087744140625,-0.4719698617398739,-0.19664222377985716,0.8981714403215795
1789059090243784400,1.118784423828125,-0.4913409171640873,-0.08401654607504606,0.44432036892250176
1789059090253794300,1.128794189453125,-0.38766134698092936,-0.5500491267204284,-0.15611492828140033
1789059090263804200,1.13880419921875,0.058167526808381075,-0.8968243365615606,0.11081565087446943
1789059090273814300,1.148814208984375,0.6869979292988777,-1.1543284408003092,0.19793597165113314
1789059090283824000,1.15882421875,0.20431787297427653,-0.26042232977300883,0.47495223855152724
1789059090293834200,1.168834228515625,0.4005424558639526,-0.3161778270035982,0.49035395195335146
1789059090303844000,1.178843994140625,0.6737292824029922,-0.9010285102531314,0.5450359382009133
1789059090313854200,1.188854248046875,0.24747312408983707,-0.8575997028931975,0.6182687495309859
1789059090323864300,1.1988642578125,-0.7817325610041618,0.07532850496768952,0.5624632756788284
1789059090333874200,1.208874267578125,-0.7088643086701631,-0.07638385923951864,0.3845778478823602
1789059090343884300,1.21888427734375,0.12753800015449523,-0.7637053214043379,-0.06856688361195847
1789059090353894100,1.22889404296875,0.8931699057072401,-0.698399905540049,0.25962449392620474
1789059090363904300,1.238904296875,0.3710159171283245,-0.2983595539793372,0.35107436833977695
1789059090373914400,1.248914306640625,-0.666290072312951,0.35561142724752426,0.279814811577741
1789059090383924200,1.25892431640625,-0.6659539722263813,-0.13349047881811857,0.35403168377541006
1789059090393934300,1.268934326171875,-0.38110359590053555,-0.33036914170235393,-0.17419062839914112
1789059090403944200,1.278944091796875,0.03533434823155403,-0.2992500730782747,0.06853615968013183
1789059090413954300,1.288954345703125,0.38074937563538547,-0.19948855312168598,0.11579687335314229
1789059090423964200,1.298964111328125,0.9898311215609311,-0.611317249892652,-0.011802976523805409
1789059090433974300,1.308974365234375,0.9969663802683353,-0.44863662468641996,0.010797690205089748
1789059090443984400,1.318984375,0.5094920754045248,0.0561599863782525,0.16044325807560234
1789059090453994200,1.328994140625,-0.0006143325060606002,0.25923107416182756,0.44049430782832205
1789059090464004400,1.33900439453125,0.32441900112628935,-0.6372808354496956,0.3762919213024899
1789059090474014200,1.34901416015625,0.37624972612857815,-0.5424465427622198,0.3215967833124101
1789059090484024300,1.3590244140625,-0.446394690978527,0.2161088485330343,0.19867573890145868
1789059090494034200,1.3690341796875,-0.33134500099718567,0.02011164465844631,-0.13532036112640053
1789059090504044300,1.379044189453125,-0.17386837417483328,-0.0751636697947979,-0.26432215022314337
1789059090514054400,1.389054443359375,-0.36846155647039414,-0.06710194389224051,-0.48209462111946194
1789059090524064300,1.399064208984375,-0.8321113336324691,0.13602964190691708,-0.744572897041589
1789059090534074400,1.409074462890625,-0.9486667520016431,0.07796294512450695,-0.8117883112456649
1789059090544084200,1.419084228515625,-0.9800906487911939,-0.07461918765455484,-0.8497896867293864
1789059090554094300,1.42909423828125,-0.5370926145136357,-0.1494058408305049,-0.8554568456456064
1789059090564104200,1.439104248046875,0.010193477234244346,-0.1510930632650852,-0.6861927503958344
1789059090574113300,1.44911328125,0.40089959873855113,0.29552023890018464,-0.5742986749012022
1789059090584123400,1.459123291015625,1.1506044518411158,-0.4643550028219819,-0.5120458150079473
1789059090594133500,1.469133544921875,0.9940642290860414,-0.39362931547462937,-0.5333777587089688
1789059090604143400,1.479143310546875,-0.5001473239541053,0.6795081580653787,-0.7729092030793427
1789059090614153500,1.489153564453125,-0.7918506349146366,0.6925874198690056,-0.26921087211277334
1789059090624163300,1.499163330078125,0.24721651898026464,-0.7922381729274988,-0.13136327579738571
1789059090634173400,1.50917333984375,0.495912462863326,-1.1735726549744605,0.07171709127118811
1789059090644183300,1.519183349609375,-0.2171639105439186,0.24796733734756707,0.14374611630206927
1789059090654193400,1.529193359375,-0.33459202009439465,0.5382534749865532,0.41924532970301803
1789059090664203500,1.53920361328125,-0.04657470417022705,-0.24090894326865672,0.4396197900161147
1789059090674213400,1.54921337890625,-0.25956454389989375,0.03655190732777119,0.33448731761090456
1789059090684223000,1.559222900390625,0.04773556464314461,-0.0520601498439908,0.059979891726281494
1789059090694232800,1.56923291015625,0.27979893815517426,-0.2552586633995175,0.12069239030973986
1789059090704243000,1.579242919921875,-0.029081717577576636,0.36113223649561405,0.3213451466389
1789059090714253000,1.589253173828125,0.18954700482189654,-0.08348667698204516,-0.1214599223498255
1789059090724263000,1.599262939453125,0.45811552391052246,-0.27187954333275555,-0.5035580091804266
1789059090734273000,1.60927294921875,0.5489829587936401,-0.34790684421956536,-0.48971667696312066
1789059090744283000,1.619282958984375,0.3020160306602716,0.0037400633111596107,-0.5928144286703318
1789059090754293000,1.62929296875,0.3892676131337881,-0.005642974323034286,-0.3538146800238639
1789059090764302800,1.639302734375,0.749055449283123,-0.4110048131674528,-0.42931167342625554
1789059090774313000,1.64931298828125,0.4891530517309904,-0.11695260099321603,-0.6878712050020694
1789059090784323000,1.659322998046875,0.02252805815041065,-0.16822189272046087,-0.4956968473512679
1789059090794333000,1.6693330078125,-0.9042553633451461,0.24249328985065222,-0.6336767465431243
1789059090804343000,1.679343017578125,-1.5759686297506093,0.5162473948836326,-0.6610984950192272
1789059090814353000,1.689352783203125,-1.6789666474103926,0.5396180413380265,-0.5271022221034393
1789059090824363000,1.699363037109375,-1.044451769542694,-0.15773323193192482,-0.3328410482412204
1789059090834373000,1.709373046875,0.03669394614696502,-0.156168174572289,-0.22792568918541073
1789059090844383000,1.719383056640625,1.1875012270838021,-0.3095940646991133,-0.07136100784251466
1789059090854393000,1.72939306640625,0.39580607499182224,0.36356384755671023,-0.33336320895180105
1789059090864403000,1.73940283203125,0.15338789620399473,0.27434184179306026,-0.11142316091409883
1789059090874413000,1.7494130859375,-0.3921206644773483,-0.06730418846607208,0.03728951002047397
1789059090884423000,1.7594228515625,-0.7932032185673713,-0.16046061106920242,0.011232154365908353
1789059090894433000,1.76943310546875,-0.7919768916428088,-0.35037469563782214,0.19184976533893494
1789059090904443100,1.779443115234375,0.3974959277749061,-0.9022326253458857,0.1551392516496591
1789059090914453000,1.789452880859375,-0.013883563923835754,0.3677817575126886,-0.18833331818319857
1789059090924463000,1.799463134765625,-0.035383448070287704,-0.3857183962196111,-0.03602788345366716
1789059090934473000,1.809472900390625,0.15816928526163102,-0.13746815027743578,0.36061862441767006
1789059090944483000,1.819483154296875,0.17132219682335853,0.08817249671071767,0.6681102734774351
1789059090954493000,1.829492919921875,0.0062982233613729476,-0.10058861843049526,0.4534764294004068
1789059090964503000,1.8395029296875,0.5181032518833876,-0.5831567388132214,0.4920733961571008
1789059090974513200,1.84951318359375,-0.3315373086988926,0.5241542224854231,0.31760533905606714
1789059090984523000,1.85952294921875,0.277689983177185,0.2649266554549336,0.25900150318965315
1789059090994533000,1.869533203125,1.272920917955041,-0.21848814488500357,0.43719117462970314
1789059091004543000,1.87954296875,0.8947674040317535,0.07997720755636692,0.2750871072024107
1789059091014553000,1.889552978515625,-0.13376958802044392,0.540898436537385,0.08283367469971999
1789059091024563200,1.899563232421875,-0.6454051051944494,0.41781040152907367,-0.007058677206700667
1789059091034573000,1.909572998046875,0.30159926655292507,-0.7734399489551782,-0.03935447972626425
1789059091044583200,1.919583251953125,0.5317442392230034,-0.9098296563461422,0.018438464448950254
1789059091054593000,1.929593017578125,-0.14080138635337353,-0.1860971566289663,-0.1844798758917488
1789059091064603100,1.93960302734375,-0.23704350001215935,0.04326192636042833,-0.24180483266245573
1789059091074613000,1.949613037109375,0.4802227263003587,-0.13825053282678126,-0.24290351461935786
1789059091084623000,1.959623046875,0.8367576981335878,-0.2635676420614123,0.05663648131620139
1789059091094632000,1.9696318359375,0.8661462897032499,-0.20111761562824249,0.13300871405000797
1789059091104643000,1.97964306640625,0.974674468961358,-0.44380438222438096,-0.014400308673782274
1789059091114652000,1.98965185546875,0.6308429113566875,0.1299357089459896,0.03103852333431132
1789059091124662000,1.999662109375,0.8825175787895917,-0.6942606137782334,0.10460824760170653
1789059091134672000,2.009671875,-0.029947979018092152,0.3028454672217369,-0.044324030033452436
1789059091144682000,2.019681884765625,0.37071255026757716,0.0023570845201611517,0.4924374802291393
1789059091154691800,2.02969189453125,0.5219523285269737,-0.24771073223799467,0.4268289532324299
1789059091164702000,2.039701904296875,0.8083230462878942,-0.7783250906482339,0.34050778347682203
1789059091174712000,2.049712158203125,0.6710521721482277,-0.401645740930736,0.2895954884937033
1789059091184722000,2.059721923828125,0.7818646629512309,-0.5832385718777775,-0.08752572323977947
1789059091194732000,2.06973193359375,0.6850748522818089,-0.7262377605363726,-0.20783797339182347
1789059091204742000,2.079741943359375,0.48762861864268775,-0.3153580350533128,-0.15705774382315574
1789059091214752000,2.089751953125,0.34246552994847296,-0.06001783085018396,-0.1717641684371978
1789059091224761900,2.099761962890625,0.12135785021483897,0.4541261620134115,-0.44971404465958476
1789059091234772000,2.10977197265625,0.6558282995313406,-0.3657961366534233,-0.1982472478237003
1789059091244782000,2.119781982421875,1.283079323875904,-1.643003061364591,-0.2301175732064992
1789059091254792000,2.1297919921875,0.6699088473320007,-1.2028399582520126,-0.13907973192622886
1789059091264802000,2.139802001953125,-0.6384609851449727,0.5292322564020753,-0.02780010766866617
1789059091274812000,2.14981201171875,-0.6991372799038886,0.3223725899904966,-0.010594970707222819
1789059091284822000,2.159822021484375,0.326305253264308,-0.7705629322141408,0.18996296521164477
1789059091294831900,2.169831787109375,0.9841787948876619,-1.248451662608981,-0.0711828839297872
1789059091304842000,2.179842041015625,-0.2800087815135717,0.19289017776995895,-0.07201590068782679
1789059091314852000,2.18985205078125,-0.35867958264648914,0.4394754131093621,-0.40486572589054703
1789059091324862000,2.199862060546875,0.24379472783803938,-0.4844517421722412,-0.3386246731439605
1789059091334872000,2.2098720703125,0.5254781645655632,-1.2341104180455207,-0.12611072556404396
1789059091344882000,2.2198818359375,-0.2880518027156591,-0.6720841455444693,-0.31747780368626116
1789059091354892000,2.22989208984375,-0.44896074207425113,-0.6899760683268308,-0.1310330209297128
1789059091364902100,2.239902099609375,-0.40881110251545905,-0.6709826140433549,-0.5926956611288711
1789059091374912000,2.249912109375,-0.3388561072796583,-0.9562719663083553,-0.4091761729681864
1789059091384922000,2.259922119140625,-0.31226386843025683,-0.45823038246184583,-0.07922304645450785
1789059091394932000,2.269931884765625,-0.08538578860163688,-0.7717369444295763,-0.022718173895031214
1789059091404942000,2.279942138671875,0.19464988091886043,-0.9760437114879489,0.010681534745823592
1789059091414952000,2.289951904296875,-0.49894087077379223,0.16127864945381878,-0.07204861564734019
1789059091424962000,2.299962158203125,-0.5821691890805959,0.06503799709975719,-0.21147727974224834
1789059091434972200,2.30997216796875,-0.6025754327714443,-0.33553076224923134,0.13546510335933415
1789059091444982000,2.31998193359375,-0.3204723093271255,-1.0150038490012288,0.16457369067752733
1789059091454992100,2.3299921875,-0.6801239518761635,-0.47153351614922284,-0.01445959197981283
1789059091465002000,2.340001953125,-0.7835714668691158,0.17951690145581958,-0.2007302237458527
1789059091475012000,2.35001220703125,-0.31257249598801135,-0.3345762380033731,0.07447648211508058
1789059091485022000,2.36002197265625,-0.023982348611950872,-0.298647138749063,-0.08163851009840145
1789059091495032000,2.370031982421875,0.006605097353458404,-0.8170151790484785,-0.16545911347623912
1789059091505042200,2.380042236328125,-0.4022679644823074,-0.5702598478391766,-0.41354631434381006
1789059091515052000,2.390052001953125,-0.3711731535166502,-0.4545090238511562,-0.35348029697034505
1789059091525062100,2.400062255859375,0.30216274565458295,-0.704000502026081,0.08152910404033027
1789059091535072000,2.410072021484375,0.3722486737936735,-0.15439327385425566,0.17593604729436338
1789059091545082000,2.42008203125,0.8652075475484132,0.05721884778141975,0.04871241945181973
1789059091555092200,2.43009228515625,2.0817969219505787,-1.369151341176033,0.2723445670286193
1789059091565102000,2.44010205078125,1.2365911289453506,-0.18684388334304095,-0.22722011646563187
1789059091575112200,2.4501123046875,0.30801088716089725,0.4748313886508345,-0.3213143861744553
1789059091585122000,2.4601220703125,0.6925748526483774,-0.697827366349101,-0.10343130364366807
1789059091595132200,2.470132080078125,1.2692752549290656,-2.5314973764762283,0.12715680968402884
1789059091605142000,2.48014208984375,-0.2991840221047401,0.058068742609024046,-0.28199173549171536
1789059091615152000,2.490152099609375,-0.04656593634188175,0.1771317598849535,-0.12745139958327636
1789059091625162200,2.500162353515625,0.9288257409781217,-0.8590952021479606,0.305705057903938
1789059091635172000,2.510172119140625,0.7108838317990303,-0.20428280166089532,-0.5113498686330392
1789059091645182200,2.52018212890625,0.2719979090154171,0.13705401651859284,-0.4981431445248425
1789059091655192000,2.530192138671875,0.37099604338407516,-0.2791729152113199,-0.04511738150138408
1789059091665202000,2.540201904296875,0.1131914948940277,-0.26081132909059523,-0.1031382207149174
1789059091675212000,2.5502119140625,0.14279285243153572,-0.8056438902065157,0.09572347834585233
1789059091685222000,2.560221923828125,-0.3573229073405266,-0.03715542617887258,-0.25464849561192093
1789059091695231000,2.57023095703125,0.32216040854454037,-0.9618696401849388,-0.054196632149722423
1789059091705241000,2.580240966796875,1.0131500378280878,-0.8118585269376635,0.26950192748121915
1789059091715251000,2.5902509765625,1.9215625208526848,-0.8275918103814125,0.017245350240822882
1789059091725261000,2.600260986328125,1.2974065399140118,-0.21927608039230106,0.2781670261044055
1789059091735271000,2.61027099609375,0.2846814494997263,-0.23468144705593585,0.026518497759755698
1789059091745281000,2.620281005859375,-0.7426905904263258,-0.6738441409543157,0.2080267739621922
1789059091755291000,2.630290771484375,-1.7388152591735124,0.07626110964268445,0.46542073235735293
1789059091765301000,2.640301025390625,-1.1026789175838232,-0.17110680050700902,0.3192683768974617
1789059091775311000,2.65031103515625,0.3328396234691143,-0.8872314555689692,0.06898155622691847
1789059091785321000,2.660321044921875,1.2797452110171317,-0.9091410895600914,-0.2618088522279635
1789059091795331000,2.6703310546875,1.208937982866168,-0.4745522794485092,-0.2779572375449352
1789059091805341000,2.6803408203125,1.1179004521131515,-0.6067793142020702,-0.3369306556424126
1789059091815351000,2.69035107421875,0.8018868757605552,-1.1077587050661444,-0.16276691525019704
1789059091825361000,2.70036083984375,0.3771615802764892,-1.5097823393985628,0.011436727894144133
1789059091835371000,2.71037109375,0.0653992316275835,-1.1359349982365965,0.21313874668106436
1789059091845381000,2.720381103515625,-0.037222938457131385,-0.7766022123783827,-0.3554004148453474
1789059091855391000,2.730390869140625,0.17884674710929394,-1.3601625635564327,0.007519864977663383
1789059091865401000,2.740401123046875,-0.36987551492154597,-0.11324731673449277,0.5612072112031281
1789059091875411000,2.750410888671875,0.30552316199839114,-0.654743719165027,0.5060145354870706
1789059091885421000,2.760421142578125,0.8802285910695791,-1.279112173810601,0.9522687950816004
1789059091895431200,2.77043115234375,0.3079536040157079,-0.47588586613982914,0.35113293012659996
1789059091905441000,2.78044091796875,0.33539223056137557,-0.7231517772197723,0.6365460914343595
1789059091915451100,2.790451171875,0.46317280730009075,-1.1960846387729047,0.71762388064377
1789059091925461000,2.8004609375,-0.509088755300641,-0.7846046093091368,0.5216607251692563
1789059091935471000,2.81047119140625,-0.5759136358171701,-0.5568623138666152,0.6672467885158956
1789059091945481000,2.82048095703125,-0.5897995378285646,-0.8720610667049884,0.2627757792976685
1789059091955491000,2.830490966796875,-0.23748773664832115,-1.0777268471568822,0.5174752927107736
1789059091965501200,2.840501220703125,0.40575171494483947,-0.8420233635768294,0.8223567592721432
1789059091975511000,2.850510986328125,0.6192816529005766,-0.4128776213020086,0.4396627523750066
1789059091985521200,2.860521240234375,0.8368383621543646,-0.43750937373340126,0.5761159169236197
1789059091995531000,2.870531005859375,0.4364917211234569,0.26822131308615205,0.526376063253358
1789059092005541000,2.880541015625,0.1623661524295807,-0.4330778210267424,0.11270760210091248
1789059092015551000,2.890551025390625,-0.36745851690769193,-0.32159663718193765,0.5246779540985822
1789059092025561000,2.90056103515625,-0.48262452674508094,-0.1212020751312375,0.33899770770743487
1789059092035571200,2.9105712890625,-0.12600713732540605,-0.01814618980437517,0.0367295654496178
1789059092045581000,2.9205810546875,0.20888941867351532,-0.2405538462206721,0.35295517711769786
1789059092055591200,2.930591064453125,0.10451134483218193,-0.02176642612814903,0.1722992068956606
1789059092065601000,2.94060107421875,0.09502864621579646,-0.6128901982977986,-0.048467824440449475
1789059092075611100,2.950611083984375,-0.11452186671495437,-0.8673524506226181,0.2854173808251507
1789059092085621000,2.96062109375,-0.42356385048925876,-0.5302838112816214,0.19217636694479734
1789059092095631000,2.970631103515625,-0.3575648994028568,-0.22227058603316543,0.12426065898425877
1789059092105641200,2.98064111328125,0.26781623941659927,-0.1691185492992401,0.09652790833022445
1789059092115651000,2.990651123046875,1.3694512009054423,-1.506988032504916,-0.00896207227576524
1789059092125661200,3.0006611328125,1.0822785191118716,-1.3090002393350004,0.0992539174943231
1789059092135670800,3.0106708984375,0.3553589137911796,-0.28515578901320693,0.6456170674446969
1789059092145681000,3.020680908203125,0.5083569338947534,-0.9467325690686702,0.7071764286484569
1789059092155691000,3.03069091796875,0.05612812993526459,-0.3012354016765952,0.5032574187986553
1789059092165700900,3.040700927734375,-0.20549743814766405,0.04842325464636087,0.035283293897751714
1789059092175711000,3.0507109375,0.2828425436347723,-1.4803016856312752,-0.642926659316942
1789059092185720800,3.060720947265625,0.30219021818339825,-0.4283721275538206,-0.3873313478415832
1789059092195731000,3.07073095703125,0.1530325068950653,0.23774492627978325,0.7057083288572729
1789059092205741000,3.080740966796875,-0.33199148220717906,0.12368453959673642,1.2071342213798313
1789059092215751000,3.0907509765625,-0.5017758019387721,-0.47471623783856626,0.07276913934107869
1789059092225761000,3.100760986328125,0.06912146702110766,-0.6002624796539545,-0.48128560629151756
1789059092235771000,3.11077099609375,0.6432540646404028,-0.7059560200080275,-1.2085535135932266
1789059092245781000,3.120781005859375,0.4216185616403818,-0.7828495823353528,-1.087266828918457
1789059092255790800,3.130790771484375,0.2504816582560539,-0.13775164339393375,0.3647787397718057
1789059092265801000,3.140801025390625,0.4676455687999725,-0.7916095196351408,1.1703988472439348
1789059092275811000,3.15081103515625,0.5480839641273021,-0.45312078436315056,1.2041595164179801
1789059092285821000,3.160821044921875,0.5756967781960964,-0.40493893725723024,0.35049638578873127
1789059092295831000,3.1708310546875,-0.20141864440143106,0.3084875647619367,-0.023736885950900614
1789059092305841000,3.1808408203125,-0.3512900569170713,-0.29380992785096166,-0.5158130951195955
1789059092315851000,3.19085107421875,-0.41863516191542144,-0.4991901693597436,-0.2924870452167466
1789059092325860900,3.20086083984375,-0.0016039280652999878,-1.0256368866965173,0.05570113669484853
1789059092335870000,3.210869873046875,0.03504851702749729,-1.497763692563772,0.4904460141509771
1789059092345880000,3.220880126953125,0.19071429503560064,-0.9341334919974207,0.6437182480860502
1789059092355890000,3.230889892578125,-0.08604454477131367,0.12676292412877083,0.35572292479798195
1789059092365900000,3.240900146484375,0.7168681669056415,-1.8955793538123369,-0.00011767156291753053
1789059092375910100,3.25091015625,0.36026363696753977,-0.712421124368906,-0.12912574426997453
1789059092385920000,3.260919921875,0.38639761065542694,0.08417787411659955,0.10512914793696254
1789059092395930000,3.27093017578125,2.9251193854272364,-3.2639363297402855,0.2895355019347742
1789059092405940000,3.28093994140625,3.1123171967744825,-1.3690528492376208,-0.03185852534715086
1789059092415950000,3.2909501953125,3.637738662716746,-0.9332157926306128,0.4329337729135528
1789059092425960000,3.3009599609375,3.822760299068689,-1.3028253500923515,0.2025192625870928
1789059092435970000,3.310969970703125,1.8877409152716398,0.3212187437802553,-0.17108937444817274
1789059092445980200,3.320980224609375,1.0089520016163587,-0.5180769483983516,0.3101710608694702
1789059092455990000,3.330989990234375,0.7845967182636261,-0.6197063080534339,-0.2399921206846833
1789059092466000100,3.341000244140625,1.1643857244342566,-1.6654174300074576,-0.20777429703846573
1789059092476010000,3.351010009765625,-7.7351488466143605,2.7975051051661373,-0.7582830040946602
1789059092486020000,3.36102001953125,-16.58564729181528,4.689609768605232,-0.9775104230396449
1789059092496030200,3.3710302734375,-15.723056648766994,0.36049978381097314,-0.955999432977289
1789059092506040000,3.3810400390625,-5.757634136915207,-3.102732206827402,-0.5116336905431003
1789059092516050200,3.39105029296875,2.906542695251107,-3.7035207561820744,0.42998811138309534
1789059092526060000,3.40106005859375,5.632371095955372,0.4194394640356302,-0.3377048914179206
1789059092536070100,3.411070068359375,7.078658283782005,0.3244888514921069,0.2124386538540013
1789059092546080000,3.421080078125,4.893904845225811,-1.2003846740543842,0.14584886073498055
1789059092556090000,3.431090087890625,0.9828314719319343,-1.834529549565911,0.45089021229948845
1789059092566100200,3.441100341796875,-2.0870418368667365,-0.590567307330668,1.8726221104644238
1789059092576110000,3.451110107421875,-2.024327898800373,-0.5462403820872307,0.851349118065834
1789059092586120200,3.4611201171875,-0.47354222562313075,-0.1086143962368369,0.5773210549296811
1789059092596130000,3.471130126953125,1.60899645460546,-0.41920477849692106,0.29851841606916857
1789059092606140200,3.48114013671875,1.476883401620388,-0.17903613220155237,-0.2648218799062073
1789059092616150000,3.49114990234375,0.3847439982295036,1.0089227755218744,0.7011972081083804
1789059092626159900,3.501159912109375,-0.6220195534318685,1.8766569189384579,1.0474340732891112
1789059092636170000,3.511169921875,-0.12707973499298095,0.171996442823112,0.508735923274979
1789059092646179800,3.521179931640625,-0.12982523430883883,0.3041983431354165,0.41132377945613113
1789059092656190000,3.53118994140625,0.7999275583863258,-0.3070958181425929,0.2002246488438919
1789059092666199800,3.54119970703125,0.8384095569938421,0.34245325498878953,0.17565660929847507
1789059092676210000,3.5512099609375,1.1126035147488116,0.12158669053465128,0.1752094317865558
1789059092686219800,3.5612197265625,1.0316250211954117,-0.4392755066230893,-0.3222488540129736
1789059092696229600,3.571229736328125,0.4877145433604717,-0.9952031699880957,-0.7770706336077302
1789059092706239700,3.58123974609375,0.35435119805335996,-0.7058616197228431,-0.7182306143652647
1789059092716249600,3.59124951171875,0.7766279313415289,-0.4754942364737391,-0.46582463698312637
1789059092726259700,3.601259765625,0.3927303208082914,-0.10548837317079306,-0.6275858092568815
1789059092736269800,3.611269775390625,-0.8505278648108243,0.6031152387365698,-1.224775968793407
1789059092746279700,3.62127978515625,-1.8110335231661796,0.1246139294013381,-0.8631124749653041
1789059092756289800,3.631289794921875,-1.848989452072978,-0.3322968948945403,-0.8601616623356938
1789059092766299600,3.641299560546875,-0.7363818456709385,-0.9657613869264722,-0.4557550053242594
1789059092776309800,3.651309814453125,0.25873686090409753,-0.7536199807196855,-0.41457094468381256
1789059092786319600,3.661319580078125,1.116221120724082,-0.544818532590568,-0.7123219017781317
1789059092796329700,3.671329833984375,1.8796756822377443,-0.7613757094129919,-0.9880150851149111
1789059092806339800,3.68133984375,0.7351771460562944,0.6538759964197873,-0.5592856320234015
1789059092816349700,3.691349609375,0.6811778448432684,0.3315042832121253,-0.7193017507281154
1789059092826359800,3.70135986328125,0.594036152485013,0.6650047086775303,-0.8503359955005347
1789059092836369700,3.71136962890625,0.8386562252312898,0.7456640532791614,-0.4653190255485475
1789059092846379800,3.7213798828125,1.5742191557347773,-0.7716846297204494,-0.4719957268334925
1789059092856390000,3.731389892578125,-0.2796434553325176,0.2361506428256631,-0.4762534573432058
1789059092866399500,3.7413994140625,-1.667619323965907,-0.48000732998400925,-0.2632952913934365
1789059092876409600,3.75140966796875,0.6181143626868725,-7.254431030273437,-0.051534208007436244
1789059092886419500,3.76141943359375,-0.8598509889513254,-7.623617393887042,-0.7182355097360908
1789059092896429600,3.7714296875,-2.9193612602919337,-5.840446860158443,-0.3172584618471563
1789059092906439400,3.781439453125,-4.915452660167217,1.2989242510005832,0.19850843777684493
1789059092916449500,3.791449462890625,-1.525840032491088,2.604864810504019,0.037782682098587976
1789059092926459600,3.801459716796875,2.284279396191239,3.0989249234989282,0.6037074690086767
1789059092936469500,3.811469482421875,4.101466765812039,1.062296346051991,0.06619461978897452
1789059092946479600,3.821479736328125,3.053013359412551,-0.8699322379827499,-0.9941223890140652
1789059092956489500,3.831489501953125,0.8900023815870285,-0.14024609055817128,0.2069174610134214
1789059092966499600,3.84149951171875,-0.22468553822040557,1.155498069101572,0.38520708569660783
1789059092976508700,3.8515087890625,-1.360480543464422,2.596482182084024,0.38859029839411374
1789059092986518500,3.8615185546875,-0.5715998642712831,1.5792551040753722,0.7184135697167366
1789059092996528600,3.871528564453125,0.9820353531181811,-0.37476737861633297,0.06963528916160576
1789059093006538800,3.881538818359375,1.3290081313580273,-0.36266602193415165,-0.5704929624753072
1789059093016548600,3.891548583984375,0.28119594547152515,0.08025543997585773,-0.5406342691758648
1789059093026558700,3.901558837890625,-1.7634446735173464,0.7070914537787437,-0.41884778175279497
1789059093036568600,3.911568603515625,-2.573414902490377,-0.5780234675779938,-0.5265743257718161
1789059093046578700,3.92157861328125,-2.283365788477659,0.2490942955508828,-0.06804124316950329
1789059093056588500,3.931588623046875,-0.021290040788054465,0.25926468417048454,0.021852661373186855
1789059093066598700,3.9415986328125,1.7512924634307623,-0.0443938529998064,0.2659473220058717
1789059093076608800,3.95160888671875,2.2405630040615794,0.5536918671369552,0.4631425582922995
1789059093086618600,3.96161865234375,3.0396424211859703,-1.8850389628365636,0.30192234276114027
1789059093096628700,3.971628662109375,1.7312538840085268,-1.5892337695151566,0.3545882947448641
1789059093106638600,3.981638671875,-0.5878069027066231,0.26843612488061186,1.081289508074522
1789059093116648700,3.991648681640625,-1.1346142710268496,-0.9271814809024334,0.8365112490918487
1789059093126658600,4.001658447265625,-1.9261188689827917,-0.5575967656210065,0.5665471839915961
1789059093136668700,4.011668701171875,-0.8037830647706985,-1.2809040256634354,0.6981493648450822
1789059093146678800,4.0216787109375,0.5929179621100426,-1.2127090258374809,0.5388733969831839
1789059093156688600,4.031688720703125,1.2156243287622928,-1.1523422354191541,0.2715279534161091
1789059093166698800,4.04169873046875,0.7792331454038619,0.20464082131832836,0.7602700862586498
1789059093176708600,4.05170849609375,1.1785896063536405,-0.24238076938688755,0.12188097903979941
1789059093186718700,4.06171875,0.5340256281584501,0.1748959636569023,0.30664683226607736
1789059093196728800,4.071728759765625,-1.23521224180758,-0.06549538547843695,0.4272247110843658
1789059093206738700,4.08173876953125,-2.9989626202732325,0.17915420562326906,0.04654527714634314
1789059093216748800,4.091748779296875,-3.9654941147893665,0.8347913664966821,-0.20797157317623494
1789059093226758700,4.101758544921875,-0.858303759509325,-0.8393103052258492,0.4225989509798586
1789059093236768800,4.111768798828125,1.5155612150609492,-1.2945765771850943,-0.07710576203959062
1789059093246778600,4.121778564453125,2.161530968400836,-1.0594432947084307,0.12602757732523603
1789059093256788700,4.131788818359375,2.0121406174004077,-2.0661416721791026,0.1094866124941036
1789059093266798800,4.141798828125,1.1337567774146795,-2.4264698988154527,-0.4160775863870978
1789059093276808700,4.15180859375,-0.606684621655941,-1.027983742083609,-0.21592846873113886
1789059093286818800,4.16181884765625,-1.841969344177842,-0.7108052136048674,-0.561472657206282
1789059093296828700,4.17182861328125,-3.206219469308853,2.0022467076346278,-0.718106987985596
1789059093306838800,4.1818388671875,-1.9133382978647946,1.0553756068781017,0.10208594431616365
1789059093316848600,4.1918486328125,0.5744657750964164,-0.3096387806236744,0.029480306707415728
1789059093326858800,4.201858642578125,1.5873182912826538,0.4517684929713607,-0.11947296804999932
1789059093336868600,4.21186865234375,1.8952572822511196,0.608057079052925,-0.0031087066050618883
1789059093346878500,4.22187841796875,1.102658459317684,1.1805033310204744,-0.5814270654764027
1789059093356888600,4.231888671875,-0.21311258932650087,0.43710050067156553,-0.22022890587141736
1789059093366898400,4.2418984375,-1.1202426313251257,-0.9531251927152276,-0.17068709552390499
1789059093376908500,4.251908447265625,-1.0604138933062552,-1.4185767586022615,0.1331406242008321
1789059093386918700,4.261918701171875,-0.7156424245029688,-1.1379024989172815,0.44343434333559123
1789059093396928500,4.271928466796875,0.8236994791179895,-1.3683002773046493,0.2660641715848818
1789059093406938600,4.281938720703125,1.3073942654430866,-1.0976672269016503,0.23012961070416493
1789059093416948500,4.291948486328125,1.0339601861447096,-1.1001157890975475,0.034792624303977934
1789059093426958600,4.30195849609375,0.16383973211348055,-0.7840110273301601,-0.021762060480285436
1789059093436968400,4.311968505859375,-1.1282330455571412,0.44347938805371523,-0.33236287280283866
1789059093446978600,4.321978515625,-1.0677467204123734,0.42825697674155233,-0.6941667980149387
1789059093456988700,4.33198876953125,-0.9846733004063367,0.5232242481589316,0.08519662270508706
1789059093466998500,4.34199853515625,0.5086801744997501,-0.955015536506474,0.2338441194489598
1789059093477008600,4.352008544921875,1.7357184622019528,-1.5192685451462864,0.2987862001598812
1789059093487018500,4.3620185546875,1.3119810087114572,-0.35968349899202584,0.1307599578756839
1789059093497028600,4.372028564453125,0.7590677247315645,0.02280132213383913,-0.5560722594674676
1789059093507038700,4.382038818359375,0.268005039986968,-1.384716574576497,0.44485823865886776
1789059093517048600,4.392048583984375,-1.2066612701058388,-0.060844929324090476,0.8188977048594505
1789059093527058700,4.40205859375,-0.3153331928730011,-1.837966830538213,1.0827344461858273
1789059093537068500,4.412068603515625,0.5265028314381838,-1.3229349489241837,1.5013193392187356
1789059093547078700,4.42207861328125,0.9618728550553322,0.3168199242994189,0.8854487368706613
1789059093557088500,4.432088623046875,1.205107026401162,-0.05419453152418136,1.086679092158377
1789059093567098600,4.4420986328125,0.8602630768835544,-1.093469775211811,0.8202559145353734
1789059093577108700,4.452108642578125,-0.14568857387304304,-1.9295736856117844,0.3148446056384593
1789059093587118600,4.46211865234375,-0.24558336482048032,-1.8851327785998582,0.8562961460139602
1789059093597128700,4.472128662109375,-0.2501549105197191,-1.2359700744375586,1.0314405314739792
1789059093607137800,4.4821376953125,0.2477496029436588,-0.5238263057053089,0.9777035344589501
1789059093617147600,4.492147705078125,0.3132031951069832,0.09528875845670699,1.179200139467418
1789059093627157800,4.50215771484375,0.3975485347449779,0.06984101346731185,0.9638915014013647
1789059093637167600,4.512167724609375,0.07531213835477829,-0.2601774151012301,0.598227247499302
1789059093647177700,4.522177734375,-0.4128752832144499,0.5735159270256758,0.7625786554619669
1789059093657187600,4.5321875,-1.0257768796890974,0.7327072488114237,0.07183247954547405
1789059093667197700,4.54219775390625,-1.4384317981511354,0.029581483793258666,-0.2985901295985095
1789059093677207800,4.552207763671875,-0.984820015400648,-1.1842647293806075,-0.13676942742355166
1789059093687218200,4.56221826171875,-0.3303612506568432,-0.6961451123505831,0.03546484274342656
1789059093697228300,4.572228271484375,0.5383212795257568,0.31922026343941684,0.03869348593372851
1789059093707238100,4.582238037109375,1.7661615312606096,0.4385018919020891,-0.017273169829510153
1789059093717248300,4.592248291015625,1.690152058291435,0.5001645673498512,-0.4012547323191538
1789059093727258000,4.602258056640625,0.4193219751358032,0.4840656654641032,-0.5512180974345654
1789059093737268200,4.612268310546875,1.0360141960650682,-3.208511671899259,-0.8594785023771226
1789059093747278300,4.6222783203125,-0.6766910548180342,-1.1968728665411472,-0.3177101511374116
1789059093757288200,4.6322880859375,-1.1362672989308833,-0.8306894841358066,-0.07079754700716584
1789059093767298300,4.64229833984375,-0.850136819666624,0.38481501763910053,-0.2129919220888987
1789059093777308200,4.65230810546875,0.14396306525468824,-0.5191097985774278,0.3202282714381814
1789059093787318300,4.662318359375,1.011874026542902,-0.5839069726586341,0.3035133930785581
1789059093797328100,4.672328125,1.6108973197907208,-1.6280658967345951,-1.0060261772975325
1789059093807338200,4.682338134765625,1.3373662098586558,-0.5087842193961143,-0.32555428876653314
1789059093817348400,4.692348388671875,1.454728852957487,-1.4450737203836441,-0.5200767439134418
1789059093827358200,4.702358154296875,-0.28722704232931134,0.06661006872206926,0.2925310670215636
1789059093837368300,4.712368408203125,-1.4601824421882628,0.3494172487825155,0.876436724505946
1789059093847378200,4.722378173828125,-2.026427501428127,0.2844353657841682,-0.17465678460616618
1789059093857388300,4.73238818359375,-0.09516834694743156,-0.980066098871827,0.2035702694773674
1789059093867398100,4.742398193359375,0.9493611640065908,-0.5286623475596308,-0.05336953367581591
1789059093877408300,4.752408203125,1.4262825106739998,0.09792349087446928,-0.39647330672889947
1789059093887418400,4.76241845703125,1.2241530876547098,0.2627238847136497,-0.0966625310279429
1789059093897428200,4.77242822265625,0.8444529288113116,-0.017019816122949123,-0.5587259888466447
1789059093907438300,4.782438232421875,-0.5291308418542147,0.0011067921981215477,-0.8301808039613068
1789059093917448200,4.7924482421875,-1.3959908327847719,-0.5427618923217058,-0.12143540896307677
1789059093927458300,4.802458251953125,-2.533116209849715,0.8195616486608982,-0.3498128239713609
1789059093937468400,4.812468505859375,-0.8224234678328036,-0.5073471723303199,-0.08821600705888122
1789059093947478300,4.822478271484375,1.2321633756309747,-0.4028098162740469,0.2272628961614333
1789059093957488400,4.83248828125,2.5238907008647917,-0.5816381509438157,-0.3725837144343182
1789059093967498200,4.842498291015625,1.8424106582045554,0.6609969343408942,-0.2812279115123674
1789059093977508400,4.85250830078125,0.14960428601205347,0.17219927191883325,-0.6842439544156194
1789059093987518200,4.862518310546875,-0.520239679390192,-1.2908499578773975,-0.36697208509761836
1789059093997528300,4.8725283203125,-0.6228080734610557,-1.806140490427613,-0.17898779954779892
1789059094007538400,4.882538330078125,-0.09618249242603778,-1.350761990265548,0.3916493937037885
1789059094017548300,4.89254833984375,0.7255518240988255,-0.4519873964190483,0.42849933413006364
1789059094027558400,4.902558349609375,1.4794897847265005,-0.8947656504660845,0.4652663820458576
1789059094037568300,4.912568359375,1.0524094505488872,-0.2504524321615696,-0.1355473930816166
1789059094047578400,4.922578369140625,0.020348960545659062,-0.28351269798129797,0.31673750671297307
1789059094057588200,4.932588134765625,-1.497594181215763,0.5569166744023561,0.37137221975270657
1789059094067598300,4.942598388671875,-1.3748632890820502,-0.10494301424771546,0.4320478934571147
1789059094077608400,4.9526083984375,-0.06378887382149696,-1.4772797074615955,0.16942162389904258
1789059094087618300,4.962618408203125,-0.032733810344338414,-1.2850269508123398,0.14877957129147834
1789059094097628400,4.97262841796875,-0.5862094043821096,0.12775485777556894,0.15199807668025606
1789059094107638300,4.98263818359375,-0.16158756927251816,0.7460352246791124,-0.5984124678730964
1789059094117648400,4.9926484375,1.4896628036946058,-0.7881485655263066,-0.021646790937008335
1789059094127658200,5.002658203125,1.6461001505970954,-0.7340268069773912,0.4153906635688618
1789059094137668400,5.01266845703125,0.08861468752026558,0.7407216284409165,0.8526687492970376
1789059094147678500,5.022678466796875,-0.04714227492511272,0.26746698758751153,0.5996392331890762
1789059094157688300,5.032688232421875,-1.454036779040098,2.116946561264992,-0.19334767574649303
1789059094167698400,5.042698486328125,-0.5262865583389997,0.10012070865780115,0.2098783566456288
1789059094177708000,5.0527080078125,-0.6609218232780695,0.3691635672599077,-0.060710434490535405
1789059094187718100,5.06271826171875,-0.09720774382054805,-0.8139511153027414,0.20530618989188223
1789059094197728300,5.072728271484375,-0.3244400439143181,0.8050570302292704,0.07364453393612057
1789059094207738000,5.082738037109375,0.3434457731574774,-0.09486293426007032,0.09117292063571512
1789059094217747200,5.092747314453125,0.7098200019598007,-0.6077341307088733,-0.015490487663820385
1789059094227757300,5.10275732421875,0.974724737843871,-0.7233142743051052,-0.3137459967467934
1789059094237767200,5.11276708984375,0.884510798433423,-0.2544882635489106,-0.1874874602098949
1789059094247777300,5.12277734375,0.264170576390624,0.1082876485005021,0.05434902796614915
1789059094257787100,5.132787109375,-1.3590735992759466,0.838475023445487,0.14177863388769327
1789059094267797200,5.14279736328125,-1.8443764053195715,-0.3142667326852679,0.1589425163901411
1789059094277807400,5.152807373046875,-1.1354852086424827,-1.5076698772892354,0.5928305030222982
1789059094287817200,5.162817138671875,0.7732955720484256,-2.0830375696614385,0.4349200148273259
1789059094297827300,5.172827392578125,1.60405432202816,-0.7232961541265249,0.09947828256841748
1789059094307837200,5.182837158203125,1.2591104192674158,0.48329497335255145,0.019582853277679533
1789059094317847300,5.192847412109375,1.0918868899345398,-1.0130278727531432,0.2735497233009897
1789059094327857200,5.202857177734375,-0.7540022580355406,-0.06499591152369975,0.13864610801562666
1789059094337867300,5.2128671875,-0.621106530240178,-2.315046582637727,0.04216149083785713
1789059094347877400,5.22287744140625,-0.24888649801909923,-0.8794403633013367,0.36681510443761944
1789059094357887200,5.23288720703125,0.7479162161201238,-0.7720356351152062,-0.17123956004120408
1789059094367897300,5.2428974609375,0.2990542582452297,0.26156828493773937,-0.44312202598340805
1789059094377907200,5.2529072265625,0.029622984847426412,0.1374459384456277,-0.6436809848155826
1789059094387917300,5.262917236328125,-0.5401455723434686,-0.3515112984523177,-0.8557466223724186
1789059094397927200,5.27292724609375,0.5492015699803829,-0.928045696516335,-0.2566233758814633
1789059094407937300,5.282937255859375,2.31053670399785,-1.3819094082012773,-0.2301242586756125
1789059094417947400,5.292947509765625,2.2545225558310746,-0.9301955680266022,-0.41946196812838316
1789059094427957200,5.302957275390625,-0.2690197699874639,0.7603446127995849,-0.2296610981432721
1789059094437967400,5.31296728515625,-1.3781956483751534,-0.27536329379528757,-0.26844211622998115
1789059094447977200,5.322977294921875,-1.4571522807121275,-0.4558294587999582,0.11526625534147024
1789059094457987300,5.3329873046875,-0.4841781859278679,-0.7301338911920785,0.7004410559788345
1789059094467997400,5.34299755859375,1.4145365433007477,0.2481619831368327,0.148242094280757
1789059094485516300,5.360516357421875,1.5309417395442724,-0.882250452286005,0.4763320024721324
1789059094495526400,5.3705263671875,-1.115878006374836,0.33013504068553445,-0.1649917151601985
1789059094505536300,5.380536376953125,-2.6719951037079093,0.9598100773066282,0.16861279173418878
1789059094515546400,5.39054638671875,-2.5337942552417516,0.8955071164831518,0.6714101918056606
1789059094525556200,5.40055615234375,-0.5845622216969728,-0.8520958447799086,0.2652816429050639
1789059094535566300,5.41056640625,0.42393852902054785,-0.6413789184182882,0.3792681971669197
1789059094545576400,5.420576416015625,0.7950783647894859,0.15717998196333646,0.4533757455049082
1789059094555586300,5.43058642578125,0.32809973546564575,1.3254592067047952,-0.3490336562924087
1789059094565596400,5.440596435546875,-0.6493401065558194,1.286240418255329,-0.059809083470329635
1789059094575606300,5.450606201171875,-0.5367629441678524,-1.0025783749312163,0.04832363019678741
1789059094585616400,5.460616455078125,-0.24484394463002682,-2.0705811159312724,-0.05229366633892059
1789059094595626200,5.470626220703125,0.40530338665544985,-1.0039026092723011,0.4587204310011118
1789059094605636400,5.48063623046875,1.1609744546860457,0.1501993292957544,0.3979399817479774
1789059094615646500,5.490646484375,1.269959145539999,0.3615688743472099,0.20768201564513145
1789059094625656300,5.50065625,1.1436667615324259,0.11635083570778369,0.5866560521710664
1789059094635666400,5.51066650390625,1.0371768101036547,-0.05229278955608606,0.4259343059476465
1789059094645676300,5.52067626953125,0.5890905127763748,-0.5758256652727722,0.13902316116709262
1789059094655686400,5.530686279296875,-0.3800783445060253,0.08846417313367128,0.5233950746811926
1789059094665696300,5.5406962890625,-0.6230570797860622,-0.6187927003398537,0.5796648415768518
1789059094675706400,5.550706298828125,-1.0531780968338251,0.2972819878757,0.27811737827640026
1789059094685716000,5.560716064453125,-0.24596681118011474,0.6536015633925795,0.3749653854064643
1789059094695725000,5.57072509765625,1.7923492809623478,-1.6196388446509837,0.2838280475407839
1789059094705735000,5.58073486328125,1.2396762354791164,-0.8566405024722218,0.6757984168272465
1789059094715745000,5.5907451171875,0.8440221361786127,-0.9947937124043702,1.1602000362474472
1789059094725755000,5.6007548828125,-0.5880296055465937,1.505296718417108,0.48034631614740936
1789059094735765000,5.610764892578125,-0.06441138963401317,1.200761982934177,0.22856840753573923
1789059094745775000,5.620775146484375,-0.6401736342817544,0.7857944036155938,0.3383498017253354
1789059094755785000,5.630784912109375,-0.9410469246476888,-0.4289236239567399,0.027644232120364903
1789059094765795000,5.640795166015625,-0.4735983397245407,-0.9080375122323632,-0.29137327528856694
1789059094775805000,5.650804931640625,1.1251678127676248,-0.9392778691485524,0.2756460927920416
1789059094785815000,5.66081494140625,1.7447031481683253,-0.4812286884725094,0.3762210114907473
1789059094795825000,5.670824951171875,1.2379863826960325,-0.21140461636483668,0.6892494345527141
1789059094805835000,5.6808349609375,-0.09991232660412788,0.30758973913937804,0.5749631666919216
1789059094815845000,5.69084521484375,-1.0410019213497639,-0.18354571858048438,0.07121409191880375
1789059094825855000,5.70085498046875,-1.7388871553659437,0.6313596287071704,0.39997419098932296
1789059094835864000,5.710864013671875,-1.0694874265998602,-0.4951987616360187,0.1134966153204441
1789059094845874200,5.720874267578125,-0.6337164209663868,-0.6813397574067115,0.24362784683853386
1789059094855884000,5.730884033203125,0.555829463687539,-1.145637477083504,0.5872941308788955
1789059094865894100,5.74089404296875,1.163146538028121,-0.5035200152575969,0.41353962887469675
1789059094875904000,5.750904052734375,1.4989169542521237,-0.2688181099355221,1.0905310914114117
1789059094885914000,5.7609140625,0.6089969902515411,-0.07406359959840775,1.2693212860278784
1789059094895924000,5.770924072265625,-1.6692583233445881,0.6386813498973846,0.4640352328157052
1789059094905934000,5.78093408203125,-1.7146499552100896,-1.8743208772063253,1.0788163228940217
1789059094915944200,5.790944091796875,-4.18852370249629,0.8334329376250504,1.0324124452460557
1789059094925954000,5.8009541015625,-3.959993179285526,0.949640565469861,1.0542445570215582
1789059094935964200,5.810964111328125,-2.5618355238556862,1.5417045410990715,0.9460925175994634
1789059094945974000,5.82097412109375,0.05809972226917744,0.7067167752474546,0.32593612769097086
1789059094955984100,5.830984130859375,2.2134178075045345,-0.2943590861663222,0.40712424540705977
1789059094965994200,5.840994140625,4.019104708945751,-0.7423384159877896,0.27116956843249496
1789059094976004000,5.851004150390625,4.642580890926719,-0.7457043852895497,0.37394152225144206
1789059094986014200,5.86101416015625,2.5181734922617673,0.6895388459533452,1.0350338067255913
1789059094996024000,5.871024169921875,0.28530981053113935,0.3267106191948056,0.604069397656247
1789059095006034200,5.8810341796875,-1.1852438035458326,-0.3437587846294045,0.42467444207966326
1789059095016043800,5.891043701171875,-1.4398194531172512,-0.0274558699414134,0.6335885568030178
1789059095026054000,5.901053955078125,-0.42709845435619354,0.26989275342971086,0.36866497008800503
1789059095036064000,5.91106396484375,1.097438678842783,1.0643518172770738,0.139380267509073
1789059095046073900,5.921073974609375,2.9392823508143424,0.11661854673326015,0.12312610199637711
1789059095056084000,5.931083984375,2.669024563464522,-0.6510334664702415,-0.2219119087886065
1789059095066093800,5.94109375,-0.3975678239673376,0.7006681427329778,-0.033959991138428444
1789059095076104000,5.95110400390625,-2.7144454214245077,0.33132980342805385,0.4468669846653938
1789059095086114000,5.961114013671875,-2.753917015591264,0.5090191971957684,0.5552348587952554
1789059095096124000,5.9711240234375,-0.7559528075814247,-1.061979242926836,0.3086037384875119
1789059095106134000,5.981134033203125,-0.5101940861940384,0.7826876697719096,-0.12421740436442195
1789059095116143900,5.991143798828125,0.41260874123275276,0.7113067333862185,0.472708112886548
1789059095126154000,6.001154052734375,0.21573709261119364,0.9322951706543564,0.2863961444631219
1789059095136163800,6.011163818359375,0.8308481818288564,-0.6004992110192775,-0.07848119684495031
1789059095146174000,6.021174072265625,0.37904315623939033,-1.0980457048252223,0.007960968941822648
1789059095156183000,6.03118310546875,0.6677823566973209,-0.775534875407815,0.29006255801618097
1789059095166193000,6.04119287109375,0.3318020971149206,0.6272074774637818,0.6693165074620395
1789059095176203000,6.051203125,0.08183598716557025,0.9138312932029365,1.0589805725675077
1789059095186213000,6.061213134765625,-1.0889543436139821,1.0612176109045743,0.6183369924616068
1789059095196223000,6.071222900390625,-1.6979074947237967,0.5868792664676904,0.40228571933470664
1789059095206233000,6.081233154296875,-1.5213351222872733,0.5611322462707757,0.348883361101523
1789059095216243000,6.091242919921875,-1.110398698180914,0.7959069245681166,1.0542728332679718
1789059095226253000,6.101253173828125,0.222575414198637,-0.2874015221133828,0.5646179694946855
1789059095236263000,6.111262939453125,0.6731541128635407,-0.9332076093241571,0.29210926141291854
1789059095246273000,6.12127294921875,1.0126093550801276,-1.1069412512034178,0.48142457637079056
1789059095256283100,6.131283203125,0.9478250404804944,-0.07948065621107817,0.593380099729076
1789059095266293000,6.14129296875,0.6070160455673933,-0.2539166011407971,0.5976314004980028
1789059095276303000,6.15130322265625,-1.6639578788489102,1.8431980091899631,1.0786359978910536
1789059095286313000,6.16131298828125,-1.9841735830664633,0.6401826943710446,0.5191097255121916
1789059095296323000,6.171322998046875,-2.2233616938918828,2.343971356087923,0.1311441348876804
1789059095306333200,6.181333251953125,-1.7993787412077187,2.43383282879889,0.6429641417831182
1789059095316343000,6.191343017578125,0.9252221635282039,1.2010831777125597,0.7713575166579335
1789059095326353200,6.201353271484375,1.2159662740677595,0.9678814478203653,0.47493068430684504
1789059095336363000,6.211363037109375,0.4550900386095047,0.3566644434317946,0.442672163324058
1789059095346373000,6.221373046875,0.2327928568303585,0.21480945637226104,1.0419970698669552
1789059095356383000,6.231383056640625,-0.4183201046168804,0.4918249012887478,0.9702518302135169
1789059095366393000,6.24139306640625,-0.2802145332187414,0.5423945203140378,0.7926896430220455
1789059095376403200,6.2514033203125,0.33167408682107924,0.18211393221169708,0.13972323572784662
1789059095386413000,6.2614130859375,0.5880220067620278,0.22577976319789886,0.17437427787035703
1789059095396423200,6.271423095703125,-0.11166121658682822,1.0936977387487887,0.36820641266554593
1789059095406433000,6.28143310546875,-1.297195527511835,1.1688953108131885,-0.4139981497645378
1789059095416443100,6.291443115234375,-1.2138672559618948,-0.6237079449102282,-0.06655585431680083
1789059095426453000,6.301452880859375,-0.6133008249253035,-1.5443421961262822,0.08176167982034385
1789059095436463000,6.311463134765625,-0.07050912198722362,-0.9849576703056693,-0.5321913254033774
1789059095446473200,6.32147314453125,0.4651490758091211,0.3524327972114086,-0.541486246362701
1789059095456483000,6.331483154296875,1.385190037307143,-0.7084241636872292,-0.13805727527700365
1789059095466493200,6.3414931640625,0.13928338300585746,0.1716325779467821,-0.3352107365146279
1789059095476503000,6.3515029296875,0.6078080727279186,-1.2484952094897628,0.14133962141592055
1789059095486513000,6.361512939453125,-0.18077742291092871,-0.9853101370051502,0.8439012862779199
1789059095496523000,6.37152294921875,-1.4392179800927638,0.9114858991205692,0.6302277020677923
1789059095506532900,6.381532958984375,-0.7916302701622248,-0.29287615413218737,0.6020443581020459
1789059095516543000,6.39154296875,-0.6261603064984083,0.8541986622780561,0.34570180845595894
1789059095526552800,6.401552734375,0.04833353053629398,-0.07852174805104732,-0.4771502965850755
1789059095536563000,6.41156298828125,0.7029729125440121,-0.24308570278584957,-0.2565852723607793
1789059095546572800,6.42157275390625,1.3288731068015098,-0.13419248960763216,0.4576114833785221
1789059095556583000,6.4315830078125,0.5862783779650926,0.09026099342256784,0.470528869151324
1789059095566593000,6.441593017578125,-0.8478899175226687,0.5674363148510456,0.6300806948125363
1789059095576603000,6.451602783203125,-2.167530501076579,1.141010986326635,0.44987142717838285
1789059095586613000,6.461613037109375,-1.5982622946232556,0.4275350922077894,-0.21475904135927557
1789059095596622800,6.471622802734375,-0.5569061530083418,-0.03458177629858255,-0.1819706878161058
1789059095606633000,6.481633056640625,0.1965466544508934,0.6463955775365233,0.15800967425312845
1789059095616643000,6.49164306640625,1.9523621482640503,-0.11560995421260595,-0.22848829150423405
1789059095626653000,6.50165283203125,3.2802474130719896,-0.8442445467576384,-0.4175465994937345
1789059095636663000,6.5116630859375,1.6049463024318218,-0.5643354262262582,-0.5894705981351435
1789059095646673000,6.5216728515625,-1.4611404735654592,0.7815405455633997,-0.16199797670431434
1789059095656683000,6.53168310546875,-2.5022850182563063,0.5017512520194053,0.12740388891343027
1789059095666692900,6.54169287109375,-0.7940887692302465,-0.044648704543709755,-0.12173581668175756
1789059095676703000,6.551702880859375,0.8134604091763495,-0.8808169123515486,-0.6457280535385013
1789059095686713300,6.56171337890625,0.8995032003819942,-0.08881663983315229,-0.45454004004392773
1789059095696723200,6.57172314453125,-0.8712848216354846,2.023766757786274,-0.35754108013585206
1789059095706733300,6.5817333984375,-2.006898625093698,1.9819293112710117,-0.16385401636715977
1789059095716743200,6.5917431640625,-1.256463704150915,0.6385939638748764,-0.3602028466910124
1789059095726753300,6.601753173828125,0.35159868447482584,-1.0941855222657322,-0.8076553761593998
1789059095736763100,6.61176318359375,0.9168366124987601,-0.8475704763099551,-0.6690626057662069
1789059095746773200,6.621773193359375,0.5739858826249837,0.9695227852866053,-0.2517936724363826
1789059095756782300,6.6317822265625,-0.16520926690101623,0.9171496239706873,-0.14644739288371056
1789059095766792200,6.641792236328125,-1.0783172142654656,1.4186565458402036,-0.45989261658564207
1789059095776802300,6.65180224609375,-2.5215146193832156,0.8348278991147875,-0.254779172786884
1789059095786812400,6.6618125,-4.206642127510905,2.5811314682170745,-0.19356173862228168
1789059095796822300,6.671822265625,-3.0770144127249717,1.3990774006232618,-0.6415523752890527
1789059095806832400,6.681832275390625,-0.9214905757844447,0.7587170115977525,-0.7716964662887156
1789059095816842200,6.69184228515625,2.502028997668624,-1.6039353718236087,-0.3412865492969751
1789059095826852400,6.701852294921875,3.2213153316318985,-0.617756927551329,-0.7425513280861079
1789059095836862200,6.7118623046875,2.9459961692392826,0.7495388488858937,0.003907400968391448
1789059095846872300,6.721872314453125,1.3981050484597681,1.8993150332093238,0.5600847099792212
1789059095856882400,6.73188232421875,-0.4552531202167272,0.6659718001440167,-0.10572245592130347
1789059095866892300,6.741892333984375,-2.0636656374543905,0.22386253139972687,0.4626146619606763
1789059095876902400,6.75190234375,-2.2468448608100413,-0.7208291794911027,0.36390835014544426
1789059095886912300,6.761912353515625,-2.0431711309581995,0.6826280436515808,-0.3663733520194888
1789059095896922400,6.77192236328125,-0.1447965934693813,1.2141148009821772,0.6173147367417812
1789059095906932500,6.781932373046875,0.9626005848079919,1.032463517846167,0.8659569046109914
1789059095916942300,6.7919423828125,1.4395529111355543,-0.15711246968507767,0.38846488191615786
1789059095926952400,6.801952392578125,0.9269909267663955,-0.8061386879861354,0.8039036954756825
1789059095936962300,6.81196240234375,-0.4849696285665035,-0.07203297055363654,1.180644931448251
1789059095946972400,6.821972412109375,-0.5957786122381686,-0.512554093323648,0.3396164971929043
1789059095956982300,6.831982177734375,1.151648407936096,-0.7532803735017776,0.6939183031465858
1789059095966992400,6.841992431640625,2.1719757900476453,-0.11271072563976049,0.7459725347064435
1789059095977002500,6.85200244140625,2.9561230109781027,-0.18497282877415416,0.21020963442660867
1789059095987012400,6.862012451171875,2.0667390535503625,0.8137330886378884,0.5530791785987094
1789059095997022200,6.872022216796875,0.21786650585532188,1.09971948325634,0.1717865629320964
1789059096007032000,6.882031982421875,-0.857443927809596,-0.7874053459435701,-0.06153202567226253
1789059096017042200,6.892042236328125,-0.8900152410686015,-0.31580344073325395,-0.04346610716301948
1789059096027052300,6.90205224609375,1.419496796056628,-1.5050088413864373,-0.316473741210252
1789059096037062100,6.912062255859375,3.258607828193903,-0.538747980505228,-0.03059620466060005
1789059096047072300,6.922072265625,3.405643140500784,0.07429097861349582,0.23807434089723972
1789059096057082000,6.93208203125,1.6513129168093204,0.6859115953668952,0.24863752822671084
1789059096067092200,6.94209228515625,-1.5978221496403215,2.0526570444449783,0.0055391303560696535
1789059096077102000,6.95210205078125,-2.272487836110592,-0.486348807965219,-0.1857223319672048
1789059096087112200,6.9621123046875,-3.064236179694533,-0.4027630545228719,-0.15202803342710247
1789059096097122300,6.972122314453125,-2.354862752458453,-0.14978811814635992,-0.05756683923518285
1789059096107132200,6.982132080078125,-0.9674772509336471,0.3516200195237994,0.17427520141005515
1789059096117142300,6.992142333984375,-0.2847773110896349,1.7802420790612696,0.4197243453916162
1789059096127152000,7.002152099609375,0.40869010648429394,0.21104805801212786,-0.03635948089505545
1789059096137162200,7.012162353515625,-0.09137363083958626,-0.5897460540756583,-0.598774469585903
1789059096147172000,7.022172119140625,-0.23135434845983982,-1.0242696899965404,-0.6710777449809014
1789059096157182200,7.03218212890625,-0.7275777769684791,0.3592512450546026,-0.0446564494587481
1789059096167192300,7.0421923828125,-1.4871832618385552,1.6141741495043038,-0.4137146201154217
1789059096177202200,7.0522021484375,-1.7523972098022698,1.3385343768551945,-0.6473983248382806
1789059096187212300,7.06221240234375,-1.5127169315457343,0.8153831939324736,-0.41431437610685823
1789059096197222100,7.07222216796875,-0.07541267611980437,-0.48423985298722977,-0.35238055556751785
1789059096207232300,7.082232177734375,0.5618038619220257,-0.008106149566173552,-0.1758694848641753
1789059096217242400,7.092242431640625,1.0498550898909569,0.5420990444988012,-0.5647014830596745
1789059096227252200,7.102252197265625,1.5994342610120773,-0.4062824608206749,-0.44764710219241677
1789059096237262300,7.112262451171875,1.0749778407096862,-0.9114975895583629,-0.49105194415487347
1789059096247272200,7.122272216796875,-0.6405366223752498,-0.5533586896598339,-0.23824956959998234
1789059096257282300,7.1322822265625,-1.8697703742951153,0.4774450782805681,-0.34883652628511186
1789059096267292200,7.142292236328125,-0.9482412200659512,-0.5972217967838048,-0.4705476834496483
1789059096277302300,7.15230224609375,-0.1855178954362869,0.5489221685171127,-0.04583081330063287
1789059096287312400,7.1623125,1.722409483295679,-1.4338859714150427,-0.03849047874149401
1789059096297322200,7.172322265625,1.7362562223404645,-0.35211773991286754,0.34756986735016104
1789059096307332400,7.182332275390625,0.40605975798070426,1.3542843191727996,0.32451679894495755
1789059096317342200,7.19234228515625,-0.6414671812236309,1.7563024005472658,0.04132837361511774
1789059096327352300,7.202352294921875,-0.8159580712109804,0.8270403139784932,-0.10570766934412532
1789059096337361400,7.212361328125,-1.5105676445573568,-0.10973667826503515,-0.11339392213094979
1789059096347371300,7.222371337890625,-1.5780974584728478,-0.8741746978580951,-0.13336082455646245
1789059096357381400,7.23238134765625,-0.6713157915204763,-1.0458473155543206,-0.4037604680623859
1789059096367391200,7.24239111328125,1.4572341137766838,-0.7947320355698466,-0.008213806625152937
1789059096377401300,7.2524013671875,2.6312919219195843,0.1204939268618822,0.10750444396724924
1789059096387411500,7.262411376953125,2.9408097065120935,0.2256625665590167,0.5984508636547252
1789059096397421300,7.27242138671875,1.5188409673839807,0.788062056286633,-0.030737805088376625
1789059096407431400,7.282431396484375,-0.49561201861202714,1.140878007596731,-0.48636860864423215
1789059096417441300,7.292441162109375,-0.9695943892180919,-0.44915304977595805,-0.30046149469465017
1789059096427451400,7.302451416015625,-0.5998965689510106,-1.683320458705723,-0.764843896980211
1789059096437461500,7.31246142578125,0.5187403807431459,-2.6801412930235267,-0.18123833668725564
1789059096447471400,7.322471435546875,0.5679314048916101,-0.8657593362122774,-0.08621315193702467
1789059096457481500,7.3324814453125,0.20538111829161643,0.6525239972889423,-0.7076850357577205
1789059096467491000,7.342490966796875,1.0701058507591485,-0.8650514802038669,-0.6290240984316915
1789059096477501200,7.352501220703125,-0.22020693150162696,-0.18755144709050653,-0.2966625042704865
1789059096487511000,7.362510986328125,-0.8240642207771539,-0.5217921695291996,0.019950325750047338
1789059096497521200,7.372521240234375,-1.2351543741405009,-0.4146171584457159,-0.5263218123154715
1789059096507531300,7.38253125,-1.2240747617214918,0.9171706667587161,-0.28930103559177367
1789059096517541000,7.392541015625,-1.103012679582834,0.9966451854899525,-0.21765618757288901
1789059096527551200,7.40255126953125,-0.5719476547956467,-0.08933627979308366,-0.41251740968748923
1789059096537561000,7.41256103515625,0.12141221075057983,-0.8556310331687331,-0.017074560251180083
1789059096547571200,7.4225712890625,0.48885728365480896,-0.461012706656754,-0.11274943194864318
1789059096557581300,7.432581298828125,0.5012772047668695,0.5626265764817595,0.09915237508229911
1789059096567591200,7.442591064453125,0.5772182886749506,0.6468763467907905,0.07140064573315903
1789059096577601300,7.452601318359375,0.0847661953985691,0.5650736773729323,0.5359339825304225
1789059096587611100,7.462611083984375,-0.47795244328081604,0.34165655165314673,0.6845083044402301
1789059096597621200,7.472621337890625,-0.12757307146787641,0.10244126055985689,0.4742495701748877
1789059096607631000,7.482631103515625,-0.3314402780652046,0.8910817012563347,0.24199856513626872
1789059096617641200,7.49264111328125,-0.289866743183136,0.8782467696025967,0.010799169776123016
1789059096627651300,7.5026513671875,-0.08416413785219191,0.15085253250747918,0.0582608676476404
1789059096637661200,7.5126611328125,0.8908826715528965,-0.7091384494364261,0.11331207080008461
1789059096647671300,7.52267138671875,0.8768348569780587,-0.398865170301497,0.1070608192524407
1789059096657681200,7.53268115234375,0.4093751661390066,1.2776941237062216,0.22524938264824448
1789059096667691300,7.542691162109375,-0.09800152454674244,0.8925485589385033,0.05989394874218851
1789059096677701000,7.552701171875,-1.1623977654874325,0.7230164604023098,0.23954700726568698
1789059096687711200,7.562711181640625,-0.05279284803271293,-1.7454799777597187,0.3458485234502703
1789059096697721300,7.572721435546875,0.5906698909223079,-3.2724986986413596,0.38426385002974417
1789059096707731200,7.582731201171875,-1.284824706238508,0.356812911991775,0.012640596391726284
1789059096717741300,7.5927412109375,-0.7397580441057682,0.9186556446194648,-0.052686866907589135
1789059096727751200,7.602751220703125,-0.09571195230484009,2.330502218183875,-0.04635574592361227
1789059096737761300,7.61276123046875,0.8854045324027537,0.9693152800157666,0.26748287927638736
1789059096747771100,7.622771240234375,1.8346727574288844,-0.8248346206277608,0.16121173996375873
1789059096757781000,7.632781005859375,1.666239267784357,-1.2169956171154974,-0.6967403748299926
1789059096767791000,7.642791015625,0.5740051718473435,-0.0005742927566170692,-0.9165840259771794
1789059096777801000,7.652801025390625,-1.4930892710119485,0.8217264254793524,-0.684419530178234
1789059096787811000,7.66281103515625,-2.764171867623925,0.7466212078735232,-0.6225123784501105
1789059096797821000,7.672821044921875,-1.8318448405265808,-0.5259498737305403,0.0590529222076293
1789059096807831000,7.6828310546875,-0.3730991531431675,-0.26153058327585454,-0.02095611439226195
1789059096817841200,7.692841064453125,1.8495856644004582,-0.5920943707674742,-0.46231217188276347
1789059096827851000,7.70285107421875,2.1543927870839834,0.9187950530901551,-0.767478848593682
1789059096837861000,7.712861083984375,2.641901578739285,0.06446399660408496,-0.9526480767227709
1789059096847871000,7.72287109375,1.3031331008672713,-0.057904784218966956,-1.0342699096810073
1789059096857881000,7.732881103515625,-0.936641383165121,-0.7277297526597977,-0.7996175425890832
1789059096867891200,7.74289111328125,-2.710523279544711,0.34847178462594747,-0.784808826644346
1789059096877900000,7.752900146484375,-1.7559826670736074,-0.38945787500888107,-0.16851802612282335
1789059096887910100,7.76291015625,-0.4612497302830219,0.27519115209877487,0.07663339528748765
1789059096897920300,7.772920166015625,1.8504431580126284,-0.991172307036817,-0.3558488161999732
1789059096907930000,7.78293017578125,1.4166636184573174,0.661888622483611,-0.6618865766569971
1789059096917940200,7.792940185546875,0.5336866054624319,0.453558298997581,-0.5235854096215218
1789059096927950000,7.8029501953125,-0.7223451370120048,0.7464853065341711,-0.3509100446235388
1789059096937960200,7.812960205078125,-0.6326672041743994,-0.2974631896615028,0.19906996238343416
1789059096947970000,7.822969970703125,0.3031681233048439,-1.5658596159294247,0.06118147693523206
1789059096957980200,7.832980224609375,0.5763064345270394,-0.15157792417258023,0.4340868519388139
1789059096967990300,7.842990234375,2.0145839188992976,-0.8712707931101321,0.5942094997579231
1789059096978000100,7.853000244140625,1.372929690670967,0.012188742704689502,0.1382010493955575
1789059096988010200,7.86301025390625,-0.15322247650921345,0.46407677040249107,0.03023597477977164
1789059096998020000,7.87302001953125,-1.1908967147409915,-0.05354074379056692,0.39021399060580875
1789059097008030200,7.8830302734375,-2.3246114065796135,0.7808662995636463,0.2218402317918837
1789059097018040000,7.8930400390625,-0.6292687939077616,-0.4994549577757716,0.4011519295318052
1789059097028050200,7.90305029296875,0.8838087876439094,-0.8730138373851776,-0.05322733959299512
1789059097038060300,7.913060302734375,1.8837819485127925,-1.5770160929769277,-0.2262606055174023
1789059097048070100,7.923070068359375,1.2328133639723062,-0.4350353848353028,-0.048017733452236276
1789059097058080300,7.933080322265625,-0.16355331638753412,-0.23702479531168935,-0.49423433705065395
1789059097068090000,7.943090087890625,-0.7087661089926958,0.6858785698801279,-0.4760011630825698
1789059097078100200,7.953100341796875,0.895113440990448,-2.0423875793650743,-0.2561679967967793
1789059097088110300,7.9631103515625,0.06966214976906776,-0.5754027636855841,-0.34657541295271366
1789059097098120200,7.9731201171875,0.5462298606932163,-1.0709507771506905,-0.01263519869740121
1789059097108130300,7.98313037109375,-0.018462708407640457,0.08905161763280629,-0.30153370876973495
1789059097118140200,7.99314013671875,0.18379121777415275,0.6587324965402483,-0.691200933946669
1789059097128150300,8.003150390625,1.1386778672039508,-0.6897136179983615,-0.31808870212621987
1789059097138160000,8.01316015625,1.5892711789160965,-1.0361118112206458,-0.44243236321881413
1789059097148170200,8.023170166015625,1.445664672014117,-0.7025678388744592,-0.5262343897603452
1789059097158180400,8.033180419921875,0.9223679431408643,-0.11278320635408162,0.12670173199344426
1789059097168190200,8.043190185546875,-0.18142215055525301,1.1205340154871344,-0.15100462692980654
1789059097178200300,8.053200439453125,-1.492737973356247,0.7109080894574522,-0.42778599822893737
1789059097188210200,8.063210205078125,-3.2416292208641764,1.0549860230386257,-0.33952523871287704
1789059097198220300,8.07322021484375,-3.2376123864382502,0.12979805404096842,-0.48438335311114783
1789059097208230100,8.083230224609375,-2.9032991832852364,0.5945289044380188,-0.40352991070952265
1789059097218240300,8.093240234375,-1.4368541735708713,0.38509734171181914,-0.8004305394724011
1789059097228250000,8.10325,1.13459498180449,-0.8782578755185008,-1.105433769249916
1789059097238260000,8.113260009765625,2.7993092319786546,-1.1619836317285894,-1.0633793189831078
1789059097248270000,8.12327001953125,2.458236617693305,-0.5710618118718266,-1.4501833184823394
1789059097258280000,8.133280029296875,0.6509995642006396,0.4867652798116207,-1.0341907069649547
1789059097268290000,8.1432900390625,-0.7124199553251266,0.12896978652328253,-0.921542305971682
1789059097278300200,8.153300048828125,-1.8375538658231496,0.5292316718801856,-1.1113079950455576
1789059097288310000,8.16331005859375,-0.8593383632540702,-0.24239772052168845,-0.5554255955943838
1789059097298320100,8.173320068359375,0.7336486213147639,-1.5905004284501074,-0.24296309931948779
1789059097308330000,8.183330078125,-0.6254997967630624,0.6223965700507164,-0.580662656975165
1789059097318340000,8.193340087890626,-0.27737667944431305,0.6941483855754137,-0.18782982564046977
1789059097328350000,8.203349853515626,-0.3856920927345753,0.6350505921795964,-0.10413684896398336
1789059097338360000,8.213360107421876,-0.13857903412878514,0.2847726349145174,-0.3700560225876048
1789059097348370200,8.2233701171875,1.115408050775528,-0.4971244690015912,0.17200849858708678
1789059097358380000,8.233380126953126,2.2545471057504414,-0.5210004346296191,0.3480434031460434
1789059097368390100,8.24339013671875,1.5612193889081478,-0.12168518247306347,0.5400755027819425
1789059097378400000,8.25339990234375,-0.586260842308402,0.7960358116447925,0.8369009790617972
1789059097388410000,8.26341015625,-1.5718074184179305,0.08848492366075515,0.38494083597585554
1789059097398420000,8.273419921875,-1.1844997071802617,-0.9033779959887266,0.3876807823337614
1789059097408429000,8.283428955078126,-0.4318623077571392,-0.396548710052669,0.9778574098464101
1789059097418440200,8.293440185546874,0.9796996036469936,-0.21571897243261337,0.6678587829343974
1789059097428449300,8.30344921875,2.0452824240237475,0.3865861189648509,0.5955248566728085
1789059097438459100,8.313459228515624,2.239808970823884,-0.18998598076105117,0.36968043074086304
1789059097448469200,8.32346923828125,-0.1099415531873703,-0.3031149318128824,-0.2733479171185754
1789059097458479000,8.33347900390625,-1.659077705591917,-0.38774522587209936,-0.1250189391388092
1789059097468489200,8.3434892578125,-1.6492109760940075,-0.01206862345635891,-0.047942165731685235
1789059097478499000,8.3534990234375,-0.6297831731706858,0.2159258931815624,-0.42423846181519326
1789059097488509200,8.36350927734375,0.32333529754281043,0.20101064812242983,0.16936784788519144
1789059097498519300,8.373519287109374,0.596150952681899,-0.27331746718138455,0.33529359249249097
1789059097508529200,8.383529052734374,-0.3913210385322571,-0.22706717265993356,-0.11608649481632746
1789059097518539300,8.393539306640625,-0.5560638569653034,-0.803381205971539,-0.12707765263374893
1789059097528549000,8.403549072265625,-0.361063262912631,-1.4196864734098313,-0.27658795848572626
1789059097538559200,8.413559326171875,0.44280338848829265,-1.5776149356529117,-0.028376825277809985
1789059097548569000,8.423569091796875,1.4504039754956959,-1.5683286363914608,0.3489906939335167
1789059097558579200,8.4335791015625,1.4958394465029239,-0.32962387629300355,0.29119379053581507
1789059097568589300,8.44358935546875,0.6147223821610212,0.8047779210269451,0.2046416981011629
1789059097578599200,8.45359912109375,-0.4736585454791784,1.5347151206031442,0.4533774260053411
1789059097588609300,8.463609375,-0.6907838775783777,-0.2246709251731634,0.34492238504868
1789059097598619100,8.473619140625,-2.3447703975111245,0.5801423594281077,-0.13164239413286558
1789059097608629200,8.483629150390625,-2.10186180485785,0.10023995112329721,0.028391956631571517
1789059097618639000,8.49363916015625,-1.2538812864422797,0.176461313277483,0.2176718417997472
1789059097628649200,8.503649169921875,0.8160399042755365,-0.947861280837655,0.22278646313343195
1789059097638659300,8.513659423828125,2.5085885023146868,-1.2303291459411383,0.21421733569800852
1789059097648669200,8.523669189453125,1.9984213041275738,0.17524784583449363,-0.1564257112636231
1789059097658679300,8.53367919921875,1.0171300473749636,0.2808066538929939,-0.8381228490069508
1789059097668689200,8.543689208984375,0.5538403356969356,-0.8368500525921583,-0.4675079869601875
1789059097678699300,8.55369921875,-1.0654933885276316,0.09791472304612397,-0.42293811980634927
1789059097688708600,8.56370849609375,-0.6535416498988866,-1.071399397701025,-0.8118757703334093
1789059097698718500,8.573718505859375,-1.6173206308364867,1.9030200252071021,-0.599580269543454
1789059097708728600,8.583728515625,-0.4793243161559105,1.3317650288507341,-0.47886254386305804
1789059097718738400,8.593738525390625,0.6244967572003602,-0.1302718090325594,-0.6545871403638273
1789059097728748500,8.60374853515625,1.4516618666023016,-1.3413456348836421,-0.27325674997009336
1789059097738758700,8.613758544921875,1.4953198065429925,-1.037760162949562,-0.47558491043187673
1789059097748768500,8.6237685546875,0.8861310931116342,-0.09054711688756942,-0.738513816198334
1789059097758778600,8.633778564453126,0.35275720686018464,0.27096213622689247,-0.25070878154281523
1789059097768788500,8.64378857421875,-0.5663403363078833,0.28991204362958667,-0.5250768172230571
1789059097778798600,8.653798583984376,-0.8932114067614078,-0.5488412122353911,-0.32738165032416583
1789059097788808700,8.66380859375,-1.2920382908791304,-0.5018082429036498,-0.12560531505886466
1789059097798818600,8.673818603515626,-1.9368489373117683,0.9630562196210026,-0.39653727534320204
1789059097808828700,8.68382861328125,-0.3908949220746755,-0.21838673033714293,-0.1243409028799273
1789059097818838500,8.693838623046876,1.5829700329452752,-1.4450336806342006,-0.08110400136290118
1789059097828848600,8.7038486328125,1.8730109636515377,-1.6863295773938298,-0.5967971416309475
1789059097838858500,8.7138583984375,0.33039106127321716,-0.09585399112403392,-0.12896238866811618
1789059097848868600,8.72386865234375,0.1890869860947132,-0.2564142631754279,0.17126460315091535
1789059097858878700,8.733878662109374,-0.8845318412214517,0.7575526439934969,0.08578851505047641
1789059097868888600,8.743888671875,-0.44289983460009097,0.14294570490568875,0.9220829156544059
1789059097878898700,8.753898681640624,-0.2583919929891825,-1.0756994329825043,0.26619543328173456
1789059097888908500,8.763908447265624,-1.5037830989837646,0.7711746343716979,0.16527522654300555
1789059097898918700,8.773918701171874,-0.4995990424215793,0.23735417339652776,0.04044402396206278
1789059097908928500,8.783928466796874,-0.43285307236015796,1.436367851358652,-0.43650622457284477
1789059097918938600,8.793938720703125,1.3207371466189621,0.008089198431372641,-0.36844274217206985
1789059097928948700,8.80394873046875,2.4380612601488827,-0.6011322482258081,-0.27079859796194355
1789059097938957600,8.81395751953125,1.7576707662910223,-0.3507686633914709,-0.08932900980208068
1789059097948967700,8.8239677734375,-1.4062608823865652,0.9323939548537135,-0.08544771138932555
1789059097958977800,8.833977783203125,-3.1185762571692464,1.827940526564419,-0.27329182128347457
1789059097968987600,8.843987548828125,-1.0784130758553743,-0.5331257567092776,0.3034688050181605
1789059097978997800,8.853997802734375,0.5777390976786613,-0.04096446307301521,0.1138527900806628
1789059097989007600,8.864007568359375,2.0071505540281533,-0.3667202657610178,0.2528738688885234
1789059097999017700,8.874017822265625,0.8809177423775195,1.6713050267413259,0.32642891617659475
1789059098009027800,8.88402783203125,-0.08542144443690776,1.1630223271265625,-0.31833321493919936
1789059098019037700,8.89403759765625,-1.231663024893403,0.01770224542915821,-0.3919248131116852
1789059098029047800,8.9040478515625,-1.6262579705297946,-1.0386974437996745,0.06006471133236773
1789059098039057700,8.9140576171875,-1.382706403797865,-0.653811406750977,-0.25787070906143633
1789059098049067800,8.92406787109375,0.5374211158156394,-0.636175796817243,-0.1406597037272062
1789059098059077600,8.93407763671875,0.9437450776904821,0.7947638920128345,0.11963472534981555
1789059098069087700,8.944087646484375,1.4743459920972586,-0.3531318853914738,-0.15776318867877126
1789059098079097900,8.954097900390625,0.8768038773179053,0.6600368571370839,0.21818382817618548
1789059098089107700,8.964107666015625,-0.1786035860031843,0.24796850639134643,0.1976519488116726
1789059098099117800,8.974117919921875,-1.733724658036232,0.5042021523028611,-0.14792327412255107
1789059098109127700,8.984127685546875,-7.585456297796965,2.183864380761981,1.9540794735759495
1789059098119137500,8.994137451171875,-0.4499561828523874,-1.6366551536425946,1.439208335481584
1789059098129147600,9.004147705078125,6.625646220490336,-3.3161618992790576,-2.4815423822179437
1789059098139157500,9.014157470703125,5.212138435715437,-1.0565814755365253,-5.046172212967276
1789059098149167600,9.024167724609375,6.062993048262595,-1.7618232097953557,-4.503394246293604
1789059098159177500,9.034177490234375,0.5877689087837934,1.2467246926859021,0.7487756094284356
1789059098169187600,9.0441875,-6.8963412302136415,4.504203516849875,3.7639234946966167
1789059098179197400,9.054197509765626,-7.512045024627446,1.5330521558269858,2.8959593419164418
1789059098189207600,9.06420751953125,-3.359047393542528,-1.9906068309843539,1.2638739804074168
1789059098199217700,9.0742177734375,2.0929151128143073,-3.05825535171926,0.00003655088441446423
1789059098209227500,9.0842275390625,4.947931034445762,-1.7396294981658458,-0.9204465466242283
1789059098219237600,9.094237548828126,3.29621129040122,2.448824938486516,-1.1383669015586375
1789059098229247500,9.10424755859375,1.343684306964278,1.1980544775411486,-1.1303906619824469
1789059098239257600,9.114257568359376,-0.6167559338152409,-1.2044850951105355,-0.7907076754245906
1789059098249267500,9.124267333984376,-3.014879151329398,-0.09291413827985524,-0.2634970427769236
1789059098259277600,9.134277587890624,-2.6947020255565644,0.00923866072744131,0.2916820672431029
1789059098269287700,9.14428759765625,-2.4397984592050315,2.2060364650815725,0.14483718120809644
1789059098279297500,9.154297607421874,0.4809095395207405,-0.09728957688510417,-0.7068257155146449
1789059098289307600,9.1643076171875,2.156989817839861,-1.200153787907958,-1.4087338483713567
1789059098299317500,9.1743173828125,2.309084751623869,-0.7744023642465472,-1.2878890622451902
1789059098309327600,9.18432763671875,1.3293079910874366,1.2257760126814246,-0.6054181819166988
1789059098319337700,9.194337646484374,1.0801514439553022,0.2253413717806339,0.33050562756359575
1789059098329347600,9.20434765625,-0.015077742144465446,-0.545480503630638,0.05367277267239987
1789059098339357700,9.214357666015625,-1.267114862024784,-1.2168582544714213,-0.1492574818683788
1789059098349367600,9.224367431640625,-1.8094015380501747,0.07631050174236297,0.4787466989310458
1789059098359377700,9.234377685546875,-1.0993465582907198,0.3286836728334427,0.13559853874696418
1789059098369387500,9.244387451171875,-0.6896604265064,1.0855202775120734,-0.013936609285324811
1789059098379397600,9.254397705078125,0.5711322467595339,-0.659259150762856,-0.1961639387436211
1789059098389407700,9.26440771484375,1.1254472142308949,-0.6029162090331316,-0.733642045443505
1789059098399417600,9.27441748046875,1.4377531682372093,-1.054392441059649,-0.12634564856477082
1789059098409427700,9.284427734375,-0.45605391520559785,0.8288333348751068,-0.07333199738822876
1789059098419437600,9.2944375,-0.07753624414503574,-0.41762715391665695,-0.035723813340021296
1789059098429447700,9.30444775390625,-0.1524573373556137,-0.5719622678428888,0.4213091303650289
1789059098439456800,9.314456787109375,0.09823591782450676,-0.6771823454663157,0.2607136408697814
1789059098449466600,9.324466552734375,1.122873564350605,-2.618276665262878,-0.15826127439402043
1789059098459476700,9.334476806640625,-0.9969336470425129,0.37333062381148335,-0.018439117469498886
1789059098469486600,9.344486572265625,-0.4171972380667925,0.8550164084017277,0.44487387461941685
1789059098487005700,9.362005615234375,-0.4174135111659765,0.8560156485721468,0.460189955564402
1789059098497015800,9.372015869140625,1.2346066771298647,-0.1926946551978588,0.020182225676625965
1789059098507025700,9.382025634765625,2.221587669956684,-0.395927655544877,-0.26098527915170416
1789059098517035800,9.392035888671876,1.2010410921365022,-0.20698533861786125,0.08198873004186898
1789059098527045600,9.402045654296876,-1.1175912400335073,0.41821810554713007,0.062155066641164006
1789059098537055700,9.4120556640625,-2.533202134567499,0.5626464502260089,0.06645607460360042
1789059098547065900,9.42206591796875,-1.0304928022950888,-1.093380343362689,0.12742696839491835
1789059098557075700,9.43207568359375,-0.09300503143370151,-0.2281625666812062,0.04087177068772725
1789059098567085800,9.4420859375,0.6996820543050766,0.4413339004576206,0.14975280937096103
1789059098577095700,9.452095703125,1.087667810934782,0.9815767956957221,0.162884038823843
1789059098587105800,9.462105712890626,1.8128969789505003,0.053574353799223894,-0.21530566065767778
1789059098597115600,9.47211572265625,0.8955582621484994,-0.5594590523615479,-0.43156774525735525
1789059098607125800,9.482125732421874,-0.506043396255374,-0.7676528899863362,-0.4422848079742864
1789059098617135600,9.492135498046874,-1.8023539576262235,-0.30849925519973037,0.05596468756843823
1789059098627145500,9.5021455078125,-1.687610557115078,0.8397758769109844,0.26333018004372716
1789059098637155600,9.512155517578124,0.06300386092364788,0.1932733318686485,-0.05316135255154222
1789059098647165400,9.52216552734375,0.39334348427057264,0.2942664394468069,-0.2433505642671138
1789059098657175600,9.532175537109374,-0.4642693703651428,1.0510513139382005,-0.26786022468879817
1789059098667185700,9.542185546875,0.1398655668079853,-0.2563493812456727,-0.6311299116045236
1789059098677195500,9.552195556640624,1.3380799110859631,-0.5569993842497468,-0.496693968629837
1789059098687206000,9.562205810546875,0.44080432362556454,-0.23535452401190995,-0.557023714973405
1789059098697215700,9.5722158203125,-0.2716816826730966,0.14741145214289425,-0.7402676741283386
1789059098707225900,9.582225830078125,-0.06567629500329494,-0.2420470073878765,-0.7032370433729142
1789059098717235700,9.592235595703125,0.5679594619423151,-0.40249972741156814,-0.8451758362583816
1789059098727245800,9.602245849609375,-0.9214502437740564,0.684656626869738,-0.7334569712001829
1789059098737256000,9.612255859375,-1.4284113393962383,0.9067398736372589,-0.3472968956276774
1789059098747265800,9.622265869140625,-1.8773194745004176,1.4941656680718063,-0.38574060805141924
1789059098757276000,9.63227587890625,-1.359516666868329,0.7055372100740671,-0.38781712206453084
1789059098767285800,9.64228564453125,-0.26991116586923597,-0.25762510026991364,-0.09099489718768745
1789059098777296000,9.6522958984375,1.4741875866651535,-1.524867972588539,0.18980936381882055
1789059098787305700,9.6623056640625,1.0510498526334762,-0.13377572550028563,0.5933715510964394
1789059098797314000,9.67231396484375,0.5856950251191854,1.0296335551172495,0.8215671432644128
1789059098807323600,9.68232373046875,1.4526444478988647,-0.1371463709771633,0.5006612648256122
1789059098817333800,9.692333740234375,1.2571236293643713,-0.49264644680470226,0.952408641943708
1789059098827343600,9.702343505859375,0.014632336464524269,-0.7131792492598295,0.7092218168709427
1789059098837353700,9.712353759765625,-2.1439836212724446,0.5420335780471564,0.06771881541525945
1789059098847363600,9.722363525390625,-1.2338584891110658,0.511753882856667,1.247757835125923
1789059098857373700,9.732373779296875,0.8354752571076154,-1.1933265722364186,2.0734612014122304
1789059098867383800,9.7423837890625,1.2014356444120406,-0.46356648279279467,1.2180199917271732
1789059098877393700,9.7523935546875,0.9951374112755059,-0.26776070983707906,-0.6860949891097843
1789059098887403800,9.76240380859375,0.7611597285747528,-0.4211746172651648,-0.8396341303527355
1789059098897413600,9.77241357421875,0.345606166061759,-0.7541542337268591,-0.30832397169806064
1789059098907423700,9.782423828125,-0.5044558348029852,0.056740416614711284,0.3079370547397062
1789059098917433900,9.792433837890625,-1.2813427093416452,0.7594830275341868,0.22016250783801078
1789059098927443700,9.802443603515625,-1.2594126170843838,0.24796646056473254,-0.15352823625644668
1789059098937453800,9.812453857421875,-1.7237398551166057,0.8047364199727773,-0.365511145699583
1789059098947463700,9.822463623046875,-0.6712661071598529,-0.2541191379755735,-0.7893816144526005
1789059098957473800,9.832473876953125,0.7766209170788526,-1.4422586629629135,-0.6669666564002633
1789059098967483600,9.842483642578125,2.0805425379753113,-1.891313513061404,-0.29266232871841635
1789059098977493800,9.85249365234375,1.058560374394059,0.14041881677657364,0.26218694655904545
1789059098987503900,9.86250390625,0.10170797784924507,0.681049834549427,0.48683797972165044
1789059098997513700,9.872513671875,-0.900495718550682,0.9584703531354665,0.26682344725327567
1789059099007523800,9.88252392578125,-0.669046677544713,0.609053104352951,0.12232099615857005
1789059099017533700,9.89253369140625,0.49141865857541556,-2.196012791456282,0.2927135291826911
1789059099027543800,9.902543701171876,-0.6852192291885614,-0.18361498442441224,0.5744497738096863
1789059099037553700,9.9125537109375,-0.6761673232048749,0.7349132344231009,0.23720791505994274
1789059099047563800,9.922563720703126,0.5895639755070209,0.522216532421112,0.05719051673607901
1789059099057574000,9.932573974609374,1.753411355280876,0.2570502229914069,-0.07950637517422438
1789059099067583700,9.942583740234374,3.151082688498497,-1.3583031994253396,0.05542823803760111
1789059099077593900,9.95259375,1.09833942707479,-0.4931003280520439,0.17257557615162802
1789059099087603700,9.962603759765624,-2.6108979531884193,0.9009665509328245,0.6529611465971916
1789059099097613800,9.97261376953125,-4.166450402376055,1.0692986260294914,0.18895020797252654
1789059099107624000,9.9826240234375,-2.4896231050819155,-0.6059145140662789,-0.616280863649398
1789059099117633800,9.9926337890625,-0.46870179985463617,0.7918222856029867,0.7307539227865636
1789059099127644000,10.002643798828124,2.477915716153383,-0.2802756157562136,0.3953014864705503
1789059099137653800,10.01265380859375,2.841220620512962,0.8381637655392289,0.629205519413203
1789059099147664000,10.022663818359375,2.8056173922121523,-1.690355764169991,-0.29825054064691064
1789059099157673700,10.032673828125,-1.643870199587941,0.8343991523087024,-0.834594821011275
1789059099167683800,10.042683837890625,-1.948843326488137,-0.9868597045347094,0.5094756357263773
1789059099177694000,10.05269384765625,-0.5030845464497804,-1.8334569518983364,-0.1382341844801791
1789059099187703800,10.062703857421875,-0.09215104495286941,0.7561044910117983,0.7571012469641863
1789059099197714000,10.0727138671875,1.7470698772996662,-1.128578790254891,1.253209378530085
1789059099207723800,10.082723876953125,-1.67141813172698,0.6637924102783203,-0.12258563844412565
1789059099217734000,10.09273388671875,-4.121457414439321,1.0769526479139924,-0.6479684528764337
1789059099227743700,10.10274365234375,1.9606933387577532,-0.6417682099968195,-0.2908390953466296
1789059099237753900,10.11275390625,2.3907500583976504,-1.2949421956270932,0.0927743462166749
1789059099247764000,10.122763916015625,5.287380431443452,-2.5789570467874405,1.105936604205519
1789059099257773800,10.13277392578125,3.2062036872178314,-1.03973146302253,0.29408825160199775
1789059099267784000,10.142783935546875,-1.6609224566757679,1.4769099973663686,-1.3044035591945051
1789059099277793800,10.152793701171875,-3.7067338730096813,1.5711787651255726,-0.7919402859594672
1789059099287804000,10.162803955078125,-3.5180326713621612,-0.37671938946694133,0.22247856622803955
1789059099297812700,10.172812744140625,-2.2863351596772667,-0.20923311754465101,-0.11997595826922915
1789059099307822600,10.182822509765625,-0.35292964081764217,0.4137558654412627,-0.2861559424990788
1789059099317832700,10.192832763671875,1.5527753856897353,0.46147214086204763,-0.07959003486968576
1789059099327842800,10.2028427734375,2.523116209360957,-0.6179732006505131,-0.15728925102408975
1789059099337852700,10.212852783203125,1.720387622079253,-1.1340008153036236,-0.17118024933570994
1789059099347862800,10.22286279296875,-1.0710364096075295,1.047342522548139,-0.4554099547462538
1789059099357872600,10.23287255859375,-2.074588013485074,0.45311523140519855,-0.8524631437223404
1789059099367882800,10.2428828125,-1.9911808314800261,0.5401201456412673,-0.1452564112671651
1789059099377892600,10.252892578125,-0.5539186616301536,-0.5298442508205771,-0.18991689758021382
1789059099387902700,10.26290283203125,0.5010083246976137,-0.43018443767279385,-0.3784998431429267
1789059099397912800,10.272912841796876,1.3431938930988312,0.5300611084416509,-0.3714082409141585
1789059099407922700,10.282922607421876,1.5617343526929617,0.5005255096167326,-0.8406815935790538
1789059099417932800,10.292932861328126,0.7403893277466297,0.19266046066731213,-0.9664582100842147
1789059099427942700,10.302942626953126,-0.016669979771971703,-0.9346665759608149,-1.001886885535717
1789059099437952800,10.312952880859376,-0.38747020832300183,-0.7703884524300694,-0.6954806570924819
1789059099447963000,10.322962890625,0.12305530178248882,-0.26194617833942174,-0.669742623919621
1789059099457972700,10.33297265625,0.016346154645085334,0.1989838184699416,-0.46090062458440656
1789059099467982800,10.34298291015625,-0.9895271701782942,1.0442474791422485,-0.40963498611897226
1789059099477992700,10.35299267578125,-2.132365664193034,0.7045940840050577,-0.798507389390096
1789059099488002800,10.3630029296875,-2.694920052221417,0.848756763485074,-0.11675366262132301
1789059099498012700,10.3730126953125,-0.3405255017966032,-0.43056145429164167,0.044064493181277066
1789059099508022800,10.383022705078124,2.550832483804226,-1.067467903470993,-0.1300571068359539
1789059099518033000,10.393032958984374,4.306836193665862,-2.725277488823235,-0.4282056118804961
1789059099528042800,10.403042724609374,2.9354642538309097,-2.596261817331612,-0.2160509625996463
1789059099538052900,10.413052978515625,-4.331844378194213,7.856329586696624,0.2997541318765841
1789059099548062700,10.423062744140625,0.28243454735577106,-2.579985805313289,0.3491337921986356
1789059099558072800,10.43307275390625,-1.9918682292222976,1.5244637757018207,0.40945886236708606
1789059099568082700,10.443082763671875,-6.283765796953439,1.4387418870136142,0.7974670134916901
1789059099578092800,10.4530927734375,-2.2198317662000653,-3.153433927799761,0.7399313548460602
1789059099588103000,10.46310302734375,5.2079158495843405,-1.1901122863650322,1.4259792899437247
1789059099598112800,10.47311279296875,6.451548713734746,-0.10797463702857493,-0.017653145590424538
1789059099608123000,10.483122802734375,8.050992911618948,-0.12089344757348298,-0.9157803814440965
1789059099618132700,10.4931328125,1.3567811044245957,1.969817433194816,-0.6739641140721738
1789059099628142800,10.503142822265625,-7.311032622939348,3.274883255690336,-1.6188655221909283
1789059099638153000,10.513153076171875,-8.651784383583069,-0.1515966288730502,0.26035580387543883
1789059099648162800,10.523162841796875,-5.0550984467446805,-1.1820040909722447,1.3910546915568411
1789059099658173000,10.5331728515625,1.2902432241559028,-2.6983158321395515,0.647535687482357
1789059099668182800,10.543182861328125,3.6675907801449297,0.9818892226457595,0.32783085539638995
1789059099678193000,10.55319287109375,4.986685420253872,1.1081088336780667,-0.7590155561529099
1789059099688202800,10.56320263671875,3.704719026055932,0.48781274303793903,-0.43850645847935227
1789059099698212900,10.573212890625,-0.2592436413824558,0.1892442224830389,-0.34504436746053396
1789059099708223000,10.583222900390625,-3.7176287765115497,0.34333412947654723,-0.5838238974850625
1789059099718232800,10.59323291015625,-4.013058414518833,0.7947793818429112,0.2235292077921331
1789059099728243000,10.603242919921875,-0.9274094444394111,-0.9056167148262262,0.6023373131666332
1789059099738252800,10.613252685546875,0.8638906197309494,-0.1333785428762436,0.6171097887542099
1789059099748263000,10.623262939453125,2.1674825702816247,-0.872867706912756,-0.34127281303256746
1789059099758272800,10.633272705078125,-0.8456611355572938,1.9393939456194638,-0.6573579933166503
1789059099768283000,10.643282958984376,0.6243564719468355,0.04150251547247171,-0.20866693502925335
1789059099778293000,10.65329296875,-0.4053226758778095,-0.7043988536939024,-0.7189642624020576
1789059099788302800,10.663302734375,0.6784212396115065,-2.2505434230670334,-1.0068353747885674
1789059099798312000,10.67331201171875,0.8073287745535374,-1.1720210416182875,0.6957808821480721
1789059099808322000,10.683322021484376,-0.6465338169634341,0.7501286314725876,0.5853244747737423
1789059099818332000,10.693331787109376,-0.6489414626270532,0.7619193147704004,-0.2594718241151422
1789059099828342000,10.703342041015626,-0.7316162387043237,0.17351561521440742,-0.4352478585422039
1789059099838352000,10.713351806640626,-0.6161784261882305,-0.816193633532524,-0.38883787994701413
1789059099848362000,10.723362060546876,-1.04328447932899,0.580723666447401,-0.6195458567947149
1789059099858372000,10.7333720703125,0.10010463430583476,0.7062301607742906,-0.08541523389182984
1789059099868382000,10.7433818359375,1.473393805938959,-0.6441194492980837,-0.6342971434637904
1789059099878392000,10.75339208984375,2.3245833495289085,-2.5069924652948976,-0.4431126005679369
1789059099888402000,10.76340185546875,2.5975141554802654,-4.729914890986681,0.6289089476194233
1789059099898412000,10.773412109375,-4.099429122504592,5.99209521921873,-0.17114055664613842
1789059099908422000,10.783421875,-1.2904916459590197,0.7644093780204654,-1.52886697909683
1789059099918432000,10.793431884765624,-0.039170565393567086,-1.288691318538785,-2.1563146950572727
1789059099928442000,10.803442138671874,-0.9944587813615798,0.731134592667222,-1.3421172037780285
1789059099938452000,10.813451904296874,0.0013537526965141295,-2.7059064333990213,-0.5921347027778625
1789059099948462000,10.823462158203125,0.23137363768219946,-0.6400017848461866,-0.6251496681511401
1789059099958472000,10.833471923828125,1.3899638275802135,0.7967375301733612,-0.641696313804388
1789059099968482000,10.84348193359375,1.9553192445039749,0.9488210657805204,-0.4161611364847049
1789059099978492000,10.853491943359375,1.7462836953580378,-0.2117766645476222,-0.48624089061133563
1789059099988502000,10.863501953125,0.9275392082989216,-0.7235898763760924,-0.3536425383273512
1789059099998512000,10.87351220703125,0.17603811942934988,-0.37818975428044793,-0.3227783943124115
1789059100008522000,10.88352197265625,-2.236274366956949,2.201055461798608,-0.8108098946675658
1789059100018532000,10.893531982421875,-3.4404759689509867,2.075772254833579,-0.8628822464060038
1789059100028542000,10.9035419921875,-2.32098152564466,0.4088087644279003,-0.024194840585160998
1789059100038552000,10.913552001953125,0.2110544877529144,-0.5021759071722627,-0.5354848139908165
1789059100048562200,10.923562255859375,2.2840081780344246,-0.6638727820381521,-0.6609312486935407
1789059100058571800,10.93357177734375,1.7566946147352456,1.113822535149753,-0.7280380148913711
1789059100068582000,10.943581787109375,0.20906711332798003,1.3430033389627933,-1.580957816340029
1789059100078591700,10.953591796875,-1.2929799556434154,0.5300634465292096,-1.019795321061462
1789059100088601900,10.963601806640625,-1.350809044277668,-0.8517442548632621,-0.5100131036039441
1789059100098611700,10.97361181640625,-1.9387369430154562,0.8759227105692029,-0.694620898457989
1789059100108621800,10.983621826171875,0.1653413688480854,-1.6616554471254348,-0.09457745011588559
1789059100118632000,10.9936318359375,-0.48473465076684946,0.8196735846027732,-0.3290110781569034
1789059100128641800,11.003641845703125,0.09428104271888732,-0.19124299508482218,-0.5737362917780876
1789059100138652000,11.01365185546875,-0.1212830314129591,1.178265781226754,-0.5619532803300767
1789059100148661800,11.023661865234375,2.0782570573866366,-0.06015139410197735,-0.21823385959668085
1789059100158672000,11.033671875,2.756657838732004,-0.5718927097380161,0.2947521588708274
1789059100168682000,11.043681884765626,0.8473474812090397,-0.12306406961083412,0.04874119802173227
1789059100178691800,11.05369189453125,-2.2921616738736628,1.2718991736918688,-0.11571193501604721
1789059100188702000,11.063701904296876,-2.740223421281576,0.6224260884061456,-0.09748798553403466
1789059100198711800,11.0737119140625,-1.651289535933733,-0.6438283573970198,0.0011919314646162092
1789059100208722000,11.083721923828126,-0.5864490583568811,-0.32980157094746826,-0.16378275949554516
1789059100218731800,11.093731689453126,1.967083332055807,-0.9473755431473254,-0.0036032486563548445
1789059100228742000,11.103741943359376,3.163331929218769,0.07688713258653879,0.07532518049944192
1789059100238752000,11.113751953125,1.9964783533662556,0.5013327343463897,0.002449238049332052
1789059100248761900,11.123761962890624,-0.4353863902300596,0.5220777084723115,-0.34944859376884996
1789059100258772000,11.13377197265625,-2.1321225030869244,-0.5877636480867863,-0.13223452394027263
1789059100268781800,11.14378173828125,-2.4666999101340767,-0.6825514712840318,-0.22627171143330632
1789059100278791000,11.153791015625,-1.3405688052922486,0.5116761414453387,-0.27911734909918157
1789059100288801800,11.1638017578125,0.8813000196933746,0.8621426070198416,0.21673302657967433
1789059100298811000,11.173810791015624,1.635427365413308,0.7587827703103422,-0.03790021666418761
1789059100308821000,11.183821044921874,1.4551491241961716,0.5454141603961586,0.15262467501284555
1789059100318830800,11.193830810546874,1.1068635097920894,-0.6097083533912897,-0.20828012766875326
1789059100328841000,11.203841064453124,0.47129999965429303,-1.0262421591132878,-0.4531393429331481
1789059100338851000,11.21385107421875,-0.5978787993878126,-0.4890931382372975,-0.016147599865682424
1789059100348861000,11.22386083984375,-1.6664806753247976,0.6362783804088831,-0.4017188061669469
1789059100358871000,11.23387109375,-1.4146259751498698,0.6443772234514356,-0.03319081513052806
1789059100368881000,11.243880859375,-0.7628343837887048,0.07988660666346549,0.38693785501196976
1789059100378891000,11.25389111328125,-0.41574703925848006,-0.7185413608148694,0.37793088414855297
1789059100388901000,11.263901123046875,-1.1607061591386794,0.4397629978790879,-0.32771263584420085
1789059100398911000,11.273910888671875,-0.23701310487389562,0.12729308548271656,-0.339628516424261
1789059100408921000,11.283921142578125,1.067536877053976,-0.20962503947168587,0.1076753618210554
1789059100418931000,11.293930908203125,2.5291771168351174,-1.7286656210809945,0.4741049740724265
1789059100428941000,11.303941162109375,1.3610598046571016,-0.21426380518823862,0.09252870089253411
1789059100438951000,11.313950927734375,-0.162091427141428,0.8617854641452432,-0.5873389929339289
1789059100448961000,11.3239609375,-0.3618599662482738,-0.05569762956351042,-0.7630129552260041
1789059100458971100,11.33397119140625,-1.0693342818647622,-0.7026683766394853,-0.2467175382158719
1789059100468981000,11.34398095703125,-2.215661202517152,-0.16997545838952063,0.11590429751668124
1789059100478991000,11.3539912109375,-1.829132658958435,0.35646687503308055,-0.4401000478137284
1789059100489001000,11.3640009765625,-0.24207798704802988,1.1730340180531142,-0.3693650081161409
1789059100499011000,11.374010986328125,2.271692886340618,-0.8236801898956299,-0.01830072277896106
1789059100509021000,11.38402099609375,2.5842268038839102,-0.5736676104560494,-0.492490744786337
1789059100519031000,11.394031005859375,2.7253923473745583,-2.022399853347242,-0.37856066995207216
1789059100529041200,11.404041259765625,0.9081009328573941,-0.7554483651906252,-0.11593746913392096
1789059100539050800,11.41405078125,-0.46201545395851135,-0.23335604367107152,-0.2654659864960238
1789059100549060900,11.424060791015625,-2.0533838974148035,1.2083397247120737,-0.2107781915621832
1789059100559070700,11.43407080078125,-2.483941552314162,0.8031582108706236,-0.317780659090355
1789059100569080800,11.444080810546875,-2.20874513951838,0.6883490516468882,-0.41174386803172525
1789059100579091000,11.454091064453126,0.19440087459385394,-1.1368567892566324,0.3037554947387427
1789059100589100800,11.464100830078126,2.0625877790898084,-1.2354995343163608,0.5922822945550084
1789059100599111000,11.47411083984375,2.6706279070079324,-0.7657771592423319,0.17279354801755398
1789059100609120800,11.484120849609376,1.2894658100426197,0.2505854108914733,0.05343543851887807
1789059100619131000,11.494130859375,-0.7692828292757272,1.2452172107324004,0.32582978123966605
1789059100629140700,11.504140625,-0.9659510642796755,-0.07406418412029743,0.49181467215567826
1789059100639150800,11.51415087890625,-0.9966747038453817,0.6691270493045449,0.9876263780582696
1789059100649161000,11.524160888671876,0.32821839340925213,-1.8634455551877618,0.924533889003098
1789059100659170800,11.5341708984375,-0.16192834553420543,-0.7919277918040752,0.2555722228607163
1789059100669181000,11.544180908203124,-0.4853443070977926,0.4867287471935153,0.3369050828097388
1789059100679190800,11.554190673828124,-0.9277057970374822,1.4347203764125704,-0.17663670637700707
1789059100689200400,11.564200439453124,0.35920915947854515,0.8550745683297515,-0.05814297688901424
1789059100699210500,11.57421044921875,2.1424860761910676,-0.26305004792809483,0.404226295475848
1789059100709220400,11.584220458984374,1.4217641564667225,-0.2942977113679051,-0.023222342291194943
1789059100719230500,11.59423046875,-1.4382827450692652,1.2186778711140156,-0.3758934235041961
1789059100729240300,11.604240234375,-2.7240958778232334,1.8131132520496844,-0.36453218113221225
1789059100739250400,11.61425048828125,-1.1304372776031493,-0.2854977343186736,-0.21862382702864705
1789059100749260500,11.624260498046874,0.03582768470644951,-0.6328057358622551,-0.055678239876450965
1789059100759270400,11.6342705078125,1.5803449451386928,-0.7518129312977194,0.5200219449862837
1789059100769280500,11.644280517578125,2.070916046974063,0.7043336795032024,-0.16700148408003151
1789059100779289600,11.65428955078125,1.2978513610720634,0.2832341733008623,-0.7073911673776805
1789059100789299500,11.664299560546874,-1.1996160277694463,0.04544306979179382,-0.6618235944233835
1789059100799309600,11.6743095703125,-2.4347937827855346,-0.26744682158231736,-0.2601578336179256
1789059100809319400,11.6843193359375,-1.5747469790011643,-0.6939788742274046,-0.3073754753341898
1789059100819329500,11.69432958984375,0.14184943410158157,-0.2461030047804117,0.1318583201721776
1789059100829339400,11.70433935546875,1.3521037602633237,0.28009295266568657,0.7312436790648847
1789059100839349500,11.714349609375,1.3948749804973601,0.46527211766690013,0.044940805658348834
1789059100849359600,11.724359619140625,0.3998936365664005,0.01633417194634676,-0.6041786667170003
1789059100859369200,11.734369140625,-0.6127344232141971,0.17853168981075285,-0.5828569886816665
1789059100869379300,11.74437939453125,-1.6058657553642988,0.20636954480707645,0.206208582091704
1789059100879389200,11.75438916015625,-0.9274719882816076,-1.171328383179009,0.5311545297015458
1789059100889399300,11.7643994140625,-0.179200967374444,-0.6308218685686587,0.6321746714171022
1789059100899409400,11.774409423828125,1.1864537638574837,-1.4123247124701737,0.637174598596245
1789059100909419300,11.784419189453125,0.47250469926893707,0.5886632272750139,-0.08266210839194245
1789059100919429400,11.794429443359375,0.03315817323625087,0.5265191980510949,-0.0571793194886297
1789059100929439200,11.804439208984375,-1.0387520965963601,0.6331976577892899,-0.01897050266615115
1789059100939449300,11.814449462890625,-0.8946762186169623,0.46184097417443987,0.2388990282183513
1789059100949459200,11.824459228515625,0.2451362055748701,-0.32719518784135576,0.22914386933613567
1789059100959469300,11.83446923828125,2.459970894140005,-2.102445449964702,0.28410679141692813
1789059100969479400,11.8444794921875,1.9654004935353993,-0.8221472812399268,0.1426295059628319
1789059100979489300,11.8544892578125,0.2780745985805988,0.9092036334022879,-0.4149889509001747
1789059100989499400,11.86449951171875,-0.12068681908547878,-0.7506587928265332,-1.0629545176997781
1789059100999509200,11.87450927734375,-0.9455085802316665,-0.7010209016934037,-0.941935617115721
1789059101009519400,11.884519287109375,-1.3884586837142705,-0.8063251504689455,0.03936468145987019
1789059101019529200,11.894529296875,-1.6587451126366852,1.4030539030387996,0.38208720011040564
1789059101029539300,11.904539306640626,-0.015230302357673644,0.9179235309526323,-0.05583557672947645
1789059101039549400,11.914549560546876,2.041537976798415,-0.9158005474492907,-0.2914636387194507
1789059101049559300,11.924559326171876,2.0623598155528304,-1.1896867544293404,-0.6932908919632434
1789059101059569400,11.9345693359375,0.36668811705708504,-0.43827334384322164,0.025044881543237713
1789059101069579300,11.944579345703126,-0.0663537558734417,-0.7005129521712661,0.7122513938251882
1789059101079589400,11.95458935546875,-0.3994184202700853,-0.6351715882107615,0.3524455105625093
1789059101089599500,11.964599609375,-0.7483049231767654,0.500509727525711,0.673236749645695
1789059101099609300,11.974609375,-0.4290115945011377,-0.2701882292449474,0.44729332031868396
1789059101109619500,11.984619384765624,-0.4113870904833078,-0.320814546893537,0.3158894385162741
1789059101119629300,11.99462939453125,0.13769289894402026,-0.5097326061621308,0.03081011227276176
1789059101129639400,12.004639404296874,0.6719587655991316,-0.44003830768913027,0.23729844288760796
1789059101139649300,12.014649169921874,0.5317179357379674,-0.4942109196424484,0.0852424894071184
1789059101149659400,12.024659423828124,0.35208208407759667,-0.8346344223693013,-0.10104315726496278
1789059101159669500,12.03466943359375,0.21348376072645187,-0.8339771275043487,0.1555789399748668
1789059101169679400,12.044679443359374,0.8941869737952947,-1.5059578126743436,0.5489764194549992
1789059101179689500,12.054689453125,-0.14469605570435523,0.27957974244654177,0.6000842004776
1789059101189699300,12.06469921875,0.08813479504883288,-1.9149249825343488,1.147400395102799
1789059101199709400,12.07470947265625,-2.4482015458911657,1.2522224133193491,0.1424207677161321
1789059101209718500,12.084718505859374,-0.3093628862917423,-0.2978235474064946,0.18053473672885448
1789059101219728400,12.094728271484374,0.7846019789606332,1.2021133975431322,-0.07370229200534523
1789059101229738500,12.104738525390625,3.8460868141204116,-1.1760986663207411,-0.2028919318243861
1789059101239748400,12.114748291015625,1.9201976622402668,0.5223834134206176,0.0822946907185018
1789059101249758500,12.124758544921875,-1.4020003023326395,0.636677608859539,0.5533773578276857
1789059101259768600,12.1347685546875,-3.1823709762096404,1.3420081904456018,0.10929087072629481
1789059101269778400,12.1447783203125,-2.0331407353311777,-0.34682518646270033,0.2300851322416216
1789059101279788500,12.15478857421875,0.08362170153856277,-0.21622312256246803,0.6831466606982052
1789059101289798400,12.16479833984375,1.7528215726941823,-0.5430968233644962,0.35192134055793284
1789059101299808500,12.17480859375,2.3663971229076384,0.43550358686894175,0.14898830953817813
1789059101309818600,12.184818603515625,1.2321148603141308,0.16837474519461393,0.08477485362906008
1789059101319828500,12.194828369140625,-1.3460638955771922,0.5606351104035974,-0.43552378940675407
1789059101329838300,12.20483837890625,-2.1448767707198857,0.15033026219904422,0.03830101601742208
1789059101339848200,12.21484814453125,-0.8734294324487447,-1.156917580510676,0.3275004909308627
1789059101349858300,12.2248583984375,-0.32665012117922304,-0.16551380280554293,0.07503372327219694
1789059101359868400,12.234868408203125,0.43974049378633495,-0.34973347512483594,-0.11839468956030905
1789059101369878300,12.244878173828125,-0.6442576887249947,1.0705717147052287,-0.3063363050121814
1789059101379888400,12.254888427734375,0.2479933485716581,0.49773207950592036,-0.08099146263282746
1789059101389898200,12.264898193359375,0.6485375580012798,0.1187879997268319,-0.3300733736261725
1789059101399908400,12.274908447265625,1.589781466525793,-1.1551514476209879,-0.46524928478058425
1789059101409918200,12.284918212890625,1.523071736821532,-0.9052338529884815,0.2686450549235567
1789059101419928300,12.29492822265625,0.08356091126203537,-0.2791059874549508,0.4101657685274258
1789059101429938400,12.3049384765625,-1.674592670109868,0.3134732442200184,0.4763995878156274
1789059101439948300,12.3149482421875,-2.380723169901967,0.24062311206459996,1.1234065021835267
1789059101449958400,12.32495849609375,-1.8443647148817777,0.2821612833723426,0.6084675230173394
1789059101459968300,12.33496826171875,-0.100991938534379,-0.24081717333197591,-0.19266195850465445
1789059101469978400,12.344978271484376,1.4899264230668543,0.0700742377012968,0.44412842654697593
1789059101479988200,12.35498828125,2.9184856465011833,-1.05841862783581,0.9269207110743969
1789059101489998300,12.364998291015626,1.8341788364320992,-0.9798156312420964,1.1416865475006401
1789059101500008400,12.375008544921876,-1.0832377195328473,0.6332721843302249,1.1859868769980966
1789059101510018300,12.385018310546876,-1.9349936648339032,-0.6490303099542856,0.31349129133336245
1789059101520028400,12.3950283203125,-2.249527816283703,-0.6810369750678539,0.1637718545090407
1789059101530038300,12.405038330078124,-1.4984440760433673,-0.8096294527113437,0.12689064216166734
1789059101540048400,12.41504833984375,-0.6264303556114434,0.38801965889930723,-0.24393610907010732
1789059101550058200,12.425058349609374,2.248445281744003,0.44797436138540503,-0.3082179540403187
1789059101560068400,12.435068359375,5.3726434704482555,-1.4369959201291203,0.2963478488307446
1789059101570078500,12.445078369140624,4.982510180395841,-1.8783716139018534,0.007617927657812834
1789059101580088300,12.45508837890625,2.571621589332819,-0.8690513634949922,0.15099369454383849
1789059101590098400,12.465098388671874,-0.5973369475960731,0.24395284100919962,0.17992303457129746
1789059101600107500,12.475107421875,-3.493098136591911,0.7870245299324393,0.03455211181268096
1789059101610117400,12.485117431640624,-4.232523003220558,0.4463587428823113,0.4814835400164127
1789059101620127500,12.49512744140625,-3.383117420437932,0.4637941540688276,-0.4082695064520463
1789059101630137300,12.505137451171874,-0.663179246816039,-0.6486953789114952,-0.27524218816626816
