time,seconds_elapsed,z,y,x
1789059089172717300,0.04771728515625,0.30159392952919006,0.12577785551548004,0.012693697586655617
1789059089182727400,0.0577275390625,0.2804976999759674,0.12797708809375763,0.01723571866750717
1789059089192737300,0.0677373046875,0.24115745723247528,0.14230501651763916,0.007763757836073637
1789059089202747400,0.077747314453125,0.19049561023712158,0.16383907198905945,-0.012768413871526718
1789059089212757200,0.08775732421875,0.14891278743743896,0.17163987457752228,-0.02106286585330963
1789059089222767400,0.097767333984375,0.15413230657577515,0.15666332840919495,-0.02080613747239113
1789059089232776200,0.107776123046875,0.1481223851442337,0.15957845747470856,-0.035502806305885315
1789059089242786000,0.1177861328125,0.15268544852733612,0.16076596081256866,-0.013039041310548782
1789059089252796200,0.127796142578125,0.11154085397720337,0.1638372242450714,-0.021102383732795715
1789059089262806300,0.13780615234375,0.09362710267305374,0.16816139221191406,-0.010382359847426414
1789059089272816000,0.147816162109375,0.0910707414150238,0.16760505735874176,-0.013391396962106228
1789059089282826200,0.157826171875,0.08438407629728317,0.1750882863998413,0.002861608983948827
1789059089292836000,0.167836181640625,0.03694256395101547,0.18285514414310455,-0.022060461342334747
1789059089302846200,0.17784619140625,0.001471920171752572,0.18703976273536682,-0.02122476138174534
1789059089312856300,0.187856201171875,-0.02141346037387848,0.18268409371376038,-0.004472856875509024
1789059089322866200,0.1978662109375,-0.023307766765356064,0.1677171289920807,0.023719366639852524
1789059089332876300,0.207876220703125,-0.040194302797317505,0.15240605175495148,0.025613078847527504
1789059089342886100,0.21788623046875,-0.08289968967437744,0.1645175814628601,0.032048873603343964
1789059089352896300,0.227896240234375,-0.1386718451976776,0.1678977608680725,0.030598625540733337
1789059089362906000,0.237906005859375,-0.1797252744436264,0.16932281851768494,0.029388219118118286
1789059089372916200,0.247916259765625,-0.21097110211849213,0.15994125604629517,0.0227222703397274
1789059089382926300,0.25792626953125,-0.14548823237419128,0.10734862834215164,0.0335908941924572
1789059089392936200,0.267936279296875,-0.20138294994831085,0.12675674259662628,0.01964264176785946
1789059089402946300,0.2779462890625,-0.16913259029388428,0.13470815122127533,0.04797095060348511
1789059089412956200,0.2879560546875,-0.254480242729187,0.14802297949790955,0.0048557487316429615
1789059089422966300,0.29796630859375,-0.26272377371788025,0.1669364869594574,0.03688238933682442
1789059089432976100,0.30797607421875,-0.2793477773666382,0.1616194248199463,0.03895793855190277
1789059089442986200,0.317986328125,-0.25040242075920105,0.14706790447235107,0.1002734899520874
1789059089452996400,0.327996337890625,-0.2785024642944336,0.13796697556972504,0.09312226623296738
1789059089463006200,0.338006103515625,-0.2643623948097229,0.1306038647890091,0.06275477260351181
1789059089473016300,0.348016357421875,-0.28078320622444153,0.14126446843147278,0.0600825697183609
1789059089483026200,0.358026123046875,-0.3090380132198334,0.13696958124637604,0.05002114921808243
1789059089493036300,0.368036376953125,-0.3400459885597229,0.11526370793581009,0.024176115170121193
1789059089503046400,0.37804638671875,-0.3862300217151642,0.12432803958654404,0.03365243971347809
1789059089513056300,0.38805615234375,-0.41869184374809265,0.11234584450721741,0.018976053223013878
1789059089523066400,0.39806640625,-0.447174608707428,0.10019063949584961,0.014001268893480301
1789059089533076200,0.408076171875,-0.4621921479701996,0.07912794500589371,0.020215356722474098
1789059089543086300,0.41808642578125,-0.4902717173099518,0.059500452131032944,0.03008476458489895
1789059089553096200,0.42809619140625,-0.48135945200920105,0.05588729307055473,0.024835554882884026
1789059089563106300,0.438106201171875,-0.49370959401130676,0.032902881503105164,-0.028841255232691765
1789059089573116400,0.448116455078125,-0.4598890244960785,0.022937200963497162,-0.03621132671833038
1789059089583126300,0.458126220703125,-0.4344651401042938,0.019887350499629974,-0.009715269319713116
1789059089593136400,0.468136474609375,-0.40458744764328003,0.01835440844297409,0.0005674064159393311
1789059089603146200,0.478146240234375,-0.3629198968410492,0.021312914788722992,-0.014267997816205025
1789059089613156400,0.48815625,-0.3282569348812103,0.03281054273247719,-0.007848447188735008
1789059089623166200,0.498166259765625,-0.28912895917892456,0.027496205642819405,0.01981993392109871
1789059089633175300,0.50817529296875,-0.24622415006160736,0.00991814211010933,0.00812683068215847
1789059089643186400,0.5181865234375,-0.195162832736969,-0.009426260367035866,0.005248486064374447
1789059089653195300,0.5281953125,-0.17206554114818573,-0.008224565535783768,0.010364068672060966
1789059089663205400,0.538205322265625,-0.18698003888130188,0.0020829327404499054,0.019140515476465225
1789059089673215200,0.54821533203125,-0.20742055773735046,0.0009804521687328815,0.021794067695736885
1789059089683225300,0.558225341796875,-0.21432852745056152,-0.004368240479379892,0.01725710555911064
1789059089693235500,0.5682353515625,-0.23539651930332184,-0.0008589415811002254,0.03522743657231331
1789059089703245300,0.578245361328125,-0.24452051520347595,-0.012668728828430176,0.03997691720724106
1789059089713255400,0.58825537109375,-0.24876295030117035,-0.02114267461001873,0.02648775465786457
1789059089723265500,0.598265625,-0.24843724071979523,-0.022974930703639984,0.033913712948560715
1789059089733275400,0.608275390625,-0.24685505032539368,-0.018425142392516136,0.04672982916235924
1789059089743285500,0.618285400390625,-0.252178430557251,-0.027014637365937233,0.04067752882838249
1789059089753295400,0.62829541015625,-0.2660077214241028,-0.035098858177661896,0.033015333116054535
1789059089763305500,0.638305419921875,-0.2939669191837311,-0.030634868890047073,0.030593721196055412
1789059089773315000,0.648315185546875,-0.3033313751220703,-0.035510335117578506,0.015345929190516472
1789059089783325200,0.6583251953125,-0.3187044560909271,-0.02920849621295929,0.0023718064185231924
1789059089793335300,0.668335205078125,-0.32147255539894104,-0.035728394985198975,0.029628047719597816
1789059089803345200,0.67834521484375,-0.32135483622550964,-0.0428004190325737,0.0316360741853714
1789059089813355300,0.688355224609375,-0.31918230652809143,-0.03365013375878334,0.041299909353256226
1789059089823365000,0.698365234375,-0.32375308871269226,-0.033375825732946396,0.04853811487555504
1789059089833375200,0.708375244140625,-0.32961252331733704,-0.029238849878311157,0.05566292256116867
1789059089843385300,0.71838525390625,-0.3489958345890045,-0.033438388258218765,0.06091627478599548
1789059089853395200,0.728395263671875,-0.3584801256656647,-0.04696132615208626,0.061015136539936066
1789059089863405300,0.7384052734375,-0.3598303496837616,-0.059038762003183365,0.057274989783763885
1789059089873415200,0.748415283203125,-0.35340094566345215,-0.06744156032800674,0.06385798752307892
1789059089883425300,0.75842529296875,-0.3534989655017853,-0.07440172880887985,0.05780169367790222
1789059089893435100,0.76843505859375,-0.37538403272628784,-0.06278321892023087,0.05132643133401871
1789059089903445200,0.7784453125,-0.3951137959957123,-0.061077993363142014,0.055229026824235916
1789059089913455400,0.788455322265625,-0.3961612284183502,-0.05753490701317787,0.057227861136198044
1789059089923465200,0.79846533203125,-0.3867597281932831,-0.06400559097528458,0.053313013166189194
1789059089933475300,0.808475341796875,-0.37452834844589233,-0.07619515061378479,0.05801009759306908
1789059089943485200,0.818485107421875,-0.38617169857025146,-0.09366282820701599,0.04916946962475777
1789059089953495300,0.828495361328125,-0.39552760124206543,-0.09138461947441101,0.058333102613687515
1789059089963505200,0.838505126953125,-0.4017183780670166,-0.10510203242301941,0.05728435143828392
1789059089973515300,0.848515380859375,-0.3983133137226105,-0.12481430917978287,0.05031634494662285
1789059089983525400,0.858525390625,-0.3984464704990387,-0.12785591185092926,0.04575221985578537
1789059089993535200,0.86853515625,-0.4083627760410309,-0.1301836520433426,0.024579130113124847
1789059090003545300,0.87854541015625,-0.4116317927837372,-0.1187131479382515,0.01634676568210125
1789059090013555200,0.88855517578125,-0.39712393283843994,-0.11464555561542511,0.00935053825378418
1789059090023565300,0.8985654296875,-0.3586617708206177,-0.1181579977273941,0.0517192967236042
1789059090033575400,0.908575439453125,-0.3126052916049957,-0.12411896884441376,0.03025701828300953
1789059090043585300,0.918585205078125,-0.2682031989097595,-0.134916752576828,-0.03604583442211151
1789059090053595400,0.928595458984375,-0.21740052103996277,-0.14206135272979736,-0.04655037075281143
1789059090063605200,0.938605224609375,-0.16347897052764893,-0.14162646234035492,-0.019727280363440514
1789059090073615400,0.948615478515625,-0.11201070249080658,-0.1319776326417923,-0.0006915226113051176
1789059090083624400,0.95862451171875,-0.07438316196203232,-0.13730768859386444,-0.05306391417980194
1789059090093634300,0.96863427734375,-0.025623610243201256,-0.12727469205856323,-0.02304464392364025
1789059090103644400,0.97864453125,0.01797153614461422,-0.1160779744386673,-0.014412540942430496
1789059090113654300,0.988654296875,0.061802636831998825,-0.10113673657178879,-0.0007085399702191353
1789059090123664400,0.998664306640625,0.10133139789104462,-0.10786814242601395,-0.01443154364824295
1789059090133674500,1.008674560546875,0.1465873122215271,-0.1067906841635704,-0.002613019198179245
1789059090143684400,1.018684326171875,0.18873262405395508,-0.1105358898639679,0.013533993624150753
1789059090153694500,1.028694580078125,0.23173999786376953,-0.1207306832075119,0.03426382318139076
1789059090163704300,1.038704345703125,0.2599585950374603,-0.1176677718758583,0.049692049622535706
1789059090173714400,1.04871435546875,0.2856863737106323,-0.10902388393878937,0.06591973453760147
1789059090183724300,1.058724365234375,0.31956765055656433,-0.10910031944513321,0.06439480930566788
1789059090193734400,1.068734375,0.3486911654472351,-0.09350790828466415,0.047624651342630386
1789059090203744500,1.07874462890625,0.3736359179019928,-0.0926559641957283,0.030957523733377457
1789059090213754400,1.08875439453125,0.4005793631076813,-0.07967047393321991,0.007372195366770029
1789059090223764500,1.098764404296875,0.43619248270988464,-0.07798708975315094,0.025322167202830315
1789059090233774300,1.1087744140625,0.4783806800842285,-0.09029409289360046,0.03499796614050865
1789059090243784400,1.118784423828125,0.48646628856658936,-0.06746841222047806,0.03742843493819237
1789059090253794300,1.128794189453125,0.4873909652233124,-0.055701132863759995,0.03744598105549812
1789059090263804200,1.13880419921875,0.4954288899898529,-0.04801924526691437,0.0026421966031193733
1789059090273814300,1.148814208984375,0.5016774535179138,-0.04164282977581024,0.015334753319621086
1789059090283824000,1.15882421875,0.5086232423782349,-0.04045452922582626,0.029164016246795654
1789059090293834200,1.168834228515625,0.5091841220855713,-0.03647975996136665,0.009668346494436264
1789059090303844000,1.178843994140625,0.5069811344146729,-0.03325334191322327,-0.010771680623292923
1789059090313854200,1.188854248046875,0.5145012140274048,-0.02805652655661106,-0.006156607531011105
1789059090323864300,1.1988642578125,0.5207729339599609,-0.02949143759906292,0.01008947379887104
1789059090333874200,1.208874267578125,0.5184871554374695,-0.01339987013489008,0.014262528158724308
1789059090343884300,1.21888427734375,0.5225873589515686,-0.0010928702540695667,0.004034391138702631
1789059090353894100,1.22889404296875,0.535944402217865,0.0005120020359754562,-0.015439322218298912
1789059090363904300,1.238904296875,0.5461456775665283,0.010484475642442703,-0.00010084547102451324
1789059090373914400,1.248914306640625,0.552672266960144,0.004443996120244265,0.003613172797486186
1789059090383924200,1.25892431640625,0.5437155365943909,0.019641324877738953,0.010700643062591553
1789059090393934300,1.268934326171875,0.5184234380722046,0.029575534164905548,0.0015333613846451044
1789059090403944200,1.278944091796875,0.5009658932685852,0.03114333748817444,0.008341998793184757
1789059090413954300,1.288954345703125,0.47897589206695557,0.044257696717977524,-0.002891120733693242
1789059090423964200,1.298964111328125,0.43709635734558105,0.05217953398823738,-0.017884185537695885
1789059090433974300,1.308974365234375,0.4024031162261963,0.05675419420003891,-0.027353957295417786
1789059090443984400,1.318984375,0.35987722873687744,0.05386120080947876,-0.007185306865721941
1789059090453994200,1.328994140625,0.3217998743057251,0.04739488288760185,-0.014072800055146217
1789059090464004400,1.33900439453125,0.2744385004043579,0.042654190212488174,-0.03509845957159996
1789059090474014200,1.34901416015625,0.217363178730011,0.03592659905552864,-0.02673974446952343
1789059090484024300,1.3590244140625,0.1585446000099182,0.03363734483718872,-0.026414304971694946
1789059090494034200,1.3690341796875,0.10713127255439758,0.04054010286927223,-0.023780275136232376
1789059090504044300,1.379044189453125,0.07183746993541718,0.04287463054060936,-0.0226588174700737
1789059090514054400,1.389054443359375,0.03945928066968918,0.04626303166151047,-0.026188518851995468
1789059090524064300,1.399064208984375,0.013755513355135918,0.049862295389175415,-0.02210908941924572
1789059090534074400,1.409074462890625,0.0030107093043625355,0.05080234631896019,-0.020743073895573616
1789059090544084200,1.419084228515625,-0.012611660175025463,0.057876501232385635,-0.017604803666472435
1789059090554094300,1.42909423828125,-0.013344583101570606,0.054984111338853836,-0.020125767216086388
1789059090564104200,1.439104248046875,-0.010829760693013668,0.05361657589673996,-0.005439233034849167
1789059090574113300,1.44911328125,-0.011879587545990944,0.052064280956983566,-0.021424539387226105
1789059090584123400,1.459123291015625,-0.011572524905204773,0.050011783838272095,-0.0426320917904377
1789059090594133500,1.469133544921875,-0.024795910343527794,0.06305615603923798,-0.027875833213329315
1789059090604143400,1.479143310546875,-0.038946084678173065,0.07285312563180923,0.002591528929769993
1789059090614153500,1.489153564453125,-0.034739065915346146,0.06558587402105331,0.0037647862918674946
1789059090624163300,1.499163330078125,-0.04410859942436218,0.06600318849086761,-0.026166215538978577
1789059090634173400,1.50917333984375,-0.06087585911154747,0.05985181778669357,-0.035237476229667664
1789059090644183300,1.519183349609375,-0.07893102616071701,0.0584360808134079,-0.005885976832360029
1789059090654193400,1.529193359375,-0.0917922854423523,0.047940339893102646,-0.008151335641741753
1789059090664203500,1.53920361328125,-0.10740213841199875,0.04220149293541908,0.005195362959057093
1789059090674213400,1.54921337890625,-0.1318056583404541,0.03929102048277855,0.004927215166389942
1789059090684223000,1.559222900390625,-0.16098430752754211,0.035224903374910355,-0.004824747797101736
1789059090694232800,1.56923291015625,-0.16774213314056396,0.019181517884135246,-0.001002245582640171
1789059090704243000,1.579242919921875,-0.17590764164924622,0.017745541408658028,0.006594687234610319
1789059090714253000,1.589253173828125,-0.20523066818714142,0.017867736518383026,0.004846400581300259
1789059090724263000,1.599262939453125,-0.22567522525787354,0.02017563208937645,0.004685279913246632
1789059090734273000,1.60927294921875,-0.242173969745636,0.021472875028848648,-0.0011154969688504934
1789059090744283000,1.619282958984375,-0.24106769263744354,0.01278830599039793,-0.007953962311148643
1789059090754293000,1.62929296875,-0.2406378984451294,0.012456074357032776,-0.007655913941562176
1789059090764302800,1.639302734375,-0.23691213130950928,0.014250244945287704,-0.008894816040992737
1789059090774313000,1.64931298828125,-0.21925562620162964,0.00963230524212122,-0.012609792873263359
1789059090784323000,1.659322998046875,-0.20083746314048767,0.009387294761836529,-0.005522056017071009
1789059090794333000,1.6693330078125,-0.18539834022521973,0.01555066742002964,0.0019503743387758732
1789059090804343000,1.679343017578125,-0.17319467663764954,0.016847360879182816,0.018675558269023895
1789059090814353000,1.689352783203125,-0.14608687162399292,0.01590368151664734,0.03788217157125473
1789059090824363000,1.699363037109375,-0.11910346150398254,0.022688351571559906,0.04509134963154793
1789059090834373000,1.709373046875,-0.084150031208992,0.013157026842236519,0.02684367448091507
1789059090844383000,1.719383056640625,-0.059861741960048676,0.024609949439764023,0.030708719044923782
1789059090854393000,1.72939306640625,-0.033624257892370224,0.027507564052939415,0.019639329984784126
1789059090864403000,1.73940283203125,-0.010771408677101135,0.03023916855454445,0.030043235048651695
1789059090874413000,1.7494130859375,0.007104300428181887,0.0299933310598135,0.03298782557249069
1789059090884423000,1.7594228515625,0.02136898972094059,0.02812991663813591,0.04508416727185249
1789059090894433000,1.76943310546875,0.0326857715845108,0.018559463322162628,0.023565201088786125
1789059090904443100,1.779443115234375,0.03037227876484394,0.02981957606971264,0.044455304741859436
1789059090914453000,1.789452880859375,0.021773725748062134,0.03208528831601143,0.026146629825234413
1789059090924463000,1.799463134765625,0.012471306137740612,0.03221018984913826,0.022376125678420067
1789059090934473000,1.809472900390625,0.018250133842229843,0.02359025925397873,0.028890034183859825
1789059090944483000,1.819483154296875,0.018849344924092293,0.019475676119327545,0.04051819071173668
1789059090954493000,1.829492919921875,0.008121030405163765,0.010284600779414177,0.021114733070135117
1789059090964503000,1.8395029296875,-0.0019710189662873745,0.006292788777500391,0.02938544563949108
1789059090974513200,1.84951318359375,-0.011043280363082886,0.0012340694665908813,0.023204049095511436
1789059090984523000,1.85952294921875,-0.018794944509863853,0.0018806848675012589,0.025107143446803093
1789059090994533000,1.869533203125,-0.01744820736348629,0.001017091330140829,0.018170131370425224
1789059091004543000,1.87954296875,-0.016291329637169838,-0.0025478159077465534,0.017629776149988174
1789059091014553000,1.889552978515625,-0.014177320525050163,0.000351679977029562,0.0438450425863266
1789059091024563200,1.899563232421875,-0.00705442950129509,-0.0012952187098562717,0.0361383855342865
1789059091034573000,1.909572998046875,0.011333855800330639,-0.007381735369563103,0.011373354122042656
1789059091044583200,1.919583251953125,0.025186819955706596,-0.007267751730978489,0.0126588623970747
1789059091054593000,1.929593017578125,0.04070352017879486,-0.007058524060994387,0.013462554663419724
1789059091064603100,1.93960302734375,0.04743146523833275,-0.00452159671112895,0.011509126052260399
1789059091074613000,1.949613037109375,0.06133982166647911,0.0013536028563976288,0.004867468029260635
1789059091084623000,1.959623046875,0.07493153214454651,-0.0072662499733269215,-0.010658761486411095
1789059091094632000,1.9696318359375,0.08788296580314636,-0.0014908830635249615,-0.0262244064360857
1789059091104643000,1.97964306640625,0.08833224326372147,0.010446736589074135,-0.011461704969406128
1789059091114652000,1.98965185546875,0.09352167695760727,0.001981560606509447,-0.04098003730177879
1789059091124662000,1.999662109375,0.07946737855672836,0.012437663972377777,-0.028641344979405403
1789059091134672000,2.009671875,0.07661647349596024,0.007972229272127151,-0.03097258321940899
1789059091144682000,2.019681884765625,0.07778533548116684,-0.00032191909849643707,-0.028282789513468742
1789059091154691800,2.02969189453125,0.06669460237026215,0.0033394978381693363,-0.03591756522655487
1789059091164702000,2.039701904296875,0.059766121208667755,-0.00982637144625187,-0.04645676165819168
1789059091174712000,2.049712158203125,0.0496448315680027,-0.0032744472846388817,-0.04928438365459442
1789059091184722000,2.059721923828125,0.03750720992684364,0.00167104322463274,-0.06506787240505219
1789059091194732000,2.06973193359375,0.03460005298256874,0.00557585759088397,-0.07666928321123123
1789059091204742000,2.079741943359375,0.029071064665913582,0.0020647463388741016,-0.07785385847091675
1789059091214752000,2.089751953125,0.021055730059742928,0.009664462879300117,-0.06277014315128326
1789059091224761900,2.099761962890625,0.02318732440471649,0.004508582875132561,-0.06841631233692169
1789059091234772000,2.10977197265625,0.01867835782468319,0.00587337464094162,-0.08413632959127426
1789059091244782000,2.119781982421875,0.01032242551445961,0.0024791760370135307,-0.11635152995586395
1789059091254792000,2.1297919921875,0.005042710807174444,-0.001528297085314989,-0.10030985623598099
1789059091264802000,2.139802001953125,-0.0008175751427188516,-0.0022380296140909195,-0.08756396919488907
1789059091274812000,2.14981201171875,-0.01506763231009245,-0.004896172787994146,-0.08253903687000275
1789059091284822000,2.159822021484375,-0.02363821677863598,-0.010804662480950356,-0.11672203987836838
1789059091294831900,2.169831787109375,-0.026347992941737175,-0.00558400759473443,-0.0895199254155159
1789059091304842000,2.179842041015625,-0.026448393240571022,0.0010930695571005344,-0.06477276980876923
1789059091314852000,2.18985205078125,-0.02735248953104019,0.0009547648951411247,-0.07130322605371475
1789059091324862000,2.199862060546875,-0.02344083972275257,-0.00016482779756188393,-0.08351355046033859
1789059091334872000,2.2098720703125,-0.01563701406121254,0.0015668375417590141,-0.0751262754201889
1789059091344882000,2.2198818359375,-0.0065274047665297985,-0.008185658603906631,-0.07957322150468826
1789059091354892000,2.22989208984375,-0.012039585039019585,-0.004940512124449015,-0.07225634902715683
1789059091364902100,2.239902099609375,-0.02832880988717079,0.008536947891116142,-0.08140084147453308
1789059091374912000,2.249912109375,-0.031353939324617386,0.006222747731953859,-0.07130254805088043
1789059091384922000,2.259922119140625,-0.01646953448653221,0.004890901036560535,-0.06841860711574554
1789059091394932000,2.269931884765625,-0.013669677078723907,-0.00046157417818903923,-0.08547549694776535
1789059091404942000,2.279942138671875,-0.017982400953769684,-0.0055340975522994995,-0.07813075929880142
1789059091414952000,2.289951904296875,-0.021608605980873108,0.0015729540027678013,-0.07493366301059723
1789059091424962000,2.299962158203125,-0.020013906061649323,0.006338414270430803,-0.05549870803952217
1789059091434972200,2.30997216796875,-0.007126349490135908,-0.0025030053220689297,-0.06295563280582428
1789059091444982000,2.31998193359375,-0.008063516579568386,-0.00719869090244174,-0.06780365109443665
1789059091454992100,2.3299921875,-0.01213813479989767,0.003269490785896778,-0.038025204092264175
1789059091465002000,2.340001953125,-0.0018780408427119255,-0.003927435725927353,-0.04123244807124138
1789059091475012000,2.35001220703125,0.00385360699146986,-0.004220804665237665,-0.04034757241606712
1789059091485022000,2.36002197265625,0.0040312400087714195,-0.003261800389736891,-0.036742184311151505
1789059091495032000,2.370031982421875,-0.0016884186770766973,-0.0012370082549750805,-0.034488286823034286
1789059091505042200,2.380042236328125,-0.01188486348837614,0.0034293825738132,-0.029415231198072433
1789059091515052000,2.390052001953125,-0.01471844594925642,0.0013922099024057388,-0.02977646328508854
1789059091525062100,2.400062255859375,-0.009520221501588821,-0.004785791039466858,-0.03213442489504814
1789059091535072000,2.410072021484375,-0.00788959488272667,-0.0048824455589056015,-0.013968337327241898
1789059091545082000,2.42008203125,-0.00930293370038271,-0.013995781540870667,-0.04054588824510574
1789059091555092200,2.43009228515625,-0.022537754848599434,-0.015553217381238937,-0.05575373396277428
1789059091565102000,2.44010205078125,-0.03217866271734238,-0.0027921488508582115,-0.02924303151667118
1789059091575112200,2.4501123046875,-0.03172433376312256,0.002267703413963318,-0.015309466049075127
1789059091585122000,2.4601220703125,-0.020690325647592545,-0.004822430666536093,-0.07239299267530441
1789059091595132200,2.470132080078125,-0.029163992032408714,-0.007705447729676962,-0.06380925327539444
1789059091605142000,2.48014208984375,-0.016546733677387238,0.0018233428709208965,-0.040850140154361725
1789059091615152000,2.490152099609375,-0.004004828631877899,-0.011189885437488556,-0.05383951961994171
1789059091625162200,2.500162353515625,0.0006788729224354029,-0.014127617701888084,-0.052718862891197205
1789059091635172000,2.510172119140625,-0.0070733013562858105,0.0030443230643868446,-0.043303098529577255
1789059091645182200,2.52018212890625,0.001468787668272853,0.002340183360502124,-0.020604975521564484
1789059091655192000,2.530192138671875,0.008693397976458073,0.007723772898316383,-0.0035815841984003782
1789059091665202000,2.540201904296875,0.02350510098040104,-0.005533443298190832,-0.014726380817592144
1789059091675212000,2.5502119140625,0.029455110430717468,-0.00368359312415123,0.012058495543897152
1789059091685222000,2.560221923828125,0.03030119650065899,0.00351999094709754,0.00885577779263258
1789059091695231000,2.57023095703125,0.039871759712696075,-0.0010705762542784214,0.020679770037531853
1789059091705241000,2.580240966796875,0.05204080790281296,-0.0021041492000222206,-0.0036141169257462025
1789059091715251000,2.5902509765625,0.04865545034408569,0.00010745879262685776,0.008867149241268635
1789059091725261000,2.600260986328125,0.05270851403474808,-0.00290510943159461,0.015472321771085262
1789059091735271000,2.61027099609375,0.05152790620923042,0.0055215805768966675,0.017543088644742966
1789059091745281000,2.620281005859375,0.06560910493135452,0.000523892231285572,0.04574330151081085
1789059091755291000,2.630290771484375,0.09220267087221146,-0.00518019637092948,0.07055912911891937
1789059091765301000,2.640301025390625,0.09759131073951721,-0.00765160983428359,0.07136153429746628
1789059091775311000,2.65031103515625,0.10349525511264801,0.0008513405919075012,0.07032710313796997
1789059091785321000,2.660321044921875,0.10507477819919586,0.008261053822934628,0.05995728820562363
1789059091795331000,2.6703310546875,0.09691322594881058,0.01961657591164112,0.06539198011159897
1789059091805341000,2.6803408203125,0.10670966655015945,0.020479971542954445,0.05536438152194023
1789059091815351000,2.69035107421875,0.12124443054199219,0.022367224097251892,0.045295197516679764
1789059091825361000,2.70036083984375,0.13908708095550537,0.011669572442770004,0.03271602466702461
1789059091835371000,2.71037109375,0.15015336871147156,0.017560232430696487,0.03286474198102951
1789059091845381000,2.720381103515625,0.15114140510559082,0.031751953065395355,0.015060445293784142
1789059091855391000,2.730390869140625,0.1690468043088913,0.022576043382287025,0.02997542917728424
1789059091865401000,2.740401123046875,0.18820692598819733,0.021475357934832573,0.03350624814629555
1789059091875411000,2.750410888671875,0.19883322715759277,0.01068691723048687,0.016471659764647484
1789059091885421000,2.760421142578125,0.2035616785287857,0.010692776180803776,0.012505680322647095
1789059091895431200,2.77043115234375,0.20163698494434357,0.01731991581618786,0.011946722865104675
1789059091905441000,2.78044091796875,0.20633453130722046,0.011968560516834259,0.0018847673200070858
1789059091915451100,2.790451171875,0.21330000460147858,0.023399019613862038,-0.0014202567981556058
1789059091925461000,2.8004609375,0.2167181819677353,0.01680290326476097,-0.007505579851567745
1789059091935471000,2.81047119140625,0.21912837028503418,0.023259976878762245,-0.002805698197335005
1789059091945481000,2.82048095703125,0.21263079345226288,0.02936048060655594,-0.021550357341766357
1789059091955491000,2.830490966796875,0.22255373001098633,0.017314795404672623,-0.04092187434434891
1789059091965501200,2.840501220703125,0.2228272259235382,0.0171763114631176,-0.0432734452188015
1789059091975511000,2.850510986328125,0.20332226157188416,0.017613593488931656,-0.061677683144807816
1789059091985521200,2.860521240234375,0.1860724240541458,0.01156395673751831,-0.049942996352910995
1789059091995531000,2.870531005859375,0.16247814893722534,0.01399131678044796,-0.05864158645272255
1789059092005541000,2.880541015625,0.129886656999588,0.010009091347455978,-0.0539696030318737
1789059092015551000,2.890551025390625,0.11750350147485733,-0.00537035521119833,-0.04277614876627922
1789059092025561000,2.90056103515625,0.08043283224105835,-0.0011452496983110905,-0.031674765050411224
1789059092035571200,2.9105712890625,0.05999359115958214,-0.002028928603976965,-0.019374873489141464
1789059092045581000,2.9205810546875,0.038138892501592636,-0.009344898164272308,-0.008300119079649448
1789059092055591200,2.930591064453125,0.015289997681975365,-0.007614667993038893,-0.004473743960261345
1789059092065601000,2.94060107421875,-0.0019475786248221993,-0.013475753366947174,-0.0028217851649969816
1789059092075611100,2.950611083984375,-0.010155176743865013,-0.021242914721369743,0.0011432752944529057
1789059092085621000,2.96062109375,-0.0165768563747406,-0.024752426892518997,0.010015063919126987
1789059092095631000,2.970631103515625,-0.008817479945719242,-0.02244606800377369,0.04010750725865364
1789059092105641200,2.98064111328125,-0.0026125814765691757,-0.027367589995265007,0.01921314187347889
1789059092115651000,2.990651123046875,0.0035100567620247602,-0.019902348518371582,-0.0028485218062996864
1789059092125661200,3.0006611328125,0.02175324223935604,-0.029262293130159378,-0.00020187231712043285
1789059092135670800,3.0106708984375,0.04769483208656311,-0.04544840008020401,-0.013245915994048119
1789059092145681000,3.020680908203125,0.06646745651960373,-0.045481424778699875,-0.014905598014593124
1789059092155691000,3.03069091796875,0.08410266786813736,-0.04151541367173195,0.013329488225281239
1789059092165700900,3.040700927734375,0.07902908325195312,-0.014702705666422844,-0.005591205321252346
1789059092175711000,3.0507109375,0.0664222240447998,0.016639595851302147,0.010190725326538086
1789059092185720800,3.060720947265625,0.12204687297344208,0.010240020230412483,0.010852521285414696
1789059092195731000,3.07073095703125,0.20199713110923767,-0.02443169243633747,0.004955613985657692
1789059092205741000,3.080740966796875,0.26116377115249634,-0.03157908469438553,0.02033856511116028
1789059092215751000,3.0907509765625,0.2753460705280304,-0.015122815035283566,0.023601539433002472
1789059092225761000,3.100760986328125,0.26226356625556946,0.00018556788563728333,0.01577424257993698
1789059092235771000,3.11077099609375,0.21753770112991333,0.046262048184871674,-0.00009742425754666328
1789059092245781000,3.120781005859375,0.21381087601184845,0.05400971695780754,0.013682836666703224
1789059092255790800,3.130790771484375,0.24691608548164368,0.04542689025402069,0.00014752056449651718
1789059092265801000,3.140801025390625,0.2804498076438904,0.018070101737976074,-0.000852496363222599
1789059092275811000,3.15081103515625,0.28995776176452637,0.017148803919553757,-0.005465786904096603
1789059092285821000,3.160821044921875,0.29050213098526,0.022669004276394844,0.009823687374591827
1789059092295831000,3.1708310546875,0.27016201615333557,0.04538710415363312,0.015706799924373627
1789059092305841000,3.1808408203125,0.2511201500892639,0.06297915428876877,0.03235368803143501
1789059092315851000,3.19085107421875,0.23129795491695404,0.0698530450463295,0.030436411499977112
1789059092325860900,3.20086083984375,0.22568640112876892,0.0611860528588295,0.01996033452451229
1789059092335870000,3.210869873046875,0.2191997617483139,0.05123871564865112,0.01862712949514389
1789059092345880000,3.220880126953125,0.20809544622898102,0.04744690656661987,0.04960288479924202
1789059092355890000,3.230889892578125,0.1822691261768341,0.04971861094236374,0.027773289009928703
1789059092365900000,3.240900146484375,0.12516136467456818,0.05689476430416107,0.013759467750787735
1789059092375910100,3.25091015625,0.09878626465797424,0.05951336398720741,0.05231313407421112
1789059092385920000,3.260919921875,0.07497041672468185,0.06122737377882004,0.0015487559139728546
1789059092395930000,3.27093017578125,0.048473015427589417,0.06151233986020088,-0.047104865312576294
1789059092405940000,3.28093994140625,0.0395631417632103,0.06420399993658066,-0.05804113671183586
1789059092415950000,3.2909501953125,0.04548388347029686,0.05078113451600075,-0.10635753720998764
1789059092425960000,3.3009599609375,0.030714260414242744,0.057562340050935745,-0.1008426621556282
1789059092435970000,3.310969970703125,0.04198475554585457,0.046419408172369,-0.1166360080242157
1789059092445980200,3.320980224609375,0.038223039358854294,0.04870040714740753,-0.09306463599205017
1789059092455990000,3.330989990234375,0.040004439651966095,0.03475070744752884,-0.1450011283159256
1789059092466000100,3.341000244140625,0.013061240315437317,0.03584260493516922,-0.07201772928237915
1789059092476010000,3.351010009765625,-0.015047593973577023,0.06252649426460266,0.10672789067029953
1789059092486020000,3.36102001953125,-0.07117584347724915,0.05494367703795433,0.22485080361366272
1789059092496030200,3.3710302734375,-0.06722243130207062,0.058617863804101944,0.27712422609329224
1789059092506040000,3.3810400390625,-0.028812190517783165,0.047669343650341034,0.23804715275764465
1789059092516050200,3.39105029296875,-0.013403172604739666,0.05144929513335228,0.20334939658641815
1789059092526060000,3.40106005859375,0.02204935997724533,0.06084093451499939,0.1737334430217743
1789059092536070100,3.411070068359375,-0.001555805909447372,0.05702737346291542,0.15247488021850586
1789059092546080000,3.421080078125,-0.023816371336579323,0.06932664662599564,0.11614776402711868
1789059092556090000,3.431090087890625,-0.02904709056019783,0.0296254213899374,0.13604068756103516
1789059092566100200,3.441100341796875,-0.01574486866593361,-0.00553283141925931,0.12426391243934631
1789059092576110000,3.451110107421875,-0.038444310426712036,-0.004965853411704302,0.12451006472110748
1789059092586120200,3.4611201171875,-0.03400295600295067,-0.019482478499412537,0.10127823799848557
1789059092596130000,3.471130126953125,-0.051904477179050446,0.012527506798505783,0.09673738479614258
1789059092606140200,3.48114013671875,-0.03531484678387642,0.00796897429972887,0.08194991946220398
1789059092616150000,3.49114990234375,0.0020991091150790453,0.0004600798711180687,0.10437969118356705
1789059092626159900,3.501159912109375,0.020100746303796768,-0.010416004806756973,0.10513602942228317
1789059092636170000,3.511169921875,0.026402845978736877,-0.004214137326925993,0.1247616782784462
1789059092646179800,3.521179931640625,0.02985590137541294,-0.017049774527549744,0.11143416166305542
1789059092656190000,3.53118994140625,0.01655775122344494,-0.004126841202378273,0.11554008722305298
1789059092666199800,3.54119970703125,0.017145777121186256,-0.0055859871208667755,0.1131882518529892
1789059092676210000,3.5512099609375,0.008980460464954376,-0.008844799362123013,0.09897208958864212
1789059092686219800,3.5612197265625,-0.007114086765795946,0.006652933545410633,0.09779869765043259
1789059092696229600,3.571229736328125,-0.028408441692590714,0.016429707407951355,0.0880194902420044
1789059092706239700,3.58123974609375,-0.03621549904346466,0.019187942147254944,0.07447785139083862
1789059092716249600,3.59124951171875,-0.02511974424123764,0.005627582781016827,0.06535342335700989
1789059092726259700,3.601259765625,-0.0370139554142952,0.02251894772052765,0.0841689184308052
1789059092736269800,3.611269775390625,-0.04992228001356125,0.028504496440291405,0.10865753144025803
1789059092746279700,3.62127978515625,-0.05506404489278793,0.031946901232004166,0.11384962499141693
1789059092756289800,3.631289794921875,-0.059183429926633835,0.029876722022891045,0.11638710647821426
1789059092766299600,3.641299560546875,-0.05649550259113312,0.02833555079996586,0.12695559859275818
1789059092776309800,3.651309814453125,-0.06657181680202484,0.027780374512076378,0.12924063205718994
1789059092786319600,3.661319580078125,-0.08866699784994125,0.029928745701909065,0.09282536804676056
1789059092796329700,3.671329833984375,-0.10267549008131027,0.04895783215761185,0.12850160896778107
1789059092806339800,3.68133984375,-0.12556028366088867,0.03995681181550026,0.13683012127876282
1789059092816349700,3.691349609375,-0.13478705286979675,0.047721728682518005,0.16409416496753693
1789059092826359800,3.70135986328125,-0.1387767344713211,0.05471998080611229,0.20509646832942963
1789059092836369700,3.71136962890625,-0.12804049253463745,0.04153522476553917,0.19318321347236633
1789059092846379800,3.7213798828125,-0.13114601373672485,0.0335896797478199,0.1968570500612259
1789059092856390000,3.731389892578125,-0.13961246609687805,0.0448734425008297,0.268253892660141
1789059092866399500,3.7413994140625,-0.13885372877120972,0.033326778560876846,0.17207542061805725
1789059092876409600,3.75140966796875,-0.17309191823005676,0.027453742921352386,0.03313004970550537
1789059092886419500,3.76141943359375,-0.20757612586021423,0.030498534440994263,-0.1091029942035675
1789059092896429600,3.7714296875,-0.20613129436969757,0.035549819469451904,-0.05612102150917053
1789059092906439400,3.781439453125,-0.1793375015258789,0.024771476164460182,-0.04202437773346901
1789059092916449500,3.791449462890625,-0.14800889790058136,0.003023148514330387,-0.028099870309233665
1789059092926459600,3.801459716796875,-0.11179575324058533,-0.010379742830991745,-0.043204788118600845
1789059092936469500,3.811469482421875,-0.14744536578655243,0.01652868278324604,-0.08398213237524033
1789059092946479600,3.821479736328125,-0.17091155052185059,0.020182805135846138,-0.10413534194231033
1789059092956489500,3.831489501953125,-0.16333800554275513,0.013014337979257107,-0.12664784491062164
1789059092966499600,3.84149951171875,-0.12455890327692032,-0.0038471994921565056,-0.09787078946828842
1789059092976508700,3.8515087890625,-0.07267523556947708,-0.024942878633737564,-0.0596897155046463
1789059092986518500,3.8615185546875,-0.03433343395590782,-0.0356900654733181,-0.059954166412353516
1789059092996528600,3.871528564453125,-0.030713975429534912,-0.01717185229063034,-0.06946395337581635
1789059093006538800,3.881538818359375,-0.02677782252430916,-0.001636300701647997,-0.08324821293354034
1789059093016548600,3.891548583984375,-0.0008047767914831638,-0.0005402220413088799,-0.05783810839056969
1789059093026558700,3.901558837890625,0.024893129244446754,0.012442422099411488,-0.03908572718501091
1789059093036568600,3.911568603515625,0.06847784668207169,0.008199509233236313,-0.006061734165996313
1789059093046578700,3.92157861328125,0.0990368202328682,0.004593056160956621,0.019201012328267097
1789059093056588500,3.931588623046875,0.12184527516365051,0.003301789751276374,0.007909966632723808
1789059093066598700,3.9415986328125,0.12714070081710815,0.006471217609941959,0.03138173744082451
1789059093076608800,3.95160888671875,0.1039876714348793,-0.003927702084183693,0.008129507303237915
1789059093086618600,3.96161865234375,0.048825085163116455,-0.0005582706071436405,-0.04646582901477814
1789059093096628700,3.971628662109375,0.036155879497528076,-0.0025114757008850574,-0.012373024597764015
1789059093106638600,3.981638671875,0.01520479191094637,-0.019522150978446007,-0.018806422129273415
1789059093116648700,3.991648681640625,0.036783598363399506,-0.014160417020320892,0.013900723308324814
1789059093126658600,4.001658447265625,0.04070403799414635,-0.013205941766500473,0.017140991985797882
1789059093136668700,4.011668701171875,0.06511803716421127,-0.03593485429883003,0.006275534629821777
1789059093146678800,4.0216787109375,0.05696743354201317,-0.026320308446884155,-0.02879083901643753
1789059093156688600,4.031688720703125,0.08293590694665909,-0.029283013194799423,-0.016576465219259262
1789059093166698800,4.04169873046875,0.06399737298488617,-0.03847065195441246,-0.02829623781144619
1789059093176708600,4.05170849609375,0.06977563351392746,-0.031891580671072006,-0.01589549519121647
1789059093186718700,4.06171875,0.061150453984737396,-0.03927572816610336,-0.0007772615645080805
1789059093196728800,4.071728759765625,0.07191016525030136,-0.05843009054660797,0.0027283504605293274
1789059093206738700,4.08173876953125,0.06840411573648453,-0.0259320717304945,0.08117149025201797
1789059093216748800,4.091748779296875,0.09096796065568924,-0.043027449399232864,0.1057070717215538
1789059093226758700,4.101758544921875,0.1094425767660141,-0.04637158289551735,0.09241470694541931
1789059093236768800,4.111768798828125,0.11684785038232803,-0.028385454788804054,0.07894783467054367
1789059093246778600,4.121778564453125,0.11138544231653214,-0.045406781136989594,0.0301390141248703
1789059093256788700,4.131788818359375,0.11973098665475845,-0.02737792767584324,-0.017922401428222656
1789059093266798800,4.141798828125,0.1384841650724411,-0.014494353905320168,-0.01630985736846924
1789059093276808700,4.15180859375,0.17901135981082916,-0.004656156059354544,-0.04515280947089195
1789059093286818800,4.16181884765625,0.19058439135551453,0.010894041508436203,-0.0066922372207045555
1789059093296828700,4.17182861328125,0.2294931411743164,0.007811021059751511,0.045649103820323944
1789059093306838800,4.1818388671875,0.27142277359962463,0.010008927434682846,0.044693831354379654
1789059093316848600,4.1918486328125,0.29199859499931335,0.019500933587551117,0.054480958729982376
1789059093326858800,4.201858642578125,0.299538254737854,0.017913956195116043,0.04644140973687172
1789059093336868600,4.21186865234375,0.2923530042171478,0.048697710037231445,0.0700068548321724
1789059093346878500,4.22187841796875,0.2585873305797577,0.058851275593042374,0.0986211895942688
1789059093356888600,4.231888671875,0.22880469262599945,0.0690227821469307,0.11575814336538315
1789059093366898400,4.2418984375,0.20275072753429413,0.07270033657550812,0.1168750673532486
1789059093376908500,4.251908447265625,0.19077585637569427,0.082489512860775,0.1372925341129303
1789059093386918700,4.261918701171875,0.1715899109840393,0.06809379160404205,0.10653116554021835
1789059093396928500,4.271928466796875,0.1461321860551834,0.06230767443776131,0.09396108239889145
1789059093406938600,4.281938720703125,0.14233212172985077,0.07010727375745773,0.07801487296819687
1789059093416948500,4.291948486328125,0.12984192371368408,0.07155419886112213,0.05673939734697342
1789059093426958600,4.30195849609375,0.11192125082015991,0.07314969599246979,0.06892123073339462
1789059093436968400,4.311968505859375,0.08818739652633667,0.07980304211378098,0.08335638046264648
1789059093446978600,4.321978515625,0.07014714181423187,0.07501520961523056,0.10920528322458267
1789059093456988700,4.33198876953125,0.08330853283405304,0.06907644122838974,0.0964752808213234
1789059093466998500,4.34199853515625,0.07219675928354263,0.07870776206254959,0.07768481224775314
1789059093477008600,4.352008544921875,0.04989511892199516,0.05468779429793358,0.06344213336706161
1789059093487018500,4.3620185546875,0.016107331961393356,0.0685623288154602,0.07389930635690689
1789059093497028600,4.372028564453125,-0.03593536466360092,0.0782543197274208,0.03977876529097557
1789059093507038700,4.382038818359375,-0.047874316573143005,0.06660938262939453,0.06744368374347687
1789059093517048600,4.392048583984375,-0.06065187603235245,0.046351928263902664,0.06134813278913498
1789059093527058700,4.40205859375,-0.050722815096378326,0.017280861735343933,0.05015327036380768
1789059093537068500,4.412068603515625,-0.013024166226387024,0.01493312232196331,0.05574295297265053
1789059093547078700,4.42207861328125,0.0012317347573116422,0.005430431105196476,0.06526002287864685
1789059093557088500,4.432088623046875,0.019030684605240822,-0.0028220522217452526,0.052865248173475266
1789059093567098600,4.4420986328125,0.03576812148094177,0.012366488575935364,0.04396576061844826
1789059093577108700,4.452108642578125,0.0576867014169693,0.007674823515117168,0.02151031792163849
1789059093587118600,4.46211865234375,0.09854172170162201,-0.0021549039520323277,0.008745253086090088
1789059093597128700,4.472128662109375,0.13115595281124115,-0.003118549007922411,0.004175617825239897
1789059093607137800,4.4821376953125,0.15209612250328064,-0.01566603220999241,0.005416118074208498
1789059093617147600,4.492147705078125,0.1795407235622406,-0.014521053060889244,0.012188125401735306
1789059093627157800,4.50215771484375,0.18997898697853088,-0.009846406057476997,0.008936671540141106
1789059093637167600,4.512167724609375,0.20864112675189972,-0.02470611408352852,0.0021426945459097624
1789059093647177700,4.522177734375,0.22883160412311554,0.006935700308531523,0.036098528653383255
1789059093657187600,4.5321875,0.221366748213768,0.023187117651104927,0.043700993061065674
1789059093667197700,4.54219775390625,0.21457064151763916,0.027319811284542084,0.02356935665011406
1789059093677207800,4.552207763671875,0.24414955079555511,0.04011226072907448,0.024240553379058838
1789059093687218200,4.56221826171875,0.23714463412761688,0.032700687646865845,0.02557479590177536
1789059093697228300,4.572228271484375,0.23542959988117218,0.04091811552643776,0.01953195221722126
1789059093707238100,4.582238037109375,0.222482368350029,0.041429709643125534,-0.0041632577776908875
1789059093717248300,4.592248291015625,0.19397637248039246,0.058171339333057404,0.04493826627731323
1789059093727258000,4.602258056640625,0.1151430681347847,0.07237237691879272,-0.02644430659711361
1789059093737268200,4.612268310546875,0.10668860375881195,0.0815407857298851,-0.03500748425722122
1789059093747278300,4.6222783203125,0.05675194412469864,0.06823056936264038,-0.03449855372309685
1789059093757288200,4.6322880859375,0.039203058928251266,0.0737021267414093,-0.0061694043688476086
1789059093767298300,4.64229833984375,0.038417693227529526,0.06372912228107452,-0.006173665635287762
1789059093777308200,4.65230810546875,0.03279923275113106,0.03863303363323212,0.006894945167005062
1789059093787318300,4.662318359375,-0.0014141330029815435,0.058602746576070786,-0.0281144380569458
1789059093797328100,4.672328125,-0.03835136070847511,0.0651390329003334,-0.015987159684300423
1789059093807338200,4.682338134765625,-0.09078580886125565,0.06415712833404541,-0.062268905341625214
1789059093817348400,4.692348388671875,-0.11262158304452896,0.06942836940288544,-0.04739656299352646
1789059093827358200,4.702358154296875,-0.10936533659696579,0.030522244051098824,-0.027206607162952423
1789059093837368300,4.712368408203125,-0.09013228863477707,0.02840532548725605,-0.0025318190455436707
1789059093847378200,4.722378173828125,-0.10639781504869461,0.033374249935150146,0.0024568140506744385
1789059093857388300,4.73238818359375,-0.09536778181791306,0.029911866411566734,-0.003522714367136359
1789059093867398100,4.742398193359375,-0.09206227213144302,0.0484653115272522,-0.018441742286086082
1789059093877408300,4.752408203125,-0.09405987709760666,0.03359009325504303,-0.016582896932959557
1789059093887418400,4.76241845703125,-0.076449453830719,0.04345710575580597,-0.019931823015213013
1789059093897428200,4.77242822265625,-0.07486729323863983,0.06327903270721436,-0.0055687278509140015
1789059093907438300,4.782438232421875,-0.07884126156568527,0.05417075753211975,-0.02410193160176277
1789059093917448200,4.7924482421875,-0.038000352680683136,0.06386981904506683,0.016307249665260315
1789059093927458300,4.802458251953125,-0.029263854026794434,0.05380946770310402,0.019696921110153198
1789059093937468400,4.812468505859375,-0.008534898050129414,0.04640056937932968,0.022398030385375023
1789059093947478300,4.822478271484375,-0.00914103351533413,0.040402065962553024,-0.011242752894759178
1789059093957488400,4.83248828125,-0.03221516311168671,0.043808333575725555,0.006213309243321419
1789059093967498200,4.842498291015625,-0.05404270067811012,0.05186093598604202,0.00992628838866949
1789059093977508400,4.85250830078125,-0.07204516977071762,0.04140853136777878,-0.015485381707549095
1789059093987518200,4.862518310546875,-0.09535209089517593,0.05694647878408432,-0.0037578861229121685
1789059093997528300,4.8725283203125,-0.10440496355295181,0.032365549355745316,-0.028910189867019653
1789059094007538400,4.882538330078125,-0.11533324420452118,0.03384307026863098,-0.017244212329387665
1789059094017548300,4.89254833984375,-0.12843088805675507,0.013596780598163605,-0.03338241204619408
1789059094027558400,4.902558349609375,-0.1596713662147522,0.0011433074250817299,-0.05049215257167816
1789059094037568300,4.912568359375,-0.20498453080654144,-0.0011329478584229946,-0.037996187806129456
1789059094047578400,4.922578369140625,-0.20774729549884796,-0.020338065922260284,-0.012997363694012165
1789059094057588200,4.932588134765625,-0.21674640476703644,-0.03956931084394455,0.015906937420368195
1789059094067598300,4.942598388671875,-0.1924293488264084,-0.051880571991205215,0.007735293358564377
1789059094077608400,4.9526083984375,-0.19378089904785156,-0.06118199974298477,-0.012765707448124886
1789059094087618300,4.962618408203125,-0.203070268034935,-0.07638811320066452,-0.004705384373664856
1789059094097628400,4.97262841796875,-0.2118573635816574,-0.06790930032730103,0.01608855091035366
1789059094107638300,4.98263818359375,-0.205577090382576,-0.061293747276067734,0.006113946437835693
1789059094117648400,4.9926484375,-0.19188658893108368,-0.08587349206209183,-0.053254544734954834
1789059094127658200,5.002658203125,-0.17484422028064728,-0.08604313433170319,-0.007755502592772245
1789059094137668400,5.01266845703125,-0.1601199060678482,-0.13417547941207886,-0.054719552397727966
1789059094147678500,5.022678466796875,-0.14485067129135132,-0.10014320909976959,0.01524834893643856
1789059094157688300,5.032688232421875,-0.11973681300878525,-0.11831916868686676,-0.013790056109428406
1789059094167698400,5.042698486328125,-0.09124284982681274,-0.10594985634088516,0.02577999047935009
1789059094177708000,5.0527080078125,-0.0642324835062027,-0.1046338677406311,0.011743630282580853
1789059094187718100,5.06271826171875,-0.0263450238853693,-0.11060893535614014,0.02234673872590065
1789059094197728300,5.072728271484375,0.022297874093055725,-0.1004999428987503,0.019438328221440315
1789059094207738000,5.082738037109375,0.06692526489496231,-0.11077841371297836,0.010396364144980907
1789059094217747200,5.092747314453125,0.09262610971927643,-0.09618137031793594,-0.007711733691394329
1789059094227757300,5.10275732421875,0.10914889723062515,-0.09037141501903534,-0.014659387990832329
1789059094237767200,5.11276708984375,0.12206842005252838,-0.0826498493552208,-0.0038384324871003628
1789059094247777300,5.12277734375,0.15169423818588257,-0.08723022043704987,0.00687519833445549
1789059094257787100,5.132787109375,0.1657264232635498,-0.0771126002073288,0.03429749980568886
1789059094267797200,5.14279736328125,0.1903979480266571,-0.08331537246704102,0.03435609117150307
1789059094277807400,5.152807373046875,0.18796861171722412,-0.08430165797472,0.029636794701218605
1789059094287817200,5.162817138671875,0.1852409988641739,-0.07724428176879883,0.009173599071800709
1789059094297827300,5.172827392578125,0.17612740397453308,-0.06339754164218903,0.03105069510638714
1789059094307837200,5.182837158203125,0.1719832569360733,-0.06837233155965805,-0.009507384151220322
1789059094317847300,5.192847412109375,0.17874975502490997,-0.06892702728509903,0.029815254732966423
1789059094327857200,5.202857177734375,0.1861269772052765,-0.05371425300836563,0.006142681464552879
1789059094337867300,5.2128671875,0.1948573887348175,-0.06463594734668732,0.00776429520919919
1789059094347877400,5.22287744140625,0.23450146615505219,-0.05082106217741966,0.006246826145797968
1789059094357887200,5.23288720703125,0.23079515993595123,-0.04505900293588638,0.017939087003469467
1789059094367897300,5.2428974609375,0.24517196416854858,-0.02656228467822075,0.02878241427242756
1789059094377907200,5.2529072265625,0.2550077736377716,-0.010465477593243122,0.04276644438505173
1789059094387917300,5.262917236328125,0.2558637261390686,0.008401686325669289,0.03833414614200592
1789059094397927200,5.27292724609375,0.2562645673751831,0.0003910856321454048,0.02512202039361
1789059094407937300,5.282937255859375,0.24368005990982056,0.019615646451711655,-0.012825096026062965
1789059094417947400,5.292947509765625,0.2283077985048294,0.021931994706392288,0.006471116095781326
1789059094427957200,5.302957275390625,0.22187440097332,0.0226752832531929,-0.017803598195314407
1789059094437967400,5.31296728515625,0.18944981694221497,0.046751946210861206,0.031966742128133774
1789059094447977200,5.322977294921875,0.1813064068555832,0.020969616249203682,0.021160434931516647
1789059094457987300,5.3329873046875,0.16774721443653107,0.03439469635486603,0.045547906309366226
1789059094467997400,5.34299755859375,0.14283494651317596,0.027652902528643608,0.02311583422124386
1789059094485516300,5.360516357421875,0.09157229959964752,0.031243110075592995,-0.017168473452329636
1789059094495526400,5.3705263671875,0.06651914119720459,0.03396912291646004,-0.005310481414198875
1789059094505536300,5.380536376953125,0.07256398350000381,0.04059559851884842,0.021994909271597862
1789059094515546400,5.39054638671875,0.07907996326684952,0.017175691202282906,0.04980098456144333
1789059094525556200,5.40055615234375,0.07528575509786606,0.016574881970882416,0.029571615159511566
1789059094535566300,5.41056640625,0.0733724907040596,0.018452979624271393,0.031260859221220016
1789059094545576400,5.420576416015625,0.07479062676429749,0.002642325358465314,0.008761675097048283
1789059094555586300,5.43058642578125,0.06311241537332535,0.029500501230359077,0.037353917956352234
1789059094565596400,5.440596435546875,0.05893898010253906,0.015322098508477211,0.058299947530031204
1789059094575606300,5.450606201171875,0.06913860142230988,0.03215446323156357,0.038998790085315704
1789059094585616400,5.460616455078125,0.058599673211574554,0.019122550264000893,0.013835117220878601
1789059094595626200,5.470626220703125,0.07652833312749863,0.013393188826739788,-0.0006844105664640665
1789059094605636400,5.48063623046875,0.0839574933052063,0.01843029260635376,0.008345303125679493
1789059094615646500,5.490646484375,0.08397585153579712,0.012792335823178291,-0.014248610474169254
1789059094625656300,5.50065625,0.09833189100027084,0.020835349336266518,0.012278071604669094
1789059094635666400,5.51066650390625,0.099239781498909,0.0017627342604100704,-0.019431758671998978
1789059094645676300,5.52067626953125,0.09693454951047897,0.0338255949318409,-0.007000922225415707
1789059094655686400,5.530686279296875,0.10333283245563507,0.007883020676672459,-0.023978669196367264
1789059094665696300,5.5406962890625,0.09206686168909073,0.01381867378950119,-0.014524180442094803
1789059094675706400,5.550706298828125,0.0969230905175209,0.004429255146533251,0.001056764042004943
1789059094685716000,5.560716064453125,0.10824285447597504,0.01649630442261696,0.018856532871723175
1789059094695725000,5.57072509765625,0.07955635339021683,0.01217639073729515,-0.04214876517653465
1789059094705735000,5.58073486328125,0.08508161455392838,0.011595021933317184,-0.05042320489883423
1789059094715745000,5.5907451171875,0.0857977345585823,-0.01519845612347126,-0.07434839010238647
1789059094725755000,5.6007548828125,0.08834637701511383,-0.006303498987108469,-0.02493397146463394
1789059094735765000,5.610764892578125,0.09351796656847,-0.015731081366539,-0.028865396976470947
1789059094745775000,5.620775146484375,0.10224567353725433,-0.007340525276958942,0.00003363029100000858
1789059094755785000,5.630784912109375,0.09273526072502136,-0.008646968752145767,0.0026858458295464516
1789059094765795000,5.640795166015625,0.09352808445692062,0.00945320539176464,0.007935203611850739
1789059094775805000,5.650804931640625,0.10639362782239914,0.005680464673787355,-0.01411602646112442
1789059094785815000,5.66081494140625,0.1308257281780243,0.011363916099071503,-0.04039769619703293
1789059094795825000,5.670824951171875,0.16284328699111938,0.0027969246730208397,-0.03423190489411354
1789059094805835000,5.6808349609375,0.18841709196567535,-0.0012561404146254063,-0.03072851523756981
1789059094815845000,5.69084521484375,0.21334217488765717,0.01004075538367033,-0.021377108991146088
1789059094825855000,5.70085498046875,0.255998820066452,0.0023420893121510744,0.001588927349075675
1789059094835864000,5.710864013671875,0.28180161118507385,0.0256600771099329,0.0018423700239509344
1789059094845874200,5.720874267578125,0.2885998487472534,0.02338360622525215,-0.010948260314762592
1789059094855884000,5.730884033203125,0.312132865190506,0.030873112380504608,-0.018795236945152283
1789059094865894100,5.74089404296875,0.3012884855270386,0.035240430384874344,-0.03272037208080292
1789059094875904000,5.750904052734375,0.30047091841697693,0.03498741239309311,-0.04691195860505104
1789059094885914000,5.7609140625,0.31006842851638794,0.020801018923521042,-0.04635988548398018
1789059094895924000,5.770924072265625,0.2888137102127075,0.054734230041503906,-0.02980015054345131
1789059094905934000,5.78093408203125,0.27983540296554565,0.024639442563056946,-0.0499030239880085
1789059094915944200,5.790944091796875,0.3045138120651245,0.04493551328778267,0.0035997231025248766
1789059094925954000,5.8009541015625,0.2836090624332428,0.026616694405674934,0.04464995115995407
1789059094935964200,5.810964111328125,0.301261842250824,0.02478852868080139,0.07651365548372269
1789059094945974000,5.82097412109375,0.255418986082077,0.04257817938923836,0.08734738826751709
1789059094955984100,5.830984130859375,0.21763859689235687,0.046517953276634216,0.07987325638532639
1789059094965994200,5.840994140625,0.17365169525146484,0.057530391961336136,0.03656359761953354
1789059094976004000,5.851004150390625,0.13496582210063934,0.06361598521471024,-0.007764184847474098
1789059094986014200,5.86101416015625,0.15295042097568512,0.05232471227645874,-0.006135927513241768
1789059094996024000,5.871024169921875,0.14540964365005493,0.04718025028705597,-0.028481168672442436
1789059095006034200,5.8810341796875,0.13657034933567047,0.05254385620355606,-0.007713306695222855
1789059095016043800,5.891043701171875,0.15257993340492249,0.03631599619984627,-0.007808208465576172
1789059095026054000,5.901053955078125,0.13789419829845428,0.05232692137360573,0.01705745980143547
1789059095036064000,5.91106396484375,0.13443982601165771,0.04389123618602753,0.006462235003709793
1789059095046073900,5.921073974609375,0.12349157780408859,0.05160188674926758,-0.004735025577247143
1789059095056084000,5.931083984375,0.08586088567972183,0.05946100503206253,-0.042863212525844574
1789059095066093800,5.94109375,0.08711257576942444,0.06434231251478195,-0.01385526079684496
1789059095076104000,5.95110400390625,0.09355819970369339,0.04701995104551315,-0.011730363592505455
1789059095086114000,5.961114013671875,0.0962304174900055,0.04391816630959511,0.014008554629981518
1789059095096124000,5.9711240234375,0.09492973983287811,0.028997162356972694,0.004222596995532513
1789059095106134000,5.981134033203125,0.09470176696777344,0.0500505194067955,0.02685307338833809
1789059095116143900,5.991143798828125,0.11504347622394562,0.02561749517917633,0.018758567050099373
1789059095126154000,6.001154052734375,0.13553915917873383,0.0495515875518322,0.04150142893195152
1789059095136163800,6.011163818359375,0.1377570629119873,0.052181441336870193,0.005516666918992996
1789059095146174000,6.021174072265625,0.15019190311431885,0.06445968151092529,-0.004925588145852089
1789059095156183000,6.03118310546875,0.16828197240829468,0.0697009265422821,-0.02210441417992115
1789059095166193000,6.04119287109375,0.20677343010902405,0.05938171222805977,-0.04031697288155556
1789059095176203000,6.051203125,0.2586115598678589,0.05510726198554039,-0.028035981580615044
1789059095186213000,6.061213134765625,0.2730725407600403,0.05522710457444191,-0.020510422065854073
1789059095196223000,6.071222900390625,0.2694869041442871,0.0783553272485733,0.022136563435196877
1789059095206233000,6.081233154296875,0.26650604605674744,0.0715850368142128,-0.002518982859328389
1789059095216243000,6.091242919921875,0.2752063274383545,0.08498255908489227,0.044921647757291794
1789059095226253000,6.101253173828125,0.2641832232475281,0.07738083600997925,-0.010344268754124641
1789059095236263000,6.111262939453125,0.2376040518283844,0.10902149975299835,-0.019946403801441193
1789059095246273000,6.12127294921875,0.22009828686714172,0.09883810579776764,-0.06841752678155899
1789059095256283100,6.131283203125,0.22462518513202667,0.11359991133213043,-0.09482821822166443
1789059095266293000,6.14129296875,0.2282595932483673,0.0994124561548233,-0.12985676527023315
1789059095276303000,6.15130322265625,0.238018199801445,0.09463656693696976,-0.0984678789973259
1789059095286313000,6.16131298828125,0.21711158752441406,0.0784839615225792,-0.09983275085687637
1789059095296323000,6.171322998046875,0.190246120095253,0.09634052217006683,-0.04413541406393051
1789059095306333200,6.181333251953125,0.19307227432727814,0.09807610511779785,0.0006754659116268158
1789059095316343000,6.191343017578125,0.14989498257637024,0.09388162195682526,0.0037895669229328632
1789059095326353200,6.201353271484375,0.12710098922252655,0.09681376069784164,0.007263394072651863
1789059095336363000,6.211363037109375,0.10489612072706223,0.10371552407741547,0.007065332029014826
1789059095346373000,6.221373046875,0.11677302420139313,0.09497503191232681,0.0026016077026724815
1789059095356383000,6.231383056640625,0.1404985934495926,0.08665584772825241,0.004334260243922472
1789059095366393000,6.24139306640625,0.1488499641418457,0.08614593744277954,0.016738921403884888
1789059095376403200,6.2514033203125,0.14916685223579407,0.09523618221282959,0.015910863876342773
1789059095386413000,6.2614130859375,0.1667303889989853,0.10361289232969284,0.018882952630519867
1789059095396423200,6.271423095703125,0.18594351410865784,0.10260795801877975,0.03980490565299988
1789059095406433000,6.28143310546875,0.1895451694726944,0.11197775602340698,0.05270179733633995
1789059095416443100,6.291443115234375,0.1903178095817566,0.11369547247886658,0.053329434245824814
1789059095426453000,6.301452880859375,0.18027955293655396,0.10076555609703064,0.028350315988063812
1789059095436463000,6.311463134765625,0.1447521448135376,0.12179554998874664,0.02259807474911213
1789059095446473200,6.32147314453125,0.12016052007675171,0.12526431679725647,0.03590109944343567
1789059095456483000,6.331483154296875,0.1110149472951889,0.13276000320911407,-0.0016906061209738255
1789059095466493200,6.3414931640625,0.0750524178147316,0.15982145071029663,0.043463025242090225
1789059095476503000,6.3515029296875,0.058712590485811234,0.1461646556854248,-0.02076626941561699
1789059095486513000,6.361512939453125,0.06619634479284286,0.13818982243537903,0.014708900824189186
1789059095496523000,6.37152294921875,0.0774465948343277,0.12774980068206787,0.01666729524731636
1789059095506532900,6.381532958984375,0.06545890867710114,0.12236915528774261,0.03008776530623436
1789059095516543000,6.39154296875,0.056649770587682724,0.11199859529733658,0.044176455587148666
1789059095526552800,6.401552734375,0.010938474908471107,0.13868160545825958,0.04430002719163895
1789059095536563000,6.41156298828125,-0.005013138521462679,0.1329883486032486,0.013444243930280209
1789059095546572800,6.42157275390625,-0.008643027395009995,0.13388104736804962,0.017729535698890686
1789059095556583000,6.4315830078125,-0.027828697115182877,0.12141633033752441,-0.007909832522273064
1789059095566593000,6.441593017578125,-0.035040803253650665,0.1121157705783844,0.017760641872882843
1789059095576603000,6.451602783203125,-0.042864665389060974,0.0869850367307663,0.02169988304376602
1789059095586613000,6.461613037109375,-0.08584755659103394,0.10983975231647491,0.07033399492502213
1789059095596622800,6.471622802734375,-0.1181870549917221,0.0966775119304657,0.05141937732696533
1789059095606633000,6.481633056640625,-0.14042499661445618,0.09378106147050858,0.06232156231999397
1789059095616643000,6.49164306640625,-0.16173799335956573,0.09454318881034851,0.03504461422562599
1789059095626653000,6.50165283203125,-0.1779443919658661,0.09529287368059158,0.012202944606542587
1789059095636663000,6.5116630859375,-0.19252249598503113,0.0918869897723198,-0.028398027643561363
1789059095646673000,6.5216728515625,-0.20162039995193481,0.08727838844060898,0.0126942815259099
1789059095656683000,6.53168310546875,-0.18431632220745087,0.06299372762441635,0.014577111229300499
1789059095666692900,6.54169287109375,-0.191366508603096,0.05881655961275101,0.020156966522336006
1789059095676703000,6.551702880859375,-0.19499078392982483,0.06457758694887161,-0.01699022576212883
1789059095686713300,6.56171337890625,-0.21110236644744873,0.06678881496191025,-0.005478979088366032
1789059095696723200,6.57172314453125,-0.1979551464319229,0.058211036026477814,0.0037757717072963715
1789059095706733300,6.5817333984375,-0.1877371221780777,0.05627358704805374,0.0499400720000267
1789059095716743200,6.5917431640625,-0.1710316687822342,0.04822355508804321,0.056001920253038406
1789059095726753300,6.601753173828125,-0.18606413900852203,0.0657745823264122,0.02731195092201233
1789059095736763100,6.61176318359375,-0.18171758949756622,0.06228114664554596,-0.005354342982172966
1789059095746773200,6.621773193359375,-0.15079694986343384,0.0604717954993248,-0.012984033674001694
1789059095756782300,6.6317822265625,-0.12063825130462646,0.05923811346292496,-0.009241200983524323
1789059095766792200,6.641792236328125,-0.09860938042402267,0.06269915401935577,0.004809104837477207
1789059095776802300,6.65180224609375,-0.07333280146121979,0.0646606981754303,0.019513588398694992
1789059095786812400,6.6618125,-0.06743603199720383,0.05895460769534111,0.08686679601669312
1789059095796822300,6.671822265625,-0.05802466720342636,0.06678406894207001,0.09338779747486115
1789059095806832400,6.681832275390625,-0.0631571114063263,0.07991531491279602,0.10530837625265121
1789059095816842200,6.69184228515625,-0.05676636844873428,0.07801039516925812,0.04125428944826126
1789059095826852400,6.701852294921875,-0.0430138036608696,0.10124035179615021,0.014722278341650963
1789059095836862200,6.7118623046875,-0.010092847049236298,0.08357110619544983,-0.017227141186594963
1789059095846872300,6.721872314453125,0.04247821867465973,0.07098900526762009,-0.009402241557836533
1789059095856882400,6.73188232421875,0.047822143882513046,0.08774106949567795,-0.017489861696958542
1789059095866892300,6.741892333984375,0.04796648398041725,0.07214319705963135,-0.0036076027899980545
1789059095876902400,6.75190234375,0.05103418976068497,0.0651797205209732,-0.0028399864677339792
1789059095886912300,6.761912353515625,0.02037028595805168,0.09265369176864624,0.025687262415885925
1789059095896922400,6.77192236328125,0.045094288885593414,0.07110177725553513,0.029230928048491478
1789059095906932500,6.781932373046875,0.04390731826424599,0.06803541630506516,0.039219118654727936
1789059095916942300,6.7919423828125,0.023253973573446274,0.07670272886753082,0.03365189954638481
1789059095926952400,6.801952392578125,0.044383756816387177,0.06111844256520271,0.002043104963377118
1789059095936962300,6.81196240234375,0.06598301231861115,0.043764788657426834,0.009588640183210373
1789059095946972400,6.821972412109375,0.06033790856599808,0.06255685538053513,-0.0042760432697832584
1789059095956982300,6.831982177734375,0.06494410336017609,0.046627748757600784,-0.005488794296979904
1789059095966992400,6.841992431640625,0.05681267008185387,0.0421869270503521,-0.01876571774482727
1789059095977002500,6.85200244140625,0.05004771426320076,0.05111799016594887,-0.054854653775691986
1789059095987012400,6.862012451171875,0.05408906191587448,0.04236258193850517,-0.04622867330908775
1789059095997022200,6.872022216796875,0.05188561975955963,0.05381796881556511,-0.035234104841947556
1789059096007032000,6.882031982421875,0.04682108759880066,0.053247787058353424,-0.03940994292497635
1789059096017042200,6.892042236328125,0.04510381445288658,0.05598769336938858,-0.031217060983181
1789059096027052300,6.90205224609375,0.03342532366514206,0.06087565794587135,-0.08161178976297379
1789059096037062100,6.912062255859375,0.020221123471856117,0.046806324273347855,-0.10641711205244064
1789059096047072300,6.922072265625,0.019381696358323097,0.04429043456912041,-0.13324472308158875
1789059096057082000,6.93208203125,0.007457917556166649,0.037273384630680084,-0.1374792456626892
1789059096067092200,6.94209228515625,-0.0015198653563857079,0.04225136712193489,-0.08883475512266159
1789059096077102000,6.95210205078125,-0.016013043001294136,0.040927764028310776,-0.1265980452299118
1789059096087112200,6.9621123046875,-0.02940528094768524,0.04831723868846893,-0.07303041964769363
1789059096097122300,6.972122314453125,-0.044570643454790115,0.039691198617219925,-0.09443776309490204
1789059096107132200,6.982132080078125,-0.0537223294377327,0.035902854055166245,-0.06925304234027863
1789059096117142300,6.992142333984375,-0.030938468873500824,0.01662946306169033,-0.06253685802221298
1789059096127152000,7.002152099609375,-0.057843051850795746,0.017257701605558395,-0.07556211203336716
1789059096137162200,7.012162353515625,-0.08771204203367233,0.029638763517141342,-0.09525293111801147
1789059096147172000,7.022172119140625,-0.10171414166688919,0.0341874398291111,-0.10877193510532379
1789059096157182200,7.03218212890625,-0.09211264550685883,0.029327120631933212,-0.10175595432519913
1789059096167192300,7.0421923828125,-0.0778503566980362,0.03279535844922066,-0.08663079887628555
1789059096177202200,7.0522021484375,-0.07827723026275635,0.026922211050987244,-0.06132775545120239
1789059096187212300,7.06221240234375,-0.07737229019403458,0.03506216034293175,-0.018014373257756233
1789059096197222100,7.07222216796875,-0.06262718141078949,0.03632824495434761,-0.03272447735071182
1789059096207232300,7.082232177734375,-0.052559372037649155,0.03261926397681236,-0.0275408998131752
1789059096217242400,7.092242431640625,-0.057633984833955765,0.03160201013088226,-0.04701642319560051
1789059096227252200,7.102252197265625,-0.06573984026908875,0.035826850682497025,-0.0418219268321991
1789059096237262300,7.112262451171875,-0.06515875458717346,0.039354000240564346,-0.0812065601348877
1789059096247272200,7.122272216796875,-0.05286667123436928,0.03913348913192749,-0.06038224324584007
1789059096257282300,7.1322822265625,-0.03692765161395073,0.044460076838731766,-0.04494602978229523
1789059096267292200,7.142292236328125,-0.04924397170543671,0.04978932812809944,-0.04826352745294571
1789059096277302300,7.15230224609375,-0.03692762926220894,0.03271014243364334,-0.039238858968019485
1789059096287312400,7.1623125,-0.051043182611465454,0.039707332849502563,-0.06556127965450287
1789059096297322200,7.172322265625,-0.052392613142728806,0.023750316351652145,-0.06344389170408249
1789059096307332400,7.182332275390625,-0.03387219086289406,0.01613021269440651,-0.04706385359168053
1789059096317342200,7.19234228515625,-0.04134051129221916,0.010878313332796097,-0.002248605014756322
1789059096327352300,7.202352294921875,-0.05314790457487106,0.023216472938656807,0.034270789474248886
1789059096337361400,7.212361328125,-0.058742716908454895,0.014663766138255596,0.045560989528894424
1789059096347371300,7.222371337890625,-0.07541517168283463,0.023726502433419228,0.06450112164020538
1789059096357381400,7.23238134765625,-0.08469440788030624,0.02620764821767807,0.05871130898594856
1789059096367391200,7.24239111328125,-0.08946599066257477,0.01032935082912445,0.0462154895067215
1789059096377401300,7.2524013671875,-0.09283031523227692,0.021393684670329094,0.05375570058822632
1789059096387411500,7.262411376953125,-0.08305252343416214,-0.013880948536098003,0.03361314907670021
1789059096397421300,7.27242138671875,-0.0758899450302124,-0.0011088070459663868,0.056987542659044266
1789059096407431400,7.282431396484375,-0.08194649964570999,0.002156495116651058,0.09573892503976822
1789059096417441300,7.292441162109375,-0.09598486125469208,0.014459207653999329,0.11055164784193039
1789059096427451400,7.302451416015625,-0.11431167274713516,0.02595394477248192,0.07674441486597061
1789059096437461500,7.31246142578125,-0.11342936754226685,0.019427018240094185,0.03172062337398529
1789059096447471400,7.322471435546875,-0.0930817499756813,0.021468862891197205,0.04026883840560913
1789059096457481500,7.3324814453125,-0.09024437516927719,0.01623598299920559,0.03139998018741608
1789059096467491000,7.342490966796875,-0.08638624846935272,0.018597407266497612,-0.0048903813585639
1789059096477501200,7.352501220703125,-0.07617173343896866,0.013156546279788017,-0.00357829499989748
1789059096487511000,7.362510986328125,-0.06606636941432953,0.0035265551414340734,-0.017723143100738525
1789059096497521200,7.372521240234375,-0.0533527173101902,0.0031588322017341852,-0.007653678301721811
1789059096507531300,7.38253125,-0.04871002584695816,0.0008767694234848022,0.005857337266206741
1789059096517541000,7.392541015625,-0.04338422045111656,0.00118951965123415,0.00438598170876503
1789059096527551200,7.40255126953125,-0.0601956881582737,0.022735025733709335,0.01943124458193779
1789059096537561000,7.41256103515625,-0.04751875624060631,0.01631029322743416,-0.0048941755667328835
1789059096547571200,7.4225712890625,-0.030314471572637558,0.029005317017436028,-0.005871289409697056
1789059096557581300,7.432581298828125,-0.009050488471984863,0.010660631582140923,-0.026096120476722717
1789059096567591200,7.442591064453125,0.014097174629569054,0.02989318035542965,-0.01984434947371483
1789059096577601300,7.452601318359375,0.03578832745552063,0.01048317737877369,-0.02439313940703869
1789059096587611100,7.462611083984375,0.06740430742502213,0.0027946317568421364,-0.009725246578454971
1789059096597621200,7.472621337890625,0.08355110883712769,0.004915908444672823,-0.016951223835349083
1789059096607631000,7.482631103515625,0.08479027450084686,0.008793470449745655,0.0009960841853171587
1789059096617641200,7.49264111328125,0.08558894693851471,0.020162884145975113,0.015315008349716663
1789059096627651300,7.5026513671875,0.08384591341018677,0.012970751151442528,0.0027787107974290848
1789059096637661200,7.5126611328125,0.08701826632022858,0.02259669452905655,-0.0161982960999012
1789059096647671300,7.52267138671875,0.07586388289928436,0.016453847289085388,-0.02842220477759838
1789059096657681200,7.53268115234375,0.06634710729122162,0.0031437710858881474,-0.007991539314389229
1789059096667691300,7.542691162109375,0.06127272546291351,0.010014726780354977,-0.015450255014002323
1789059096677701000,7.552701171875,0.03628900647163391,0.0006841807626187801,0.03223176300525665
1789059096687711200,7.562711181640625,0.006531643681228161,-0.010618274100124836,-0.05335530638694763
1789059096697721300,7.572721435546875,-0.02418731153011322,-0.000816830899566412,-0.06533114612102509
1789059096707731200,7.582731201171875,-0.05128497630357742,-0.004721025004982948,-0.0741797611117363
1789059096717741300,7.5927412109375,-0.07647720724344254,-0.00353683577850461,-0.03497066721320152
1789059096727751200,7.602751220703125,-0.07963917404413223,-0.013004373759031296,-0.00018179346807301044
1789059096737761300,7.61276123046875,-0.08238459378480911,-0.02201099507510662,0.010313007049262524
1789059096747771100,7.622771240234375,-0.0780649483203888,-0.02990114316344261,-0.006584217771887779
1789059096757781000,7.632781005859375,-0.103958360850811,-0.017531326040625572,-0.033855240792036057
1789059096767791000,7.642791015625,-0.13201795518398285,-0.01282179169356823,-0.04008863866329193
1789059096777801000,7.652801025390625,-0.14749570190906525,-0.018332207575440407,-0.029831724241375923
1789059096787811000,7.66281103515625,-0.15758481621742249,-0.009312613867223263,0.005433589685708284
1789059096797821000,7.672821044921875,-0.15257036685943604,-0.028295237571001053,0.025254005566239357
1789059096807831000,7.6828310546875,-0.14293691515922546,-0.031986113637685776,0.019836070016026497
1789059096817841200,7.692841064453125,-0.15374402701854706,-0.030873076990246773,-0.010412405245006084
1789059096827851000,7.70285107421875,-0.15799656510353088,-0.023771757259964943,-0.008013430051505566
1789059096837861000,7.712861083984375,-0.15505853295326233,-0.017691029235720634,-0.02992856875061989
1789059096847871000,7.72287109375,-0.1492919921875,-0.02086178958415985,-0.03566554933786392
1789059096857881000,7.732881103515625,-0.1389794498682022,-0.011087602004408836,-0.03213861957192421
1789059096867891200,7.74289111328125,-0.1262332946062088,-0.013537442311644554,-0.030546847730875015
1789059096877900000,7.752900146484375,-0.10923271626234055,-0.024181686341762543,-0.012022273615002632
1789059096887910100,7.76291015625,-0.07206457853317261,-0.03335654363036156,0.0024783725384622812
1789059096897920300,7.772920166015625,-0.070224329829216,-0.037211254239082336,-0.03625210002064705
1789059096907930000,7.78293017578125,-0.06820698827505112,-0.02856290340423584,-0.02578720636665821
1789059096917940200,7.792940185546875,-0.063336081802845,-0.02048606052994728,-0.03501619026064873
1789059096927950000,7.8029501953125,-0.05285920575261116,-0.01884954795241356,-0.002399925608187914
1789059096937960200,7.812960205078125,-0.01600799523293972,-0.023565463721752167,0.0005830139853060246
1789059096947970000,7.822969970703125,-0.014825284481048584,-0.01703139953315258,-0.031076645478606224
1789059096957980200,7.832980224609375,-0.006603282410651445,-0.02580466866493225,-0.02042519859969616
1789059096967990300,7.842990234375,0.014749143272638321,-0.03927626833319664,-0.060904715210199356
1789059096978000100,7.853000244140625,0.01895853504538536,-0.03156726807355881,-0.048866014927625656
1789059096988010200,7.86301025390625,0.03801478073000908,-0.03127219155430794,-0.056376129388809204
1789059096998020000,7.87302001953125,0.04562794044613838,-0.03446440026164055,-0.04304157570004463
1789059097008030200,7.8830302734375,0.042155180126428604,-0.025614449754357338,-0.0027801720425486565
1789059097018040000,7.8930400390625,0.0435091108083725,-0.037280041724443436,0.007815586403012276
1789059097028050200,7.90305029296875,0.03757212683558464,-0.030124392360448837,-0.01960858143866062
1789059097038060300,7.913060302734375,0.013110765255987644,-0.01954149827361107,-0.05245409160852432
1789059097048070100,7.923070068359375,0.0010077630868181586,-0.030370712280273438,-0.05540354177355766
1789059097058080300,7.933080322265625,-0.025698456913232803,-0.013895940035581589,-0.03559006378054619
1789059097068090000,7.943090087890625,-0.01033041998744011,-0.021619640290737152,-0.022823402658104897
1789059097078100200,7.953100341796875,-0.030949333682656288,-0.0241315346211195,-0.06403796374797821
1789059097088110300,7.9631103515625,-0.04081341624259949,-0.025723038241267204,-0.052467331290245056
1789059097098120200,7.9731201171875,-0.062240250408649445,-0.045083027333021164,-0.06866462528705597
1789059097108130300,7.98313037109375,-0.08033536374568939,-0.042006008327007294,-0.03162112087011337
1789059097118140200,7.99314013671875,-0.08507229387760162,-0.0470811203122139,-0.047969020903110504
1789059097128150300,8.003150390625,-0.1095731109380722,-0.033038802444934845,-0.04963536188006401
1789059097138160000,8.01316015625,-0.13685186207294464,-0.04185749217867851,-0.06467479467391968
1789059097148170200,8.023170166015625,-0.16420118510723114,-0.03435483202338219,-0.08917054533958435
1789059097158180400,8.033180419921875,-0.15737660229206085,-0.0577828474342823,-0.07546015083789825
1789059097168190200,8.043190185546875,-0.15391290187835693,-0.05890004709362984,-0.08625553548336029
1789059097178200300,8.053200439453125,-0.1670294851064682,-0.06284036487340927,-0.061559464782476425
1789059097188210200,8.063210205078125,-0.1819106936454773,-0.0650252178311348,-0.010112522169947624
1789059097198220300,8.07322021484375,-0.18517279624938965,-0.05800284072756767,0.01175105944275856
1789059097208230100,8.083230224609375,-0.18646124005317688,-0.07337994128465652,0.03775389492511749
1789059097218240300,8.093240234375,-0.17195497453212738,-0.062315162271261215,0.05213093385100365
1789059097228250000,8.10325,-0.18379192054271698,-0.0515192411839962,0.04054378718137741
1789059097238260000,8.113260009765625,-0.1568911075592041,-0.05443339794874191,-0.00037491414695978165
1789059097248270000,8.12327001953125,-0.13257884979248047,-0.04008535295724869,-0.027156727388501167
1789059097258280000,8.133280029296875,-0.0941978394985199,-0.03824259340763092,-0.009397873654961586
1789059097268290000,8.1432900390625,-0.060066238045692444,-0.04082292690873146,-0.02181805670261383
1789059097278300200,8.153300048828125,-0.04031328856945038,-0.022111468017101288,0.03435071185231209
1789059097288310000,8.16331005859375,-0.0264723040163517,-0.025285691022872925,0.005435972474515438
1789059097298320100,8.173320068359375,0.004257867578417063,-0.030537782236933708,-0.005687158554792404
1789059097308330000,8.183330078125,0.013091306202113628,-0.01851840503513813,-0.0010228983592242002
1789059097318340000,8.193340087890626,0.03625921159982681,-0.013097807765007019,0.029452718794345856
1789059097328350000,8.203349853515626,0.04757258668541908,-0.01797591894865036,0.03147539123892784
1789059097338360000,8.213360107421876,0.042724817991256714,0.0003881305456161499,0.049565523862838745
1789059097348370200,8.2233701171875,0.04667135700583458,-0.011426717042922974,0.021269435063004494
1789059097358380000,8.233380126953126,0.05696902424097061,-0.001023361925035715,0.019573934376239777
1789059097368390100,8.24339013671875,0.07477331906557083,-0.019357096403837204,-0.012825015932321548
1789059097378400000,8.25339990234375,0.09314320981502533,-0.02360137365758419,0.02484779804944992
1789059097388410000,8.26341015625,0.08347779512405396,-0.028810515999794006,0.012522156350314617
1789059097398420000,8.273419921875,0.07749609649181366,-0.009290637448430061,0.043731678277254105
1789059097408429000,8.283428955078126,0.0896369218826294,-0.03911590948700905,0.03331205993890762
1789059097418440200,8.293440185546874,0.08404083549976349,-0.03263160586357117,0.04477369785308838
1789059097428449300,8.30344921875,0.09439200907945633,-0.043273597955703735,0.020717894658446312
1789059097438459100,8.313459228515624,0.10512752830982208,-0.04095135256648064,0.013588613830506802
1789059097448469200,8.32346923828125,0.09374438226222992,-0.029349293559789658,0.0036411748733371496
1789059097458479000,8.33347900390625,0.09698005765676498,-0.018919141963124275,0.036503154784440994
1789059097468489200,8.3434892578125,0.1036536768078804,-0.028117168694734573,0.03785683959722519
1789059097478499000,8.3534990234375,0.09778141975402832,-0.00015548011288046837,0.07298450917005539
1789059097488509200,8.36350927734375,0.1137515977025032,-0.028012942522764206,0.0528843030333519
1789059097498519300,8.373519287109374,0.12532305717468262,-0.017133202403783798,0.07474061101675034
1789059097508529200,8.383529052734374,0.1143132820725441,-0.015515596605837345,0.07046756893396378
1789059097518539300,8.393539306640625,0.11635720729827881,-0.020248686894774437,0.05655059218406677
1789059097528549000,8.403549072265625,0.10302329063415527,-0.008447155356407166,0.03270384669303894
1789059097538559200,8.413559326171875,0.09350333362817764,-0.009257107973098755,0.0074058338068425655
1789059097548569000,8.423569091796875,0.09260904043912888,-0.019356347620487213,-0.029392661526799202
1789059097558579200,8.4335791015625,0.09540453553199768,-0.01822538860142231,-0.04497892037034035
1789059097568589300,8.44358935546875,0.09192431718111038,-0.01425940915942192,-0.030649248510599136
1789059097578599200,8.45359912109375,0.09439441561698914,-0.02296615019440651,-0.018467135727405548
1789059097588609300,8.463609375,0.082242950797081,-0.021914469078183174,-0.009204661473631859
1789059097598619100,8.473619140625,0.067369744181633,-0.015797093510627747,0.011557914316654205
1789059097608629200,8.483629150390625,0.039798032492399216,-0.001489260233938694,0.03849205747246742
1789059097618639000,8.49363916015625,0.0385708212852478,-0.015284571796655655,0.038805022835731506
1789059097628649200,8.503649169921875,0.04053836315870285,-0.013893602415919304,0.017169499769806862
1789059097638659300,8.513659423828125,0.03409753739833832,-0.022843070328235626,-0.01952848583459854
1789059097648669200,8.523669189453125,0.03412816300988197,-0.016997963190078735,-0.008430028334259987
1789059097658679300,8.53367919921875,0.02452792227268219,-0.005572625435888767,-0.043842170387506485
1789059097668689200,8.543689208984375,0.023730838671326637,-0.0021014604717493057,-0.04778338223695755
1789059097678699300,8.55369921875,0.018550259992480278,-0.011118657886981964,-0.0458238311111927
1789059097688708600,8.56370849609375,0.0064081111922860146,0.015207754448056221,-0.03426917642354965
1789059097698718500,8.573718505859375,0.031039658933877945,0.006062374450266361,-0.00222453149035573
1789059097708728600,8.583728515625,0.018870078027248383,0.019048746675252914,0.025314949452877045
1789059097718738400,8.593738525390625,0.008673137053847313,0.022726278752088547,0.015530165284872055
1789059097728748500,8.60374853515625,0.015014923177659512,0.018928878009319305,-0.0025726715102791786
1789059097738758700,8.613758544921875,0.013936609029769897,0.0335131473839283,-0.017762010917067528
1789059097748768500,8.6237685546875,0.01133683044463396,0.03898807615041733,-0.026235390454530716
1789059097758778600,8.633778564453126,0.02732056938111782,0.03434252366423607,-0.027937963604927063
1789059097768788500,8.64378857421875,0.019166503101587296,0.05060991272330284,-0.0018270004075020552
1789059097778798600,8.653798583984376,0.03480378910899162,0.03594078868627548,-0.016599580645561218
1789059097788808700,8.66380859375,0.05216493830084801,0.041145142167806625,0.00937769003212452
1789059097798818600,8.673818603515626,0.05153133347630501,0.045642923563718796,0.04195501655340195
1789059097808828700,8.68382861328125,0.04668384790420532,0.04615931212902069,0.0438501238822937
1789059097818838500,8.693838623046876,0.045283880084753036,0.04202519357204437,0.008281960152089596
1789059097828848600,8.7038486328125,0.02678290195763111,0.06151606887578964,-0.024685842916369438
1789059097838858500,8.7138583984375,0.026888130232691765,0.0521693117916584,-0.0276838056743145
1789059097848868600,8.72386865234375,0.023929357528686523,0.05192003771662712,-0.04710756987333298
1789059097858878700,8.733878662109374,0.020212560892105103,0.06394901871681213,0.012516023591160774
1789059097868888600,8.743888671875,0.04608490690588951,0.03352399915456772,-0.029884163290262222
1789059097878898700,8.753898681640624,0.04585832729935646,0.053358592092990875,-0.010861520655453205
1789059097888908500,8.763908447265624,0.04608895629644394,0.047459423542022705,-0.01335423905402422
1789059097898918700,8.773918701171874,0.038696520030498505,0.05206757038831711,-0.0022380203008651733
1789059097908928500,8.783928466796874,0.02855120785534382,0.0742756724357605,0.02726554311811924
1789059097918938600,8.793938720703125,0.011880619451403618,0.06912244856357574,0.007435645908117294
1789059097928948700,8.80394873046875,0.01402369886636734,0.07328995317220688,-0.04132648557424545
1789059097938957600,8.81395751953125,-0.005952699109911919,0.07302574068307877,-0.04436487331986427
1789059097948967700,8.8239677734375,-0.005638979375362396,0.06405434757471085,-0.03991100564599037
1789059097958977800,8.833977783203125,-0.017542773857712746,0.07045557349920273,0.011359762400388718
1789059097968987600,8.843987548828125,-0.03362906724214554,0.04911300167441368,-0.0025131769943982363
1789059097978997800,8.853997802734375,-0.0473795086145401,0.05605725198984146,0.0058555928990244865
1789059097989007600,8.864007568359375,-0.07379620522260666,0.05147528275847435,-0.025433354079723358
1789059097999017700,8.874017822265625,-0.07397862523794174,0.03799600899219513,0.000664413208141923
1789059098009027800,8.88402783203125,-0.10384704172611237,0.04847181960940361,0.003173643257468939
1789059098019037700,8.89403759765625,-0.11911734938621521,0.0450507327914238,0.026895416900515556
1789059098029047800,8.9040478515625,-0.11350154131650925,0.029698142781853676,0.014572970569133759
1789059098039057700,8.9140576171875,-0.1286383718252182,0.038337402045726776,0.019688904285430908
1789059098049067800,8.92406787109375,-0.13061736524105072,0.03169148415327072,0.0063264938071370125
1789059098059077600,8.93407763671875,-0.12681521475315094,0.015541475266218185,0.011175069957971573
1789059098069087700,8.944087646484375,-0.141566202044487,0.02200203761458397,0.0005637041758745909
1789059098079097900,8.954097900390625,-0.1213136687874794,0.002803842071443796,0.003456962527707219
1789059098089107700,8.964107666015625,-0.11908912658691406,0.000699944794178009,0.013086952269077301
1789059098099117800,8.974117919921875,-0.13038408756256104,0.0065416134893894196,0.04714830592274666
1789059098109127700,8.984127685546875,-0.06284499168395996,-0.10534870624542236,0.0927826389670372
1789059098119137500,8.994137451171875,-0.00545172905549407,-0.15081259608268738,0.09088946133852005
1789059098129147600,9.004147705078125,-0.07396314293146133,-0.11984908580780029,-0.018313990905880928
1789059098139157500,9.014157470703125,-0.25549858808517456,0.021418040618300438,-0.04941505193710327
1789059098149167600,9.024167724609375,-0.3857452869415283,0.11662551760673523,-0.1260344684123993
1789059098159177500,9.034177490234375,-0.29438480734825134,0.08019030094146729,-0.1082703098654747
1789059098169187600,9.0441875,-0.16260625422000885,-0.0011567515321075916,0.013464907184243202
1789059098179197400,9.054197509765626,-0.13885696232318878,-0.06281166523694992,0.07460178434848785
1789059098189207600,9.06420751953125,-0.12005504220724106,-0.07397723197937012,0.11317341029644012
1789059098199217700,9.0742177734375,-0.1005585715174675,-0.07724461704492569,0.020440127700567245
1789059098209227500,9.0842275390625,-0.10991718620061874,-0.040083929896354675,-0.04710296168923378
1789059098219237600,9.094237548828126,-0.10736826807260513,-0.028846565634012222,-0.03014252707362175
1789059098229247500,9.10424755859375,-0.12548309564590454,-0.013701433315873146,-0.027289750054478645
1789059098239257600,9.114257568359376,-0.11550449579954147,-0.017934314906597137,-0.03320528194308281
1789059098249267500,9.124267333984376,-0.07807935774326324,-0.02462763711810112,-0.018069740384817123
1789059098259277600,9.134277587890624,-0.06349744647741318,-0.050102293491363525,-0.011167451739311218
1789059098269287700,9.14428759765625,-0.033080149441957474,-0.06712841242551804,0.04608811438083649
1789059098279297500,9.154297607421874,-0.05996933579444885,-0.052889421582221985,0.03998039290308952
1789059098289307600,9.1643076171875,-0.11119204014539719,-0.0328667126595974,0.013795660808682442
1789059098299317500,9.1743173828125,-0.13429629802703857,-0.013322355225682259,-0.021554993465542793
1789059098309327600,9.18432763671875,-0.14154648780822754,-0.004342974629253149,0.012648251838982105
1789059098319337700,9.194337646484374,-0.12204203754663467,-0.030527327209711075,-0.007443528156727552
1789059098329347600,9.20434765625,-0.10232505947351456,-0.04115014523267746,-0.026662230491638184
1789059098339357700,9.214357666015625,-0.10860186815261841,-0.04274185374379158,-0.018882285803556442
1789059098349367600,9.224367431640625,-0.08514048159122467,-0.06953752040863037,-0.017406627535820007
1789059098359377700,9.234377685546875,-0.07930441945791245,-0.05865756422281265,0.015733111649751663
1789059098369387500,9.244387451171875,-0.06495343893766403,-0.06824414432048798,0.02594979666173458
1789059098379397600,9.254397705078125,-0.06717850267887115,-0.060523055493831635,0.019733034074306488
1789059098389407700,9.26440771484375,-0.08513300120830536,-0.04575395956635475,0.007240677252411842
1789059098399417600,9.27441748046875,-0.0833234190940857,-0.06676936894655228,-0.0156070776283741
1789059098409427700,9.284427734375,-0.051507964730262756,-0.05187883600592613,0.0172512698918581
1789059098419437600,9.2944375,-0.03957754373550415,-0.06535778194665909,-0.005846420768648386
1789059098429447700,9.30444775390625,-0.017655465751886368,-0.07452625036239624,0.02254900150001049
1789059098439456800,9.314456787109375,-0.012620452791452408,-0.08107776194810867,-0.0015887938207015395
1789059098449466600,9.324466552734375,-0.016258597373962402,-0.08041197061538696,-0.030180491507053375
1789059098459476700,9.334476806640625,0.007122085429728031,-0.07446502149105072,-0.029675649479031563
1789059098469486600,9.344486572265625,0.02225097082555294,-0.07817613333463669,-0.002573191886767745
1789059098487005700,9.362005615234375,0.03193742036819458,-0.08592859655618668,0.004031980410218239
1789059098497015800,9.372015869140625,0.025177517905831337,-0.07690607756376266,-0.01622748374938965
1789059098507025700,9.382025634765625,0.02604490891098976,-0.0836462676525116,-0.022817211225628853
1789059098517035800,9.392035888671876,0.026130910962820053,-0.08286397159099579,-0.019375769421458244
1789059098527045600,9.402045654296876,0.023995323106646538,-0.08655378222465515,0.025134706869721413
1789059098537055700,9.4120556640625,0.01871507428586483,-0.09465400129556656,0.0002617018762975931
1789059098547065900,9.42206591796875,0.018159272149205208,-0.09098496288061142,0.015604173764586449
1789059098557075700,9.43207568359375,0.010436639189720154,-0.0977744311094284,0.005662060342729092
1789059098567085800,9.4420859375,0.005968672223389149,-0.10278662294149399,0.028028246015310287
1789059098577095700,9.452095703125,-0.0054648201912641525,-0.10823778808116913,-0.001851036213338375
1789059098587105800,9.462105712890626,-0.022946076467633247,-0.09827996045351028,-0.011928170919418335
1789059098597115600,9.47211572265625,-0.03627173230051994,-0.0841287225484848,-0.016263797879219055
1789059098607125800,9.482125732421874,-0.03768320754170418,-0.10038013011217117,-0.03167764097452164
1789059098617135600,9.492135498046874,-0.02644786611199379,-0.106687031686306,0.017850764095783234
1789059098627145500,9.5021455078125,-0.02071353606879711,-0.10759197920560837,0.0017229935619980097
1789059098637155600,9.512155517578124,-0.02200380340218544,-0.10706288367509842,0.007870448753237724
1789059098647165400,9.52216552734375,-0.009133810177445412,-0.1027698665857315,0.02058997191488743
1789059098657175600,9.532175537109374,-0.008105830289423466,-0.0913315936923027,0.02697090618312359
1789059098667185700,9.542185546875,0.02084825374186039,-0.09232484549283981,-0.0008519545663148165
1789059098677195500,9.552195556640624,0.06611832231283188,-0.08641640096902847,-0.006034394726157188
1789059098687206000,9.562205810546875,0.0984317883849144,-0.08171725273132324,-0.012873392552137375
1789059098697215700,9.5722158203125,0.12571507692337036,-0.07187048345804214,-0.014191923663020134
1789059098707225900,9.582225830078125,0.16270101070404053,-0.06961219757795334,-0.036767181009054184
1789059098717235700,9.592235595703125,0.1834249347448349,-0.046846698969602585,-0.012488741427659988
1789059098727245800,9.602245849609375,0.21043424308300018,-0.0400710254907608,-0.004868597257882357
1789059098737256000,9.612255859375,0.21385321021080017,-0.03818444535136223,0.03405722975730896
1789059098747265800,9.622265869140625,0.21705162525177002,-0.0236571803689003,0.054902203381061554
1789059098757276000,9.63227587890625,0.2143399715423584,-0.009930595755577087,0.05936949700117111
1789059098767285800,9.64228564453125,0.21258628368377686,-0.00868077389895916,0.009168111719191074
1789059098777296000,9.6522958984375,0.22262346744537354,0.002848316915333271,-0.0017705564387142658
1789059098787305700,9.6623056640625,0.23835426568984985,-0.02230936288833618,0.010881817899644375
1789059098797314000,9.67231396484375,0.23924635350704193,0.0006134603172540665,-0.00005496479570865631
1789059098807323600,9.68232373046875,0.23548837006092072,-0.01308450847864151,-0.0192776620388031
1789059098817333800,9.692333740234375,0.21984261274337769,-0.006554094143211842,-0.042631544172763824
1789059098827343600,9.702343505859375,0.2023179531097412,0.02526642009615898,0.004426514729857445
1789059098837353700,9.712353759765625,0.19771283864974976,0.008096357807517052,0.025677168741822243
1789059098847363600,9.722363525390625,0.2260933518409729,-0.013793228194117546,0.007134377025067806
1789059098857373700,9.732373779296875,0.2477235496044159,-0.036502107977867126,0.0009718493092805147
1789059098867383800,9.7423837890625,0.19804680347442627,-0.0020527848973870277,-0.008429109118878841
1789059098877393700,9.7523935546875,0.1702393740415573,0.01797441765666008,-0.01907481625676155
1789059098887403800,9.76240380859375,0.17249320447444916,0.03349585458636284,-0.04139263927936554
1789059098897413600,9.77241357421875,0.17334409058094025,0.031355470418930054,-0.026671215891838074
1789059098907423700,9.782423828125,0.17903608083724976,0.02090367116034031,-0.0027321416418999434
1789059098917433900,9.792433837890625,0.1785271167755127,0.01758410967886448,0.005948949605226517
1789059098927443700,9.802443603515625,0.1733427345752716,0.0237922053784132,0.04928363859653473
1789059098937453800,9.812453857421875,0.14035949110984802,0.03378412872552872,0.053236767649650574
1789059098947463700,9.822463623046875,0.11024099588394165,0.050922371447086334,0.036631692200899124
1789059098957473800,9.832473876953125,0.0977923721075058,0.04795770347118378,-0.01638971082866192
1789059098967483600,9.842483642578125,0.10620023310184479,0.04862802103161812,-0.016836056485772133
1789059098977493800,9.85249365234375,0.11014033854007721,0.040874630212783813,-0.0019415576243773103
1789059098987503900,9.86250390625,0.11623284965753555,0.03988073766231537,0.019063327461481094
1789059098997513700,9.872513671875,0.14202025532722473,0.0433618500828743,0.025926334783434868
1789059099007523800,9.88252392578125,0.14491723477840424,0.043591950088739395,-0.013220002874732018
1789059099017533700,9.89253369140625,0.16427358984947205,0.039707813411951065,-0.008369473740458488
1789059099027543800,9.902543701171876,0.17870685458183289,0.04750075563788414,0.01712336763739586
1789059099037553700,9.9125537109375,0.18271949887275696,0.05604759603738785,0.010630389675498009
1789059099047563800,9.922563720703126,0.19105945527553558,0.07048378884792328,0.010713214054703712
1789059099057574000,9.932573974609374,0.18366168439388275,0.07473454624414444,-0.03888611122965813
1789059099067583700,9.942583740234374,0.1814480721950531,0.08338422328233719,-0.05372631177306175
1789059099077593900,9.95259375,0.20364925265312195,0.08442690223455429,-0.03610485419631004
1789059099087603700,9.962603759765624,0.2378663420677185,0.08202660083770752,0.003001802135258913
1789059099097613800,9.97261376953125,0.22862280905246735,0.10533503443002701,0.01761225238442421
1789059099107624000,9.9826240234375,0.2418656349182129,0.0987362489104271,0.056121826171875
1789059099117633800,9.9926337890625,0.2499227225780487,0.09993597120046616,0.02714345045387745
1789059099127644000,10.002643798828124,0.2426949143409729,0.10178153961896896,0.021051203832030296
1789059099137653800,10.01265380859375,0.20021112263202667,0.11172013729810715,-0.0480664037168026
1789059099147664000,10.022663818359375,0.1335093230009079,0.1542486995458603,0.0468667671084404
1789059099157673700,10.032673828125,0.101080022752285,0.12602859735488892,0.022637370973825455
1789059099167683800,10.042683837890625,0.11082932353019714,0.13433793187141418,-0.006979377940297127
1789059099177694000,10.05269384765625,0.10842102766036987,0.13357242941856384,0.04119003936648369
1789059099187703800,10.062703857421875,0.10207045823335648,0.09944029152393341,-0.00720518734306097
1789059099197714000,10.0727138671875,0.09816411137580872,0.09650049358606339,0.009653140790760517
1789059099207723800,10.082723876953125,0.058196716010570526,0.12920811772346497,0.061961621046066284
1789059099217734000,10.09273388671875,0.02559216320514679,0.1489260494709015,0.06388285011053085
1789059099227743700,10.10274365234375,-0.009254766628146172,0.1465044468641281,0.037289056926965714
1789059099237753900,10.11275390625,-0.019998742267489433,0.1133585125207901,-0.019639819860458374
1789059099247764000,10.122763916015625,-0.027060646563768387,0.10291146486997604,-0.08787666261196136
1789059099257773800,10.13277392578125,-0.10907937586307526,0.12602324783802032,-0.055728331208229065
1789059099267784000,10.142783935546875,-0.1448802351951599,0.12935645878314972,-0.027585908770561218
1789059099277793800,10.152793701171875,-0.14417791366577148,0.11549365520477295,0.013964852318167686
1789059099287804000,10.162803955078125,-0.1628783643245697,0.1022750586271286,0.031830672174692154
1789059099297812700,10.172812744140625,-0.1858319193124771,0.10197824239730835,0.03708912059664726
1789059099307822600,10.182822509765625,-0.2114025205373764,0.09933532029390335,0.02179218828678131
1789059099317832700,10.192832763671875,-0.24410691857337952,0.07643307000398636,-0.008835001848638058
1789059099327842800,10.2028427734375,-0.2845150828361511,0.07816386222839355,-0.03990290313959122
1789059099337852700,10.212852783203125,-0.2955400049686432,0.07719680666923523,0.005418982356786728
1789059099347862800,10.22286279296875,-0.2993600368499756,0.07067152857780457,-0.009111757390201092
1789059099357872600,10.23287255859375,-0.2753702998161316,0.07649187743663788,0.024734755977988243
1789059099367882800,10.2428828125,-0.27798792719841003,0.061259135603904724,0.012037603184580803
1789059099377892600,10.252892578125,-0.23675237596035004,0.054398063570261,0.025314059108495712
1789059099387902700,10.26290283203125,-0.21358180046081543,0.05030345171689987,0.011887998320162296
1789059099397912800,10.272912841796876,-0.2083476334810257,0.05546502396464348,0.0007532951422035694
1789059099407922700,10.282922607421876,-0.21712274849414825,0.05211290344595909,-0.006961349863559008
1789059099417932800,10.292932861328126,-0.21788997948169708,0.06599712371826172,-0.009361349046230316
1789059099427942700,10.302942626953126,-0.21027708053588867,0.06310519576072693,-0.013282587751746178
1789059099437952800,10.312952880859376,-0.19261151552200317,0.05851144716143608,-0.02342502400279045
1789059099447963000,10.322962890625,-0.18648864328861237,0.06724315881729126,-0.021329380571842194
1789059099457972700,10.33297265625,-0.18707159161567688,0.055086400359869,0.005823862738907337
1789059099467982800,10.34298291015625,-0.1892591118812561,0.05887021869421005,0.03729550167918205
1789059099477992700,10.35299267578125,-0.1750820279121399,0.04400881007313728,0.06351862847805023
1789059099488002800,10.3630029296875,-0.16712476313114166,0.03917410597205162,0.06684251874685287
1789059099498012700,10.3730126953125,-0.1614953875541687,0.02101045474410057,0.0422804057598114
1789059099508022800,10.383022705078124,-0.18734003603458405,0.03207562491297722,-0.0215744711458683
1789059099518033000,10.393032958984374,-0.20331157743930817,-0.0043031382374465466,-0.16276980936527252
1789059099528042800,10.403042724609374,-0.1695868968963623,0.01930445246398449,0.08087053894996643
1789059099538052900,10.413052978515625,-0.20935454964637756,-0.0003379066474735737,-0.010065369307994843
1789059099548062700,10.423062744140625,-0.17456701397895813,0.011984007433056831,0.06066766008734703
1789059099558072800,10.43307275390625,-0.17747974395751953,-0.015287484973669052,0.11020370572805405
1789059099568082700,10.443082763671875,-0.13972756266593933,-0.015974313020706177,0.08136752992868423
1789059099578092800,10.4530927734375,-0.09661655873060226,-0.06808659434318542,0.040222834795713425
1789059099588103000,10.46310302734375,-0.09152672439813614,-0.05859934538602829,-0.0007610833272337914
1789059099598112800,10.47311279296875,-0.09590766578912735,-0.051320310682058334,-0.07970239222049713
1789059099608123000,10.483122802734375,-0.12251797318458557,-0.06814722716808319,-0.11159294098615646
1789059099618132700,10.4931328125,-0.17659690976142883,-0.0013505262322723866,-0.0034528495743870735
1789059099628142800,10.503142822265625,-0.15119647979736328,-0.014406407251954079,0.040462676435709
1789059099638153000,10.513153076171875,-0.07246594876050949,-0.05481105297803879,0.09635016322135925
1789059099648162800,10.523162841796875,-0.04284786432981491,-0.08029324561357498,0.03437361121177673
1789059099658173000,10.5331728515625,-0.02028556540608406,-0.08412180095911026,0.020182695239782333
1789059099668182800,10.543182861328125,-0.05067408084869385,-0.061659809201955795,-0.011663611978292465
1789059099678193000,10.55319287109375,-0.0584113672375679,-0.06668130308389664,-0.02956455387175083
1789059099688202800,10.56320263671875,-0.04520102217793465,-0.056312285363674164,-0.027705134823918343
1789059099698212900,10.573212890625,-0.05267254263162613,-0.04557861015200615,-0.00717777106910944
1789059099708223000,10.583222900390625,-0.023336492478847504,-0.05904808267951012,0.02631041407585144
1789059099718232800,10.59323291015625,0.02853470668196678,-0.062137626111507416,0.025663333013653755
1789059099728243000,10.603242919921875,0.0613778755068779,-0.0831102803349495,0.03209859877824783
1789059099738252800,10.613252685546875,0.07325927913188934,-0.08211743831634521,-0.01483655720949173
1789059099748263000,10.623262939453125,0.07621245831251144,-0.047153063118457794,0.041448552161455154
1789059099758272800,10.633272705078125,0.0786929652094841,-0.07026763260364532,0.020651571452617645
1789059099768283000,10.643282958984376,0.0680035725235939,-0.047869376838207245,0.035509880632162094
1789059099778293000,10.65329296875,0.01543885562568903,-0.01783033087849617,0.005278831347823143
1789059099788302800,10.663302734375,0.04676828160881996,-0.03817581385374069,-0.02987356297671795
1789059099798312000,10.67331201171875,0.06434867531061172,-0.051302529871463776,-0.020827949047088623
1789059099808322000,10.683322021484376,0.05083126202225685,-0.042816098779439926,-0.0010625000577419996
1789059099818332000,10.693331787109376,0.056519508361816406,-0.045159414410591125,0.021962126716971397
1789059099828342000,10.703342041015626,0.0559450164437294,-0.038509681820869446,0.015808477997779846
1789059099838352000,10.713351806640626,0.04020070284605026,-0.02057347446680069,0.029233848676085472
1789059099848362000,10.723362060546876,0.03500567749142647,-0.027747761458158493,0.06031160056591034
1789059099858372000,10.7333720703125,0.024053694680333138,-0.02051568031311035,0.03931976854801178
1789059099868382000,10.7433818359375,-0.0012809773907065392,0.010368051938712597,0.014570057392120361
1789059099878392000,10.75339208984375,-0.0006106787477619946,-0.0427861250936985,-0.16907423734664917
1789059099888402000,10.76340185546875,-0.028479861095547676,-0.03014596551656723,0.07471339404582977
1789059099898412000,10.773412109375,0.002433094661682844,-0.01676047034561634,0.02740967646241188
1789059099908422000,10.783421875,-0.060920845717191696,0.009866345673799515,0.01413142029196024
1789059099918432000,10.793431884765624,-0.10566998273134232,0.02378123626112938,0.036319516599178314
1789059099928442000,10.803442138671874,-0.11057286709547043,0.026462772861123085,0.04629438742995262
1789059099938452000,10.813451904296874,-0.11668293178081512,0.009160574525594711,0.006953414995223284
1789059099948462000,10.823462158203125,-0.11004181206226349,0.006680905818939209,0.008341722190380096
1789059099958472000,10.833471923828125,-0.11075182259082794,-0.006082285661250353,-0.008453838527202606
1789059099968482000,10.84348193359375,-0.14388900995254517,-0.001719228457659483,-0.014069912023842335
1789059099978492000,10.853491943359375,-0.15527665615081787,-0.0055361404083669186,-0.027195287868380547
1789059099988502000,10.863501953125,-0.15078817307949066,-0.013518165796995163,-0.055100951343774796
1789059099998512000,10.87351220703125,-0.16331781446933746,-0.012707121670246124,-0.02522916905581951
1789059100008522000,10.88352197265625,-0.15209685266017914,0.01655436120927334,0.02262437343597412
1789059100018532000,10.893531982421875,-0.14180587232112885,-0.015237545594573021,0.03874945268034935
1789059100028542000,10.9035419921875,-0.09843389689922333,-0.009838253259658813,0.049725405871868134
1789059100038552000,10.913552001953125,-0.08325094729661942,-0.0021909852512180805,0.003193857381120324
1789059100048562200,10.923562255859375,-0.0821681097149849,-0.005583105608820915,-0.008679433725774288
1789059100058571800,10.93357177734375,-0.08201443403959274,0.020216740667819977,-0.004454647656530142
1789059100068582000,10.943581787109375,-0.08711971342563629,0.02775854617357254,0.01954522728919983
1789059100078591700,10.953591796875,-0.08052174746990204,0.016925614327192307,-0.0093192458152771
1789059100088601900,10.963601806640625,-0.07735951244831085,0.02993648871779442,0.02756393700838089
1789059100098611700,10.97361181640625,-0.07857470959424973,0.01392417959868908,-0.03153758496046066
1789059100108621800,10.983621826171875,-0.06467487663030624,0.011532660573720932,-0.003697432577610016
1789059100118632000,10.9936318359375,-0.07098732888698578,0.013760635629296303,-0.016625279560685158
1789059100128641800,11.003641845703125,-0.07667051255702972,0.022925104945898056,0.014574449509382248
1789059100138652000,11.01365185546875,-0.07671310752630234,0.01656157523393631,-0.015401518903672695
1789059100148661800,11.023661865234375,-0.06543542444705963,0.017485160380601883,-0.03297731652855873
1789059100158672000,11.033671875,-0.07040408253669739,0.009607693180441856,-0.04277239739894867
1789059100168682000,11.043681884765626,-0.07555756717920303,0.009899308905005455,-0.01907479017972946
1789059100178691800,11.05369189453125,-0.06137039512395859,0.014862282201647758,0.024633238092064857
1789059100188702000,11.063701904296876,-0.04152878001332283,-0.004765747115015984,0.015818174928426743
1789059100198711800,11.0737119140625,-0.040531985461711884,0.009952178224921227,0.034984420984983444
1789059100208722000,11.083721923828126,-0.033740125596523285,0.010646997019648552,0.014727088622748852
1789059100218731800,11.093731689453126,-0.032626908272504807,0.003118549706414342,-0.009784990921616554
1789059100228742000,11.103741943359376,-0.03648076951503754,-0.003251731861382723,-0.023444077000021935
1789059100238752000,11.113751953125,-0.037176940590143204,-0.0017443136312067509,-0.023585505783557892
1789059100248761900,11.123761962890624,-0.045780282467603683,0.013891903683543205,-0.011624185368418694
1789059100258772000,11.13377197265625,-0.03828081488609314,-0.0022823838517069817,-0.013822264038026333
1789059100268781800,11.14378173828125,-0.03907576948404312,0.00961129367351532,0.018881887197494507
1789059100278791000,11.153791015625,-0.046656716614961624,-0.005778160411864519,0.02016322687268257
1789059100288801800,11.1638017578125,-0.050985418260097504,-0.011937785893678665,0.014661936089396477
1789059100298811000,11.173810791015624,-0.05540601909160614,-0.016387593001127243,0.023641301319003105
1789059100308821000,11.183821044921874,-0.06467727571725845,-0.02233336679637432,0.0034345658496022224
1789059100318830800,11.193830810546874,-0.09582854062318802,-0.020296743139624596,-0.01713411882519722
1789059100328841000,11.203841064453124,-0.11497453600168228,-0.02213725447654724,-0.02621469832956791
1789059100338851000,11.21385107421875,-0.13780313730239868,-0.02249833568930626,-0.0068546622060239315
1789059100348861000,11.22386083984375,-0.15534058213233948,-0.03298506513237953,0.01112620159983635
1789059100358871000,11.23387109375,-0.15037751197814941,-0.044313207268714905,0.026421962305903435
1789059100368881000,11.243880859375,-0.1381666511297226,-0.05985541641712189,0.0011203340254724026
1789059100378891000,11.25389111328125,-0.16273590922355652,-0.06541375070810318,0.03073536604642868
1789059100388901000,11.263901123046875,-0.1715078204870224,-0.0610877089202404,0.02700613997876644
1789059100398911000,11.273910888671875,-0.17160765826702118,-0.05821141600608826,0.038431208580732346
1789059100408921000,11.283921142578125,-0.15234315395355225,-0.08881939202547073,-0.02786153182387352
1789059100418931000,11.293930908203125,-0.14815908670425415,-0.09448715299367905,-0.028757471591234207
1789059100428941000,11.303941162109375,-0.1438053548336029,-0.08215165883302689,-0.005952822044491768
1789059100438951000,11.313950927734375,-0.1407022625207901,-0.08473891019821167,-0.01821781136095524
1789059100448961000,11.3239609375,-0.11972906440496445,-0.08671790361404419,-0.02490873634815216
1789059100458971100,11.33397119140625,-0.09993009269237518,-0.09383448958396912,-0.002621118212118745
1789059100468981000,11.34398095703125,-0.07598081231117249,-0.10192544013261795,0.01701143942773342
1789059100478991000,11.3539912109375,-0.046909481287002563,-0.09507046639919281,0.0558062382042408
1789059100489001000,11.3640009765625,-0.029701203107833862,-0.09707102924585342,0.0325765497982502
1789059100499011000,11.374010986328125,-0.016569145023822784,-0.0813152939081192,0.025752946734428406
1789059100509021000,11.38402099609375,-0.002103920094668865,-0.08598514646291733,-0.02861122414469719
1789059100519031000,11.394031005859375,0.04499675706028938,-0.08343177288770676,-0.03692913055419922
1789059100529041200,11.404041259765625,0.08791332691907883,-0.06950423866510391,-0.04186636582016945
1789059100539050800,11.41405078125,0.12408541887998581,-0.07135064154863358,-0.011768638156354427
1789059100549060900,11.424060791015625,0.17553797364234924,-0.07168114185333252,0.010729479603469372
1789059100559070700,11.43407080078125,0.21180252730846405,-0.04589351266622543,0.06542222201824188
1789059100569080800,11.444080810546875,0.23143988847732544,-0.053961556404829025,0.04699954017996788
1789059100579091000,11.454091064453126,0.2448347955942154,-0.05767928436398506,0.016942493617534637
1789059100589100800,11.464100830078126,0.21977871656417847,-0.0431155264377594,-0.015916386619210243
1789059100599111000,11.47411083984375,0.1859205663204193,-0.03596597537398338,-0.03662266582250595
1789059100609120800,11.484120849609376,0.15297913551330566,-0.028337083756923676,0.013943571597337723
1789059100619131000,11.494130859375,0.14188125729560852,-0.02731638215482235,0.00048011005856096745
1789059100629140700,11.504140625,0.1577097475528717,-0.02401166409254074,0.05311029776930809
1789059100639150800,11.51415087890625,0.17422640323638916,-0.052088409662246704,-0.030495088547468185
1789059100649161000,11.524160888671876,0.14250017702579498,-0.03495469689369202,-0.008331464603543282
1789059100659170800,11.5341708984375,0.14000101387500763,-0.04091556370258331,-0.027027271687984467
1789059100669181000,11.544180908203124,0.11807014793157578,-0.026024233549833298,0.006392736453562975
1789059100679190800,11.554190673828124,0.10277536511421204,-0.02791450172662735,-0.009529049508273602
1789059100689200400,11.564200439453124,0.09960806369781494,-0.03207729011774063,-0.01767086610198021
1789059100699210500,11.57421044921875,0.07856221497058868,-0.04005124792456627,-0.05120202153921127
1789059100709220400,11.584220458984374,0.044199977070093155,-0.028169024735689163,-0.02638881467282772
1789059100719230500,11.59423046875,0.03199387714266777,-0.03047630749642849,0.0069205909967422485
1789059100729240300,11.604240234375,0.0038421335630118847,-0.033942412585020065,0.011392304673790932
1789059100739250400,11.61425048828125,-0.010005245916545391,-0.03351299837231636,0.017866088077425957
1789059100749260500,11.624260498046874,-0.020900504663586617,-0.0543181449174881,-0.012171437963843346
1789059100759270400,11.6342705078125,-0.033895134925842285,-0.04830078408122063,-0.008729156106710434
1789059100769280500,11.644280517578125,-0.06776654720306396,-0.034505609422922134,-0.02073867991566658
1789059100779289600,11.65428955078125,-0.09021803736686707,-0.041108135133981705,-0.027219882234930992
1789059100789299500,11.664299560546874,-0.08747338503599167,-0.041115593165159225,0.0011864600237458944
1789059100799309600,11.6743095703125,-0.08594608306884766,-0.04704771563410759,-0.0011419565416872501
1789059100809319400,11.6843193359375,-0.07256609201431274,-0.060739029198884964,0.0009915018454194069
1789059100819329500,11.69432958984375,-0.042453207075595856,-0.07663079351186752,-0.009076139889657497
1789059100829339400,11.70433935546875,-0.03659212216734886,-0.07857304066419601,0.010668003931641579
1789059100839349500,11.714349609375,-0.05546034872531891,-0.08729372173547745,-0.011010153219103813
1789059100849359600,11.724359619140625,-0.0653393417596817,-0.05980297550559044,0.01824174076318741
1789059100859369200,11.734369140625,-0.06529539823532104,-0.0693436935544014,0.028741106390953064
1789059100869379300,11.74437939453125,-0.04361593723297119,-0.0846685916185379,0.02028583735227585
1789059100879389200,11.75438916015625,-0.03079577349126339,-0.09530805796384811,0.025902211666107178
1789059100889399300,11.7643994140625,-0.01563892513513565,-0.10782890766859055,-0.010621443390846252
1789059100899409400,11.774409423828125,-0.007045697420835495,-0.09150491654872894,0.006677480414509773
1789059100909419300,11.784419189453125,-0.004613698460161686,-0.09307591617107391,0.004749884828925133
1789059100919429400,11.794429443359375,0.009023841470479965,-0.09292860329151154,0.021062003448605537
1789059100929439200,11.804439208984375,0.0234251506626606,-0.07658745348453522,0.057505231350660324
1789059100939449300,11.814449462890625,0.042442768812179565,-0.07844940572977066,0.06825385242700577
1789059100949459200,11.824459228515625,0.066647969186306,-0.09149250388145447,0.004992326255887747
1789059100959469300,11.83446923828125,0.08130762726068497,-0.09274149686098099,-0.018751628696918488
1789059100969479400,11.8444794921875,0.09551452845335007,-0.08749400079250336,0.008176391944289207
1789059100979489300,11.8544892578125,0.09055650979280472,-0.0769791379570961,-0.02482660673558712
1789059100989499400,11.86449951171875,0.0772755891084671,-0.05304344370961189,-0.005028667859733105
1789059100999509200,11.87450927734375,0.09107395261526108,-0.05972147732973099,-0.030151693150401115
1789059101009519400,11.884519287109375,0.125422865152359,-0.057355254888534546,0.04252597317099571
1789059101019529200,11.894529296875,0.14650097489356995,-0.05888277664780617,0.04790714010596275
1789059101029539300,11.904539306640626,0.13636471331119537,-0.05896506831049919,0.03086983412504196
1789059101039549400,11.914549560546876,0.12190592288970947,-0.0312611423432827,-0.01049142237752676
1789059101049559300,11.924559326171876,0.10632216930389404,-0.020023133605718613,0.007524329237639904
1789059101059569400,11.9345693359375,0.12278556078672409,-0.04544614255428314,-0.0005660348106175661
1789059101069579300,11.944579345703126,0.12208674103021622,-0.03592481091618538,0.003249209839850664
1789059101079589400,11.95458935546875,0.1290602684020996,-0.06132925674319267,0.0025489996187388897
1789059101089599500,11.964599609375,0.1423984318971634,-0.04659399017691612,0.02273203246295452
1789059101099609300,11.974609375,0.12796571850776672,-0.05839589983224869,0.022188840433955193
1789059101109619500,11.984619384765624,0.13865084946155548,-0.04855818301439285,0.02535853534936905
1789059101119629300,11.99462939453125,0.13154280185699463,-0.05414026975631714,0.019855409860610962
1789059101129639400,12.004639404296874,0.11900676041841507,-0.05240149423480034,0.014292334206402302
1789059101139649300,12.014649169921874,0.10550536960363388,-0.032802946865558624,0.013360140845179558
1789059101149659400,12.024659423828124,0.09617045521736145,-0.02857065200805664,0.015390269458293915
1789059101159669500,12.03466943359375,0.08828616142272949,-0.05483841523528099,-0.021908847615122795
1789059101169679400,12.044679443359374,0.10990357398986816,-0.04693521559238434,-0.01372202392667532
1789059101179689500,12.054689453125,0.1041753739118576,-0.07924409955739975,-0.041526176035404205
1789059101189699300,12.06469921875,0.12663008272647858,-0.06720234453678131,-0.013813318684697151
1789059101199709400,12.07470947265625,0.09668578207492828,-0.06314598768949509,0.0050711981020867825
1789059101209718500,12.084718505859374,0.0936921238899231,-0.05741194263100624,0.01741068810224533
1789059101219728400,12.094728271484374,0.07861540466547012,-0.05596310272812843,-0.03286721557378769
1789059101229738500,12.104738525390625,0.07479137182235718,-0.05042772367596626,-0.05147738382220268
1789059101239748400,12.114748291015625,0.08429461717605591,-0.06280797719955444,-0.03570813685655594
1789059101249758500,12.124758544921875,0.07769477367401123,-0.057031579315662384,0.016187550500035286
