time,seconds_elapsed,z,y,x
1789059089157702100,0.0327021484375,0.3511439263820648,0.10911156982183456,0.008775648660957813
1789059089167712300,0.042712158203125,0.3153928518295288,0.11773569136857986,0.007282680366188288
1789059089177722000,0.05272216796875,0.2971792221069336,0.12248677015304565,0.016024239361286163
1789059089187732200,0.062732177734375,0.2630859613418579,0.13650910556316376,0.0212408397346735
1789059089197742300,0.072742431640625,0.21581192314624786,0.1424434334039688,0.007109042257070541
1789059089207752200,0.082752197265625,0.15894544124603271,0.16281528770923615,-0.023998277261853218
1789059089217762300,0.09276220703125,0.15457838773727417,0.16283924877643585,-0.02334100939333439
1789059089227771400,0.102771484375,0.1500483602285385,0.15622343122959137,-0.0194258950650692
1789059089237781200,0.11278125,0.15031519532203674,0.1496558040380478,-0.007500793319195509
1789059089247791400,0.122791259765625,0.13177959620952606,0.15113411843776703,-0.025179654359817505
1789059089257801200,0.13280126953125,0.10810303688049316,0.1678268164396286,-0.014299843460321426
1789059089267811300,0.142811279296875,0.09328360855579376,0.16689497232437134,0.004828044679015875
1789059089277821200,0.1528212890625,0.08783158659934998,0.16082057356834412,-0.008489358238875866
1789059089287831300,0.162831298828125,0.06982728093862534,0.16964629292488098,-0.016950488090515137
1789059089297841400,0.17284130859375,0.02419375255703926,0.18068481981754303,-0.021079186350107193
1789059089307851300,0.182851318359375,-0.012558136135339737,0.18270243704319,-0.003454386256635189
1789059089317861400,0.192861328125,-0.027750138193368912,0.17140717804431915,0.01182230468839407
1789059089327871200,0.202871337890625,-0.02406805194914341,0.15080974996089935,0.02923485077917576
1789059089337881300,0.21288134765625,-0.05922337621450424,0.1492621898651123,0.028023378923535347
1789059089347891500,0.222891357421875,-0.10625586658716202,0.1643521934747696,0.03448447212576866
1789059089357901300,0.2329013671875,-0.15935157239437103,0.16059499979019165,0.03612764552235603
1789059089367911400,0.242911376953125,-0.19708643853664398,0.1594168245792389,0.02569817192852497
1789059089377921300,0.25292138671875,-0.16838182508945465,0.12539653480052948,0.0355132520198822
1789059089387931400,0.262931396484375,-0.16931472718715668,0.11598359048366547,0.006877347361296415
1789059089397941200,0.272941162109375,-0.18407529592514038,0.12114586681127548,0.04466547071933746
1789059089407951400,0.282951416015625,-0.21228882670402527,0.1451428085565567,0.041139181703329086
1789059089417961500,0.29296142578125,-0.27426430583000183,0.15849004685878754,0.00691942498087883
1789059089427971300,0.302971435546875,-0.2703433334827423,0.16016383469104767,0.035717517137527466
1789059089437981400,0.3129814453125,-0.2553500235080719,0.14104926586151123,0.08376093953847885
1789059089447991300,0.3229912109375,-0.2696434557437897,0.13337484002113342,0.09299705177545547
1789059089458001400,0.33300146484375,-0.2627714276313782,0.13933205604553223,0.09209131449460983
1789059089468011300,0.34301123046875,-0.27683985233306885,0.13535648584365845,0.06940091401338577
1789059089478021400,0.353021484375,-0.297080397605896,0.12781281769275665,0.05072682723402977
1789059089488031500,0.363031494140625,-0.3042818605899811,0.1107398271560669,0.05524594336748123
1789059089498041000,0.373041015625,-0.3723389506340027,0.11755326390266418,0.033597640693187714
1789059089508051200,0.38305126953125,-0.40601646900177,0.11213000118732452,0.024236897006630898
1789059089518061000,0.39306103515625,-0.42963340878486633,0.09558804333209991,0.02064109593629837
1789059089528071200,0.4030712890625,-0.4535467028617859,0.0826120525598526,0.026876887306571007
1789059089538081300,0.413081298828125,-0.47834765911102295,0.06503093242645264,0.026683809235692024
1789059089548091100,0.423091064453125,-0.4894282817840576,0.05366243049502373,0.0273826215416193
1789059089558101200,0.433101318359375,-0.48222097754478455,0.027461186051368713,-0.006287456955760717
1789059089568111000,0.443111083984375,-0.4785948097705841,0.02231942117214203,-0.03724697232246399
1789059089578121200,0.453121337890625,-0.4462515115737915,0.015118765644729137,-0.022970562800765038
1789059089588131000,0.463131103515625,-0.4197663962841034,0.014139520935714245,0.008685899898409843
1789059089598141200,0.47314111328125,-0.3817726671695709,0.010996191762387753,0.0034208304714411497
1789059089608151300,0.4831513671875,-0.3456506133079529,0.018091652542352676,-0.018912971019744873
1789059089618161200,0.4931611328125,-0.3039931654930115,0.020359333604574203,0.0043896883726119995
1789059089628171300,0.503171142578125,-0.265991747379303,0.010716293938457966,0.0163028072565794
1789059089638180400,0.513180419921875,-0.21841302514076233,-0.007068828213959932,0.007890946231782436
1789059089648190200,0.523190185546875,-0.17997854948043823,-0.017002684995532036,0.015169098973274231
1789059089658200300,0.533200439453125,-0.18080386519432068,-0.02358788438141346,0.016017582267522812
1789059089668210200,0.543210205078125,-0.19412286579608917,-0.01660507544875145,0.02202247828245163
1789059089678220300,0.55322021484375,-0.2020052969455719,0.0007233145297504961,0.03105219267308712
1789059089688230400,0.56323046875,-0.23223137855529785,-0.013587714172899723,0.022072546184062958
1789059089698240300,0.573240234375,-0.24015933275222778,-0.013794641941785812,0.031263913959264755
1789059089708250400,0.58325048828125,-0.2454528957605362,-0.02255537547171116,0.03834152966737747
1789059089718260200,0.59326025390625,-0.2499757558107376,-0.029140841215848923,0.04255598410964012
1789059089728270300,0.603270263671875,-0.24694214761257172,-0.03229881823062897,0.03993836045265198
1789059089738280200,0.6132802734375,-0.24690352380275726,-0.03225913643836975,0.043362654745578766
1789059089748290300,0.623290283203125,-0.2600709795951843,-0.0365886390209198,0.04165530204772949
1789059089758300400,0.633300537109375,-0.27835360169410706,-0.03382028266787529,0.03038400411605835
1789059089768310300,0.643310302734375,-0.2961602807044983,-0.03834019973874092,0.030976291745901108
1789059089778320400,0.6533203125,-0.30950698256492615,-0.045642051845788956,0.018149176612496376
1789059089788330200,0.663330322265625,-0.3241572976112366,-0.038121551275253296,0.010465956293046474
1789059089798340400,0.67334033203125,-0.3214925527572632,-0.04319300875067711,0.03245168179273605
1789059089808350200,0.68335009765625,-0.3192807734012604,-0.03885578736662865,0.05787342041730881
1789059089818360300,0.6933603515625,-0.3210432827472687,-0.040352217853069305,0.03826216608285904
1789059089828370400,0.703370361328125,-0.3215697705745697,-0.04671211168169975,0.05103655159473419
1789059089838380300,0.71338037109375,-0.3420654535293579,-0.036989975720644,0.06315899640321732
1789059089848390400,0.723390380859375,-0.3529926836490631,-0.04393097385764122,0.06373290717601776
1789059089858400300,0.733400146484375,-0.35846707224845886,-0.059840962290763855,0.05685795471072197
1789059089868410400,0.743410400390625,-0.35584786534309387,-0.07247606664896011,0.058333612978458405
1789059089878420500,0.75342041015625,-0.3500107228755951,-0.0835268497467041,0.06284128129482269
1789059089888430300,0.763430419921875,-0.36551034450531006,-0.07226540893316269,0.06455369293689728
1789059089898440400,0.7734404296875,-0.38626861572265625,-0.07065606117248535,0.05254336819052696
1789059089908450300,0.7834501953125,-0.39362186193466187,-0.06889331340789795,0.060628458857536316
1789059089918460400,0.79346044921875,-0.39056721329689026,-0.06751406192779541,0.05426270514726639
1789059089928470300,0.80347021484375,-0.37587350606918335,-0.07717068493366241,0.044798363000154495
1789059089938480400,0.81348046875,-0.37755608558654785,-0.08559133112430573,0.06359788775444031
1789059089948490500,0.823490478515625,-0.39094406366348267,-0.08700813353061676,0.07460925728082657
1789059089958500400,0.833500244140625,-0.3962717056274414,-0.10416555404663086,0.057242251932621
1789059089968510500,0.843510498046875,-0.3987199664115906,-0.1251067817211151,0.051475707441568375
1789059089978520300,0.853520263671875,-0.3946381211280823,-0.13163472712039948,0.04980430752038956
1789059089988530400,0.863530517578125,-0.4006616771221161,-0.13204644620418549,0.031256724148988724
1789059089998540300,0.873540283203125,-0.4126458764076233,-0.13608592748641968,0.029937658458948135
1789059090008550400,0.88355029296875,-0.40605801343917847,-0.1279422491788864,0.005944442003965378
1789059090018560500,0.893560546875,-0.3782796561717987,-0.12259489297866821,0.02268693596124649
1789059090028570400,0.9035703125,-0.33487945795059204,-0.11578865349292755,0.08364083617925644
1789059090038580500,0.91358056640625,-0.2917937636375427,-0.1371421366930008,-0.03304343670606613
1789059090048590300,0.92359033203125,-0.23916731774806976,-0.14927683770656586,-0.04981336370110512
1789059090058600400,0.933600341796875,-0.1908344030380249,-0.14833034574985504,-0.006010488141328096
1789059090068610300,0.9436103515625,-0.1363128274679184,-0.14208896458148956,0.005724198184907436
1789059090078620200,0.9536201171875,-0.09140607714653015,-0.13978639245033264,-0.04625937342643738
1789059090088629200,0.963629150390625,-0.04694593697786331,-0.13490748405456543,-0.02654026448726654
1789059090098639400,0.973639404296875,-0.004593686666339636,-0.1289779543876648,-0.012308064848184586
1789059090108649200,0.983649169921875,0.042272090911865234,-0.11092332005500793,0.005782255437225103
1789059090118659300,0.993659423828125,0.08373351395130157,-0.11143384873867035,-0.011799934320151806
1789059090128669200,1.003669189453125,0.12514300644397736,-0.11465467512607574,-0.006112487055361271
1789059090138679300,1.01367919921875,0.16841430962085724,-0.11566720902919769,0.0021145499777048826
1789059090148689200,1.023689208984375,0.2155304253101349,-0.12336374819278717,0.021044032648205757
1789059090158699300,1.03369921875,0.24907906353473663,-0.12727779150009155,0.053337790071964264
1789059090168709400,1.04370947265625,0.2738645672798157,-0.12092801928520203,0.04952361062169075
1789059090178719200,1.05371923828125,0.30644169449806213,-0.1187564805150032,0.0656229555606842
1789059090188729300,1.063729248046875,0.3347446918487549,-0.10019584000110626,0.06764349341392517
1789059090198739200,1.0737392578125,0.36271533370018005,-0.08877328038215637,0.04289234057068825
1789059090208749300,1.083749267578125,0.38870352506637573,-0.08891309797763824,0.02028210274875164
1789059090218759400,1.093759521484375,0.4196513295173645,-0.07713685929775238,0.022158831357955933
1789059090228769300,1.103769287109375,0.46023043990135193,-0.10389577597379684,0.011392470449209213
1789059090238779400,1.113779296875,0.4864540696144104,-0.08747179061174393,0.03966405615210533
1789059090248789200,1.123789306640625,0.4898799657821655,-0.07320470362901688,0.03422428295016289
1789059090258799400,1.13379931640625,0.4911454916000366,-0.0654919221997261,0.021267205476760864
1789059090268809200,1.143809326171875,0.500758945941925,-0.05390770733356476,0.023569241166114807
1789059090278819300,1.1538193359375,0.5065377354621887,-0.05606992542743683,0.01817341148853302
1789059090288829400,1.163829345703125,0.5137985944747925,-0.04328382387757301,0.012322979047894478
1789059090298839300,1.17383935546875,0.5062171220779419,-0.041973017156124115,-0.004162254277616739
1789059090308849400,1.183849365234375,0.5147602558135986,-0.04181695356965065,-0.011228686198592186
1789059090318859300,1.193859375,0.5203691720962524,-0.0377843976020813,0.014819959178566933
1789059090328869400,1.203869384765625,0.5200961828231812,-0.02858477272093296,0.021977471187710762
1789059090338879200,1.213879150390625,0.5190471410751343,-0.00845526996999979,-0.003397394670173526
1789059090348889300,1.223889404296875,0.5283639430999756,-0.00035739620216190815,-0.013346964493393898
1789059090358899500,1.2338994140625,0.540499210357666,0.003367567202076316,-0.0022005699574947357
1789059090368909300,1.243909423828125,0.552454948425293,0.0005893575726076961,0.010520551353693008
1789059090378919400,1.25391943359375,0.5517933964729309,0.001097755040973425,0.010871822014451027
1789059090388929300,1.26392919921875,0.5317797064781189,0.01967383548617363,0.0028477180749177933
1789059090398939400,1.273939453125,0.5107815265655518,0.02303980477154255,0.010182064026594162
1789059090408949200,1.28394921875,0.49515995383262634,0.02881806530058384,0.0022501046769320965
1789059090418959400,1.29395947265625,0.45871856808662415,0.04231789708137512,-0.007860053330659866
1789059090428969500,1.303969482421875,0.4211352467536926,0.04622049257159233,-0.022176409140229225
1789059090438979300,1.313979248046875,0.38294658064842224,0.05107064172625542,-0.015274826437234879
1789059090448989400,1.323989501953125,0.34052935242652893,0.04463351517915726,-0.01227584108710289
1789059090458999300,1.333999267578125,0.2989331781864166,0.04195384308695793,-0.02474129945039749
1789059090469009400,1.344009521484375,0.2491016983985901,0.03211266174912453,-0.0217905156314373
1789059090479019500,1.35401953125,0.18971000611782074,0.0298516396433115,-0.0187209565192461
1789059090489029400,1.364029296875,0.1302802413702011,0.03381868451833725,-0.014808773063123226
1789059090499039500,1.37403955078125,0.09312594681978226,0.03400856629014015,-0.029097698628902435
1789059090509049300,1.38404931640625,0.05260808393359184,0.03897776082158089,-0.028772525489330292
1789059090519059500,1.3940595703125,0.022415826097130775,0.044379983097314835,-0.01937423087656498
1789059090529069300,1.4040693359375,0.00956527516245842,0.043410059064626694,-0.01842401549220085
1789059090539079400,1.414079345703125,-0.005815012380480766,0.05043414607644081,-0.01062175165861845
1789059090549089300,1.42408935546875,-0.013027384877204895,0.04860908165574074,-0.0150388702750206
1789059090559099100,1.43409912109375,-0.009023056365549564,0.0459725521504879,-0.012687299400568008
1789059090569109200,1.444109130859375,-0.010042513720691204,0.045352302491664886,-0.00908643938601017
1789059090579118300,1.454118408203125,-0.012055863626301289,0.0454082265496254,-0.025667279958724976
1789059090589128200,1.464128173828125,-0.01392726693302393,0.04845275357365608,-0.03663976863026619
1789059090599138300,1.47413818359375,-0.03422108665108681,0.06380295008420944,-0.011550662107765675
1789059090609148200,1.484148193359375,-0.036615535616874695,0.0568624846637249,0.004614725708961487
1789059090619158300,1.494158203125,-0.03574734553694725,0.05931658670306206,-0.01764051243662834
1789059090629168400,1.50416845703125,-0.05168076977133751,0.057733602821826935,-0.03350283205509186
1789059090639178200,1.51417822265625,-0.07124514877796173,0.0531308613717556,-0.007795871235430241
1789059090649188400,1.524188232421875,-0.08279634267091751,0.04621037095785141,-0.0021909826900810003
1789059090659198200,1.5341982421875,-0.0974477231502533,0.03975540027022362,-0.004858404863625765
1789059090669208300,1.544208251953125,-0.11589384824037552,0.028388231992721558,-0.011535748839378357
1789059090679218200,1.55421826171875,-0.15418477356433868,0.032596293836832047,0.010353305377066135
1789059090689228000,1.56422802734375,-0.16155587136745453,0.028906749561429024,0.010471283458173275
1789059090699238100,1.574238037109375,-0.17060929536819458,0.011011372320353985,0.011730159632861614
1789059090709248000,1.584248046875,-0.18984104692935944,0.010408165864646435,0.006512494292110205
1789059090719258000,1.594258056640625,-0.2141314595937729,0.010819357819855213,0.0012423646403476596
1789059090729268000,1.60426806640625,-0.23404152691364288,0.010584999807178974,0.0003126551164314151
1789059090739278000,1.614278076171875,-0.241151362657547,0.013423130847513676,0.0037673076149076223
1789059090749288200,1.6242880859375,-0.23813852667808533,0.009038235992193222,0.0020743361674249172
1789059090759298000,1.634298095703125,-0.23897770047187805,0.0013840447645634413,-0.01739390380680561
1789059090769308200,1.64430810546875,-0.2318795770406723,0.004406732507050037,-0.004175836686044931
1789059090779318000,1.654318115234375,-0.208609938621521,0.002674079965800047,-0.010456635616719723
1789059090789328100,1.664328125,-0.1926557421684265,0.003777960315346718,0.000609863898716867
1789059090799338000,1.674337890625,-0.1802118420600891,0.0073655047453939915,0.017726000398397446
1789059090809348000,1.68434814453125,-0.16052283346652985,0.013306750915944576,0.04555390402674675
1789059090819358200,1.694358154296875,-0.12995906174182892,0.010432667098939419,0.03515878692269325
1789059090829368000,1.7043681640625,-0.10064911097288132,0.009091232903301716,0.03417874127626419
1789059090839378200,1.714378173828125,-0.06962408870458603,0.011405520141124725,0.020003801211714745
1789059090849388000,1.724387939453125,-0.04704980179667473,0.020172912627458572,0.02708168514072895
1789059090859398100,1.734398193359375,-0.022106101736426353,0.02316204458475113,0.03828560188412666
1789059090869408300,1.744408203125,0.003453587181866169,0.021319668740034103,0.03567091375589371
1789059090879418000,1.754418212890625,0.018617093563079834,0.024534104391932487,0.04355600103735924
1789059090889428000,1.764427978515625,0.02629498764872551,0.018010959029197693,0.04322576895356178
1789059090899437800,1.774437744140625,0.03618490323424339,0.014116884209215641,0.028003405779600143
1789059090909448000,1.784447998046875,0.028241490945219994,0.025172198191285133,0.03714843466877937
1789059090919457800,1.794457763671875,0.014134727418422699,0.027480360120534897,0.03564321622252464
1789059090929468000,1.804468017578125,0.015401859767735004,0.0220954492688179,0.03265781328082085
1789059090939478000,1.81447802734375,0.019641345366835594,0.014375743456184864,0.036439500749111176
1789059090949487900,1.82448779296875,0.013705159537494183,0.004518585279583931,0.02918504923582077
1789059090959498000,1.834498046875,0.0073687005788087845,0.0003174488083459437,0.016743293032050133
1789059090969507800,1.8445078125,-0.00558198569342494,0.0021576930303126574,0.034691400825977325
1789059090979518000,1.85451806640625,-0.0129363052546978,0.0004649879119824618,0.042219359427690506
1789059090989528000,1.864528076171875,-0.016025304794311523,-0.004459995776414871,0.021142570301890373
1789059090999538000,1.874537841796875,-0.016884174197912216,-0.007453122641891241,0.014578942209482193
1789059091009548000,1.884548095703125,-0.01552063599228859,-0.0083071980625391,0.032348886132240295
1789059091019558000,1.894557861328125,-0.010702178813517094,-0.00990136619657278,0.0406172014772892
1789059091029568000,1.904568115234375,0.0010346380295231938,-0.013461746275424957,0.0308066476136446
1789059091039577900,1.914577880859375,0.022252574563026428,-0.011511513963341713,0.021499432623386383
1789059091049588000,1.924587890625,0.035952143371105194,-0.012811136431992054,0.0111621068790555
1789059091059598000,1.93459814453125,0.04423031210899353,-0.012294217012822628,0.019297530874609947
1789059091069608000,1.94460791015625,0.05381130054593086,-0.0076115806587040424,0.014994662255048752
1789059091079618000,1.9546181640625,0.07058814913034439,-0.004811266902834177,0.00549276964738965
1789059091089628000,1.9646279296875,0.08500677347183228,-0.0079761678352952,-0.007559116464108229
1789059091099638000,1.974637939453125,0.08905371278524399,-0.003323092358186841,-0.013833523727953434
1789059091109647000,1.984647216796875,0.09243912249803543,-0.004536961205303669,-0.024384701624512672
1789059091119657000,1.994656982421875,0.08832000941038132,0.0001691107318038121,-0.032105207443237305
1789059091129667000,2.0046669921875,0.07682926952838898,0.007151386234909296,-0.027300596237182617
1789059091139677000,2.014677001953125,0.08103279769420624,-0.0027593011036515236,-0.022763103246688843
1789059091149687000,2.02468701171875,0.07603751122951508,-0.009206281043589115,-0.030363498255610466
1789059091159697200,2.034697265625,0.06392411887645721,-0.014672686345875263,-0.047144874930381775
1789059091169707000,2.04470703125,0.058459579944610596,-0.012388759292662144,-0.039747945964336395
1789059091179717000,2.054717041015625,0.04665139317512512,-0.007502391003072262,-0.06288255751132965
1789059091189727000,2.06472705078125,0.03332892805337906,-0.0010988202411681414,-0.06286391615867615
1789059091199737000,2.074737060546875,0.03405597060918808,-0.0039039277471601963,-0.06804536283016205
1789059091209747200,2.084747314453125,0.026923226192593575,0.0005320995696820319,-0.07006963342428207
1789059091219757000,2.094757080078125,0.023850204423069954,0.007469367701560259,-0.05349118635058403
1789059091229767200,2.10476708984375,0.020595023408532143,0.0011358382180333138,-0.06347324699163437
1789059091239777000,2.114777099609375,0.017076455056667328,-0.003328418591991067,-0.10813073068857193
1789059091249787100,2.124787109375,0.010087255388498306,-0.009369000792503357,-0.11376651376485825
1789059091259797000,2.134796875,0.0029079054947942495,-0.006245112512260675,-0.08720627427101135
1789059091269807000,2.14480712890625,-0.00743208359926939,-0.006937001831829548,-0.07175914198160172
1789059091279817200,2.154817138671875,-0.018687667325139046,-0.012380769476294518,-0.09477311372756958
1789059091289827000,2.1648271484375,-0.024167919531464577,-0.014664962887763977,-0.09709539264440536
1789059091299837200,2.174837158203125,-0.026370087638497353,-0.014111291617155075,-0.09103403240442276
1789059091309847000,2.184846923828125,-0.026268355548381805,-0.005113801918923855,-0.06199066713452339
1789059091319857200,2.194857177734375,-0.024937573820352554,-0.0068113007582724094,-0.0698496550321579
1789059091329867000,2.204866943359375,-0.021621406078338623,-0.00854155607521534,-0.07884368300437927
1789059091339877000,2.214877197265625,-0.007792941760271788,-0.005688245873898268,-0.0716310441493988
1789059091349887200,2.22488720703125,-0.004984105937182903,-0.01327212993055582,-0.06797905266284943
1789059091359897000,2.23489697265625,-0.018689798191189766,-0.001023186487145722,-0.0721261277794838
1789059091369907000,2.244906982421875,-0.03402188420295715,-0.0017369136912748218,-0.07428621500730515
1789059091379916800,2.254916748046875,-0.023557256907224655,-0.008756473660469055,-0.0744558572769165
1789059091389927000,2.264927001953125,-0.011120561510324478,-0.0027076357509940863,-0.07170268148183823
1789059091399937000,2.27493701171875,-0.014373346231877804,-0.007427290081977844,-0.08709202706813812
1789059091409947000,2.28494677734375,-0.017433319240808487,-0.004294081125408411,-0.07010585069656372
1789059091419957000,2.29495703125,-0.022768162190914154,0.00011291803093627095,-0.05434047058224678
1789059091429966800,2.304966796875,-0.011686749756336212,-0.0084249097853899,-0.05928196385502815
1789059091439977000,2.31497705078125,-0.005487443413585424,-0.01013652328401804,-0.05897623300552368
1789059091449986800,2.32498681640625,-0.011592473834753036,-0.009817477315664291,-0.05622012913227081
1789059091459997000,2.334996826171875,-0.005283977836370468,-0.01010802760720253,-0.0532672144472599
1789059091470007000,2.345007080078125,0.001791242160834372,-0.010507768020033836,-0.03383013606071472
1789059091480017000,2.355016845703125,0.007056045345962048,-0.009672334417700768,-0.02719859778881073
1789059091490027000,2.365027099609375,0.004430168308317661,-0.01356614287942648,-0.037523671984672546
1789059091500036900,2.375036865234375,-0.0068238177336752415,-0.005228850524872541,-0.02460441179573536
1789059091510047000,2.385046875,-0.01477335300296545,0.0033193640410900116,-0.028615932911634445
1789059091520057000,2.39505712890625,-0.010418818332254887,-0.0057407100684940815,-0.03641366586089134
1789059091530067000,2.40506689453125,-0.006244580261409283,-0.012222844175994396,-0.014312893152236938
1789059091540077000,2.4150771484375,-0.004477306269109249,-0.013033510185778141,-0.019044531509280205
1789059091550087000,2.4250869140625,-0.014117150567471981,-0.022578546777367592,-0.051352936774492264
1789059091560097000,2.435096923828125,-0.026273149996995926,-0.017717212438583374,-0.0346732921898365
1789059091570107000,2.44510693359375,-0.03127270191907883,-0.005537777207791805,-0.021352427080273628
1789059091580117000,2.455116943359375,-0.023310115560889244,-0.004526042379438877,-0.03930133208632469
1789059091590127000,2.465127197265625,-0.0249658040702343,-0.018278073519468307,-0.08757725358009338
1789059091600137000,2.475136962890625,-0.023812655359506607,-0.011068097315728664,-0.05041204020380974
1789059091610147000,2.48514697265625,-0.008958874270319939,-0.01055969949811697,-0.045874547213315964
1789059091620157000,2.495156982421875,0.0008314388687722385,-0.026129338890314102,-0.050929758697748184
1789059091630167000,2.5051669921875,-0.0005030711181461811,-0.008348743431270123,-0.046899065375328064
1789059091640177000,2.515177001953125,-0.0025856629945337772,-0.0018394453218206763,-0.018917232751846313
1789059091650187000,2.52518701171875,0.006735933478921652,-0.0013166668359190226,-0.031013043597340584
1789059091660197000,2.535197021484375,0.017172861844301224,-0.004689826630055904,-0.009496565908193588
1789059091670207000,2.54520703125,0.03142290562391281,-0.014475611969828606,-0.018554775044322014
1789059091680217000,2.555217041015625,0.030483607202768326,-0.0026048377621918917,0.023078953847289085
1789059091690227000,2.56522705078125,0.03623070940375328,-0.0051742554642260075,0.027951207011938095
1789059091700236000,2.575236083984375,0.049437325447797775,-0.007693073246628046,0.018307633697986603
1789059091710246100,2.58524609375,0.05185973644256592,-0.0013582120882347226,0.015018897131085396
1789059091720256000,2.595256103515625,0.05227305740118027,-0.002758502261713147,0.019479691982269287
1789059091730266000,2.60526611328125,0.049671150743961334,0.0057473680935800076,0.03502456098794937
1789059091740276200,2.615276123046875,0.05583237111568451,0.0005888249143026769,0.037877608090639114
1789059091750286000,2.6252861328125,0.0823550596833229,-0.0029995182994753122,0.06806880235671997
1789059091760296200,2.635296142578125,0.09703893214464188,-0.011992214247584343,0.07540580630302429
1789059091770306000,2.64530615234375,0.10013005882501602,-0.008146077394485474,0.08005595207214355
1789059091780316200,2.655316162109375,0.11069295555353165,-0.001085770782083273,0.07082117348909378
1789059091790326000,2.665325927734375,0.10001767426729202,0.00839774589985609,0.07529981434345245
1789059091800336100,2.675336181640625,0.10267604142427444,0.014158962294459343,0.061589326709508896
1789059091810346200,2.68534619140625,0.11208818852901459,0.017605891451239586,0.05789152905344963
1789059091820356000,2.695356201171875,0.13754214346408844,0.010540259070694447,0.02857198938727379
1789059091830366200,2.7053662109375,0.1447337567806244,0.005440838169306517,0.03519740328192711
1789059091840375800,2.715375732421875,0.15369422733783722,0.02160622552037239,0.021700235083699226
1789059091850386000,2.725385986328125,0.1585204005241394,0.018606973811984062,0.016462862491607666
1789059091860396000,2.73539599609375,0.18404440581798553,0.014399179257452488,0.03314943239092827
1789059091870406000,2.745406005859375,0.19660547375679016,0.011056113056838512,0.025615880265831947
1789059091880416000,2.755416015625,0.2049046754837036,-0.0006239786162041128,0.007981227710843086
1789059091890425900,2.76542578125,0.20278027653694153,0.013741645030677319,0.011510448530316353
1789059091900436000,2.77543603515625,0.20413368940353394,0.008815329521894455,0.009796171449124813
1789059091910445800,2.78544580078125,0.2104368656873703,0.008696818724274635,-0.0060919807292521
1789059091920456000,2.7954560546875,0.21750596165657043,0.018556639552116394,-0.006268016062676907
1789059091930466000,2.805466064453125,0.22068950533866882,0.009316270239651203,-0.004677309654653072
1789059091940476000,2.815475830078125,0.21932250261306763,0.01763545349240303,-0.021320467814803123
1789059091950486000,2.825486083984375,0.218772292137146,0.013961088843643665,-0.03111797198653221
1789059091960495900,2.835495849609375,0.2271367460489273,0.010577010922133923,-0.04044249653816223
1789059091970506000,2.845506103515625,0.21597570180892944,0.015383217483758926,-0.05061763897538185
1789059091980515800,2.855515869140625,0.19506749510765076,0.008945558220148087,-0.05614715814590454
1789059091990526000,2.86552587890625,0.18142065405845642,0.0023646207991987467,-0.05549867823719978
1789059092000536000,2.8755361328125,0.1455630511045456,0.009150887839496136,-0.057904843240976334
1789059092010546000,2.8855458984375,0.1254282295703888,-0.005184908397495747,-0.05164534971117973
1789059092020556000,2.89555615234375,0.10175511986017227,-0.0076057217083871365,-0.03725123032927513
1789059092030566000,2.90556591796875,0.06962808221578598,-0.005027781706303358,-0.029271602630615234
1789059092040576000,2.915575927734375,0.052628591656684875,-0.012407667003571987,-0.02245390973985195
1789059092050586000,2.925586181640625,0.0289341788738966,-0.014692925848066807,-0.007003581151366234
1789059092060596000,2.935595947265625,0.004319380968809128,-0.01884213089942932,-0.0027715517207980156
1789059092070606000,2.945606201171875,-0.0013619405217468739,-0.027230022475123405,-0.006560963578522205
1789059092080616000,2.955615966796875,-0.014767494052648544,-0.02455967105925083,0.012737100012600422
1789059092090626000,2.9656259765625,-0.012495285831391811,-0.026990339159965515,0.03501763939857483
1789059092100636000,2.975635986328125,-0.006792126223444939,-0.03260747715830803,0.036673590540885925
1789059092110646000,2.98564599609375,0.0012490225490182638,-0.03316035121679306,0.006838465109467506
1789059092120656100,2.99565625,0.01260980125516653,-0.024150343611836433,0.00030306773260235786
1789059092130666000,3.005666015625,0.037344709038734436,-0.036733780056238174,0.010060090571641922
1789059092140676000,3.015676025390625,0.05836956575512886,-0.04909377545118332,-0.0051984903402626514
1789059092150686000,3.02568603515625,0.07734671980142593,-0.05663079023361206,-0.004635232035070658
1789059092160696000,3.035696044921875,0.08575724810361862,-0.03224768489599228,0.013832191936671734
1789059092170706000,3.045705810546875,0.07077936083078384,0.0012974920682609081,0.021648837253451347
1789059092180716000,3.055716064453125,0.09190701693296432,0.006056561134755611,-0.0013483584625646472
1789059092190726100,3.06572607421875,0.15854915976524353,-0.004142014309763908,0.017372332513332367
1789059092200736000,3.075736083984375,0.23789457976818085,-0.037513818591833115,0.021566543728113174
1789059092210746000,3.08574609375,0.27311277389526367,-0.03014485351741314,0.015995744615793228
1789059092220756000,3.095755859375,0.27293166518211365,-0.026768231764435768,0.012525645084679127
1789059092230766000,3.10576611328125,0.23913376033306122,0.01570838876068592,-0.0010713896481320262
1789059092240776000,3.11577587890625,0.20854255557060242,0.04770280793309212,-0.00355798308737576
1789059092250786000,3.1257861328125,0.23009338974952698,0.04436133801937103,0.0007209177128970623
1789059092260796200,3.135796142578125,0.26469796895980835,0.028310200199484825,0.005182511638849974
1789059092270806000,3.145805908203125,0.28945764899253845,0.004594485275447369,-0.007257380057126284
1789059092280816000,3.155816162109375,0.2924345135688782,0.013175190426409245,-0.00233825552277267
1789059092290826000,3.165825927734375,0.28248149156570435,0.027773041278123856,0.024646224454045296
1789059092300836000,3.175836181640625,0.2624020576477051,0.05014332756400108,0.029254823923110962
1789059092310846200,3.18584619140625,0.24100995063781738,0.06574039906263351,0.03843154385685921
1789059092320856000,3.19585595703125,0.22665418684482574,0.06851301342248917,0.04496321454644203
1789059092330866200,3.2058662109375,0.221856489777565,0.053041912615299225,0.021378524601459503
1789059092340876000,3.2158759765625,0.21696853637695312,0.03885019198060036,0.028134698048233986
1789059092350884900,3.225884765625,0.1994159072637558,0.03934048116207123,0.04865781590342522
1789059092360895000,3.23589501953125,0.1547248661518097,0.04688228666782379,0.012208995409309864
1789059092370904800,3.24590478515625,0.1081072986125946,0.05251700431108475,0.0442044772207737
1789059092380915000,3.2559150390625,0.08913546800613403,0.05188929662108421,0.0344993881881237
1789059092390925000,3.265925048828125,0.0618620365858078,0.048470329493284225,-0.04246197268366814
1789059092400935000,3.275934814453125,0.04081347584724426,0.06595957279205322,-0.03098374791443348
1789059092410945000,3.285945068359375,0.048054344952106476,0.04784022644162178,-0.08797433227300644
1789059092420955000,3.295954833984375,0.03362001106142998,0.054305050522089005,-0.09683253616094589
1789059092430965000,3.305965087890625,0.037273336201906204,0.04845355078577995,-0.10740475356578827
1789059092440974800,3.315974853515625,0.044203680008649826,0.03632791340351105,-0.10677038878202438
1789059092450985000,3.32598486328125,0.03977857157588005,0.04139271378517151,-0.11187539994716644
1789059092460995000,3.3359951171875,0.025009745731949806,0.027461452409625053,-0.11673300713300705
1789059092471005000,3.3460048828125,0.007487743627279997,0.0407375767827034,-0.005306614562869072
1789059092481015000,3.35601513671875,-0.04577308148145676,0.0412592887878418,0.17118000984191895
1789059092491025000,3.36602490234375,-0.07494108378887177,0.05817462131381035,0.26218900084495544
1789059092501035000,3.376034912109375,-0.04747297614812851,0.04692409932613373,0.27316388487815857
1789059092511044900,3.386044921875,-0.02274046652019024,0.03972291201353073,0.22533884644508362
1789059092521055000,3.396054931640625,0.005392634775489569,0.05619429796934128,0.22031453251838684
1789059092531065000,3.406065185546875,0.018273545429110527,0.05122563615441322,0.16354285180568695
1789059092541075000,3.416074951171875,-0.010044644586741924,0.06234726309776306,0.13557593524456024
1789059092551085000,3.4260849609375,-0.03244103118777275,0.04463564604520798,0.1281057745218277
1789059092561095000,3.436094970703125,-0.01810630038380623,-0.004344148561358452,0.12811535596847534
1789059092571105000,3.44610498046875,-0.025791384279727936,-0.004406732507050037,0.12742267549037933
1789059092581115000,3.456114990234375,-0.035345207899808884,-0.01992097683250904,0.12336613982915878
1789059092591125000,3.466125,-0.040888842195272446,-0.01089552417397499,0.10701379925012589
1789059092601135000,3.476135009765625,-0.04418397322297096,0.0015896408585831523,0.07615388929843903
1789059092611145000,3.48614501953125,-0.01575312949717045,0.004473045468330383,0.10312851518392563
1789059092621155000,3.496155029296875,0.014429273083806038,-0.013580523431301117,0.10969347506761551
1789059092631165000,3.5061650390625,0.023670975118875504,-0.013319799676537514,0.11065220832824707
1789059092641175000,3.516175048828125,0.03357527032494545,-0.020714865997433662,0.12245640903711319
1789059092651185200,3.52618505859375,0.021992383524775505,-0.008288822136819363,0.12130219489336014
1789059092661195000,3.536195068359375,0.018520154058933258,-0.022850453853607178,0.1037714034318924
1789059092671205000,3.546205078125,0.015392538160085678,-0.007405718322843313,0.11896553635597229
1789059092681214500,3.55621435546875,-0.0008101335843093693,-0.010016415268182755,0.1057426780462265
1789059092691224600,3.566224609375,-0.014210094697773457,0.007616640534251928,0.0937507301568985
1789059092701234700,3.576234619140625,-0.03338219225406647,0.012029765173792839,0.08399077504873276
1789059092711244500,3.58624462890625,-0.033294305205345154,0.006405435036867857,0.0754055380821228
1789059092721254700,3.596254638671875,-0.023179087787866592,0.007896538823843002,0.07471524924039841
1789059092731264500,3.606264404296875,-0.0429069884121418,0.019466908648610115,0.10389284044504166
1789059092741274600,3.616274658203125,-0.051780108362436295,0.024523718282580376,0.11755166202783585
1789059092751284500,3.626284423828125,-0.05604169890284538,0.024144217371940613,0.127787783741951
1789059092761294600,3.636294677734375,-0.05393513664603233,0.023555925115942955,0.12855051457881927
1789059092771304700,3.6463046875,-0.060258544981479645,0.018320683389902115,0.12212856858968735
1789059092781314600,3.656314453125,-0.07401483505964279,0.028550950810313225,0.12105691432952881
1789059092791324700,3.66632470703125,-0.09937053173780441,0.03519287332892418,0.10854591429233551
1789059092801334500,3.67633447265625,-0.11222800612449646,0.03208683058619499,0.12230513989925385
1789059092811344600,3.6863447265625,-0.1295878142118454,0.0435088612139225,0.15590117871761322
1789059092821354800,3.696354736328125,-0.1401621699333191,0.046293195337057114,0.18127791583538055
1789059092831364600,3.706364501953125,-0.12880884110927582,0.0395980104804039,0.2114802896976471
1789059092841374700,3.716374755859375,-0.12542103230953217,0.03166711702942848,0.18925541639328003
1789059092851384600,3.726384521484375,-0.13862764835357666,0.040941040962934494,0.25849413871765137
1789059092861394700,3.736394775390625,-0.13618287444114685,0.031242340803146362,0.2481032758951187
1789059092871404500,3.746404541015625,-0.14907629787921906,0.01377972774207592,0.09708207100629807
1789059092881414700,3.75641455078125,-0.1873222291469574,0.029473204165697098,-0.04447532072663307
1789059092891424800,3.7664248046875,-0.21447022259235382,0.03670235350728035,-0.08336546272039413
1789059092901434600,3.7764345703125,-0.1923167109489441,0.011514709331095219,-0.037935931235551834
1789059092911444700,3.78644482421875,-0.1729225069284439,0.017943579703569412,-0.010030529461801052
1789059092921454600,3.79645458984375,-0.12323298305273056,-0.01895691268146038,-0.03646586462855339
1789059092931464700,3.806464599609375,-0.11884596198797226,-0.006850183010101318,-0.06829676777124405
1789059092941474600,3.816474609375,-0.1648813635110855,0.01864825189113617,-0.09601015597581863
1789059092951484700,3.826484619140625,-0.17257842421531677,0.0036546560004353523,-0.12064439058303833
1789059092961494800,3.836494873046875,-0.1435808688402176,-0.012326174415647984,-0.12331687659025192
1789059092971504600,3.846504638671875,-0.09947652369737625,-0.012647618539631367,-0.0776151642203331
1789059092981514800,3.8565146484375,-0.046902794390916824,-0.030674289911985397,-0.05166558921337128
1789059092991523800,3.86652392578125,-0.034319356083869934,-0.027902737259864807,-0.044437773525714874
1789059093001533700,3.87653369140625,-0.027641480788588524,-0.023437947034835815,-0.08136409521102905
1789059093011543800,3.886543701171875,-0.013574131764471531,-0.007903729565441608,-0.07010451704263687
1789059093021553700,3.8965537109375,0.007871504873037338,0.00003728425508597866,-0.03869573026895523
1789059093031563800,3.906563720703125,0.0444532185792923,0.0108886007219553,-0.008289887569844723
1789059093041573600,3.91657373046875,0.08714289218187332,0.003856523660942912,0.02515355683863163
1789059093051583500,3.92658349609375,0.11256062984466553,-0.00024394555657636374,0.020595023408532143
1789059093061593600,3.936593505859375,0.1277582347393036,-0.003984089009463787,0.02400227263569832
1789059093071603500,3.946603515625,0.12314856052398682,-0.004433896858245134,0.04085768386721611
1789059093081613600,3.956613525390625,0.0776042491197586,-0.008451275527477264,-0.028424451127648354
1789059093091623400,3.96662353515625,0.03518035635352135,0.001255946815945208,-0.011501659639179707
1789059093101633500,3.976633544921875,0.029200496152043343,-0.009936786256730556,-0.01703730598092079
1789059093111643600,3.9866435546875,0.022294120863080025,-0.016027968376874924,0.02069835364818573
1789059093121653500,3.996653564453125,0.034032002091407776,-0.02137080207467079,0.012923521921038628
1789059093131663600,4.00666357421875,0.06302450597286224,-0.040950361639261246,0.009023589082062244
1789059093141673500,4.016673583984375,0.06922008097171783,-0.025655828416347504,-0.012282765470445156
1789059093151683600,4.02668359375,0.07015299052000046,-0.030890271067619324,-0.021451761946082115
1789059093161693700,4.036693603515625,0.07354239374399185,-0.044378917664289474,-0.024719728156924248
1789059093171703600,4.04670361328125,0.06703176349401474,-0.03722566366195679,-0.018069015815854073
1789059093181713700,4.056713623046875,0.061115019023418427,-0.049669019877910614,-0.005775863770395517
1789059093191723500,4.0667236328125,0.0687742680311203,-0.05602438747882843,0.007919441908597946
1789059093201733600,4.076733642578125,0.06948613375425339,-0.045107558369636536,0.050995271652936935
1789059093211743500,4.086743408203125,0.07653019577264786,-0.04640345275402069,0.09095440804958344
1789059093221753600,4.096753662109375,0.10391654819250107,-0.04899390786886215,0.10907828062772751
1789059093231763700,4.106763671875,0.11721983551979065,-0.044014062732458115,0.08787152916193008
1789059093241773600,4.116773681640625,0.1154850497841835,-0.047743022441864014,0.05588723346590996
1789059093251783700,4.12678369140625,0.11875434964895248,-0.02959624119102955,0.019043466076254845
1789059093261793500,4.13679345703125,0.12428466975688934,-0.021648038178682327,-0.014732606709003448
1789059093271803600,4.1468037109375,0.1581110805273056,-0.022757243365049362,-0.03292306140065193
1789059093281813500,4.1568134765625,0.1836361438035965,-0.005218996666371822,-0.026813771575689316
1789059093291823600,4.16682373046875,0.20834574103355408,0.010879012756049633,0.03226819261908531
1789059093301833700,4.176833740234375,0.2556022107601166,0.0015387744642794132,0.03723045811057091
1789059093311843600,4.186843505859375,0.2783842086791992,-0.00030067088664509356,0.05349598079919815
1789059093321853700,4.196853759765625,0.3012876808643341,0.015284148044884205,0.052570000290870667
1789059093331863600,4.206863525390625,0.2985747158527374,0.022833943367004395,0.06873272359371185
1789059093341873700,4.216873779296875,0.2778875529766083,0.05320223420858383,0.09160315245389938
1789059093351883800,4.2268837890625,0.24830009043216705,0.05904334783554077,0.11143065243959427
1789059093361893600,4.2368935546875,0.22060374915599823,0.06831540912389755,0.11204317957162857
1789059093371903700,4.24690380859375,0.19221657514572144,0.07423800975084305,0.13331997394561768
1789059093381913600,4.25691357421875,0.18574775755405426,0.057192184031009674,0.11887818574905396
1789059093391923700,4.266923828125,0.15760160982608795,0.0695314034819603,0.10797040909528732
1789059093401933600,4.27693359375,0.14292946457862854,0.06913406401872635,0.09583038836717606
1789059093411943700,4.286943603515625,0.139349102973938,0.05736049637198448,0.06451587378978729
1789059093421953800,4.296953857421875,0.11855434626340866,0.05584835261106491,0.057380203157663345
1789059093431963600,4.306963623046875,0.10305608063936234,0.078733429312706,0.09136693179607391
1789059093441973800,4.316973876953125,0.08120910078287125,0.09028728306293488,0.10364357382059097
1789059093451983600,4.326983642578125,0.07689344882965088,0.06580111384391785,0.11805021017789841
1789059093461993700,4.33699365234375,0.07570301741361618,0.060613278299570084,0.08928700536489487
1789059093472003600,4.347003662109375,0.06324554979801178,0.06007558852434158,0.07175381481647491
1789059093482013700,4.357013671875,0.03748159483075142,0.055086422711610794,0.07890040427446365
1789059093492023800,4.36702392578125,-0.009340505115687847,0.084757499396801,0.06414463371038437
1789059093502033700,4.37703369140625,-0.05152364447712898,0.05384192615747452,0.05451410636305809
1789059093512043800,4.387043701171875,-0.045939795672893524,0.05153163522481918,0.07474853843450546
1789059093522053600,4.3970537109375,-0.06214885786175728,0.023549268022179604,0.045340850949287415
1789059093532063700,4.407063720703125,-0.027346668764948845,0.01420290395617485,0.059836968779563904
1789059093542073600,4.417073486328125,-0.004265052266418934,0.0016879114555194974,0.06127427518367767
1789059093552083700,4.427083740234375,0.008039817214012146,-0.008824383839964867,0.06143326684832573
1789059093562093800,4.43709375,0.031500935554504395,-0.007078149355947971,0.056950367987155914
1789059093572103700,4.447103759765625,0.044811148196458817,0.008926383219659328,0.03605467453598976
1789059093582113800,4.45711376953125,0.0832618698477745,-0.00657534459605813,0.014011689461767673
1789059093592123600,4.46712353515625,0.11740439385175705,-0.007032875902950764,0.02214791253209114
1789059093602132500,4.477132568359375,0.1380833089351654,-0.010979680344462395,0.008249407634139061
1789059093612143900,4.487143798828125,0.16618284583091736,-0.02799115516245365,0.01028566062450409
1789059093622152400,4.49715234375,0.18857070803642273,-0.01810603402554989,0.01501197274774313
1789059093632162600,4.50716259765625,0.19450317323207855,-0.014724884182214737,0.013041766360402107
1789059093642172700,4.517172607421875,0.2252030223608017,-0.011198592372238636,0.030902255326509476
1789059093652182500,4.5271826171875,0.22511593997478485,-0.0008434231276623905,0.038840338587760925
1789059093662192600,4.537192626953125,0.222059428691864,0.005736182443797588,0.02954537607729435
1789059093672202500,4.547202392578125,0.22887179255485535,0.029018867760896683,0.033421073108911514
1789059093682213400,4.55721337890625,0.24288775026798248,0.028834311291575432,0.02340412512421608
1789059093692223200,4.56722314453125,0.2422773540019989,0.024443557485938072,0.020897824317216873
1789059093702233300,4.5772333984375,0.23062309622764587,0.04043983295559883,0.02087518759071827
1789059093712243200,4.5872431640625,0.20875081419944763,0.046717703342437744,0.0199207104742527
1789059093722253300,4.59725341796875,0.1623593419790268,0.05781190097332001,0.008590558543801308
1789059093732263400,4.607263427734375,0.10779410600662231,0.06593134254217148,-0.025665681809186935
1789059093742273300,4.617273193359375,0.08445123583078384,0.07297327369451523,-0.029571473598480225
1789059093752283400,4.627283447265625,0.04445481672883034,0.0694565698504448,-0.017559019848704338
1789059093762293200,4.637293212890625,0.042628418654203415,0.07130134105682373,0.010697918012738228
1789059093772303400,4.647303466796875,0.029876671731472015,0.04302443191409111,-0.008868326433002949
1789059093782313500,4.6573134765625,0.03013952635228634,0.040704820305109024,0.003861583536490798
1789059093792323300,4.6673232421875,-0.02568911761045456,0.046480949968099594,-0.03735882416367531
1789059093802333400,4.67733349609375,-0.058040931820869446,0.053820088505744934,-0.026569824665784836
1789059093812343300,4.68734326171875,-0.1094021275639534,0.07115700095891953,-0.050156645476818085
1789059093822353400,4.697353515625,-0.1139577254652977,0.04723382368683815,-0.03683178499341011
1789059093832363300,4.70736328125,-0.09255416691303253,0.026672091335058212,-0.012681706808507442
1789059093842373400,4.717373291015625,-0.09630283713340759,0.038838475942611694,0.01515871286392212
1789059093852383500,4.727383544921875,-0.10910625010728836,0.011807390488684177,-0.01170299481600523
1789059093862393300,4.737393310546875,-0.0877719298005104,0.022294919937849045,-0.01666766032576561
1789059093872403500,4.747403564453125,-0.09250250458717346,0.03473294526338577,-0.007793208118528128
1789059093882413300,4.757413330078125,-0.08569173514842987,0.028734441846609116,-0.023316774517297745
1789059093892423200,4.767423095703125,-0.06297071278095245,0.05275588855147362,-0.013981062918901443
1789059093902433300,4.777433349609375,-0.07911772280931473,0.05053215101361275,-0.02016199380159378
1789059093912443100,4.787443115234375,-0.05187651515007019,0.048472195863723755,0.004306064918637276
1789059093922453200,4.797453369140625,-0.027218304574489594,0.04884690046310425,0.029323799535632133
1789059093932463000,4.807463134765625,-0.022607307881116867,0.02805107645690441,0.021409951150417328
1789059093942473200,4.81747314453125,-0.0016269250772893429,0.03796469420194626,0.027897944673895836
1789059093952483000,4.827483154296875,-0.024113325402140617,0.027511252090334892,-0.01022653840482235
1789059093962493200,4.8374931640625,-0.041315216571092606,0.04057459160685539,-0.0005201153689995408
1789059093972503300,4.84750341796875,-0.05397694930434227,0.05357427895069122,0.006846188101917505
1789059093982513200,4.85751318359375,-0.09100740402936935,0.04743169620633125,0.0036072516813874245
1789059093992523300,4.867523193359375,-0.09488629549741745,0.04325532913208008,-0.02076440118253231
1789059094002533000,4.877533203125,-0.10797519981861115,0.02088823728263378,-0.021515412256121635
1789059094012543200,4.887543212890625,-0.12296880036592484,0.009281649254262447,-0.029088642448186874
1789059094022553000,4.897552978515625,-0.1315135508775711,-0.0056919739581644535,-0.04382657632231712
1789059094032563200,4.907563232421875,-0.18315064907073975,0.0021909826900810003,-0.029990123584866524
1789059094042573300,4.9175732421875,-0.2088506817817688,-0.0305778831243515,-0.035113245248794556
1789059094052583200,4.927583251953125,-0.21018172800540924,-0.03627491742372513,-0.0008796420879662037
1789059094062593300,4.93759326171875,-0.20465460419654846,-0.04933559149503708,0.02407737262547016
1789059094072603100,4.94760302734375,-0.19570133090019226,-0.06441840529441833,-0.004268248099833727
1789059094082613200,4.95761328125,-0.19047647714614868,-0.06593427807092667,-0.005041630007326603
1789059094092623400,4.967623291015625,-0.20707249641418457,-0.08182722330093384,0.0054123420268297195
1789059094102633200,4.97763330078125,-0.2050711214542389,-0.058032941073179245,0.028357073664665222
1789059094112643300,4.987643310546875,-0.1977679431438446,-0.07901758700609207,-0.024750087410211563
1789059094122653200,4.997653076171875,-0.18070799112319946,-0.08974853157997131,-0.02960130199790001
1789059094132663300,5.007663330078125,-0.17016667127609253,-0.11254572123289108,-0.039374303072690964
1789059094142673200,5.017673095703125,-0.1475399285554886,-0.13164138793945312,-0.01455737091600895
1789059094152683300,5.027683349609375,-0.14195473492145538,-0.12039139121770859,0.009649431332945824
1789059094162693400,5.037693359375,-0.10019451379776001,-0.13130396604537964,0.019150258973240852
1789059094172703200,5.047703125,-0.08264108747243881,-0.10544812679290771,0.020300744101405144
1789059094182713300,5.05771337890625,-0.04488837718963623,-0.13272155821323395,-0.0019358517602086067
1789059094192723200,5.06772314453125,-0.0014969628537073731,-0.10531923174858093,0.03891117870807648
1789059094202733300,5.0777333984375,0.046293195337057114,-0.11759986728429794,0.021509286016225815
1789059094212743200,5.0877431640625,0.08022533357143402,-0.1000288650393486,0.011787417344748974
1789059094222752300,5.097752197265625,0.10654322057962418,-0.09176134318113327,0.0022426480427384377
1789059094232762400,5.107762451171875,0.11190416663885117,-0.09632307291030884,-0.0140758715569973
1789059094242772200,5.117772216796875,0.13774827122688293,-0.08212709426879883,0.00404587434604764
1789059094252782300,5.1277822265625,0.16005384922027588,-0.0927986428141594,0.024089889600872993
1789059094262792400,5.13779248046875,0.17392092943191528,-0.07842236757278442,0.04410301148891449
1789059094272802300,5.14780224609375,0.1962110549211502,-0.09980835020542145,0.03232438489794731
1789059094282812400,5.1578125,0.18694432079792023,-0.09172512590885162,0.009410812519490719
1789059094292822300,5.167822265625,0.1841259002685547,-0.08133453875780106,0.01889592595398426
1789059094302832400,5.177832275390625,0.17329508066177368,-0.07258152216672897,0.013282516039907932
1789059094312842500,5.187842529296875,0.17580698430538177,-0.07858908176422119,0.007567372173070908
1789059094322852400,5.197852294921875,0.1808672547340393,-0.06149531900882721,0.041074998676776886
1789059094332862500,5.207862548828125,0.1891651302576065,-0.06233847513794899,-0.000589091214351356
1789059094342872300,5.217872314453125,0.21745295822620392,-0.062256984412670135,0.02708221785724163
1789059094352882400,5.22788232421875,0.2356274425983429,-0.05529654398560524,0.00035366779775358737
1789059094362892000,5.23789208984375,0.23432941734790802,-0.0349649079144001,0.03851862996816635
1789059094372902100,5.247902099609375,0.25552311539649963,-0.026501648128032684,0.03519740328192711
1789059094382912300,5.257912353515625,0.2527584731578827,0.0002069276088150218,0.050690341740846634
1789059094392922000,5.267922119140625,0.2601010799407959,-0.008320780470967293,0.03964488208293915
1789059094402932200,5.27793212890625,0.2554655969142914,0.007225422188639641,0.007947404868900776
1789059094412942000,5.287942138671875,0.233867347240448,0.015507054515182972,-0.011273160576820374
1789059094422952200,5.2979521484375,0.23357893526554108,0.026668095961213112,0.00038935415796004236
1789059094432962300,5.30796240234375,0.19887448847293854,0.02250956930220127,0.012005263939499855
1789059094442972200,5.31797216796875,0.18779200315475464,0.03165806084871292,0.025974076241254807
1789059094452982300,5.327982177734375,0.17684482038021088,0.007208378054201603,0.024719994515180588
1789059094462992100,5.3379921875,0.1560223549604416,0.026316292583942413,0.04331525042653084
1789059094475506400,5.35050634765625,0.12958648800849915,0.02177773416042328,0.017255952581763268
1789059094485516300,5.360516357421875,0.09272035211324692,0.02515408955514431,-0.013975470326840878
1789059094495526400,5.3705263671875,0.06766719371080399,0.027880100533366203,-0.0021174794528633356
1789059094505536300,5.380536376953125,0.07371203601360321,0.034506577998399734,0.025187911465764046
1789059094515546400,5.39054638671875,0.08022799342870712,0.011086206883192062,0.05299291014671326
1789059094525556200,5.40055615234375,0.07643378525972366,0.010485397651791573,0.032763540744781494
1789059094535566300,5.41056640625,0.07452057301998138,0.0123645244166255,0.034455180168151855
1789059094545576400,5.420576416015625,0.07593870908021927,-0.0034461303148418665,0.011955995112657547
1789059094555586300,5.43058642578125,0.06426047533750534,0.0234115831553936,0.04054715856909752
1789059094565596400,5.440596435546875,0.060087040066719055,0.00923317950218916,0.06149318814277649
1789059094575606300,5.450606201171875,0.07028667628765106,0.026065954938530922,0.04219299182295799
1789059094585616400,5.460616455078125,0.05974775180220604,0.013034042902290821,0.01702931709587574
1789059094595626200,5.470626220703125,0.07767641544342041,0.0073047843761742115,0.0025100293569266796
1789059094605636400,5.48063623046875,0.08510557562112808,0.012341887690126896,0.011539743281900883
1789059094615646500,5.490646484375,0.0851239487528801,0.006704241503030062,-0.011053450405597687
1789059094625656300,5.50065625,0.09947998821735382,0.014747254550457,0.015473231673240662
1789059094635666400,5.51066650390625,0.10038785636425018,-0.004325772635638714,-0.01623755879700184
1789059094645676300,5.52067626953125,0.09808262437582016,0.0277370885014534,-0.0038067223504185677
1789059094655686400,5.530686279296875,0.10448087006807327,0.0017936390358954668,-0.020786505192518234
1789059094665696300,5.5406962890625,0.09321489930152893,0.007729292381554842,-0.011332016438245773
1789059094675706400,5.550706298828125,0.09807117283344269,-0.0016591493040323257,0.004251203965395689
1789059094685716000,5.560716064453125,0.10939093679189682,0.010407899506390095,0.022050973027944565
1789059094695725000,5.57072509765625,0.08070443570613861,0.006087986286729574,-0.03895432502031326
1789059094705735000,5.58073486328125,0.08622969686985016,0.005506617948412895,-0.04722876474261284
1789059094715745000,5.5907451171875,0.08694581687450409,-0.021286912262439728,-0.07115407288074493
1789059094725755000,5.6007548828125,0.08949445933103561,-0.01239195466041565,-0.021739650517702103
1789059094735765000,5.610764892578125,0.09466605633497238,-0.021819278597831726,-0.025670476257801056
1789059094745775000,5.620775146484375,0.10339376330375671,-0.013428723439574242,0.0032285500783473253
1789059094755785000,5.630784912109375,0.09388335049152374,-0.014735270291566849,0.005880525801330805
1789059094765795000,5.640795166015625,0.094676174223423,0.003364904085174203,0.011129883117973804
1789059094775805000,5.650804931640625,0.10754164308309555,-0.0004093278548680246,-0.01092481892555952
1789059094785815000,5.66081494140625,0.1319737434387207,0.005274123977869749,-0.037206489592790604
1789059094795825000,5.670824951171875,0.16399133205413818,-0.0032921996898949146,-0.031039142981171608
1789059094805835000,5.6808349609375,0.18956513702869415,-0.007345264777541161,-0.027535753324627876
1789059094815845000,5.69084521484375,0.21449019014835358,0.003951065707951784,-0.018185662105679512
1789059094825855000,5.70085498046875,0.25714683532714844,-0.0037476003635674715,0.004780374001711607
1789059094835864000,5.710864013671875,0.28294968605041504,0.019571570679545403,0.005036570131778717
1789059094845874200,5.720874267578125,0.2897479236125946,0.017295099794864655,-0.007754059974104166
1789059094855884000,5.730884033203125,0.31328094005584717,0.02478470839560032,-0.015600797720253468
1789059094865894100,5.74089404296875,0.30243656039237976,0.029152026399970055,-0.029525933787226677
1789059094875904000,5.750904052734375,0.3016189634799957,0.028898494318127632,-0.043718717992305756
1789059094885914000,5.7609140625,0.31121647357940674,0.014712100848555565,-0.043166644871234894
1789059094895924000,5.770924072265625,0.2899617850780487,0.048645567148923874,-0.026606310158967972
1789059094905934000,5.78093408203125,0.28098347783088684,0.018550781533122063,-0.04670918360352516
1789059094915944200,5.790944091796875,0.3056619167327881,0.038847263902425766,0.006794522982090712
1789059094925954000,5.8009541015625,0.28475716710090637,0.02052844502031803,0.04784475266933441
1789059094935964200,5.810964111328125,0.30240991711616516,0.018699917942285538,0.07970761507749557
1789059094945974000,5.82097412109375,0.2565670609474182,0.036489568650722504,0.09054134786128998
1789059094955984100,5.830984130859375,0.21878667175769806,0.04042944684624672,0.08306745439767838
1789059094965994200,5.840994140625,0.17479977011680603,0.05144188553094864,0.03975779935717583
1789059094976004000,5.851004150390625,0.13611389696598053,0.05752747505903244,-0.004569984506815672
1789059094986014200,5.86101416015625,0.1540984958410263,0.04623620584607124,-0.002941727638244629
1789059094996024000,5.871024169921875,0.1465577483177185,0.04109231010079384,-0.025285648182034492
1789059095006034200,5.8810341796875,0.13771845400333405,0.04645591601729393,-0.004517786670476198
1789059095016043800,5.891043701171875,0.15372803807258606,0.030228210613131523,-0.004612328484654427
1789059095026054000,5.901053955078125,0.13904230296611786,0.046239133924245834,0.020253339782357216
1789059095036064000,5.91106396484375,0.1355879157781601,0.0378030389547348,0.00965715479105711
1789059095046073900,5.921073974609375,0.12463966757059097,0.045513689517974854,-0.0015401060227304697
1789059095056084000,5.931083984375,0.08700893074274063,0.05337188020348549,-0.03967044875025749
1789059095066093800,5.94109375,0.08826062083244324,0.05825318768620491,-0.010662497952580452
1789059095076104000,5.95110400390625,0.09470626711845398,0.04093118757009506,-0.008536762557923794
1789059095086114000,5.961114013671875,0.09737848490476608,0.03782940283417702,0.01720215566456318
1789059095096124000,5.9711240234375,0.0960777997970581,0.022908244282007217,0.007415838539600372
1789059095106134000,5.981134033203125,0.09584982693195343,0.043961599469184875,0.030046315863728523
1789059095116143900,5.991143798828125,0.11619158834218979,0.019529759883880615,0.021954568102955818
1789059095126154000,6.001154052734375,0.1366872787475586,0.043463852256536484,0.04469742998480797
1789059095136163800,6.011163818359375,0.13890515267848969,0.04609319195151329,0.008711466565728188
1789059095146174000,6.021174072265625,0.15133999288082123,0.05837143212556839,-0.0017307883827015758
1789059095156183000,6.03118310546875,0.16943004727363586,0.06361226737499237,-0.018910573795437813
1789059095166193000,6.04119287109375,0.20792150497436523,0.053293049335479736,-0.03712313249707222
1789059095176203000,6.051203125,0.25975966453552246,0.049019474536180496,-0.0248401015996933
1789059095186213000,6.061213134765625,0.27422064542770386,0.049139317125082016,-0.017314542084932327
1789059095196223000,6.071222900390625,0.2706349492073059,0.07226620614528656,0.02532932534813881
1789059095206233000,6.081233154296875,0.26765409111976624,0.06549591571092606,0.0006737797521054745
1789059095216243000,6.091242919921875,0.2763543725013733,0.07889348268508911,0.048114530742168427
1789059095226253000,6.101253173828125,0.2653312683105469,0.07129175961017609,-0.007151386234909296
1789059095236263000,6.111262939453125,0.23875212669372559,0.10293304175138474,-0.016752082854509354
1789059095246273000,6.12127294921875,0.2212463617324829,0.09274964779615402,-0.06522320955991745
1789059095256283100,6.131283203125,0.22577321529388428,0.10751047730445862,-0.09163617342710495
1789059095266293000,6.14129296875,0.22940762341022491,0.09332302212715149,-0.12666472792625427
1789059095276303000,6.15130322265625,0.2391662448644638,0.08854744583368301,-0.09527511894702911
1789059095286313000,6.16131298828125,0.21825963258743286,0.07239484041929245,-0.09663999080657959
1789059095296323000,6.171322998046875,0.19139419496059418,0.0902518630027771,-0.040941573679447174
1789059095306333200,6.181333251953125,0.19422034919261932,0.09198744595050812,0.0038693067617714405
1789059095316343000,6.191343017578125,0.15104304254055023,0.08779270201921463,0.006982808467000723
1789059095326353200,6.201353271484375,0.12824904918670654,0.09072484076023102,0.010456635616719723
1789059095336363000,6.211363037109375,0.10604414343833923,0.09762588888406754,0.01025689858943224
1789059095346373000,6.221373046875,0.11792104691267014,0.08888539671897888,0.005793174263089895
1789059095356383000,6.231383056640625,0.141646608710289,0.08056621253490448,0.007525826804339886
1789059095366393000,6.24139306640625,0.1499980241060257,0.08005701750516891,0.019932162016630173
1789059095376403200,6.2514033203125,0.15031494200229645,0.08914798498153687,0.019105784595012665
1789059095386413000,6.2614130859375,0.16787847876548767,0.09752469509840012,0.02207787148654461
1789059095396423200,6.271423095703125,0.18709158897399902,0.0965193510055542,0.042998865246772766
1789059095406433000,6.28143310546875,0.19069324433803558,0.10588914901018143,0.05589575693011284
1789059095416443100,6.291443115234375,0.1914658397436142,0.10760609060525894,0.05652159824967384
1789059095426453000,6.301452880859375,0.18142758309841156,0.094676174223423,0.03154247999191284
1789059095436463000,6.311463134765625,0.14590021967887878,0.11570689082145691,0.025791915133595467
1789059095446473200,6.32147314453125,0.1213085874915123,0.11917565762996674,0.039094939827919006
1789059095456483000,6.331483154296875,0.11216302216053009,0.12667138874530792,0.0015033544041216373
1789059095466493200,6.3414931640625,0.07620049268007278,0.15373283624649048,0.04665698483586311
1789059095476503000,6.3515029296875,0.05986066907644272,0.140076145529747,-0.01757206954061985
1789059095486513000,6.361512939453125,0.06734441965818405,0.13210131227970123,0.017903100699186325
1789059095496523000,6.37152294921875,0.07859467715024948,0.12166145443916321,0.0198618546128273
1789059095506532900,6.381532958984375,0.06660699099302292,0.11628080159425735,0.0332823246717453
1789059095516543000,6.39154296875,0.057797785848379135,0.10590885579586029,0.04736778140068054
1789059095526552800,6.401552734375,0.012086490169167519,0.1325918585062027,0.04749135300517082
1789059095536563000,6.41156298828125,-0.003865045728161931,0.12690015137195587,0.016639163717627525
1789059095546572800,6.42157275390625,-0.007494934368878603,0.1277928501367569,0.020924456417560577
1789059095556583000,6.4315830078125,-0.026680612936615944,0.11532792448997498,-0.004715392831712961
1789059095566593000,6.441593017578125,-0.03389272093772888,0.10602736473083496,0.020955082029104233
1789059095576603000,6.451602783203125,-0.0417165532708168,0.0808972492814064,0.024895763024687767
1789059095586613000,6.461613037109375,-0.08469944447278976,0.10375196486711502,0.07352987676858902
1789059095596622800,6.471622802734375,-0.11703900247812271,0.09058848768472672,0.054612379521131516
1789059095606633000,6.481633056640625,-0.13927693665027618,0.08769203722476959,0.06551456451416016
1789059095616643000,6.49164306640625,-0.16058994829654694,0.08845396339893341,0.038237135857343674
1789059095626653000,6.50165283203125,-0.1767963469028473,0.08920364826917648,0.015395468100905418
1789059095636663000,6.5116630859375,-0.19137448072433472,0.08579719811677933,-0.02520681917667389
1789059095646673000,6.5216728515625,-0.2004723846912384,0.08118859678506851,0.0158854890614748
1789059095656683000,6.53168310546875,-0.1831682175397873,0.05690589174628258,0.017772872000932693
1789059095666692900,6.54169287109375,-0.19021840393543243,0.05272872373461723,0.0233527272939682
1789059095676703000,6.551702880859375,-0.19384270906448364,0.0584888756275177,-0.013796505518257618
1789059095686713300,6.56171337890625,-0.20995429158210754,0.06070009991526604,-0.002285258611664176
1789059095696723200,6.57172314453125,-0.19680707156658173,0.0521223247051239,0.006969492416828871
1789059095706733300,6.5817333984375,-0.1865890473127365,0.05018487200140953,0.05313379317522049
1789059095716743200,6.5917431640625,-0.1698835790157318,0.04213520139455795,0.05919647961854935
1789059095726753300,6.601753173828125,-0.18491604924201965,0.05968623235821724,0.03050651028752327
1789059095736763100,6.61176318359375,-0.18056951463222504,0.05619243159890175,-0.0021606225054711103
1789059095746773200,6.621773193359375,-0.14964887499809265,0.05438308045268059,-0.009790312498807907
1789059095756782300,6.6317822265625,-0.11949017643928528,0.0531495027244091,-0.006047239992767572
1789059095766792200,6.641792236328125,-0.09746130555868149,0.05661054700613022,0.00800306536257267
1789059095776802300,6.65180224609375,-0.07218471169471741,0.05857250094413757,0.022708507254719734
1789059095786812400,6.6618125,-0.06628794223070145,0.052866410464048386,0.090061716735363
1789059095796822300,6.671822265625,-0.05687659978866577,0.060695305466651917,0.09658139944076538
1789059095806832400,6.681832275390625,-0.062009043991565704,0.07382655143737793,0.10850197821855545
1789059095816842200,6.69184228515625,-0.05561825633049011,0.0719226598739624,0.044450290501117706
1789059095826852400,6.701852294921875,-0.04186569154262543,0.09515261650085449,0.017918279394507408
1789059095836862200,6.7118623046875,-0.008944759145379066,0.07748280465602875,-0.014032461680471897
1789059095846872300,6.721872314453125,0.04362630844116211,0.064900703728199,-0.006207562051713467
1789059095856882400,6.73188232421875,0.04897020757198334,0.08165225386619568,-0.014296380802989006
1789059095866892300,6.741892333984375,0.04911454766988754,0.06605438143014908,-0.0004141215467825532
1789059095876902400,6.75190234375,0.05218224599957466,0.0590907521545887,0.0003531351685523987
1789059095886912300,6.761912353515625,0.021518342196941376,0.08656471967697144,0.02888038381934166
1789059095896922400,6.77192236328125,0.046242330223321915,0.06501255184412003,0.03242345154285431
1789059095906932500,6.781932373046875,0.04505535960197449,0.061946190893650055,0.04241164028644562
1789059095916942300,6.7919423828125,0.024402013048529625,0.07061345130205154,0.03684430196881294
1789059095926952400,6.801952392578125,0.04553179815411568,0.055029164999723434,0.0052355085499584675
1789059095936962300,6.81196240234375,0.06713110208511353,0.03767653927206993,0.012783439829945564
1789059095946972400,6.821972412109375,0.06148599833250046,0.056468602269887924,-0.0010812433902174234
1789059095956982300,6.831982177734375,0.06609220057725906,0.0405397042632103,-0.002293514320626855
1789059095966992400,6.841992431640625,0.05796077102422714,0.03609888255596161,-0.015570437535643578
1789059095977002500,6.85200244140625,0.05119580775499344,0.04502979293465614,-0.051659733057022095
1789059095987012400,6.862012451171875,0.05523715540766716,0.03627438470721245,-0.04303375259041786
1789059095997022200,6.872022216796875,0.05303365737199783,0.04772863909602165,-0.032041821628808975
1789059096007032000,6.882031982421875,0.04796912521123886,0.04715845733880997,-0.03621765971183777
1789059096017042200,6.892042236328125,0.04625191539525986,0.04989964887499809,-0.028021780773997307
1789059096027052300,6.90205224609375,0.034573424607515335,0.054787613451480865,-0.07841651141643524
1789059096037062100,6.912062255859375,0.02136920392513275,0.040717869997024536,-0.1032227948307991
1789059096047072300,6.922072265625,0.02052977681159973,0.03820198029279709,-0.1300504058599472
1789059096057082000,6.93208203125,0.00860600546002388,0.031185083091259003,-0.13428457081317902
1789059096067092200,6.94209228515625,-0.000371777277905494,0.03616306558251381,-0.0856400728225708
1789059096077102000,6.95210205078125,-0.0148649662733078,0.0348392054438591,-0.12340395897626877
1789059096087112200,6.9621123046875,-0.028257204219698906,0.04222868010401726,-0.0698363408446312
1789059096097122300,6.972122314453125,-0.043422576040029526,0.033602435141801834,-0.0912441611289978
1789059096107132200,6.982132080078125,-0.05257426202297211,0.029814088717103004,-0.06605944037437439
1789059096117142300,6.992142333984375,-0.02979038655757904,0.010541058145463467,-0.05934241786599159
1789059096127152000,7.002152099609375,-0.05669496953487396,0.011169297620654106,-0.07236767560243607
1789059096137162200,7.012162353515625,-0.08656392246484756,0.023551132529973984,-0.09205669164657593
1789059096147172000,7.022172119140625,-0.10056602209806442,0.02809981070458889,-0.10557569563388824
1789059096157182200,7.03218212890625,-0.09096452593803406,0.023239541798830032,-0.09855959564447403
1789059096167192300,7.0421923828125,-0.07670223712921143,0.026707777753472328,-0.08343444019556046
1789059096177202200,7.0522021484375,-0.07712914049625397,0.020833909511566162,-0.0581330768764019
1789059096187212300,7.06221240234375,-0.0762242004275322,0.028973860666155815,-0.014819692820310593
1789059096197222100,7.07222216796875,-0.06147907301783562,0.030240459367632866,-0.029528597369790077
1789059096207232300,7.082232177734375,-0.051411259919404984,0.02653147652745247,-0.024345019832253456
1789059096217242400,7.092242431640625,-0.05648591369390488,0.02551334910094738,-0.04382258281111717
1789059096227252200,7.102252197265625,-0.06459177285432816,0.029738187789916992,-0.03862808644771576
1789059096237262300,7.112262451171875,-0.06401067227125168,0.03326554596424103,-0.07801224291324615
1789059096247272200,7.122272216796875,-0.051718588918447495,0.03304503485560417,-0.057187922298908234
1789059096257282300,7.1322822265625,-0.035779569298028946,0.03837162256240845,-0.04175170883536339
1789059096267292200,7.142292236328125,-0.04809588938951492,0.04370087385177612,-0.04506920650601387
1789059096277302300,7.15230224609375,-0.035779569298028946,0.026621224358677864,-0.0360456183552742
1789059096287312400,7.1623125,-0.04989512264728546,0.03361841291189194,-0.062368035316467285
1789059096297322200,7.172322265625,-0.051244545727968216,0.017661551013588905,-0.06025028973817825
1789059096307332400,7.182332275390625,-0.03272412344813347,0.010041449218988419,-0.04387025162577629
1789059096317342200,7.19234228515625,-0.04019242525100708,0.004789961501955986,0.000945954816415906
1789059096327352300,7.202352294921875,-0.05199981853365898,0.017128121107816696,0.03746534883975983
1789059096337361400,7.212361328125,-0.05759458616375923,0.00857644435018301,0.04875795170664787
1789059096347371300,7.222371337890625,-0.07426703721284866,0.01763918064534664,0.06769808381795883
1789059096357381400,7.23238134765625,-0.08354629576206207,0.020119914785027504,0.06190731003880501
1789059096367391200,7.24239111328125,-0.0883178785443306,0.00424161646515131,0.04941149055957794
1789059096377401300,7.2524013671875,-0.09168224781751633,0.015304920263588428,0.056949302554130554
1789059096387411500,7.262411376953125,-0.08190445601940155,-0.01996971294283867,0.036806751042604446
1789059096397421300,7.27242138671875,-0.07474188506603241,-0.007197725586593151,0.06018078327178955
1789059096407431400,7.282431396484375,-0.08079843968153,-0.003932423423975706,0.0989321693778038
1789059096417441300,7.292441162109375,-0.0948367640376091,0.008371113799512386,0.11374680697917938
1789059096427451400,7.302451416015625,-0.11316357553005219,0.0198658499866724,0.0799395740032196
1789059096437461500,7.31246142578125,-0.11228127032518387,0.013338974677026272,0.03491590544581413
1789059096447471400,7.322471435546875,-0.09193365275859833,0.015380820259451866,0.04346412047743797
1789059096457481500,7.3324814453125,-0.0890963226556778,0.010146910324692726,0.03459286317229271
1789059096467491000,7.342490966796875,-0.08523819595575333,0.012508334591984749,-0.0016974988393485546
1789059096477501200,7.352501220703125,-0.07502364367246628,0.00706829596310854,-0.0003834952076431364
1789059096487511000,7.362510986328125,-0.06491827964782715,-0.002561694709584117,-0.01452834252268076
1789059096497521200,7.372521240234375,-0.052204616367816925,-0.0029292108956724405,-0.004458398092538118
1789059096507531300,7.38253125,-0.047561924904584885,-0.0052112736739218235,0.009052617475390434
1789059096517541000,7.392541015625,-0.04223613813519478,-0.004898884799331427,0.00758042186498642
1789059096527551200,7.40255126953125,-0.05904760584235191,0.016646621748805046,0.02262568473815918
1789059096537561000,7.41256103515625,-0.04637069255113602,0.010221478529274464,-0.0017006946727633476
1789059096547571200,7.4225712890625,-0.029166407883167267,0.022916501387953758,-0.00267780851572752
1789059096557581300,7.432581298828125,-0.007902397774159908,0.004572381265461445,-0.022901320829987526
1789059096567591200,7.442591064453125,0.015245265327394009,0.023804930970072746,-0.016649549826979637
1789059096577601300,7.452601318359375,0.0369364470243454,0.0043955473229289055,-0.021196898072957993
1789059096587611100,7.462611083984375,0.0685524269938469,-0.0032929987646639347,-0.0065290057100355625
1789059096597621200,7.472621337890625,0.08469917625188828,-0.0011728560784831643,-0.013757623732089996
1789059096607631000,7.482631103515625,0.08593834191560745,0.0027047062758356333,0.004189684987068176
1789059096617641200,7.49264111328125,0.0867370218038559,0.014074273407459259,0.018508968874812126
1789059096627651300,7.5026513671875,0.08499398827552795,0.006882140878587961,0.005972671322524548
1789059096637661200,7.5126611328125,0.08816634118556976,0.016508135944604874,-0.013004215434193611
1789059096647671300,7.52267138671875,0.07701195776462555,0.010365289635956287,-0.025228124111890793
1789059096657681200,7.53268115234375,0.06749515235424042,-0.002945456188172102,-0.004799016285687685
1789059096667691300,7.542691162109375,0.062420766800642014,0.003925499506294727,-0.012257731519639492
1789059096677701000,7.552701171875,0.03743711858987808,-0.005403553601354361,0.0354277640581131
1789059096687711200,7.562711181640625,0.007679757662117481,-0.016706008464097977,-0.050159305334091187
1789059096697721300,7.572721435546875,-0.02303927205502987,-0.006906109396368265,-0.062138739973306656
1789059096707731200,7.582731201171875,-0.05013693496584892,-0.010810303501784801,-0.07098735868930817
1789059096717741300,7.5927412109375,-0.07532911002635956,-0.00962493009865284,-0.03177550807595253
1789059096727751200,7.602751220703125,-0.07849107682704926,-0.019092468544840813,0.0030133668333292007
1789059096737761300,7.61276123046875,-0.08123653382062912,-0.02809981070458889,0.01350648794323206
1789059096747771100,7.622771240234375,-0.0769168883562088,-0.03598995879292488,-0.0033907366450875998
1789059096757781000,7.632781005859375,-0.10281027108430862,-0.023619575425982475,-0.030660441145300865
1789059096767791000,7.642791015625,-0.13086986541748047,-0.018910041078925133,-0.03689383715391159
1789059096777801000,7.652801025390625,-0.14634762704372406,-0.02442092075943947,-0.026638003066182137
1789059096787811000,7.66281103515625,-0.1564367413520813,-0.015401327051222324,0.008627310395240784
1789059096797821000,7.672821044921875,-0.15142227709293365,-0.034383539110422134,0.028448686003684998
1789059096807831000,7.6828310546875,-0.14178882539272308,-0.03807441517710686,0.023030750453472137
1789059096817841200,7.692841064453125,-0.15259593725204468,-0.03696148097515106,-0.007217965554445982
1789059096827851000,7.70285107421875,-0.1568484753370285,-0.029860161244869232,-0.004818989895284176
1789059096837861000,7.712861083984375,-0.15391047298908234,-0.023779897019267082,-0.026735207065939903
1789059096847871000,7.72287109375,-0.14814393222332,-0.0269506573677063,-0.032472189515829086
1789059096857881000,7.732881103515625,-0.13783137500286102,-0.017176058143377304,-0.02894430048763752
1789059096867891200,7.74289111328125,-0.12508521974086761,-0.019625898450613022,-0.027352528646588326
1789059096877900000,7.752900146484375,-0.10808465629816055,-0.03027055412530899,-0.008828911930322647
1789059096887910100,7.76291015625,-0.07091651856899261,-0.039445411413908005,0.005671733990311623
1789059096897920300,7.772920166015625,-0.06907626986503601,-0.043300069868564606,-0.033058617264032364
1789059096907930000,7.78293017578125,-0.06705892831087112,-0.03465171903371811,-0.022593725472688675
1789059096917940200,7.792940185546875,-0.062188006937503815,-0.026574619114398956,-0.03182211145758629
1789059096927950000,7.8029501953125,-0.051711130887269974,-0.024938106536865234,0.0007941546500660479
1789059096937960200,7.812960205078125,-0.014859906397759914,-0.02965376526117325,0.003777693957090378
1789059096947970000,7.822969970703125,-0.013677196577191353,-0.023119701072573662,-0.027881965041160583
1789059096957980200,7.832980224609375,-0.0054552191868424416,-0.03189348429441452,-0.017231717705726624
1789059096967990300,7.842990234375,0.015897206962108612,-0.04536508396267891,-0.05771123245358467
1789059096978000100,7.853000244140625,0.0201066005975008,-0.0376560315489769,-0.04567241296172142
1789059096988010200,7.86301025390625,0.03916284814476967,-0.03736095502972603,-0.05318252742290497
1789059096998020000,7.87302001953125,0.046776026487350464,-0.04055275395512581,-0.03984701633453369
1789059097008030200,7.8830302734375,0.043303266167640686,-0.03170280158519745,0.00041438787593506277
1789059097018040000,7.8930400390625,0.04465721547603607,-0.043367981910705566,0.011011105962097645
1789059097028050200,7.90305029296875,0.038720231503248215,-0.03621233254671097,-0.016413060948252678
1789059097038060300,7.913060302734375,0.014258830808103085,-0.02563026174902916,-0.04926048964262009
1789059097048070100,7.923070068359375,0.0021558289881795645,-0.03645947575569153,-0.05220993980765343
1789059097058080300,7.933080322265625,-0.02455035038292408,-0.01998382806777954,-0.032394424080848694
1789059097068090000,7.943090087890625,-0.009182313457131386,-0.027707528322935104,-0.019627762958407402
1789059097078100200,7.953100341796875,-0.029801305383443832,-0.030221018940210342,-0.06084603816270828
1789059097088110300,7.9631103515625,-0.03966538608074188,-0.03181252256035805,-0.04927540570497513
1789059097098120200,7.9731201171875,-0.06109211593866348,-0.05117024481296539,-0.06546742469072342
1789059097108130300,7.98313037109375,-0.07918722927570343,-0.04809322580695152,-0.028423918411135674
1789059097118140200,7.99314013671875,-0.08392419666051865,-0.053169213235378265,-0.04477386176586151
1789059097128150300,8.003150390625,-0.10842501372098923,-0.03912689536809921,-0.04644020274281502
1789059097138160000,8.01316015625,-0.13570377230644226,-0.04794568940997124,-0.061479873955249786
1789059097148170200,8.023170166015625,-0.16305309534072876,-0.04044302925467491,-0.08597562462091446
1789059097158180400,8.033180419921875,-0.15622848272323608,-0.06387032568454742,-0.07226354628801346
1789059097168190200,8.043190185546875,-0.15276478230953217,-0.06498752534389496,-0.0830589309334755
1789059097178200300,8.053200439453125,-0.16588138043880463,-0.06892820447683334,-0.05836370587348938
1789059097188210200,8.063210205078125,-0.18076258897781372,-0.07111305743455887,-0.006916761863976717
1789059097198220300,8.07322021484375,-0.18402469158172607,-0.06409083306789398,0.014946458861231804
1789059097208230100,8.083230224609375,-0.1853131353855133,-0.07946792989969254,0.040949296206235886
1789059097218240300,8.093240234375,-0.1708068996667862,-0.06840382516384125,0.055324774235486984
1789059097228250000,8.10325,-0.1826438456773758,-0.05760790407657623,0.04373762756586075
1789059097238260000,8.113260009765625,-0.15574298799037933,-0.06052113324403763,0.0028210864402353764
1789059097248270000,8.12327001953125,-0.1314307302236557,-0.0461730882525444,-0.023960726335644722
1789059097258280000,8.133280029296875,-0.0930497795343399,-0.04433151334524155,-0.006204632576555014
1789059097268290000,8.1432900390625,-0.05891817808151245,-0.04691184684634209,-0.018624816089868546
1789059097278300200,8.153300048828125,-0.03916524723172188,-0.028200745582580566,0.03754311427474022
1789059097288310000,8.16331005859375,-0.02532426454126835,-0.0313749685883522,0.008628375828266144
1789059097298320100,8.173320068359375,0.005405950825661421,-0.036626186221838,-0.0024927188642323017
1789059097308330000,8.183330078125,0.014239389449357986,-0.02460680902004242,0.002171541564166546
1789059097318340000,8.193340087890626,0.037407293915748596,-0.01918621174991131,0.032647158950567245
1789059097328350000,8.203349853515626,0.048720669001340866,-0.02406432293355465,0.03466983139514923
1789059097338360000,8.213360107421876,0.04387291520833969,-0.00569996377453208,0.05276068300008774
1789059097348370200,8.2233701171875,0.04781945422291756,-0.01751481182873249,0.024464596062898636
1789059097358380000,8.233380126953126,0.0581170991063118,-0.007111971732228994,0.022767895832657814
1789059097368390100,8.24339013671875,0.07592139393091202,-0.02544570527970791,-0.009631055407226086
1789059097378400000,8.25339990234375,0.09429135173559189,-0.029688386246562004,0.02804548293352127
1789059097388410000,8.26341015625,0.08462593704462051,-0.03489752858877182,0.015719840303063393
1789059097398420000,8.273419921875,0.07864420861005783,-0.01537842396646738,0.046927560120821
1789059097408429000,8.283428955078126,0.09078503400087357,-0.04520369693636894,0.03650794178247452
1789059097418440200,8.293440185546874,0.08518893271684647,-0.038719698786735535,0.04796885699033737
1789059097428449300,8.30344921875,0.0955401062965393,-0.0493616908788681,0.023913055658340454
1789059097438459100,8.313459228515624,0.10627557337284088,-0.04704047739505768,0.01678137667477131
1789059097448469200,8.32346923828125,0.09489242732524872,-0.0354384183883667,0.006833937484771013
1789059097458479000,8.33347900390625,0.09812816232442856,-0.025007082149386406,0.03969867527484894
1789059097468489200,8.3434892578125,0.10480178147554398,-0.034205108880996704,0.04105236008763313
1789059097478499000,8.3534990234375,0.0989295095205307,-0.006243781186640263,0.07617919147014618
1789059097488509200,8.36350927734375,0.11489968746900558,-0.03410124406218529,0.05607898160815239
1789059097498519300,8.373519287109374,0.1264711171388626,-0.02322196587920189,0.07793421298265457
1789059097508529200,8.383529052734374,0.11546134948730469,-0.02160436101257801,0.07366117089986801
1789059097518539300,8.393539306640625,0.11750532686710358,-0.026336265727877617,0.05974695459008217
1789059097528549000,8.403549072265625,0.10417141020298004,-0.014534734189510345,0.03590020909905434
1789059097538559200,8.413559326171875,0.09465140849351883,-0.01534566655755043,0.010599914006888866
1789059097548569000,8.423569091796875,0.09375711530447006,-0.02544490620493889,-0.026198580861091614
1789059097558579200,8.4335791015625,0.09655264019966125,-0.02431332878768444,-0.041783399879932404
1789059097568589300,8.44358935546875,0.09307242184877396,-0.02034734934568405,-0.027453728020191193
1789059097578599200,8.45359912109375,0.09554249793291092,-0.0290545541793108,-0.015272696502506733
1789059097588609300,8.463609375,0.08339103311300278,-0.028002873063087463,-0.006010221783071756
1789059097598619100,8.473619140625,0.06851781159639359,-0.021885856986045837,0.014751515351235867
1789059097608629200,8.483629150390625,0.040946099907159805,-0.0075780246406793594,0.04168565943837166
1789059097618639000,8.49363916015625,0.03971891850233078,-0.021372666582465172,0.0420001819729805
1789059097628649200,8.503649169921875,0.04168646037578583,-0.01998169720172882,0.020364660769701004
1789059097638659300,8.513659423828125,0.03524560481309891,-0.028931783512234688,-0.016334764659404755
1789059097648669200,8.523669189453125,0.03527623042464256,-0.023086676374077797,-0.0052363071590662
1789059097658679300,8.53367919921875,0.025676067918539047,-0.011659585870802402,-0.040644366294145584
1789059097668689200,8.543689208984375,0.024878984317183495,-0.008188420906662941,-0.04458557814359665
1789059097678699300,8.55369921875,0.019698336720466614,-0.01720721647143364,-0.042629752308130264
1789059097688708600,8.56370849609375,0.007556186988949776,0.009119195863604546,-0.031075095757842064
1789059097698718500,8.573718505859375,0.03218776360154152,-0.000025566347176209092,0.0009709885343909264
1789059097708728600,8.583728515625,0.020018182694911957,0.012960805557668209,0.02851046994328499
1789059097718738400,8.593738525390625,0.009821205399930477,0.016637565568089485,0.01872388646006584
1789059097728748500,8.60374853515625,0.016162991523742676,0.012840164825320244,0.0006210491410456598
1789059097738758700,8.613758544921875,0.015084677375853062,0.027424434199929237,-0.014568289741873741
1789059097748768500,8.6237685546875,0.012484898790717125,0.03289936110377312,-0.02304166927933693
1789059097758778600,8.633778564453126,0.0284686591476202,0.028254274278879166,-0.02474316395819187
1789059097768788500,8.64378857421875,0.020314592868089676,0.04452166333794594,0.0013677994720637798
1789059097778798600,8.653798583984376,0.035951875150203705,0.02985243685543537,-0.013405021280050278
1789059097788808700,8.66380859375,0.05331302434206009,0.035056788474321365,0.012572250328958035
1789059097798818600,8.673818603515626,0.052679456770420074,0.039555396884679794,0.045151498168706894
1789059097808828700,8.68382861328125,0.04783197119832039,0.04007178544998169,0.04704660549759865
1789059097818838500,8.693838623046876,0.046431947499513626,0.03593643009662628,0.011475561186671257
1789059097828848600,8.7038486328125,0.02793096750974655,0.05542730540037155,-0.02149224281311035
1789059097838858500,8.7138583984375,0.02803616225719452,0.04607987776398659,-0.02449176087975502
1789059097848868600,8.72386865234375,0.025077389553189278,0.04583060368895531,-0.0439155250787735
1789059097858878700,8.733878662109374,0.02136068232357502,0.057861436158418655,0.01571238413453102
1789059097868888600,8.743888671875,0.04723302647471428,0.02743641845881939,-0.026687802746891975
1789059097878898700,8.753898681640624,0.04700639098882675,0.047269776463508606,-0.007668039761483669
1789059097888908500,8.763908447265624,0.04723701998591423,0.041370607912540436,-0.010160758160054684
1789059097898918700,8.773918701171874,0.03984461724758148,0.04597947746515274,0.0009571401169523597
1789059097908928500,8.783928466796874,0.029699305072426796,0.06818757951259613,0.030460704118013382
1789059097918938600,8.793938720703125,0.013028716668486595,0.06303435564041138,0.010630805976688862
1789059097928948700,8.80394873046875,0.015171762555837631,0.06720113754272461,-0.03813300281763077
1789059097938957600,8.81395751953125,-0.004804608877748251,0.06693749129772186,-0.04117007181048393
1789059097948967700,8.8239677734375,-0.004490888677537441,0.05796609818935394,-0.03671620413661003
1789059097958977800,8.833977783203125,-0.016394685953855515,0.06436727195978165,0.014554441906511784
1789059097968987600,8.843987548828125,-0.03248097747564316,0.0430247001349926,0.0006815029191784561
1789059097978997800,8.853997802734375,-0.04623141139745712,0.049969159066677094,0.009050752967596054
1789059097989007600,8.864007568359375,-0.07264810800552368,0.04538718983530998,-0.022238193079829216
1789059097999017700,8.874017822265625,-0.07283052802085876,0.03190786391496658,0.003859453136101365
1789059098009027800,8.88402783203125,-0.10269894450902939,0.042383674532175064,0.006368683185428381
1789059098019037700,8.89403759765625,-0.11796924471855164,0.038962844759225845,0.03009105660021305
1789059098029047800,8.9040478515625,-0.11235343664884567,0.023610254749655724,0.017768610268831253
1789059098039057700,8.9140576171875,-0.1274903118610382,0.03224848210811615,0.022882146760821342
1789059098049067800,8.92406787109375,-0.12946930527687073,0.025602566078305244,0.009519735351204872
1789059098059077600,8.93407763671875,-0.12566711008548737,0.009453688748180866,0.014370949938893318
1789059098069087700,8.944087646484375,-0.14041809737682343,0.015914252027869225,0.00375958438962698
1789059098079097900,8.954097900390625,-0.12016555666923523,-0.0032839439809322357,0.006652842741459608
1789059098089107700,8.964107666015625,-0.11794101446866989,-0.005387841258198023,0.016282832249999046
1789059098099117800,8.974117919921875,-0.12923601269721985,0.00045300371129997075,0.050342265516519547
1789059098109127700,8.984127685546875,-0.06169692054390907,-0.11143731325864792,0.09597659856081009
1789059098119137500,8.994137451171875,-0.004303668159991503,-0.15690146386623383,0.09408282488584518
1789059098129147600,9.004147705078125,-0.07281508296728134,-0.12593795359134674,-0.015120629221200943
1789059098139157500,9.014157470703125,-0.2543505132198334,0.015329687856137753,-0.04622049257159233
1789059098149167600,9.024167724609375,-0.38459721207618713,0.11053716391324997,-0.12283990532159805
1789059098159177500,9.034177490234375,-0.2932366728782654,0.0741027221083641,-0.1050739511847496
1789059098169187600,9.0441875,-0.16145813465118408,-0.007244330830872059,0.01666126772761345
1789059098179197400,9.054197509765626,-0.1377088576555252,-0.06889970600605011,0.0777970626950264
1789059098189207600,9.06420751953125,-0.11890694499015808,-0.0800652727484703,0.11636868864297867
1789059098199217700,9.0742177734375,-0.09941047430038452,-0.08333270996809006,0.023635288700461388
1789059098209227500,9.0842275390625,-0.10876908898353577,-0.04617202281951904,-0.04390780255198479
1789059098219237600,9.094237548828126,-0.10622017830610275,-0.034934815019369125,-0.02694772742688656
1789059098229247500,9.10424755859375,-0.12433499842882156,-0.01978968270123005,-0.024094950407743454
1789059098239257600,9.114257568359376,-0.11435640603303909,-0.024022512137889862,-0.030010363087058067
1789059098249267500,9.124267333984376,-0.07693126797676086,-0.030715834349393845,-0.014874819666147232
1789059098259277600,9.134277587890624,-0.06234939396381378,-0.05619136616587639,-0.00797456968575716
1789059098269287700,9.14428759765625,-0.031932100653648376,-0.0732174888253212,0.04928099736571312
1789059098279297500,9.154297607421874,-0.058821238577365875,-0.05897756665945053,0.043175432831048965
1789059098289307600,9.1643076171875,-0.11004394292831421,-0.03895485773682594,0.016990700736641884
1789059098299317500,9.1743173828125,-0.133148193359375,-0.019410450011491776,-0.01835983246564865
1789059098309327600,9.18432763671875,-0.14039838314056396,-0.010431068949401379,0.015843411907553673
1789059098319337700,9.194337646484374,-0.1208939328789711,-0.036615267395973206,-0.004248008131980896
1789059098329347600,9.20434765625,-0.10117695480585098,-0.04723808541893959,-0.02346671000123024
1789059098339357700,9.214357666015625,-0.10745375603437424,-0.048829589039087296,-0.015686284750699997
1789059098349367600,9.224367431640625,-0.0839923694729805,-0.07562525570392609,-0.014210627414286137
1789059098359377700,9.234377685546875,-0.07815632224082947,-0.0647457093000412,0.018928151577711105
1789059098369387500,9.244387451171875,-0.06380534172058105,-0.07433228939771652,0.029144836589694023
1789059098379397600,9.254397705078125,-0.06603041291236877,-0.06661125272512436,0.02292795293033123
1789059098389407700,9.26440771484375,-0.08398491144180298,-0.051842156797647476,0.010435597039759159
1789059098399417600,9.27441748046875,-0.08217529952526093,-0.07285689562559128,-0.012410596944391727
1789059098409427700,9.284427734375,-0.05035984143614769,-0.057966362684965134,0.020447751507163048
1789059098419437600,9.2944375,-0.03842941299080849,-0.07144515216350555,-0.0026495789643377066
1789059098429447700,9.30444775390625,-0.016507336869835854,-0.0806136205792427,0.02574584260582924
1789059098439456800,9.314456787109375,-0.011472364887595177,-0.08716606348752975,0.0016058861510828137
1789059098449466600,9.324466552734375,-0.015110509470105171,-0.08650027215480804,-0.026985811069607735
1789059098459476700,9.334476806640625,0.00827018078416586,-0.08055316656827927,-0.02648060955107212
1789059098469486600,9.344486572265625,0.02339906617999077,-0.08426427841186523,0.000621848099399358
1789059098479498800,9.354498779296875,0.04235677793622017,-0.08713170886039734,0.011294466443359852
1789059098489508600,9.364508544921875,0.03141384944319725,-0.08907661586999893,0.009363940916955471
1789059098499518700,9.374518798828126,0.024563932791352272,-0.09183751046657562,-0.029446572065353394
1789059098509528600,9.384528564453126,0.031257256865501404,-0.08541876077651978,-0.015996010974049568
1789059098519538700,9.39453857421875,0.023603595793247223,-0.09250330179929733,-0.009299758821725845
1789059098529548500,9.404548583984376,0.023749537765979767,-0.09301196783781052,0.03184235095977783
1789059098539558700,9.41455859375,0.02087572030723095,-0.10034338384866714,0.0034679684322327375
1789059098549567700,9.424567626953126,0.01781841181218624,-0.09591321647167206,0.022344186902046204
1789059098559577600,9.43457763671875,0.009407083503901958,-0.10972756147384644,0.006579605862498283
1789059098569587700,9.444587646484376,0.0076422072015702724,-0.11066979169845581,0.02496473863720894
1789059098579597800,9.454597900390626,-0.01076982356607914,-0.10547342896461487,0.010974620468914509
1789059098589607700,9.464607666015626,-0.024955684319138527,-0.11012250930070877,-0.02648567035794258
1789059098599617800,9.47461767578125,-0.03586399182677269,-0.09706423431634903,-0.009943177923560143
1789059098609627600,9.484627685546876,-0.0354008674621582,-0.10997842997312546,-0.03127136826515198
1789059098619637800,9.4946376953125,-0.022459236904978752,-0.10847108066082001,0.027284085750579834
1789059098629647600,9.504647705078124,-0.020915934816002846,-0.11885927617549896,-0.011561847291886806
1789059098639657700,9.51465771484375,-0.016406670212745667,-0.10152263194322586,0.03309936448931694
1789059098649667800,9.524667724609374,-0.008803877979516983,-0.11395373195409775,0.010838799178600311
1789059098659677700,9.534677734375,0.0010128001449629664,-0.09612493216991425,0.029587719589471817
1789059098669687800,9.544687744140624,0.03146018832921982,-0.09633345901966095,0.0005219795857556164
1789059098679697700,9.55469775390625,0.07490620017051697,-0.09782057255506516,-0.010640660300850868
1789059098689707800,9.564707763671874,0.10975658893585205,-0.07960587739944458,-0.0062733422964811325
1789059098699718000,9.5747177734375,0.13365793228149414,-0.07529634982347488,-0.02219478413462639
1789059098709727700,9.584727783203125,0.16704171895980835,-0.061171211302280426,-0.014475611969828606
1789059098719737900,9.59473779296875,0.19627124071121216,-0.05703532323241234,-0.018861837685108185
1789059098729747700,9.604747802734375,0.21321560442447662,-0.055138085037469864,0.005321528296917677
1789059098739757800,9.6147578125,0.21825137734413147,-0.040833983570337296,0.032115593552589417
1789059098749767700,9.624767578125,0.21696346998214722,-0.019395003095269203,0.07505666464567184
1789059098759777800,9.63477783203125,0.21525424718856812,-0.02027437835931778,0.04517147317528725
1789059098769788000,9.644787841796875,0.2155088484287262,-0.006925283931195736,0.01047367975115776
1789059098779797800,9.6547978515625,0.22677083313465118,-0.018851717934012413,-0.0008349010022357106
1789059098789806800,9.664806884765625,0.24272209405899048,-0.01130831427872181,0.022758575156331062
1789059098799816000,9.67481591796875,0.23987437784671783,-0.009278985671699047,-0.010673416778445244
1789059098809825800,9.68482568359375,0.23373472690582275,-0.012777847237884998,-0.01654222421348095
1789059098819836000,9.6948359375,0.21743512153625488,-0.008494684472680092,-0.035948947072029114
1789059098829846000,9.704845947265625,0.19720707833766937,0.018869029358029366,0.011176488362252712
1789059098839855900,9.71485595703125,0.2062050998210907,0.00986434891819954,0.03814791887998581
1789059098849866000,9.724865966796875,0.23210486769676208,-0.03117736056447029,0.01299409568309784
1789059098859875800,9.734875732421875,0.2416728138923645,-0.03593483194708824,0.003385676769539714
1789059098869886000,9.744885986328125,0.18819867074489594,0.00002103897168126423,-0.0003281014505773783
1789059098879895800,9.754895751953125,0.16870060563087463,0.022103704512119293,-0.010124805383384228
1789059098889905700,9.76490576171875,0.17472413182258606,0.03303757682442665,-0.027051057666540146
1789059098899915800,9.774915771484375,0.17609912157058716,0.01432301290333271,-0.02244698628783226
1789059098909925600,9.784925537109375,0.1809929609298706,0.010326673276722431,0.006749515421688557
1789059098919935700,9.794935791015625,0.1796049177646637,0.01721493899822235,0.02738714963197708
1789059098929945600,9.804945556640625,0.16652320325374603,0.016286294907331467,0.05589016526937485
1789059098939955700,9.814955810546875,0.1351969689130783,0.04020574316382408,0.06639499962329865
1789059098949965800,9.8249658203125,0.1023615226149559,0.04469875991344452,0.023847809061408043
1789059098959975700,9.8349755859375,0.1025996133685112,0.04020174965262413,-0.018725218251347542
1789059098969985800,9.84498583984375,0.11127645522356033,0.041543181985616684,-0.013291037641465664
1789059098979995600,9.85499560546875,0.10837893933057785,0.030293989926576614,-0.011552260257303715
1789059098990005800,9.865005859375,0.12527403235435486,0.03170759603381157,0.0337049663066864
1789059099000015600,9.875015625,0.14161226153373718,0.04840242117643356,0.01685834303498268
1789059099010025700,9.885025634765626,0.1486709713935852,0.03734497353434563,0.00315984059125185
1789059099020035800,9.895035888671876,0.17068305611610413,0.037459492683410645,-0.0070882695727050304
1789059099030045700,9.905045654296876,0.17889304459095,0.04903305694460869,0.02624412067234516
1789059099040055800,9.915055908203126,0.18648386001586914,0.045038048177957535,0.014636733569204807
1789059099050065700,9.925065673828126,0.19133694469928741,0.07108642905950546,0.00749040674418211
1789059099060075800,9.93507568359375,0.1806856244802475,0.07663831859827042,-0.04048164561390877
1789059099070086000,9.9450859375,0.18631768226623535,0.08544619381427765,-0.04659013822674751
1789059099080095700,9.955095703125,0.2157496064901352,0.07146140187978745,-0.023959660902619362
1789059099090105900,9.96510595703125,0.23915691673755646,0.08298037201166153,0.0020301276817917824
1789059099100115700,9.97511572265625,0.23287080228328705,0.10484679043292999,0.0399109311401844
1789059099110125800,9.985125732421874,0.24789714813232422,0.07293226569890976,0.049144111573696136
1789059099120135700,9.9951357421875,0.252094030380249,0.10226192325353622,0.04603247344493866
1789059099130145800,10.005145751953124,0.23434671759605408,0.0872076079249382,0.013839116320014
1789059099140156000,10.015156005859374,0.18708492815494537,0.10945431888103485,-0.051475442945957184
1789059099150165800,10.025165771484374,0.12578855454921722,0.14709223806858063,0.043891824781894684
1789059099160175900,10.03517578125,0.09797316789627075,0.12274855375289917,0.03253397345542908
1789059099170185700,10.045185791015625,0.11091479659080505,0.13909584283828735,-0.003944674041122198
1789059099180195800,10.05519580078125,0.11291856318712234,0.1275465041399002,0.03748585656285286
1789059099190205700,10.065205810546875,0.09831458330154419,0.09188385307788849,0.004135889001190662
1789059099200215800,10.0752158203125,0.08979246765375137,0.11619531363248825,0.0680733248591423
1789059099210226000,10.085225830078125,0.048041295260190964,0.12848101556301117,0.055697351694107056
1789059099220235800,10.09523583984375,0.022068284451961517,0.13966895639896393,0.06447752565145493
1789059099230246000,10.105245849609375,-0.021202489733695984,0.14592178165912628,0.016580041497945786
1789059099240255700,10.115255859375,-0.00956953689455986,0.10981065034866333,-0.01841389387845993
1789059099250265900,10.125265869140625,-0.04975929856300354,0.08539825677871704,-0.0966849997639656
1789059099260276000,10.13527587890625,-0.12097062915563583,0.11301496624946594,-0.04144517704844475
1789059099270285800,10.145285888671875,-0.14351429045200348,0.13937413692474365,0.0012828446924686432
1789059099280296000,10.1552958984375,-0.147344708442688,0.09492917358875275,0.0054632085375487804
1789059099290305800,10.165305908203125,-0.16524967551231384,0.10248296707868576,0.04349581152200699
1789059099300316000,10.17531591796875,-0.18818801641464233,0.09426285326480865,0.04362524300813675
1789059099310325000,10.185324951171875,-0.22216808795928955,0.08160751312971115,0.017621338367462158
1789059099320334800,10.1953349609375,-0.24615304172039032,0.08850616216659546,-0.00010146643762709573
1789059099330345000,10.205344970703125,-0.29490646719932556,0.07552777975797653,-0.026221217587590218
1789059099340354800,10.215354736328125,-0.3005465269088745,0.05927983671426773,0.0034525219816714525
1789059099350365000,10.225364990234375,-0.29134076833724976,0.07437436282634735,-0.0026642263401299715
1789059099360375000,10.235375,-0.273430734872818,0.06365408003330231,0.027576500549912453
1789059099370384600,10.245384521484375,-0.2720024883747101,0.047871120274066925,0.006658701691776514
1789059099380394800,10.255394775390625,-0.22349913418293,0.05220993980765343,0.032339829951524734
1789059099390404600,10.265404541015625,-0.20825280249118805,0.0381588377058506,0.0028996497858315706
1789059099400414700,10.275414794921875,-0.21035617589950562,0.044309407472610474,0.0018210695125162601
1789059099410424800,10.2854248046875,-0.21407900750637054,0.052068792283535004,-0.0001174454009742476
1789059099420434700,10.2954345703125,-0.21765802800655365,0.06047585979104042,-0.005858421791344881
1789059099430444800,10.30544482421875,-0.2048887014389038,0.0503246895968914,-0.01919233612716198
1789059099440454700,10.31545458984375,-0.18832437694072723,0.058336544781923294,-0.02768781967461109
1789059099450464800,10.32546484375,-0.18669238686561584,0.04384575039148331,-0.025124527513980865
1789059099460474600,10.335474609375,-0.18809986114501953,0.04653368145227432,0.0020487697329372168
1789059099470484700,10.345484619140626,-0.17929279804229736,0.04933612421154976,0.042333342134952545
1789059099480494800,10.355494873046876,-0.17479977011680603,0.03707998991012573,0.08067194372415543
1789059099490504700,10.365504638671876,-0.15974998474121094,0.018848521634936333,0.06614013761281967
1789059099500514800,10.375514892578124,-0.16535833477973938,0.02105468511581421,0.03608663007616997
1789059099510524700,10.385524658203124,-0.19396281242370605,0.011184477247297764,-0.09316322952508926
1789059099520534800,10.39553466796875,-0.18903356790542603,-0.000592287047766149,-0.07747747749090195
1789059099530544600,10.405544677734374,-0.1814478188753128,0.009003615006804466,0.04409236088395119
1789059099540554800,10.4155546875,-0.1940714716911316,0.0017603494925424457,0.003832288784906268
1789059099550564900,10.42556494140625,-0.17671085894107819,-0.021471736952662468,0.034749459475278854
1789059099560574700,10.43557470703125,-0.16541984677314758,-0.009666475467383862,0.12051070481538773
1789059099570584800,10.445584716796875,-0.12678377330303192,-0.045817553997039795,0.053589191287755966
1789059099580594700,10.4555947265625,-0.0825854241847992,-0.07309285551309586,0.037633128464221954
1789059099590604800,10.465604736328125,-0.09224630892276764,-0.05794639140367508,-0.02340412512421608
1789059099600615000,10.475614990234375,-0.09403461962938309,-0.059669189155101776,-0.08775435388088226
1789059099610624800,10.485624755859375,-0.14370496571063995,-0.049359291791915894,-0.07518822699785233
1789059099620635000,10.495634765625,-0.17590472102165222,-0.010778611525893211,0.011179417371749878
1789059099630644700,10.505644775390625,-0.12545166909694672,-0.02859223075211048,0.07449501007795334
1789059099640654800,10.51565478515625,-0.06596703082323074,-0.06796014308929443,0.08599773049354553
1789059099650664700,10.525664794921875,-0.03141384944319725,-0.07949988543987274,0.03930559381842613
1789059099660674800,10.5356748046875,-0.026616696268320084,-0.09241248667240143,0.01661333069205284
1789059099670685000,10.545684814453125,-0.052798498421907425,-0.07811877131462097,-0.025739451870322227
1789059099680694800,10.55569482421875,-0.05121232196688652,-0.06885603070259094,-0.022517293691635132
1789059099690705000,10.565704833984375,-0.0444130040705204,-0.06396779417991638,-0.0332048237323761
1789059099700714800,10.57571484375,-0.05029592663049698,-0.04776672273874283,0.007919175550341606
1789059099710724900,10.585724853515625,-0.010926949791610241,-0.06687463819980621,0.02594318427145481
1789059099720734700,10.595734619140625,0.03650607913732529,-0.07990068942308426,0.034746263176202774
1789059099730744800,10.605744873046875,0.06765308231115341,-0.08326559513807297,0.022705579176545143
1789059099740755000,10.6157548828125,0.07604336738586426,-0.079359270632267,-0.006383596919476986
1789059099750764800,10.625764892578125,0.07599596679210663,-0.06397631764411926,0.016717728227376938
1789059099760775000,10.63577490234375,0.0838237926363945,-0.06478964537382126,0.04296956956386566
1789059099770784800,10.64578466796875,0.053094908595085144,-0.048540372401475906,0.025675801560282707
1789059099780795000,10.655794921875,0.01537416223436594,-0.024141555652022362,0.00649731419980526
1789059099790804700,10.6658046875,0.05995521321892738,-0.05372128635644913,-0.03218536823987961
1789059099800813800,10.675813720703125,0.06571749597787857,-0.047086287289857864,-0.006690393202006817
1789059099810824000,10.685823974609375,0.049560096114873886,-0.056474193930625916,0.003591006388887763
1789059099820834000,10.695833984375,0.062303055077791214,-0.049007490277290344,0.02382756769657135
1789059099830844000,10.705843994140626,0.054544467478990555,-0.034261032938957214,0.030399184674024582
1789059099840854000,10.71585400390625,0.0358637236058712,-0.023856597021222115,0.046125683933496475
1789059099850863900,10.72586376953125,0.037992920726537704,-0.04000866785645485,0.054897602647542953
1789059099860874000,10.7358740234375,0.020228838548064232,-0.005146026145666838,0.04771053045988083
1789059099870883800,10.7458837890625,-0.0046506780199706554,-0.010686999186873436,-0.021277591586112976
1789059099880894000,10.75589404296875,-0.008709602057933807,-0.04960563778877258,-0.12879659235477448
1789059099890904000,10.765904052734374,-0.01248303521424532,-0.03401442617177963,0.09044041484594345
1789059099900914000,10.775913818359374,-0.011054248549044132,-0.008435030467808247,0.020240822806954384
1789059099910924000,10.785924072265624,-0.07977499067783356,0.005770271178334951,0.04947806894779205
1789059099920934000,10.795933837890624,-0.10208828747272491,0.01438160240650177,0.024212662130594254
1789059099930944000,10.805944091796874,-0.11418835818767548,0.011560249142348766,0.04183905944228172
1789059099940953900,10.815953857421874,-0.11624564975500107,-0.0024080302100628614,0.002269279444590211
1789059099950964000,10.8259638671875,-0.1047530472278595,-0.0041305627673864365,0.013140303082764149
1789059099960974000,10.83597412109375,-0.1217900812625885,-0.004255465231835842,-0.0034325483720749617
1789059099970984000,10.84598388671875,-0.14999641478061676,-0.009836118668317795,-0.009786850772798061
1789059099980994000,10.855994140625,-0.1497569978237152,-0.014217285439372063,-0.03345382958650589
1789059099991004000,10.86600390625,-0.1532638520002365,-0.014124607667326927,-0.049203500151634216
1789059100001014000,10.876013916015625,-0.15604445338249207,-0.01038339827209711,-0.011172226630151272
1789059100011024000,10.88602392578125,-0.15287689864635468,0.0008189220097847283,0.03443014621734619
1789059100021034000,10.896033935546875,-0.12968608736991882,-0.008927448652684689,0.05716235563158989
1789059100031044000,10.906044189453125,-0.09137598425149918,-0.0025931198615580797,0.04787937551736832
1789059100041054000,10.916053955078125,-0.08245812356472015,-0.0180509053170681,-0.00824727676808834
1789059100051064000,10.92606396484375,-0.07994010299444199,-0.0025212145410478115,0.0006897587445564568
1789059100061074000,10.936073974609375,-0.08119072765111923,0.0201627928763628,0.0016562198288738728
1789059100071084000,10.946083984375,-0.08561903238296509,0.017252756282687187,0.009493370540440083
1789059100081094100,10.95609423828125,-0.07732967287302017,0.017474064603447914,0.00791624654084444
1789059100091104000,10.96610400390625,-0.07946605980396271,0.02599458210170269,0.018675683066248894
1789059100101114000,10.976114013671875,-0.07569902390241623,0.0012958941515535116,-0.018611235544085503
1789059100111124000,10.9861240234375,-0.06042153388261795,0.006770288106054068,-0.005104480776935816
1789059100121134000,10.996134033203125,-0.0715990886092186,0.005525260232388973,-0.0029201561119407415
1789059100131144000,11.00614404296875,-0.07625216245651245,0.012371448799967766,0.016279904171824455
1789059100141154000,11.016154052734375,-0.0740920677781105,0.014448181726038456,-0.0011028150329366326
1789059100151164000,11.026163818359375,-0.05962764471769333,-0.007704791147261858,-0.05531518533825874
1789059100161173800,11.036173828125,-0.07148031145334244,0.007891212590038776,-0.02816931903362274
1789059100171183900,11.046183837890625,-0.07185528427362442,0.007053648587316275,0.0038812910206615925
1789059100181193700,11.05619384765625,-0.05542464181780815,0.008049936965107918,0.028404476121068
1789059100191203800,11.066203857421876,-0.042627353221178055,-0.0013185309944674373,0.035224832594394684
1789059100201214000,11.0762138671875,-0.03698677942156792,0.004770786967128515,0.037400368601083755
1789059100211223800,11.086223876953126,-0.031864456832408905,-0.003091397462412715,0.007172158919274807
1789059100221234000,11.09623388671875,-0.030886011198163033,-0.004835767671465874,-0.009108809754252434
1789059100231243800,11.106243896484376,-0.03446822986006737,-0.006084257736802101,-0.02094123512506485
1789059100241254000,11.11625390625,-0.04104916751384735,0.006916761863976717,-0.010150372050702572
1789059100251263700,11.126263671875,-0.04376692324876785,-0.012561597861349583,-0.019185412675142288
1789059100261273900,11.13627392578125,-0.03542882949113846,0.004848817363381386,0.0033212280832231045
1789059100271284000,11.146283935546874,-0.039204925298690796,-0.0036370791494846344,0.013587714172899723
1789059100281292800,11.156292724609376,-0.04728655517101288,-0.013346964493393898,0.0300202164798975
1789059100291303000,11.166302978515626,-0.05083628371357918,-0.01218742411583662,0.021809425204992294
1789059100301313000,11.17631298828125,-0.056170329451560974,-0.03117629513144493,0.02021525613963604
1789059100311323000,11.186322998046874,-0.06865895539522171,-0.027102457359433174,0.00009081379539566115
1789059100321333000,11.1963330078125,-0.10175618529319763,-0.018854115158319473,-0.014976552687585354
1789059100331342800,11.2063427734375,-0.11905848234891891,-0.032759010791778564,-0.025495773181319237
1789059100341353000,11.21635302734375,-0.1452253758907318,-0.03245408087968826,0.00045353634050115943
1789059100351362800,11.22636279296875,-0.1547195315361023,-0.03524906560778618,0.015517973341047764
1789059100361373000,11.236373046875,-0.14395929872989655,-0.0478878952562809,0.029647907242178917
1789059100371383000,11.246383056640624,-0.14570394158363342,-0.07813528180122375,0.00256462418474257
1789059100381393000,11.256392822265624,-0.1638680249452591,-0.07116818428039551,0.03272758796811104
1789059100391403000,11.266403076171875,-0.17216937243938446,-0.05932297930121422,0.042991939932107925
1789059100401412900,11.276412841796875,-0.1675375998020172,-0.08067779988050461,0.02479110099375248
1789059100411423000,11.286423095703125,-0.15057086944580078,-0.09184630215167999,-0.022185729816555977
1789059100421433000,11.29643310546875,-0.1447145789861679,-0.09480533748865128,-0.021682925522327423
1789059100431443000,11.30644287109375,-0.14801450073719025,-0.10011887550354004,-0.003316967049613595
1789059100441453000,11.316453125,-0.13136841356754303,-0.08831148594617844,-0.02166081964969635
1789059100451463000,11.326462890625,-0.11366265267133713,-0.08537109196186066,-0.010402306914329529
1789059100461473000,11.33647314453125,-0.09234990179538727,-0.10706200450658798,-0.009032643400132656
1789059100471483000,11.34648291015625,-0.06752338260412216,-0.09491479396820068,0.04950390383601189
1789059100481493000,11.356492919921875,-0.0401383638381958,-0.09572146832942963,0.053847786039114
1789059100491503000,11.366503173828125,-0.024987109005451202,-0.10391467809677124,0.028857214376330376
1789059100501513000,11.376512939453125,-0.00959696713835001,-0.09580721706151962,-0.0005174521938897669
1789059100511523000,11.386523193359375,0.007835285738110542,-0.08649308234453201,-0.03629249334335327
1789059100521533000,11.396532958984375,0.05306348577141762,-0.08460915833711624,-0.037149231880903244
1789059100531543000,11.40654296875,0.09382928907871246,-0.08101948350667953,-0.04182068258523941
1789059100541553000,11.416552978515625,0.1391429752111435,-0.07350724190473557,0.008073905482888222
1789059100551563000,11.42656298828125,0.1864311248064041,-0.06805708259344101,0.029332322999835014
1789059100561573000,11.436572998046875,0.21940451860427856,-0.057673417031764984,0.06469856947660446
1789059100571583000,11.4465830078125,0.23740775883197784,-0.06753004342317581,0.042928025126457214
1789059100581593000,11.456593017578125,0.24535277485847473,-0.05518336221575737,0.01546550914645195
1789059100591603000,11.46660302734375,0.2095811814069748,-0.054189734160900116,-0.017247429117560387
1789059100601613000,11.476613037109376,0.18069733679294586,-0.040771931409835815,-0.019025355577468872
1789059100611623200,11.486623046875,0.15034982562065125,-0.034443195909261703,0.017557421699166298
1789059100621633000,11.496633056640626,0.1407155692577362,-0.027178358286619186,0.0009326389990746975
1789059100631643000,11.506642822265626,0.17084604501724243,-0.0453118197619915,0.04085661843419075
1789059100641652700,11.51665283203125,0.16487257182598114,-0.05441717058420181,-0.03753006458282471
1789059100651662800,11.526662841796876,0.1488395482301712,-0.035716719925403595,-0.008347145281732082
1789059100661672700,11.536672607421876,0.13262303173542023,-0.045591454952955246,-0.023623570799827576
1789059100671682800,11.546682861328126,0.11689838767051697,-0.041554100811481476,0.0023555660154670477
1789059100681693000,11.55669287109375,0.10059025883674622,-0.03308258578181267,-0.004061587154865265
1789059100691702300,11.566702392578126,0.10153354704380035,-0.040049947798252106,-0.02196149155497551
1789059100701712400,11.57671240234375,0.06433477997779846,-0.03801422566175461,-0.04218420386314392
1789059100711722500,11.586722412109374,0.045768287032842636,-0.04138312488794327,-0.020736170932650566
1789059100721732400,11.596732421875,0.027272900566458702,-0.02918078936636448,0.02190370112657547
1789059100731742500,11.606742431640624,-0.0006410228670574725,-0.04548226296901703,0.018431205302476883
1789059100741752300,11.61675244140625,-0.010931476950645447,-0.04477066546678543,0.017283115535974503
1789059100751762400,11.626762451171874,-0.021978534758090973,-0.05537058040499687,-0.004277835600078106
1789059100761772300,11.636772216796874,-0.03785843402147293,-0.06319920718669891,-0.020439228042960167
1789059100771781400,11.646781494140624,-0.07330803573131561,-0.04723648726940155,-0.02539936639368534
1789059100781791500,11.65679150390625,-0.09081778675317764,-0.033177658915519714,-0.00878896377980709
1789059100791801300,11.66680126953125,-0.08771626651287079,-0.04699520394206047,0.013977334834635258
1789059100801811500,11.6768115234375,-0.0851505771279335,-0.05414313077926636,0.0059873186983168125
1789059100811821600,11.686821533203124,-0.06474650651216507,-0.06837958842515945,0.0009827064350247383
1789059100821831400,11.69683154296875,-0.03483574464917183,-0.0871167927980423,-0.003364637726917863
1789059100831841500,11.706841552734375,-0.04158179834485054,-0.08963747322559357,0.00986434891819954
1789059100841851400,11.716851318359375,-0.058455053716897964,-0.07908336818218231,0.005057076457887888
1789059100851861500,11.726861572265625,-0.06396380066871643,-0.06924378871917725,0.019651997834444046
1789059100861871400,11.736871337890625,-0.06432545930147171,-0.07960694283246994,0.035115376114845276
1789059100871881500,11.746881591796875,-0.03587943688035011,-0.09618086367845535,0.02364114671945572
1789059100881891600,11.7568916015625,-0.023331156000494957,-0.09899236261844635,0.019336679950356483
1789059100891901400,11.7669013671875,-0.013835654594004154,-0.10857494920492172,-0.005074919667094946
1789059100901911600,11.77691162109375,-0.005446164403110743,-0.10585053265094757,0.007480819243937731
1789059100911921400,11.78692138671875,-0.0002764361270237714,-0.10223555564880371,0.0025124261155724525
1789059100921931500,11.796931640625,0.015838084742426872,-0.07972811907529831,0.04703754931688309
1789059100931941600,11.806941650390625,0.02773868665099144,-0.09951487183570862,0.05162084847688675
1789059100941951200,11.816951171875,0.050286874175071716,-0.09526073932647705,0.05910752713680267
1789059100951961300,11.82696142578125,0.0739583820104599,-0.08953281491994858,0.009674731642007828
1789059100961971200,11.83697119140625,0.08641265332698822,-0.09587646275758743,-0.009437443688511848
1789059100971981300,11.846981201171875,0.09451612085103989,-0.09307508170604706,0.010176737792789936
1789059100981991200,11.8569912109375,0.08848858624696732,-0.07952119410037994,-0.025197764858603477
1789059100992001300,11.867001220703125,0.07839573919773102,-0.051848284900188446,-0.0033625070936977863
1789059101002011400,11.877011474609375,0.0986488088965416,-0.05921991541981697,-0.018282068893313408
1789059101012021200,11.887021240234375,0.13507366180419922,-0.07445532828569412,0.0496639609336853
1789059101022031400,11.89703125,0.14855964481830597,-0.07335064560174942,0.0341142937541008
1789059101032041200,11.907041259765625,0.13346858322620392,-0.04792225360870361,0.037520211189985275
1789059101042051300,11.91705126953125,0.11718068271875381,-0.03470525145530701,-0.0006474144756793976
1789059101052061400,11.9270615234375,0.11021865159273148,-0.04280126094818115,0.0039175101555883884
1789059101062071300,11.9370712890625,0.12853799760341644,-0.062360312789678574,-0.017074856907129288
1789059101072081400,11.947081298828126,0.12651187181472778,-0.05049779638648033,0.002127066720277071
1789059101082091300,11.95709130859375,0.13336871564388275,-0.058991413563489914,0.017182981595396996
1789059101092101400,11.967101318359376,0.14063221216201782,-0.0640503540635109,0.01302418950945139
1789059101102111200,11.977111328125,0.12982110679149628,-0.062366437166929245,0.03666240721940994
1789059101112121300,11.987121337890626,0.1390383094549179,-0.060257747769355774,0.01811056025326252
1789059101122131500,11.99713134765625,0.1264287829399109,-0.05360836535692215,0.03340962156653404
1789059101132141300,12.007141357421874,0.12178502231836319,-0.04832066223025322,0.004988367203623056
1789059101142151400,12.0171513671875,0.10075643658638,-0.041120804846286774,0.03181705251336098
1789059101152161300,12.027161376953124,0.09615609049797058,-0.05609442666172981,-0.02443237230181694
1789059101162171400,12.03717138671875,0.08713064342737198,-0.04993746429681778,0.018699651584029198
1789059101172181200,12.04718115234375,0.11390180140733719,-0.06197415664792061,-0.05403047800064087
1789059101182191400,12.05719140625,0.11134196817874908,-0.09253019839525223,-0.020500214770436287
1789059101192201500,12.067201416015624,0.12320715188980103,-0.07016923278570175,-0.033005353063344955
1789059101202210300,12.077210205078124,0.09380905330181122,-0.08298783004283905,0.020869063213467598
1789059101212220400,12.087220458984374,0.09425273537635803,-0.06853272020816803,-0.006819556467235088
